time,seconds_elapsed,z,y,x
1777560288227855000,0.322855224609375,0,0,0
1777560288246385200,0.34138525390625,-0.058051109313964844,0.0032892227172851562,0.08744031190872192
1777560288264915000,0.3599150390625,0.006650447845458984,0.08014488220214844,0.1712198257446289
1777560288283445000,0.378445068359375,0.21006417274475098,0.11139583587646484,0.26307713985443115
1777560288311240000,0.406239990234375,0.04104280471801758,0.1970806121826172,0.5426198244094849
1777560288348299500,0.443299560546875,-0.154404878616333,0.3289146423339844,0.4521580934524536
1777560288366829600,0.46182958984375,0.02191615104675293,0.048872947692871094,0.1726231575012207
1777560288385359600,0.480359619140625,0.24643325805664062,-0.39572906494140625,-0.0077430009841918945
1777560288403889400,0.498889404296875,0.532555103302002,-0.7067022323608398,-0.3886770009994507
1777560288422419200,0.517419189453125,0.7115480899810791,-0.7785377502441406,-1.0369659662246704
1777560288440949200,0.53594921875,0.6641411781311035,-0.6763849258422852,-1.367262363433838
1777560288459479300,0.554479248046875,0.182722806930542,-0.5019998550415039,-1.3429820537567139
1777560288478009000,0.573009033203125,-0.1698622703552246,-0.3012723922729492,-0.9710925817489624
1777560288496539000,0.591538818359375,-0.6495969295501709,-0.16063499450683594,-0.6977161169052124
1777560288515069000,0.61006884765625,-0.8946605920791626,0.1147909164428711,-0.10619139671325684
1777560288533599000,0.628598876953125,-0.46538877487182617,0.44715309143066406,0.2729038596153259
1777560288552128800,0.647128662109375,0.016111135482788086,0.8974571228027344,0.6509034037590027
1777560288570658600,0.665658447265625,-0.006510019302368164,1.198625087738037,0.9394102096557617
1777560288589188600,0.684188720703125,0.12332272529602051,1.027237892150879,0.9183449745178223
1777560288607718400,0.702718505859375,0.13452982902526855,0.3104686737060547,0.5946990251541138
1777560288626248400,0.72124853515625,0.20726895332336426,-0.5785503387451172,0.47245049476623535
1777560288644778200,0.7397783203125,0.2241382598876953,-1.2589502334594727,0.4430285692214966
1777560288663308300,0.758308349609375,0.579901933670044,-1.5997791290283203,0.31806886196136475
1777560288681838000,0.776838134765625,1.107802391052246,-1.8600358963012695,0.03539013862609863
1777560288700368100,0.7953681640625,1.1641700267791748,-1.8990039825439453,-0.5238891839981079
1777560288718898200,0.813898193359375,1.2530183792114258,-1.1496620178222656,-1.002553939819336
1777560288737428000,0.832427978515625,1.0206444263458252,0.4575233459472656,-0.7280772924423218
1777560288755957800,0.850957763671875,0.7964692115783691,1.7755184173583984,-0.448073148727417
1777560288774487800,0.86948779296875,0.04096341133117676,1.7696027755737305,-0.3369879722595215
1777560288793017600,0.888017578125,-0.8312091827392578,1.154439926147461,0.11678171157836914
1777560288811547600,0.906547607421875,-0.5458773374557495,0.3415966033935547,0.6261893510818481
1777560288830077400,0.925077392578125,0.019572973251342773,-0.5171375274658203,0.7497628927230835
1777560288848607500,0.943607421875,-0.10752320289611816,-0.7672452926635742,0.9533252716064453
1777560288867137300,0.96213720703125,-0.8192881345748901,-0.2806062698364258,1.2501031160354614
1777560288885667300,0.980667236328125,-1.1391549110412598,0.6121807098388672,1.632258653640747
1777560288904197000,0.999197021484375,-1.240818738937378,0.7797508239746094,1.9041130542755127
1777560288922727000,1.017726806640625,-1.1876640319824219,0.19597625732421875,1.6067360639572144
1777560288941257000,1.036257080078125,-2.131301164627075,-0.9995994567871094,0.28773605823516846
1777560288959787000,1.054787109375,-2.6443498134613037,-1.905655860900879,-0.9550077319145203
1777560288978316800,1.07331689453125,-2.407170295715332,-2.116593360900879,-2.184091091156006
1777560288996846600,1.0918466796875,-1.511361837387085,-0.9338588714599609,-3.1087703704833984
1777560289015376600,1.110376708984375,-0.7749283909797668,0.36760807037353516,-2.8385443687438965
1777560289033906400,1.128906494140625,-0.762727677822113,0.4779090881347656,-1.7842299938201904
1777560289052436500,1.1474365234375,-0.3436110019683838,0.1827564239501953,-0.0282517671585083
1777560289070966300,1.16596630859375,-0.2478388100862503,-0.1722116470336914,1.1585273742675781
1777560289089496000,1.18449609375,-0.22759035229682922,-0.15360260009765625,1.5623594522476196
1777560289108026000,1.203026123046875,0.6499564051628113,-0.35022926330566406,1.1328661441802979
1777560289126556200,1.22155615234375,0.5165678262710571,-0.41301441192626953,-0.007366836071014404
1777560289145086000,1.2400859375,0.07867884635925293,0.033931732177734375,-1.127424716949463
1777560289163615700,1.25861572265625,-0.5895479917526245,1.014634132385254,-1.719724416732788
1777560289182145800,1.277145751953125,-1.5730502605438232,1.2071714401245117,-2.4080450534820557
1777560289200675600,1.295675537109375,-0.9951040744781494,0.871337890625,-2.5436899662017822
1777560289219205600,1.31420556640625,0.8063207268714905,0.255859375,-1.8540245294570923
1777560289237735400,1.3327353515625,1.5308791399002075,-0.23360729217529297,-1.149792194366455
1777560289256265500,1.351265380859375,0.6227744817733765,-0.3571786880493164,-0.5748060941696167
1777560289274795300,1.369795166015625,0.020209908485412598,-0.12079620361328125,-0.2886938452720642
1777560289293325000,1.388324951171875,-0.35478246212005615,0.04956340789794922,-0.39975157380104065
1777560289311855000,1.406855224609375,-0.20447564125061035,0.27999210357666016,-0.4800037741661072
1777560289330385200,1.42538525390625,0.029364824295043945,0.06598281860351562,-0.22383689880371094
1777560289348915000,1.4439150390625,0.19558000564575195,-0.41249752044677734,0.21584296226501465
1777560289367444700,1.46244482421875,0.7348400354385376,-0.6402368545532227,0.5098302960395813
1777560289385974800,1.480974853515625,1.2367663383483887,-0.6159543991088867,0.5245476961135864
1777560289404504600,1.499504638671875,0.9565300941467285,-0.3676462173461914,0.13576051592826843
1777560289423034600,1.51803466796875,0.723326563835144,0.020769119262695312,-0.22267863154411316
1777560289441564400,1.536564453125,0.7965251207351685,0.23292255401611328,-0.6639478802680969
1777560289460094200,1.55509423828125,0.2981942892074585,0.08897590637207031,-1.2454166412353516
1777560289478624300,1.573624267578125,-0.1969130039215088,-0.40146446228027344,-1.5940101146697998
1777560289497154000,1.592154052734375,-0.0555499792098999,-0.625086784362793,-1.6579687595367432
1777560289515684000,1.61068408203125,0.2993096113204956,-0.5639677047729492,-1.4832671880722046
1777560289534214000,1.6292138671875,0.44019603729248047,-0.4733085632324219,-1.1182656288146973
1777560289552744000,1.647743896484375,0.279438853263855,-0.33937644958496094,-0.9791852235794067
1777560289571273700,1.666273681640625,0.7647690773010254,-0.041080474853515625,-1.1788073778152466
1777560289589803800,1.6848037109375,1.16757071018219,0.06443119049072266,-1.741607904434204
1777560289608333600,1.70333349609375,1.385955572128296,-0.2900733947753906,-2.1950669288635254
1777560289626863400,1.72186328125,1.4327632188796997,-0.6826486587524414,-2.058222770690918
1777560289645393400,1.740393310546875,1.540090560913086,-1.614013671875,-1.6548362970352173
1777560289663923200,1.758923095703125,1.8961596488952637,-2.6479368209838867,-1.407244086265564
1777560289682453200,1.777453369140625,2.044510841369629,-3.2731246948242188,-1.4641746282577515
1777560289700983000,1.795983154296875,2.2791805267333984,-3.377420425415039,-1.8355755805969238
1777560289719512800,1.814512939453125,2.2829160690307617,-2.7778806686401367,-2.324483871459961
1777560289738043000,1.83304296875,1.8558762073516846,-1.3965320587158203,-2.3131792545318604
1777560289756572700,1.85157275390625,1.4137533903121948,0.6665811538696289,-1.3431003093719482
1777560289775102700,1.870102783203125,1.3298957347869873,1.9871959686279297,0.12096577882766724
1777560289793632500,1.888632568359375,1.7031424045562744,1.7358999252319336,0.6478497982025146
1777560289812162600,1.90716259765625,1.118479609489441,0.3024864196777344,-0.47905099391937256
1777560289830692400,1.9256923828125,-0.936057448387146,-1.8360204696655273,-1.412023663520813
1777560289849222400,1.944222412109375,-2.273314952850342,-3.7352113723754883,-0.7052305340766907
1777560289867752200,1.962752197265625,-3.262016773223877,-4.569252967834473,0.6556817293167114
1777560289886282200,1.9812822265625,-3.474700927734375,-3.5499677658081055,1.6801047325134277
1777560289904812000,1.99981201171875,-2.7912304401397705,-1.841181755065918,1.266763687133789
1777560289923341800,2.018341796875,-1.7329862117767334,-0.8366861343383789,1.3647507429122925
1777560289941871900,2.036871826171875,-3.316598415374756,-0.4266195297241211,1.0599098205566406
1777560289960401700,2.055401611328125,-3.2003438472747803,-0.5823230743408203,-0.2829873561859131
1777560289978931700,2.073931640625,-1.8266836404800415,-0.9701728820800781,-1.6710376739501953
1777560289997461500,2.09246142578125,-3.0595688819885254,-0.6823101043701172,-1.6482454538345337
1777560290015991300,2.1109912109375,-5.06452751159668,0.42362308502197266,-0.6950998902320862
1777560290034521300,2.129521240234375,-4.941262722015381,1.8736987113952637,0.4930819272994995
1777560290053051100,2.148051025390625,-5.245908737182617,2.438617706298828,0.5841643810272217
1777560290071581200,2.166581298828125,-4.212001800537109,2.3131065368652344,0.47777557373046875
1777560290090111000,2.185111083984375,-3.2742371559143066,2.353734016418457,0.8407183885574341
1777560290108641000,2.20364111328125,-2.752078056335449,2.700943946838379,1.488890290260315
1777560290127170800,2.2221708984375,-2.176255941390991,3.3067121505737305,2.2342395782470703
1777560290145700900,2.240700927734375,-1.893547773361206,3.7044811248779297,1.9090793132781982
1777560290164230700,2.259230712890625,-1.2349839210510254,3.633152961730957,1.1394888162612915
1777560290182760400,2.277760498046875,-1.195894479751587,3.0288591384887695,0.4238247871398926
1777560290201290500,2.29629052734375,-1.0521676540374756,2.289503574371338,0.28026604652404785
1777560290219820300,2.3148203125,0.1754775047302246,1.5090608596801758,0.9431841373443604
1777560290238350300,2.333350341796875,1.7430219650268555,0.24953269958496094,1.1893293857574463
1777560290256880000,2.351880126953125,3.486140727996826,-1.9808320999145508,0.1309058666229248
1777560290275410000,2.370409912109375,5.914624214172363,-4.942136764526367,-2.043994188308716
1777560290293940000,2.38893994140625,6.901409149169922,-6.713946342468262,-3.4835634231567383
1777560290312469800,2.4074697265625,5.089224815368652,-5.096113204956055,-2.370438575744629
1777560290330999800,2.425999755859375,2.2256217002868652,-1.2011184692382812,-0.7185097932815552
1777560290349529600,2.444529541015625,0.28755688667297363,2.103299617767334,0.9410492777824402
1777560290368059600,2.4630595703125,-0.6249141693115234,4.670422554016113,2.057170867919922
1777560290386589400,2.48158935546875,-1.0697219371795654,5.4330010414123535,2.2474210262298584
1777560290405119500,2.500119384765625,-1.0006704330444336,2.8944215774536133,2.6535425186157227
1777560290423649300,2.518649169921875,0.7784574031829834,-1.7975664138793945,3.913135051727295
1777560290442179000,2.537178955078125,4.75377893447876,-7.452603340148926,4.124024391174316
1777560290460709000,2.555709228515625,1.1211364269256592,-9.618452072143555,2.6695995330810547
1777560290479239000,2.574239013671875,-3.3171544075012207,-3.3627490997314453,1.199681043624878
1777560290497769000,2.59276904296875,-7.242789268493652,4.306147575378418,0.8914463520050049
1777560290516298800,2.611298828125,-7.162556171417236,7.249208927154541,2.7255983352661133
1777560290534828800,2.629828857421875,-3.82275652885437,7.073533535003662,4.7198662757873535
1777560290553358600,2.648358642578125,-3.384805679321289,4.62137508392334,1.6910459995269775
1777560290571888600,2.666888671875,-6.277730941772461,-0.2868995666503906,-1.984055757522583
1777560290590418400,2.68541845703125,-6.38333797454834,-5.958160400390625,-4.0362868309021
1777560290608948200,2.7039482421875,-3.2117278575897217,-8.985760688781738,-5.613147258758545
1777560290627478300,2.722478271484375,-0.9336778521537781,-5.094173431396484,-6.217901229858398
1777560290646008000,2.741008056640625,0.33029675483703613,-1.1781988143920898,-4.121157169342041
1777560290664538000,2.7595380859375,-0.9817572832107544,0.8841876983642578,-1.0067596435546875
1777560290683068000,2.77806787109375,-1.5302855968475342,2.411010265350342,1.6884950399398804
1777560290701598000,2.796597900390625,-1.891071081161499,2.8909072875976562,3.117811679840088
1777560290720127700,2.815127685546875,0.5417701601982117,2.1148738861083984,2.434321641921997
1777560290738657500,2.833657470703125,0.9868344664573669,0.41738128662109375,0.4101777970790863
1777560290757187600,2.8521875,0.7067735195159912,-0.7974271774291992,-1.6311933994293213
1777560290775717600,2.870717529296875,0.5995645523071289,-0.08733367919921875,-1.8876811265945435
1777560290794247400,2.889247314453125,0.6505317091941833,0.9470224380493164,-1.9225127696990967
1777560290812777200,2.907777099609375,1.0993738174438477,1.0306930541992188,-1.7224376201629639
1777560290831307300,2.926307373046875,0.6437163352966309,0.9305047988891602,-1.105442762374878
1777560290849837000,2.944837158203125,-0.41511404514312744,0.8182249069213867,-0.6094398498535156
1777560290868367000,2.9633671875,-0.791327953338623,0.767308235168457,-0.41106942296028137
1777560290886897000,2.98189697265625,0.27039968967437744,0.45594310760498047,-0.2459547519683838
1777560290905426700,3.0004267578125,1.3412173986434937,-0.26326465606689453,-0.6442481875419617
1777560290923956700,3.018956787109375,2.4293363094329834,-0.7623252868652344,-0.733138382434845
1777560290942486800,3.03748681640625,2.0100972652435303,-1.1421852111816406,-0.8082653880119324
1777560290961016600,3.0560166015625,0.44131922721862793,-1.0172901153564453,-0.7648174166679382
1777560290979546400,3.07454638671875,0.2881509065628052,-0.6365470886230469,-0.9539471864700317
1777560290998076400,3.093076416015625,1.8109259605407715,-0.6942739486694336,-1.4551448822021484
1777560291016606200,3.111606201171875,1.8849232196807861,-1.1548805236816406,-1.8569886684417725
1777560291035136300,3.13013623046875,0.6067333221435547,-2.467245101928711,-2.090433120727539
1777560291053666000,3.148666015625,0.6108455657958984,-3.121609687805176,-1.7598800659179688
1777560291072196000,3.167196044921875,2.989795446395874,-3.146341323852539,-2.3267977237701416
1777560291090726000,3.185725830078125,3.1245503425598145,-2.5495433807373047,-3.4579782485961914
1777560291109256000,3.204255859375,3.0810556411743164,-2.184300422668457,-4.118048191070557
1777560291127785700,3.22278564453125,1.9065896272659302,-2.966639518737793,-4.545102119445801
1777560291146315800,3.241315673828125,1.850878357887268,-3.7348594665527344,-4.553490161895752
1777560291164845600,3.259845458984375,1.538127064704895,-2.8543472290039062,-2.8839385509490967
1777560291183375400,3.278375244140625,1.6694449186325073,-0.9337158203125,-0.03904831409454346
1777560291201905400,3.296905517578125,1.8694283962249756,0.774836540222168,1.2590785026550293
1777560291220435200,3.315435302734375,-1.1781977415084839,1.139510154724121,1.4818024635314941
1777560291238965200,3.33396533203125,-2.679314136505127,-0.2600364685058594,2.5488860607147217
1777560291257495000,3.3524951171875,-2.2409191131591797,-3.216472625732422,2.9509694576263428
1777560291276025000,3.371025146484375,-0.8053393363952637,-4.684125900268555,2.909209966659546
1777560291294555000,3.389554931640625,0.06913840770721436,-3.434817314147949,2.484065055847168
1777560291313085000,3.4080849609375,-1.461435079574585,-2.2300567626953125,1.8324580192565918
1777560291331614700,3.42661474609375,-4.6714677810668945,-1.191115379333496,0.8899251222610474
1777560291350144500,3.44514453125,-7.273368835449219,-0.7020664215087891,-0.8341203927993774
1777560291368674600,3.463674560546875,-4.479662895202637,-0.3500823974609375,-2.6731247901916504
1777560291387204600,3.48220458984375,-1.6035014390945435,-0.5969142913818359,-3.4636166095733643
1777560291405734400,3.500734375,-5.2841877937316895,-0.35657310485839844,-2.6224303245544434
1777560291424264200,3.51926416015625,-6.987957000732422,1.0968828201293945,-0.8535338044166565
1777560291442794200,3.537794189453125,-5.701963424682617,2.3023300170898438,0.402840793132782
1777560291461324000,3.556323974609375,-5.579641342163086,3.171445846557617,1.264096736907959
1777560291479854000,3.57485400390625,-4.983992576599121,3.9838104248046875,1.4072613716125488
1777560291498384000,3.5933837890625,-3.9762275218963623,4.4261393547058105,1.3050199747085571
1777560291516914000,3.611913818359375,-3.3486218452453613,4.350902557373047,1.0917859077453613
1777560291535443700,3.630443603515625,-1.8744895458221436,4.184327125549316,1.0740201473236084
1777560291553973800,3.648973876953125,-1.3155181407928467,4.474820137023926,1.068939447402954
1777560291572503600,3.667503662109375,-0.8300073146820068,4.7008442878723145,1.0111198425292969
1777560291591033300,3.686033447265625,0.695462703704834,3.9968395233154297,1.068908929824829
1777560291609563400,3.7045634765625,2.5569007396698,2.3782272338867188,1.4382703304290771
1777560291637358300,3.7323583984375,7.409073829650879,-3.1377649307250977,2.337284564971924
1777560291655888100,3.75088818359375,12.780871391296387,-11.809276580810547,-1.1699771881103516
1777560291674418200,3.769418212890625,7.365920066833496,-16.36739730834961,-4.676233291625977
1777560291692948000,3.787947998046875,1.8740713596343994,-6.972293853759766,-2.8828630447387695
1777560291711478000,3.80647802734375,-0.7812962532043457,2.650970458984375,0.25944870710372925
1777560291730007800,3.8250078125,-1.6497647762298584,8.284904479980469,0.7239022254943848
1777560291748537900,3.843537841796875,0.4786505699157715,10.372058868408203,2.952259063720703
1777560291767067600,3.862067626953125,2.0320816040039062,1.8228983879089355,1.85036301612854
1777560291785597700,3.88059765625,0.7471427917480469,-8.131073951721191,2.452808141708374
1777560291804127500,3.89912744140625,-1.5375285148620605,-11.210017204284668,5.9345197677612305
1777560291822657500,3.917657470703125,-16.706241607666016,-2.5667457580566406,3.2884562015533447
1777560291841187300,3.936187255859375,-8.790512084960938,4.928465843200684,7.7728190422058105
1777560291859717000,3.954717041015625,-1.6041004657745361,7.475945472717285,7.332070827484131
1777560291878247200,3.9732470703125,-2.676781177520752,7.7331037521362305,3.616213798522949
1777560291896777200,3.991777099609375,-8.498786926269531,4.944714546203613,0.6681032180786133
1777560291915307000,4.01030712890625,-10.816722869873047,-2.021636962890625,-0.23225194215774536
1777560291933836800,4.0288369140625,-6.074090957641602,-13.28589916229248,-3.275747060775757
1777560291952366800,4.047366943359375,-1.560182809829712,-11.012529373168945,-7.780820846557617
1777560291970896600,4.065896728515625,2.720113754272461,-3.7058792114257812,-8.410712242126465
1777560291989426700,4.0844267578125,1.4779303073883057,0.8446769714355469,-6.249941825866699
1777560292007956500,4.10295654296875,-1.3468701839447021,3.505774974822998,-1.4107331037521362
1777560292026486500,4.121486572265625,-2.591791868209839,4.144675254821777,2.5883209705352783
1777560292045016300,4.140016357421875,-1.1592744588851929,3.5479235649108887,4.433958530426025
1777560292063546400,4.15854638671875,1.4194655418395996,1.955437183380127,3.9172160625457764
1777560292082076200,4.177076171875,2.1415534019470215,-0.2414093017578125,1.2915138006210327
1777560292100606200,4.195606201171875,1.788407802581787,-0.5935325622558594,-1.6101325750350952
1777560292119136000,4.214135986328125,1.444617748260498,0.3789701461791992,-2.651655912399292
1777560292137666000,4.232666015625,-0.4278217554092407,1.157888412475586,-2.280135154724121
1777560292156195800,4.25119580078125,-1.73452627658844,1.9903984069824219,0.5377176403999329
1777560292174726000,4.269725830078125,-0.4103890657424927,1.815159797668457,2.2535107135772705
1777560292193255700,4.288255615234375,2.560153007507324,0.664219856262207,1.4749175310134888
1777560292211785700,4.30678564453125,2.5931477546691895,-0.7490501403808594,-1.5039907693862915
1777560292230315500,4.3253154296875,0.6221867799758911,-1.994614601135254,-4.235596179962158
1777560292248845600,4.343845458984375,0.7436513900756836,-2.22536563873291,-5.687847137451172
1777560292267375400,4.362375244140625,2.3756561279296875,-1.7972078323364258,-5.722306728363037
1777560292285905400,4.380905517578125,3.6584551334381104,-1.7318096160888672,-3.6729469299316406
1777560292304435200,4.399435302734375,2.7853128910064697,-1.400862693786621,-1.3153102397918701
1777560292322965200,4.41796533203125,0.9960378408432007,-1.458444595336914,-0.27896225452423096
1777560292341495000,4.4364951171875,1.5262880325317383,-2.0676231384277344,-0.44551074504852295
1777560292360025000,4.455025146484375,3.043520927429199,-2.722869873046875,-1.1240324974060059
1777560292378555000,4.473554931640625,1.942723035812378,-3.020087242126465,-2.2196574211120605
1777560292397085000,4.4920849609375,1.4309773445129395,-3.2523975372314453,-3.4131555557250977
1777560292415614700,4.51061474609375,1.655382513999939,-4.391936302185059,-4.213101863861084
1777560292434144800,4.529144775390625,1.8030147552490234,-4.8265581130981445,-3.8002662658691406
1777560292452674600,4.547674560546875,2.3270955085754395,-3.007868766784668,-0.5585850477218628
1777560292471204600,4.56620458984375,3.2430553436279297,-0.36568546295166016,2.3740618228912354
1777560292489734400,4.584734375,-0.5180758237838745,0.38454151153564453,2.515760660171509
1777560292508264400,4.603264404296875,-3.3277087211608887,-0.38462162017822266,3.10445237159729
1777560292526794200,4.621794189453125,-3.161147356033325,-2.5214624404907227,3.1303319931030273
1777560292545324300,4.64032421875,-0.9008467197418213,-3.508983612060547,2.4365391731262207
1777560292563854000,4.65885400390625,-0.19821429252624512,-2.233539581298828,1.0403233766555786
1777560292582383900,4.6773837890625,-2.068991184234619,-1.4172935485839844,-0.13139241933822632
1777560292600914000,4.695913818359375,-3.214550495147705,-0.9843711853027344,-0.5098187923431396
1777560292619444000,4.71444384765625,-4.39871072769165,-0.9229869842529297,-0.8317424058914185
1777560292637973800,4.732973876953125,-5.401591777801514,-0.40392589569091797,-1.17890465259552
1777560292656503800,4.75150390625,-4.329135417938232,0.1573944091796875,-1.5598793029785156
1777560292675033600,4.77003369140625,-4.629201889038086,0.35941505432128906,-2.0240025520324707
1777560292693563600,4.788563720703125,-5.31941032409668,0.2395343780517578,-1.0916264057159424
1777560292712093700,4.80709375,-5.6084136962890625,0.5759449005126953,0.17221415042877197
1777560292730623500,4.82562353515625,-5.829367160797119,1.3328652381896973,1.260219931602478
1777560292749153300,4.8441533203125,-5.365957736968994,2.468931198120117,1.7772910594940186
1777560292767683300,4.862683349609375,-4.6009039878845215,3.497331142425537,0.9530630111694336
1777560292786213400,4.88121337890625,-3.4052975177764893,3.7921338081359863,0.3452244997024536
1777560292804743200,4.8997431640625,-2.2451419830322266,3.7829747200012207,0.6498080492019653
1777560292823273000,4.91827294921875,-1.4838292598724365,4.029515743255615,1.2890208959579468
1777560292841803000,4.936802978515625,-1.244886875152588,4.353259086608887,1.2063332796096802
1777560292860333000,4.9553330078125,-0.6027183532714844,3.8637747764587402,1.2662431001663208
1777560292878862800,4.97386279296875,0.4371070861816406,2.6298389434814453,1.0169605016708374
1777560292897392600,4.992392578125,1.7916896343231201,1.3665790557861328,1.2058062553405762
1777560292915922700,5.010922607421875,3.462735652923584,-0.04756641387939453,2.064082622528076
1777560292934452700,5.02945263671875,7.4029998779296875,-3.045254707336426,2.277743339538574
1777560292952982500,5.047982421875,11.418874740600586,-10.191442489624023,-0.8803036212921143
1777560292971512600,5.0665126953125,4.845369338989258,-13.046481132507324,-4.173702239990234
1777560292990042400,5.08504248046875,1.9646763801574707,-3.6974411010742188,-1.755159616470337
1777560293008572400,5.103572509765625,0.3909125328063965,5.28414249420166,1.4920960664749146
1777560293027102200,5.122102294921875,-1.445906162261963,10.002010345458984,1.640573501586914
1777560293045632300,5.14063232421875,-2.280499219894409,10.061471939086914,2.594430446624756
1777560293064162300,5.159162353515625,1.8680338859558105,2.7945027351379395,4.884039402008057
1777560293082692000,5.177692138671875,3.7485594749450684,-9.622779846191406,3.5796284675598145
1777560293101222000,5.196221923828125,-2.4022436141967773,-16.518505096435547,4.396615982055664
1777560293119752000,5.214751953125,-12.075429916381836,-6.602112770080566,-1.4396898746490479
1777560293138282000,5.233281982421875,-8.924115180969238,4.4394121170043945,2.919294834136963
1777560293156811800,5.251811767578125,-3.2633237838745117,8.603102684020996,5.259169578552246
1777560293175341800,5.270341796875,-2.469486713409424,8.388774871826172,3.6071457862854004
1777560293193871600,5.28887158203125,-6.342726707458496,6.19638204574585,1.2823480367660522
1777560293212401700,5.307401611328125,-10.142491340637207,1.2411746978759766,0.21327197551727295
1777560293230931700,5.325931640625,-8.696333885192871,-8.114225387573242,-0.4633687734603882
1777560293249461500,5.34446142578125,-3.3367154598236084,-15.504365921020508,-4.618890762329102
1777560293267991300,5.3629912109375,2.086495876312256,-6.3073225021362305,-6.535767078399658
1777560293286521300,5.381521240234375,3.098037004470825,-0.9523839950561523,-5.911837577819824
1777560293305051400,5.400051513671875,0.676349937915802,2.315150260925293,-2.5099241733551025
1777560293323581200,5.418581298828125,-1.4867233037948608,4.0819573402404785,0.9466532468795776
1777560293342111200,5.437111328125,-3.1320111751556396,4.37094259262085,2.900564193725586
1777560293360641000,5.45564111328125,-2.014533042907715,3.3910961151123047,3.2498137950897217
1777560293379171000,5.474171142578125,-0.1702820062637329,0.7385435104370117,2.2112977504730225
1777560293397700900,5.492700927734375,2.063270092010498,-2.3324575424194336,-0.18544572591781616
1777560293416231000,5.51123095703125,2.9444830417633057,-1.8478097915649414,-2.0078885555267334
1777560293434761000,5.529760986328125,2.0400755405426025,0.45546531677246094,-2.3837368488311768
1777560293453290800,5.548290771484375,-0.8065782189369202,2.155056953430176,-1.4365125894546509
1777560293471820500,5.566820556640625,-3.0333776473999023,2.524362564086914,-0.1748710572719574
1777560293490350600,5.5853505859375,-1.5810719728469849,1.9136204719543457,0.05537387728691101
1777560293508880600,5.603880615234375,1.0088576078414917,0.8253974914550781,-0.9000265598297119
1777560293527410400,5.622410400390625,1.9160664081573486,0.023162841796875,-1.764036774635315
1777560293545940500,5.6409404296875,1.3496403694152832,-0.3430309295654297,-1.9659051895141602
1777560293564470300,5.65947021484375,0.7066923379898071,-0.5672607421875,-1.494232177734375
1777560293583000300,5.678000244140625,1.0430471897125244,-0.5800695419311523,-0.934057354927063
1777560293601530400,5.6965302734375,1.8568063974380493,-0.7905454635620117,-1.1372787952423096
1777560293620060200,5.71506005859375,2.2929322719573975,-1.2972068786621094,-1.8917077779769897
1777560293638590200,5.733590087890625,2.392261028289795,-1.542062759399414,-2.3615260124206543
1777560293657120000,5.7521201171875,1.1259033679962158,-1.3475723266601562,-2.1661362648010254
1777560293675650000,5.770650146484375,0.1284925937652588,-1.5803403854370117,-1.3872945308685303
1777560293694179800,5.789179931640625,1.4278401136398315,-2.1998977661132812,-0.6858141422271729
1777560293712710000,5.8077099609375,3.7022805213928223,-2.8744077682495117,-0.9615340828895569
1777560293731240000,5.826239990234375,3.455451011657715,-2.686450958251953,-1.501023292541504
1777560293749769700,5.844769775390625,2.1456804275512695,-3.09539794921875,-3.3433609008789062
1777560293768299500,5.863299560546875,1.1839264631271362,-3.8657665252685547,-4.920521259307861
1777560293786829600,5.88182958984375,1.3873786926269531,-4.435161590576172,-5.519583225250244
1777560293805359600,5.900359619140625,2.5543298721313477,-3.887911796569824,-3.49455189704895
1777560293823889400,5.918889404296875,3.0152976512908936,-0.8883113861083984,1.030578851699829
1777560293842419500,5.93741943359375,2.9137353897094727,0.7821550369262695,2.31040096282959
1777560293860949200,5.95594921875,1.2446893453598022,1.0426816940307617,1.7583855390548706
1777560293879479300,5.974479248046875,-1.8308875560760498,-0.3358907699584961,1.8624964952468872
1777560293898009000,5.993009033203125,-3.6210598945617676,-2.730022430419922,2.2952699661254883
1777560293916539100,6.0115390625,-2.258054256439209,-3.8537845611572266,2.350536823272705
1777560293935069200,6.030069091796875,-0.9802006483078003,-2.874026298522949,1.228360891342163
1777560293953599000,6.048598876953125,-1.5401029586791992,-1.7823925018310547,0.09670722484588623
1777560293972129000,6.06712890625,-3.477442741394043,-1.517068862915039,-0.5905404686927795
1777560293990658800,6.085658935546875,-4.884838104248047,-1.1854782104492188,-0.962105393409729
1777560294009188900,6.10418896484375,-1.9795846939086914,-0.3647804260253906,-0.8715358972549438
1777560294027718700,6.12271875,-1.9239592552185059,-0.4803495407104492,-1.2775524854660034
1777560294046248700,6.141248779296875,-4.408023357391357,-0.4801750183105469,-1.4243415594100952
1777560294064778800,6.15977880859375,-5.146086692810059,-0.04561424255371094,-0.7596029043197632
1777560294083308500,6.17830859375,-5.61617374420166,0.9995908737182617,0.29069387912750244
1777560294101838600,6.196838623046875,-6.502493858337402,2.110280990600586,1.0535717010498047
1777560294120368400,6.215368408203125,-5.4511871337890625,3.0150060653686523,1.0611903667449951
1777560294138898400,6.2338984375,-4.639296054840088,3.347771167755127,0.5896031856536865
1777560294157428500,6.252428466796875,-3.745698928833008,3.282036781311035,0.43598127365112305
1777560294175958300,6.270958251953125,-3.3426926136016846,3.2283692359924316,0.8612412214279175
1777560294194488300,6.28948828125,-2.486280679702759,3.639927864074707,0.9957389831542969
1777560294213018000,6.30801806640625,-1.700613260269165,4.611208438873291,0.7628092765808105
1777560294231548200,6.326548095703125,-0.8322312831878662,4.8408203125,0.7365474700927734
1777560294250078000,6.345077880859375,0.4981234073638916,3.953937530517578,0.6131807565689087
1777560294268608000,6.36360791015625,2.479835033416748,2.383852005004883,1.0318883657455444
1777560294287138000,6.382137939453125,4.48338508605957,-0.2630290985107422,1.7086169719696045
1777560294305667800,6.400667724609375,7.032596111297607,-4.489729881286621,2.0156102180480957
1777560294324198000,6.419197998046875,9.402620315551758,-11.035038948059082,-1.2009402513504028
1777560294342727700,6.437727783203125,4.489875793457031,-11.876565933227539,-4.2527360916137695
1777560294361257700,6.4562578125,2.0820658206939697,-3.551149368286133,-1.4627232551574707
1777560294379787500,6.47478759765625,0.7841901779174805,4.07582950592041,1.0050934553146362
1777560294398317600,6.493317626953125,-0.1151885986328125,8.626992225646973,1.4245716333389282
1777560294416847600,6.51184765625,-1.8541176319122314,9.605891227722168,1.9397101402282715
1777560294435377400,6.53037744140625,1.1204428672790527,5.39431095123291,2.6156113147735596
1777560294453907500,6.548907470703125,4.836657524108887,-2.867464065551758,3.1806583404541016
1777560294472437200,6.567437255859375,3.6702544689178467,-14.255831718444824,2.775951862335205
1777560294490967300,6.58596728515625,-0.12004351615905762,-15.106527328491211,3.1077957153320312
1777560294509497300,6.604497314453125,-9.46223258972168,-1.5849103927612305,-0.8451404571533203
1777560294528027100,6.623027099609375,-11.823731422424316,7.272997856140137,1.8943971395492554
1777560294546557200,6.64155712890625,-5.395615577697754,10.088736534118652,6.7776312828063965
1777560294565087000,6.6600869140625,-1.7726891040802002,9.46859073638916,6.230791091918945
1777560294583617000,6.678616943359375,-5.5754852294921875,6.936829090118408,2.1136603355407715
1777560294602146800,6.697146728515625,-10.456184387207031,1.3502635955810547,-0.24260854721069336
1777560294620676900,6.7156767578125,-8.142621994018555,-9.350990295410156,-1.5267565250396729
1777560294639207000,6.73420703125,-3.856783151626587,-17.10736083984375,-7.069321632385254
1777560294657736700,6.75273681640625,1.8173109292984009,-7.269008636474609,-8.45871353149414
1777560294676266800,6.771266845703125,2.890251636505127,-0.9223794937133789,-7.3415021896362305
1777560294694796500,6.789796630859375,1.2029693126678467,2.5395870208740234,-2.929495096206665
1777560294713326600,6.80832666015625,-1.5236986875534058,3.9396724700927734,0.6267759799957275
1777560294731856400,6.8268564453125,-3.404764175415039,4.362796306610107,2.5635392665863037
1777560294750386400,6.845386474609375,-1.352264404296875,3.334216594696045,2.7564220428466797
1777560294768916500,6.86391650390625,0.8022574782371521,1.0571918487548828,1.9696229696273804
1777560294787446300,6.8824462890625,2.882394313812256,-0.9125547409057617,0.4027382433414459
1777560294805976300,6.900976318359375,4.303492069244385,-0.7894840240478516,-1.2078421115875244
1777560294824506000,6.919506103515625,1.9003390073776245,0.7645330429077148,-1.9372726678848267
1777560294843036200,6.9380361328125,0.08082664012908936,1.358628273010254,-2.3299901485443115
1777560294861566000,6.95656591796875,-2.0074315071105957,1.8509149551391602,-1.2147419452667236
1777560294880096000,6.975095947265625,-2.0680134296417236,1.4383649826049805,-0.37874487042427063
1777560294898626000,6.9936259765625,1.6922610998153687,0.0704050064086914,-0.5609704256057739
1777560294917155800,7.01215576171875,4.132113456726074,-1.4294548034667969,-1.4899415969848633
1777560294935686000,7.030685791015625,3.1283864974975586,-2.0928916931152344,-1.9700109958648682
1777560294954215700,7.049215576171875,1.1293108463287354,-1.775167465209961,-1.0705485343933105
1777560294972745700,7.067745849609375,0.2490229606628418,-1.0767230987548828,-0.24824398756027222
1777560294991275800,7.08627587890625,1.4318567514419556,-0.6496105194091797,-0.3849310874938965
1777560295009805600,7.1048056640625,2.2648303508758545,-0.6577768325805664,-1.5984935760498047
1777560295028335600,7.123335693359375,1.7664592266082764,-1.4645872116088867,-2.305189371109009
1777560295046865400,7.141865478515625,1.8421437740325928,-2.740358352661133,-1.662275791168213
1777560295065395500,7.1603955078125,4.388770580291748,-4.012212753295898,-1.5167899131774902
1777560295083925200,7.17892529296875,5.161020278930664,-4.134326934814453,-2.518214702606201
1777560295102455300,7.197455322265625,3.3407373428344727,-3.8571996688842773,-4.183750152587891
1777560295120985300,7.2159853515625,2.01432204246521,-4.593720436096191,-5.326307773590088
1777560295139515100,7.23451513671875,2.893217086791992,-4.448534965515137,-5.321958065032959
1777560295158045200,7.253045166015625,2.232272148132324,-2.6371688842773438,-3.550477981567383
1777560295176575000,7.271574951171875,1.73855721950531,0.06673622131347656,-1.0822045803070068
1777560295195105000,7.29010498046875,1.0111163854599,1.361872673034668,0.04311549663543701
1777560295213634800,7.308634765625,-1.1972055435180664,0.10178947448730469,1.2158992290496826
1777560295232164900,7.327164794921875,-3.9268007278442383,-2.9898033142089844,2.9979653358459473
1777560295250695000,7.34569482421875,-4.293205738067627,-5.310595512390137,4.053624153137207
1777560295269224700,7.364224609375,-2.0618600845336914,-5.12885856628418,2.6077704429626465
1777560295287754800,7.382754638671875,-0.7143774032592773,-3.5166549682617188,0.9768373966217041
1777560295306284500,7.401284423828125,-3.951852560043335,-2.218499183654785,-1.1186821460723877
1777560295324814600,7.419814697265625,-4.4749674797058105,-1.0577945709228516,-1.8467243909835815
1777560295343344600,7.4383447265625,-1.8173701763153076,-0.435089111328125,-2.0864551067352295
1777560295361874400,7.45687451171875,-5.761794090270996,-0.8763723373413086,-3.0736451148986816
1777560295380404500,7.475404541015625,-7.005514621734619,-0.22944259643554688,-2.079334259033203
1777560295398934500,7.4939345703125,-6.825366973876953,1.0350098609924316,-0.604606032371521
1777560295417464300,7.51246435546875,-7.011996269226074,2.7076010704040527,0.6295554637908936
1777560295435994000,7.530994140625,-7.143900394439697,3.8257522583007812,0.6771379709243774
1777560295454524200,7.549524169921875,-6.141600608825684,4.534330368041992,0.7840609550476074
1777560295473054200,7.56805419921875,-5.087467670440674,4.985636234283447,0.58326256275177
1777560295491584000,7.586583984375,-4.248776435852051,4.951028347015381,0.5469130277633667
1777560295510114000,7.605114013671875,-3.771376132965088,5.201848983764648,1.0062328577041626
1777560295528644000,7.62364404296875,-2.7240240573883057,5.369718551635742,1.1322840452194214
1777560295547174000,7.642173828125,-1.181384801864624,5.3612446784973145,0.9533953666687012
1777560295565703700,7.66070361328125,1.885828971862793,4.98125696182251,1.3538379669189453
1777560295584233700,7.679233642578125,5.978060245513916,3.208925724029541,2.976339817047119
1777560295602763800,7.697763671875,8.706167221069336,-1.1106433868408203,6.303825378417969
1777560295621293600,7.71629345703125,12.734052658081055,-12.382859230041504,3.764803886413574
1777560295639823600,7.73482373046875,5.6540961265563965,-20.880229949951172,-4.827910900115967
1777560295658353700,7.753353759765625,3.131155252456665,-9.180766105651855,-5.534063339233398
1777560295676883500,7.771883544921875,1.194556713104248,2.955531120300293,-0.802717924118042
1777560295695413200,7.790413330078125,1.6530356407165527,8.123894691467285,0.025443553924560547
1777560295713943300,7.808943359375,-0.13087010383605957,8.392332077026367,3.4510927200317383
1777560295732473300,7.827473388671875,2.419078826904297,-0.2920541763305664,4.2278594970703125
1777560295751003100,7.846003173828125,-1.5312893390655518,-9.11694049835205,2.8006889820098877
1777560295769533200,7.864533203125,-3.2150063514709473,-6.9313507080078125,-1.298957109451294
1777560295788063000,7.88306298828125,-16.374967575073242,2.339768409729004,-0.6579257249832153
1777560295806593000,7.901593017578125,-5.8761067390441895,5.866686820983887,7.003906726837158
1777560295825123000,7.920123046875,-0.941784143447876,6.613740921020508,6.874471664428711
1777560295843652900,7.93865283203125,-3.7169408798217773,5.9905548095703125,3.785463809967041
1777560295862183000,7.957182861328125,-9.603536605834961,2.395779609680176,1.7178034782409668
1777560295880713000,7.975712890625,-9.256790161132812,-4.8979692459106445,1.0436331033706665
1777560295899242800,7.99424267578125,-5.548344135284424,-13.136434555053711,-3.5879573822021484
1777560295917772500,8.0127724609375,-2.0809550285339355,-8.138288497924805,-8.540156364440918
1777560295936302600,8.031302490234374,2.880423069000244,-3.0042457580566406,-9.361955642700195
1777560295954832600,8.04983251953125,2.486666679382324,0.6118936538696289,-5.949848651885986
1777560295973362400,8.068362548828125,-0.34698158502578735,2.8646163940429688,-0.7213544845581055
1777560295991892200,8.086892333984375,-2.6212024688720703,4.006800651550293,2.7844598293304443
1777560296010422300,8.10542236328125,-1.7430261373519897,4.1498260498046875,4.579043388366699
1777560296028952300,8.123952392578126,0.8595691919326782,2.3529911041259766,4.1112565994262695
1777560296047482000,8.142482177734376,2.9352996349334717,0.26735973358154297,1.915016770362854
1777560296066012200,8.16101220703125,2.319812536239624,-0.07479572296142578,-0.6164535880088806
1777560296084542200,8.179542236328125,1.2714098691940308,0.7335672378540039,-2.243100881576538
1777560296103072000,8.198072021484375,-0.6762410402297974,1.5052471160888672,-2.5228700637817383
1777560296121602000,8.21660205078125,-2.344564914703369,2.1306562423706055,-1.1466622352600098
1777560296140131800,8.2351318359375,-1.3518397808074951,1.542466163635254,-0.821566104888916
1777560296158662000,8.253661865234376,2.1639041900634766,-0.3287382125854492,-1.6580075025558472
1777560296177191700,8.272191650390624,3.8338875770568848,-2.0473241806030273,-2.8633344173431396
1777560296195721700,8.2907216796875,3.1062164306640625,-2.8664398193359375,-3.2314999103546143
1777560296214251800,8.309251708984375,1.3007326126098633,-2.133556365966797,-1.9702928066253662
1777560296232781600,8.327781494140625,1.432866096496582,-1.0979795455932617,-0.2918355464935303
1777560296251311600,8.3463115234375,3.322251081466675,-0.8345394134521484,-0.49788516759872437
1777560296269841400,8.36484130859375,3.3835036754608154,-1.3197832107543945,-2.017409086227417
1777560296288371500,8.383371337890624,2.0057780742645264,-2.260976791381836,-2.7206954956054688
1777560296306901500,8.401901611328125,1.4840924739837646,-3.504396438598633,-2.2613730430603027
1777560296325431300,8.420431396484375,2.387495994567871,-4.5176897048950195,-2.864872455596924
1777560296343961000,8.438961181640625,3.0748064517974854,-4.29296875,-4.173592567443848
1777560296362491100,8.4574912109375,2.682291269302368,-3.9852399826049805,-4.413543701171875
1777560296381021200,8.476021240234376,2.6306984424591064,-4.3293962478637695,-3.6576712131500244
1777560296399551000,8.494551025390624,2.034116268157959,-3.40927791595459,-2.695481777191162
1777560296418081000,8.5130810546875,2.608771324157715,-1.1313543319702148,-0.9005904197692871
1777560296436610800,8.53161083984375,1.967028260231018,1.0170221328735352,0.7133175730705261
1777560296455140900,8.550140869140625,-1.459281325340271,0.6547985076904297,1.9761261940002441
1777560296473670700,8.568670654296875,-3.526700496673584,-1.7158432006835938,3.144754409790039
1777560296492200700,8.58720068359375,-3.560439348220825,-4.19891357421875,3.8506455421447754
1777560296510730800,8.605730712890624,-1.4641193151474,-4.297761917114258,2.9405391216278076
1777560296529260500,8.624260498046874,-0.15020549297332764,-2.779587745666504,1.908800482749939
1777560296547790300,8.642790283203125,-0.880095362663269,-2.165135383605957,0.5615421533584595
1777560296566320400,8.6613203125,-5.222980499267578,-2.0483198165893555,-0.7557240724563599
1777560296584850400,8.679850341796875,-4.884120941162109,-0.9382095336914062,-1.1461154222488403
1777560296603380200,8.698380126953126,-4.213120460510254,-0.6785612106323242,-2.7535908222198486
1777560296621910300,8.71691015625,-5.313144683837891,-0.7137918472290039,-3.4707283973693848
1777560296640440000,8.735440185546874,-6.323141098022461,0.5763664245605469,-1.7250328063964844
1777560296658970000,8.75397021484375,-6.517228126525879,2.62778377532959,-0.2293921709060669
1777560296677500200,8.772500244140625,-6.634970664978027,4.057595252990723,0.4733452796936035
1777560296696030000,8.791030029296875,-6.382568836212158,4.806425094604492,0.9495137929916382
1777560296714560000,8.80956005859375,-5.440997123718262,4.740050315856934,1.1329694986343384
1777560296733089800,8.82808984375,-4.326417446136475,4.941923141479492,1.07473623752594
1777560296751619800,8.846619873046874,-2.875706672668457,5.79344367980957,0.746069073677063
1777560296770149600,8.865149658203125,-2.093172073364258,5.913581371307373,0.719758152961731
1777560296788679700,8.8836796875,-0.9687373638153076,5.530256271362305,0.8025457859039307
1777560296807209500,8.90220947265625,1.3665854930877686,4.689417839050293,1.5596803426742554
1777560296825739500,8.920739501953125,5.31226110458374,3.137112617492676,3.382356643676758
1777560296844269300,8.939269287109376,9.148165702819824,-0.8954353332519531,6.139843940734863
1777560296862799400,8.95779931640625,14.239676475524902,-12.519728660583496,3.7239277362823486
1777560296881329400,8.976329345703125,6.739974021911621,-22.995559692382812,-6.358664035797119
1777560296899859200,8.994859130859375,2.3328299522399902,-9.451967239379883,-6.065261363983154
1777560296918389000,9.013388916015625,-0.5209805965423584,3.287355899810791,-1.3615474700927734
1777560296936919000,9.0319189453125,-1.2843017578125,9.750679016113281,-0.8343604207038879
1777560296955449000,9.050448974609376,-0.5805683135986328,12.738161087036133,0.8172030448913574
1777560296973979000,9.068978759765624,2.2175912857055664,5.72608757019043,1.1831109523773193
1777560296992509000,9.087509033203125,1.8406612873077393,-4.90129280090332,3.703317165374756
1777560297011038700,9.106038818359375,-2.570385694503784,-15.136652946472168,9.360395431518555
1777560297029568800,9.12456884765625,-18.023366928100586,-9.578483581542969,2.104628562927246
1777560297048098600,9.1430986328125,-9.312470436096191,1.5098962783813477,4.256141185760498
1777560297066628600,9.161628662109376,-2.1690993309020996,6.993083953857422,5.085556983947754
1777560297085158400,9.180158447265624,-1.973499059677124,9.253793716430664,3.4965548515319824
1777560297103688400,9.1986884765625,-6.5425825119018555,7.299029350280762,0.5168020725250244
1777560297122218200,9.21721826171875,-9.495038986206055,1.4733085632324219,-0.5914336442947388
1777560297140748300,9.235748291015625,-8.062559127807617,-12.467845916748047,-1.0749799013137817
1777560297159278300,9.2542783203125,-3.4178853034973145,-13.516228675842285,-5.012921333312988
1777560297177808100,9.27280810546875,4.316723823547363,-4.906469345092773,-6.931564807891846
1777560297196338200,9.291338134765626,3.330869197845459,0.8246984481811523,-5.620842456817627
1777560297214868000,9.309867919921874,0.3279416859149933,3.765439987182617,-1.8761407136917114
1777560297233398000,9.32839794921875,-2.770866870880127,5.124855041503906,1.6022595167160034
1777560297251927800,9.346927734375,-3.231937885284424,4.9501953125,3.8855154514312744
1777560297270457900,9.365457763671875,-1.7735427618026733,3.3324642181396484,3.9959044456481934
1777560297288987600,9.383987548828125,1.4555169343948364,-0.3394603729248047,1.3239188194274902
1777560297307517700,9.402517578125,2.4373130798339844,-2.109354019165039,-1.6998720169067383
1777560297326047500,9.421047607421874,2.251617431640625,-1.079615592956543,-3.333106279373169
1777560297344577500,9.43957763671875,0.905978262424469,1.1453027725219727,-2.4775822162628174
1777560297363107300,9.458107421875,-1.3055909872055054,2.226869583129883,-0.06452670693397522
1777560297381637400,9.476637451171875,0.13721871376037598,1.5051097869873047,1.2541773319244385
1777560297400167200,9.495167236328125,3.0849804878234863,0.40157413482666016,0.939237654209137
1777560297418697200,9.513697265625,3.664665699005127,-1.0025482177734375,-1.405009150505066
1777560297437227000,9.53222705078125,1.8158671855926514,-1.3509950637817383,-2.8368828296661377
1777560297455757000,9.550757080078125,0.532629132270813,-1.0258913040161133,-2.774811029434204
1777560297474287000,9.569287109375,0.7281455993652344,-1.0131349563598633,-1.9027485847473145
1777560297492817000,9.58781689453125,1.428534746170044,-1.336334228515625,-1.3806675672531128
1777560297511346700,9.6063466796875,2.2165122032165527,-1.4777259826660156,-1.5377825498580933
1777560297529876700,9.624876708984376,2.2811813354492188,-1.2763586044311523,-1.8494915962219238
1777560297548406800,9.64340673828125,1.562987208366394,-1.3885374069213867,-1.452397108078003
1777560297566936600,9.6619365234375,1.944880723953247,-1.856698989868164,-0.9787442088127136
1777560297594731500,9.6897314453125,3.699425458908081,-2.7791805267333984,-2.1813220977783203
1777560297613261300,9.70826123046875,3.4788358211517334,-2.779452323913574,-3.0384914875030518
1777560297631791400,9.726791259765625,2.4725162982940674,-3.58962345123291,-4.026885509490967
1777560297650321200,9.745321044921875,2.0355212688446045,-4.995486259460449,-4.893105506896973
1777560297668851200,9.763851318359375,1.0315572023391724,-4.682533264160156,-4.232999324798584
1777560297687381000,9.782381103515625,1.4735281467437744,-2.3233118057250977,-0.9040622711181641
1777560297705911000,9.8009111328125,3.1771280765533447,0.3825368881225586,2.1612086296081543
1777560297724441000,9.819441162109374,0.24347880482673645,0.6257057189941406,2.4447150230407715
1777560297742971000,9.837970947265624,-1.9958640336990356,-1.353896141052246,3.01183819770813
1777560297761500700,9.856500732421875,-2.989774465560913,-3.9056100845336914,3.1817502975463867
1777560297780030700,9.87503076171875,-1.489457368850708,-4.326539993286133,2.729433059692383
1777560297798560800,9.893560791015625,-0.8742751479148865,-2.346329689025879,1.8979403972625732
1777560297817090600,9.912090576171876,-2.6498026847839355,-1.2140560150146484,0.22285795211791992
1777560297835620400,9.930620361328126,-5.771075248718262,-1.3997688293457031,-1.5758591890335083
1777560297854150400,9.949150390625,-2.9895401000976562,-0.7084493637084961,-1.4733107089996338
1777560297872680400,9.967680419921875,-0.9376559257507324,-0.4217958450317383,-2.605438470840454
1777560297891210200,9.986210205078125,-4.513134479522705,-1.0755701065063477,-3.407285690307617
1777560297909740000,10.004739990234375,-6.345290184020996,-0.6019201278686523,-2.267186164855957
1777560297928270000,10.02327001953125,-5.907811164855957,0.9777107238769531,-0.3211790919303894
1777560297946800000,10.041800048828126,-6.31215238571167,2.2261505126953125,0.8936541080474854
1777560297965330000,10.060329833984374,-6.235252380371094,2.9888744354248047,1.5882244110107422
1777560297983859700,10.078859619140625,-5.077816963195801,4.031101226806641,1.6835243701934814
1777560298002389800,10.0973896484375,-3.864990234375,4.533782005310059,0.9361931085586548
1777560298020919800,10.115919921875,-3.340989828109741,4.440577507019043,0.6446568965911865
1777560298039449600,10.13444970703125,-2.72404146194458,4.332305908203125,0.7043761014938354
1777560298057979400,10.1529794921875,-2.309868335723877,4.457085609436035,0.9140956401824951
1777560298076509400,10.171509521484374,-1.7859902381896973,4.788415908813477,1.388939619064331
1777560298095039200,10.190039306640625,-0.09445619583129883,4.650365829467773,1.5284638404846191
1777560298113569300,10.2085693359375,3.1909050941467285,3.857377052307129,2.3125228881835938
1777560298132099000,10.22709912109375,6.770862579345703,1.4976911544799805,3.656928062438965
1777560298150629000,10.245629150390625,10.981992721557617,-5.563959121704102,3.025561809539795
1777560298169159000,10.264158935546876,11.893752098083496,-19.174619674682617,-4.224376678466797
1777560298187689000,10.28268896484375,3.055598258972168,-15.455971717834473,-6.740652084350586
1777560298206218800,10.30121875,1.1431453227996826,-0.8066911697387695,-0.553911030292511
1777560298224748800,10.319748779296875,-0.9502506256103516,7.198347091674805,1.532510757446289
1777560298243278600,10.338278564453125,-1.4645709991455078,11.88265323638916,3.3408234119415283
1777560298261808600,10.35680859375,-0.12482595443725586,8.320748329162598,5.529498100280762
1777560298280338700,10.375338623046876,0.9364712238311768,-2.4777441024780273,6.574435234069824
1777560298298868500,10.393868408203126,-1.3704969882965088,-12.941676139831543,5.852313995361328
1777560298317398300,10.412398193359374,-11.52284049987793,-9.912980079650879,-1.8409150838851929
1777560298335928300,10.43092822265625,-7.524043083190918,1.4843544960021973,1.9418162107467651
1777560298354458400,10.449458251953125,-3.062127113342285,5.2916975021362305,3.6097679138183594
1777560298372988200,10.46798828125,-2.670703411102295,5.924487590789795,1.1834378242492676
1777560298391518000,10.48651806640625,-5.906125545501709,5.774121284484863,-0.029708504676818848
1777560298410048000,10.505048095703126,-8.711691856384277,2.99232816696167,0.6448192596435547
1777560298428577800,10.523577880859374,-8.31518268585205,-3.8461713790893555,1.072521686553955
1777560298447107800,10.54210791015625,-4.912805080413818,-13.407269477844238,-2.980069160461426
1777560298465637600,10.5606376953125,0.5581314563751221,-7.663545608520508,-6.489031791687012
1777560298484167700,10.579167724609375,3.971904993057251,-2.3275585174560547,-5.915388107299805
1777560298502697500,10.597697509765625,1.7292957305908203,1.1016998291015625,-2.742516279220581
1777560298521227500,10.6162275390625,-0.3003110885620117,3.0582799911499023,0.5474405288696289
1777560298539757300,10.63475732421875,-1.9180048704147339,3.7769346237182617,2.3620476722717285
1777560298558287400,10.653287353515625,-1.7693802118301392,3.4000864028930664,2.936269521713257
1777560298576817200,10.671817138671875,-0.9345929622650146,1.8295278549194336,1.827965497970581
1777560298595347200,10.69034716796875,0.631378710269928,-0.4056119918823242,0.06903436034917831
1777560298613877000,10.708876953125,2.81825590133667,-1.3222684860229492,-2.016355037689209
1777560298632406800,10.72740673828125,2.205214262008667,-0.15256690979003906,-2.6650819778442383
1777560298650936800,10.745936767578126,-0.881470799446106,1.2871103286743164,-1.7441916465759277
1777560298669467000,10.764466796875,-3.492065668106079,2.228116989135742,-0.5089000463485718
1777560298687996700,10.78299658203125,-0.8154462575912476,1.954817771911621,-0.7164311408996582
1777560298706526700,10.801526611328125,2.2964699268341064,0.8837394714355469,-1.5310759544372559
1777560298725056500,10.820056396484375,2.685873031616211,-0.1498250961303711,-2.4960567951202393
1777560298743586300,10.83858642578125,1.5073977708816528,-1.0132884979248047,-2.3556535243988037
1777560298762116400,10.857116455078126,0.9714864492416382,-1.362055778503418,-1.3424839973449707
1777560298780646100,10.875646240234374,1.604447841644287,-1.0942964553833008,-0.241094708442688
1777560298799176200,10.89417626953125,2.7025067806243896,-0.754389762878418,0.33959823846817017
1777560298817706000,10.9127060546875,2.9726343154907227,-0.6880769729614258,-0.0027900338172912598
1777560298836236000,10.931236083984375,2.214520215988159,-0.9359550476074219,-0.6531840562820435
1777560298854766000,10.94976611328125,1.3103909492492676,-0.9282169342041016,-0.9187508225440979
1777560298873296000,10.9682958984375,0.6343200206756592,-0.7323932647705078,-0.5570515394210815
1777560298891825700,10.98682568359375,1.1758630275726318,-0.7373285293579102,-0.5631268620491028
1777560298910355500,11.00535546875,2.6397995948791504,-1.16986083984375,-1.396969199180603
1777560298928885500,11.023885498046875,4.0507612228393555,-2.6361923217773438,-2.8407669067382812
1777560298947415600,11.04241552734375,3.754380941390991,-3.52834415435791,-3.5640757083892822
1777560298965945300,11.0609453125,3.1447830200195312,-3.675312042236328,-4.235723495483398
1777560298984475400,11.079475341796876,2.0480356216430664,-3.9455699920654297,-4.862173080444336
1777560299003005200,11.098005126953124,1.177781105041504,-3.469313621520996,-5.126424789428711
1777560299021535200,11.11653515625,1.1242685317993164,-1.9323196411132812,-4.050596237182617
1777560299040065000,11.13506494140625,3.0249783992767334,0.05685901641845703,-0.2447112649679184
1777560299058594800,11.1535947265625,1.179555892944336,0.31487464904785156,1.7874892950057983
1777560299077124900,11.172124755859375,-0.7059686779975891,-2.2456254959106445,2.6171746253967285
1777560299095654700,11.190654541015626,-2.9856061935424805,-4.9281816482543945,3.7178537845611572
1777560299114184700,11.209184814453126,-2.4046378135681152,-6.246217727661133,3.216278553009033
1777560299132714500,11.227714599609374,-2.079535484313965,-4.624242782592773,2.3311820030212402
1777560299151244500,11.24624462890625,-2.979726791381836,-2.2728958129882812,1.172536849975586
1777560299169774300,11.2647744140625,-5.411162853240967,-0.9767379760742188,-0.5624856352806091
1777560299188304400,11.283304443359375,-3.2991890907287598,-0.22135448455810547,-1.368935227394104
1777560299206834200,11.301834228515625,-1.752819299697876,-0.20116901397705078,-2.6426448822021484
1777560299225364000,11.320364013671876,-3.49953293800354,-0.6046266555786133,-4.101630687713623
1777560299243894000,11.33889404296875,-5.734659194946289,-0.11846542358398438,-2.710705280303955
1777560299262424000,11.357424072265625,-5.939339637756348,1.713658332824707,-0.4276255965232849
1777560299280953900,11.375953857421875,-7.205419540405273,2.8997793197631836,0.37779712677001953
1777560299299484000,11.39448388671875,-6.673900127410889,3.5458250045776367,1.2371997833251953
1777560299318013700,11.413013671875,-6.28116512298584,3.8979859352111816,1.295064091682434
1777560299336543500,11.43154345703125,-4.706898212432861,4.297938346862793,0.9675165414810181
1777560299355073500,11.450073486328124,-3.4791648387908936,4.295544624328613,0.5324001312255859
1777560299373603300,11.468603271484374,-2.5386805534362793,3.912221908569336,0.5794602632522583
1777560299392133400,11.48713330078125,-1.3532633781433105,3.7233800888061523,0.9702242612838745
1777560299410663200,11.5056630859375,-0.8763241767883301,3.702396869659424,1.2442070245742798
1777560299429193200,11.524193115234375,0.6918666362762451,3.2768421173095703,1.5441763401031494
1777560299447723000,11.542722900390626,3.131193161010742,1.904036521911621,1.8534613847732544
1777560299466253000,11.561253173828124,4.880295753479004,-0.5045480728149414,2.4520621299743652
1777560299484782800,11.579782958984374,6.567188262939453,-4.065402030944824,2.5223865509033203
1777560299503312600,11.598312744140625,8.532318115234375,-8.648176193237305,-0.239643394947052
1777560299521842700,11.6168427734375,5.693782806396484,-10.992668151855469,-4.126898288726807
1777560299540372700,11.635372802734375,2.5496389865875244,-6.418071746826172,-4.119499206542969
1777560299558902500,11.653902587890625,0.8121237754821777,1.432168960571289,-0.4980440139770508
1777560299577432300,11.672432373046876,0.2495589256286621,6.804042339324951,1.2202459573745728
1777560299595962400,11.69096240234375,-0.5550966262817383,8.909406661987305,1.9413201808929443
1777560299614492200,11.7094921875,-0.8140897750854492,6.33503532409668,2.8025453090667725
1777560299633022200,11.728022216796875,2.9503371715545654,0.020044326782226562,3.5066123008728027
1777560299651552000,11.746552001953125,4.593573093414307,-8.301788330078125,3.934108257293701
1777560299670081800,11.765081787109375,-0.18628239631652832,-12.056397438049316,4.295212745666504
1777560299688611800,11.78361181640625,-6.690140247344971,-5.214315414428711,-0.38083791732788086
1777560299707142000,11.802141845703124,-10.358857154846191,4.22247314453125,1.6536314487457275
1777560299725671700,11.820671630859374,-5.913788795471191,7.688350677490234,4.418606281280518
1777560299744201500,11.839201416015625,-3.4853310585021973,8.032156944274902,4.47808837890625
1777560299762731500,11.8577314453125,-4.245378494262695,6.868563652038574,1.605277419090271
1777560299781261300,11.87626123046875,-8.044805526733398,2.9599132537841797,-0.528627872467041
1777560299799791400,11.894791259765626,-8.196989059448242,-5.366733551025391,-1.4607908725738525
1777560299818321200,11.913321044921876,-4.308504104614258,-15.804377555847168,-5.59609842300415
1777560299836851200,11.931851318359374,-0.484130859375,-9.294938087463379,-7.726720333099365
1777560299855381000,11.950381103515625,2.767153024673462,-2.81746768951416,-6.747983932495117
1777560299873910800,11.968910888671875,2.507455348968506,1.317460060119629,-2.3935837745666504
1777560299892440800,11.98744091796875,0.3476346433162689,3.482738494873047,1.3122729063034058
1777560299910970600,12.005970703125,-3.2849576473236084,4.8997802734375,3.798260450363159
1777560299929500700,12.024500732421876,-3.0147838592529297,4.1969194412231445,3.9206128120422363
1777560299948030500,12.043030517578124,-0.5513004064559937,1.985818862915039,1.9467926025390625
1777560299966560500,12.061560546875,2.2953906059265137,-0.49739646911621094,-0.09439867734909058
1777560299985090300,12.08009033203125,2.686537265777588,-0.31473636627197266,-1.7803606986999512
1777560300003620400,12.098620361328125,2.301238536834717,0.42784595489501953,-2.7374837398529053
1777560300022150100,12.117150146484375,-0.7117229700088501,1.3872127532958984,-2.127891778945923
1777560300040680000,12.135679931640626,-1.9077987670898438,2.163637161254883,-1.1195721626281738
1777560300059210000,12.1542099609375,0.20077943801879883,1.3374462127685547,-0.8874831795692444
1777560300077739800,12.17273974609375,3.1147232055664062,-0.09143447875976562,-1.0425752401351929
1777560300096269800,12.191269775390625,4.004333972930908,-1.4042558670043945,-2.0204250812530518
1777560300114799600,12.209799560546875,3.223733901977539,-2.0634164810180664,-2.6099915504455566
1777560300133329400,12.228329345703125,1.9413155317306519,-1.7502985000610352,-2.435723304748535
1777560300151859500,12.246859375,0.4918677806854248,-0.7990541458129883,-1.4568934440612793
1777560300170389500,12.265389404296876,-0.11728835105895996,-0.26134395599365234,-1.013615608215332
1777560300188919800,12.283919921875,1.021826148033142,-0.48702049255371094,-0.7313458919525146
1777560300207449000,12.302448974609375,2.8453378677368164,-1.1285629272460938,-0.39298397302627563
1777560300225979100,12.320979248046875,2.5734689235687256,-2.6969385147094727,-1.1124049425125122
1777560300244509000,12.339509033203125,2.8964853286743164,-4.389179229736328,-2.21514630317688
1777560300263039000,12.3580390625,4.05361270904541,-4.945839881896973,-3.8322134017944336
1777560300281568800,12.37656884765625,4.505556106567383,-3.6293115615844727,-4.619794845581055
1777560300300098600,12.3950986328125,2.936790704727173,-3.4813060760498047,-5.397280693054199
1777560300318628600,12.413628662109375,1.98591148853302,-3.3071231842041016,-4.862801551818848
1777560300337158400,12.432158447265625,0.7845554947853088,-1.7593717575073242,-3.2914085388183594
1777560300355688400,12.4506884765625,2.707258462905884,-0.4699974060058594,-1.1739232540130615
1777560300374218200,12.46921826171875,1.5204012393951416,0.4778785705566406,0.1153954267501831
1777560300392748000,12.487748046875,-1.9460140466690063,-0.19144153594970703,1.742868423461914
1777560300411278000,12.506278076171874,-3.790168285369873,-3.526698112487793,3.5159318447113037
1777560300429808000,12.52480810546875,-2.8739378452301025,-6.291089057922363,4.107822418212891
1777560300448338000,12.543337890625,-0.05436694622039795,-5.613422393798828,2.4364640712738037
1777560300466868000,12.561867919921875,0.042920589447021484,-3.3703975677490234,0.16692399978637695
1777560300485397800,12.580397705078125,-5.893882751464844,-2.014492988586426,-2.344797134399414
1777560300503927600,12.598927490234376,-6.693668365478516,-0.720005989074707,-2.761590003967285
1777560300522457600,12.61745751953125,-2.3060646057128906,0.09879207611083984,-2.746706485748291
1777560300540987400,12.6359873046875,-4.100742340087891,-0.127899169921875,-3.3064982891082764
1777560300559517400,12.654517333984375,-6.418036460876465,0.5242462158203125,-2.128066301345825
1777560300578047200,12.673047119140625,-7.367859840393066,1.9973139762878418,-0.567467451095581
1777560300596577000,12.691576904296875,-6.416953086853027,3.468752861022949,0.8696050643920898
1777560300615107000,12.710107177734375,-6.538122177124023,3.711848735809326,1.3481636047363281
1777560300633636900,12.728636962890626,-6.345510482788086,4.024763584136963,1.8042737245559692
1777560300661431800,12.756431884765625,-3.724381685256958,4.317563056945801,1.1021103858947754
1777560300679961600,12.774961669921876,-3.366330623626709,4.672529220581055,0.79355788230896
1777560300698491600,12.79349169921875,-2.029111623764038,4.93399715423584,0.9351850748062134
1777560300717021400,12.812021484375,-0.6905157566070557,4.83669900894165,1.139906644821167
1777560300735551500,12.830551513671875,0.5899136066436768,4.38484525680542,1.264029622077942
1777560300754081300,12.849081298828125,2.738386392593384,3.310079574584961,1.9476416110992432
1777560300772611000,12.867611083984375,5.308950424194336,1.2220449447631836,3.066749095916748
1777560300791141000,12.88614111328125,7.773179054260254,-3.3803110122680664,3.4911468029022217
1777560300809671200,12.904671142578126,14.390974998474121,-14.417950630187988,-1.1812692880630493
1777560300828201000,12.923200927734374,4.474691867828369,-18.27739143371582,-6.459771156311035
1777560300846730800,12.941730712890624,1.7220122814178467,-5.99842643737793,-4.622923851013184
1777560300865260800,12.9602607421875,-0.7458934783935547,5.061036109924316,-0.9985705614089966
1777560300883790600,12.97879052734375,-0.7612409591674805,10.359562873840332,-1.6656615734100342
1777560300902320600,12.997320556640625,0.1476731300354004,11.104702949523926,0.34080958366394043
1777560300920850400,13.015850341796876,1.270547866821289,4.005679130554199,2.178694486618042
1777560300939380200,13.034380126953126,4.189435958862305,-7.60688591003418,4.318347930908203
1777560300957910300,13.05291015625,0.09174585342407227,-16.313282012939453,7.762613773345947
1777560300976440000,13.071440185546875,-13.238643646240234,-8.891162872314453,1.1703933477401733
1777560300994970000,13.08997021484375,-13.038150787353516,3.8203563690185547,5.467212200164795
1777560301013500200,13.108500244140625,-4.0929694175720215,8.392459869384766,7.296599388122559
1777560301032030000,13.127030029296876,-1.2998247146606445,10.60759162902832,6.011956691741943
1777560301050559700,13.145559814453126,-2.2607290744781494,9.902536392211914,4.301719665527344
1777560301069089800,13.16408984375,-8.449275970458984,4.095757961273193,1.4812612533569336
1777560301087619600,13.18261962890625,-11.009489059448242,-7.416642189025879,-0.5082594156265259
1777560301106149600,13.201149658203125,-7.195827484130859,-18.53060531616211,-8.09160041809082
1777560301124679400,13.219679443359375,3.9541385173797607,-8.517390251159668,-10.491419792175293
1777560301143209200,13.238209228515625,5.480071544647217,-1.083181381225586,-8.988649368286133
1777560301161739300,13.2567392578125,1.2944657802581787,2.169621467590332,-3.9388833045959473
1777560301180269300,13.275269287109374,-1.261953592300415,3.964097023010254,1.1909031867980957
1777560301198799000,13.293799072265625,-2.4514031410217285,4.743642330169678,4.904451847076416
1777560301217329000,13.312328857421875,-1.5905824899673462,3.8259005546569824,6.270580291748047
1777560301235859000,13.33085888671875,1.3591439723968506,1.5440521240234375,4.145540714263916
1777560301254388700,13.349388671875,3.0189809799194336,-0.4873628616333008,0.6307846903800964
1777560301272918800,13.367918701171876,3.3711395263671875,-0.5908069610595703,-2.3955044746398926
1777560301291448600,13.386448486328124,1.0607426166534424,0.7520370483398438,-3.2257988452911377
1777560301309978400,13.404978271484374,-2.524014949798584,2.263533115386963,-1.6891582012176514
1777560301328508400,13.42350830078125,-2.797769546508789,2.3592700958251953,-0.23973441123962402
1777560301347038500,13.44203857421875,1.8313918113708496,0.7361736297607422,-0.2787821888923645
1777560301365568300,13.460568359375,4.793351173400879,-1.008620262145996,-1.5472943782806396
1777560301384098000,13.47909814453125,3.1376912593841553,-2.47005558013916,-2.927842855453491
1777560301402628000,13.497628173828126,1.3082408905029297,-2.7045154571533203,-2.830481767654419
1777560301421158000,13.516157958984374,1.4888989925384521,-2.2130136489868164,-2.051487445831299
1777560301439688000,13.53468798828125,2.6311442852020264,-1.3982744216918945,-1.508988380432129
1777560301458217700,13.5532177734375,3.09773850440979,-1.4752187728881836,-1.961334466934204
1777560301476747800,13.571747802734375,2.348101854324341,-2.454710006713867,-2.4911394119262695
1777560301495277600,13.590277587890625,2.2302937507629395,-3.635622024536133,-2.478732109069824
1777560301513807600,13.6088076171875,3.9038031101226807,-4.087958335876465,-2.4061219692230225
1777560301532337400,13.62733740234375,4.628535747528076,-3.9329633712768555,-2.9798295497894287
1777560301550867200,13.6458671875,3.692997932434082,-3.2752246856689453,-3.558112621307373
1777560301569397200,13.664397216796875,2.6296870708465576,-3.499500274658203,-4.13690185546875
1777560301587927000,13.682927001953125,1.8085464239120483,-2.664684295654297,-3.909797191619873
1777560301606457000,13.70145703125,2.4290647506713867,-1.4328670501708984,-3.5145554542541504
1777560301624987100,13.719987060546876,-0.06421387195587158,0.20834922790527344,-0.6458404064178467
1777560301643517000,13.738516845703124,-3.0566246509552,-0.7323141098022461,2.5912318229675293
1777560301662046700,13.757046630859374,-3.290182590484619,-3.607916831970215,5.306034088134766
1777560301680576800,13.77557666015625,-2.0292181968688965,-5.7746734619140625,6.32595682144165
1777560301699106600,13.7941064453125,0.2393115758895874,-4.708501815795898,3.39176869392395
1777560301717636600,13.81263671875,1.2142131328582764,-2.733973503112793,1.73521089553833
1777560301736166400,13.83116650390625,-2.0275068283081055,-1.0249004364013672,0.7463769912719727
1777560301754696400,13.849696533203126,-6.586144924163818,-1.026041030883789,-2.0390491485595703
1777560301773226200,13.868226318359374,-5.521235466003418,-0.7583599090576172,-3.1171035766601562
1777560301791756300,13.88675634765625,-4.040595054626465,-0.7980422973632812,-4.2353739738464355
1777560301810286000,13.9052861328125,-5.612578868865967,-0.42792797088623047,-3.0076005458831787
1777560301828816100,13.923816162109375,-7.740533828735352,1.216278076171875,-1.1282782554626465
1777560301847346000,13.942345947265625,-6.925901889801025,3.0284996032714844,0.4811438322067261
1777560301865876000,13.9608759765625,-6.87392520904541,4.348111629486084,0.8473882675170898
1777560301884405800,13.97940576171875,-6.308016777038574,5.1907219886779785,1.221882700920105
1777560301902935600,13.997935546875,-4.962355613708496,5.852645397186279,1.4836257696151733
1777560301921465600,14.016465576171875,-4.347409248352051,6.006794452667236,1.3709065914154053
1777560301939995400,14.034995361328125,-3.5255496501922607,5.939881324768066,1.0040324926376343
1777560301958525400,14.053525390625,-1.7913377285003662,5.632140636444092,0.3501807451248169
1777560301977055200,14.07205517578125,0.8647007942199707,4.7909626960754395,0.2983807325363159
1777560301995585300,14.090585205078124,4.815854072570801,3.0081472396850586,1.4964706897735596
1777560302014115300,14.109115234375,8.470873832702637,-0.6423845291137695,4.772694110870361
1777560302032645000,14.12764501953125,10.906392097473145,-7.735710144042969,6.823346138000488
1777560302051175000,14.1461748046875,8.735227584838867,-18.665382385253906,-0.5251871347427368
1777560302069705000,14.164705078125,2.184192180633545,-13.139381408691406,-6.947848320007324
1777560302088235000,14.183235107421876,1.1232056617736816,-0.672123908996582,-3.314595937728882
1777560302106764800,14.201764892578124,0.39880847930908203,6.880965232849121,-0.8786972761154175
1777560302125294800,14.220294921875,0.519352912902832,10.916257858276367,0.544628381729126
1777560302143824600,14.23882470703125,0.30443549156188965,8.634346008300781,3.3925387859344482
1777560302162354700,14.257354736328125,0.8889203071594238,-0.2542610168457031,5.287188529968262
1777560302180884500,14.275884521484375,0.2679884433746338,-10.44715404510498,7.954859733581543
1777560302199414500,14.29441455078125,-4.8934526443481445,-14.235370635986328,1.9165583848953247
1777560302217944300,14.3129443359375,-14.893668174743652,-1.5070905685424805,-0.9089066982269287
1777560302236474400,14.331474365234374,-6.199980735778809,5.452649116516113,3.3358545303344727
1777560302255004200,14.350004150390625,-2.7797136306762695,7.173403739929199,2.950136423110962
1777560302273534200,14.3685341796875,-2.635566234588623,7.876867771148682,2.813436508178711
1777560302292064000,14.38706396484375,-6.729920387268066,5.307126998901367,1.5159575939178467
1777560302310594000,14.405593994140625,-9.026763916015625,-1.1202239990234375,1.1179327964782715
1777560302329123800,14.424123779296876,-6.32956075668335,-13.912153244018555,-3.544605255126953
1777560302347654000,14.44265380859375,-0.5209104418754578,-11.072481155395508,-8.40678596496582
1777560302366183700,14.46118359375,4.567627906799316,-3.3812503814697266,-8.257505416870117
1777560302384713700,14.479713623046875,2.7864763736724854,1.0491714477539062,-5.089677810668945
1777560302403243500,14.498243408203125,-0.6676144003868103,3.6028318405151367,-0.5666660666465759
1777560302421773600,14.516773681640625,-2.3324663639068604,4.620898246765137,2.71325945854187
1777560302440303400,14.535303466796876,-1.3696575164794922,4.320559978485107,4.415689468383789
1777560302458833400,14.55383349609375,0.7756093144416809,2.14638614654541,3.493461847305298
1777560302477363200,14.57236328125,2.3919920921325684,-0.30851078033447266,1.1387091875076294
1777560302495893200,14.590893310546875,1.6442599296569824,-1.0212602615356445,-1.6022812128067017
1777560302514423000,14.609423095703125,2.029186725616455,-0.30796337127685547,-2.9700706005096436
1777560302532953000,14.627953125,-0.7505351305007935,1.2251272201538086,-1.9398545026779175
1777560302551483000,14.64648291015625,-3.058286666870117,2.263533592224121,0.022544890642166138
1777560302570013000,14.665012939453124,-0.5841238498687744,1.562509536743164,0.4834789037704468
1777560302588542700,14.683542724609374,2.86696720123291,0.1899099349975586,-0.2844294309616089
1777560302607072800,14.70207275390625,3.422790050506592,-1.6881933212280273,-1.563445806503296
1777560302625602800,14.720602783203125,1.5809340476989746,-2.3156509399414062,-2.239362955093384
1777560302644132600,14.739132568359375,0.5236467123031616,-1.7255983352661133,-1.8221900463104248
1777560302662662700,14.75766259765625,1.4174021482467651,-1.0651254653930664,-1.3205437660217285
1777560302681192400,14.7761923828125,2.9289064407348633,-0.8973960876464844,-1.706727147102356
1777560302699722500,14.794722412109374,3.739255428314209,-1.3557024002075195,-2.2362492084503174
1777560302718252300,14.813252197265625,3.0504281520843506,-1.7515506744384766,-2.1563475131988525
1777560302736782300,14.8317822265625,1.9595993757247925,-1.9994726181030273,-1.3667471408843994
1777560302755312000,14.85031201171875,2.4088075160980225,-2.1946935653686523,-1.112494707107544
1777560302773842200,14.86884228515625,3.3538107872009277,-2.341390609741211,-2.0330114364624023
1777560302792372200,14.887372314453126,3.664877414703369,-2.3150720596313477,-3.1790857315063477
1777560302810902000,14.905902099609374,1.9815635681152344,-3.325911521911621,-3.8866593837738037
1777560302829431800,14.924431884765625,0.6866365671157837,-4.392107963562012,-3.6934359073638916
1777560302847961900,14.9429619140625,1.3602569103240967,-3.989682197570801,-2.7799766063690186
1777560302866492000,14.961491943359375,3.1146492958068848,-2.033487319946289,-0.05352896451950073
1777560302885021700,14.980021728515625,-0.0005573630332946777,-0.9243021011352539,1.6145670413970947
1777560302903551700,14.9985517578125,-1.8646496534347534,-1.8744935989379883,3.4405083656311035
1777560302922081500,15.01708154296875,-2.5280628204345703,-3.4467363357543945,4.173019886016846
1777560302940611600,15.035611572265625,-1.6296658515930176,-3.832949638366699,3.2418460845947266
1777560302959141400,15.054141357421875,-0.7994345426559448,-2.2330093383789062,1.4872097969055176
1777560302977671400,15.07267138671875,-2.259972095489502,-0.8610467910766602,0.283366322517395
1777560302996201500,15.091201416015625,-5.714681625366211,-0.9578409194946289,-1.3627572059631348
1777560303014731300,15.109731201171876,-4.386449813842773,-0.8913717269897461,-2.04596209526062
1777560303033261000,15.128260986328126,-2.6403329372406006,-0.5196352005004883,-2.120079517364502
1777560303051791000,15.146791015625,-3.1462721824645996,-0.34749317169189453,-2.33728289604187
1777560303070321200,15.165321044921875,-4.773650169372559,0.02532672882080078,-1.3415249586105347
1777560303088851200,15.183851318359375,-6.037212371826172,0.6852998733520508,0.19128620624542236
1777560303107381000,15.202381103515625,-6.075897216796875,1.7536382675170898,1.2187377214431763
1777560303125910800,15.220910888671876,-5.724574089050293,2.8912644386291504,1.8131605386734009
1777560303144440800,15.23944091796875,-5.46097993850708,3.5422840118408203,1.1755735874176025
1777560303162971000,15.257970947265624,-4.040525436401367,3.8687238693237305,0.38566088676452637
1777560303181500700,15.276500732421875,-3.2471325397491455,3.6264781951904297,0.2050563097000122
1777560303200030700,15.29503076171875,-2.6188197135925293,3.2179880142211914,0.510095477104187
1777560303218560800,15.313560791015625,-1.763258934020996,3.195528984069824,0.6687854528427124
1777560303237090600,15.332090576171876,-1.7351405620574951,4.00282096862793,0.564461350440979
1777560303255620400,15.350620361328126,-0.48524975776672363,4.272514343261719,0.5840758085250854
1777560303274150400,15.369150390625,1.5919091701507568,3.5172805786132812,0.8498822450637817
1777560303292680400,15.387680419921875,3.4781486988067627,2.0509986877441406,1.6216901540756226
1777560303311210200,15.406210205078125,5.522451400756836,-0.44767284393310547,2.532219409942627
1777560303329740300,15.424740234375,8.592447280883789,-5.772393226623535,1.3220078945159912
1777560303348270300,15.443270263671875,7.75437593460083,-12.371075630187988,-2.404649257659912
1777560303366800100,15.461800048828126,4.188789367675781,-9.85934066772461,-3.702418327331543
1777560303385330000,15.480329833984374,2.204854965209961,-0.8199672698974609,-0.07238531112670898
1777560303403860000,15.49885986328125,0.30360913276672363,4.868505954742432,2.0148820877075195
1777560303422390000,15.51739013671875,-1.8745219707489014,7.664145469665527,3.215149402618408
1777560303440919800,15.535919921875,-1.326995611190796,6.81572151184082,5.776498794555664
1777560303459449900,15.554449951171875,0.06323742866516113,0.9777402877807617,6.82585334777832
1777560303477980000,15.57297998046875,6.7121477127075195,-9.8291597366333,5.842014312744141
1777560303496509700,15.591509765625,-1.7135508060455322,-15.682690620422363,-1.717210292816162
1777560303515039700,15.610039794921875,-6.777567386627197,-2.758843421936035,-4.326510906219482
1777560303533569500,15.628569580078125,-9.471355438232422,7.164803981781006,-0.028531789779663086
1777560303552099600,15.647099609375,-4.985240936279297,9.452275276184082,3.842472553253174
1777560303570629600,15.665629638671875,-2.134528636932373,9.317036628723145,5.413035869598389
1777560303589159400,15.684159423828126,-4.238073825836182,7.1073899269104,3.4242804050445557
1777560303607689500,15.702689453125,-8.697221755981445,1.3565664291381836,1.4696141481399536
1777560303626219300,15.72121923828125,-8.298828125,-8.987207412719727,-0.8311372995376587
1777560303644749300,15.739749267578125,-2.0610430240631104,-14.269326210021973,-6.918678283691406
1777560303663279000,15.758279052734375,2.053328037261963,-6.972898483276367,-8.463006019592285
1777560303681809200,15.77680908203125,2.698207139968872,-1.5060606002807617,-6.380500316619873
1777560303700339200,15.795339111328126,0.5940289497375488,2.0214109420776367,-2.068186044692993
1777560303718869000,15.813868896484376,-1.4111616611480713,3.497960090637207,1.435646653175354
1777560303737399000,15.83239892578125,-2.3180551528930664,3.8188300132751465,3.6058530807495117
1777560303755929000,15.85092919921875,-1.4734762907028198,3.1199355125427246,3.7213313579559326
1777560303774459000,15.869458984375,0.5072282552719116,0.8782100677490234,1.7831755876541138
1777560303792988700,15.88798876953125,1.8663299083709717,-0.7223882675170898,-0.45277759432792664
1777560303811518700,15.906518798828126,3.5315182209014893,-0.07304096221923828,-1.6800463199615479
1777560303830048800,15.925048828125,1.9457175731658936,0.8967437744140625,-2.242699384689331
1777560303848578600,15.94357861328125,-0.606223464012146,1.607539176940918,-1.55797278881073
1777560303867108600,15.962108642578125,-2.287403106689453,1.4596672058105469,-1.1105921268463135
1777560303885638700,15.980638671875,-1.2427911758422852,0.8684968948364258,-0.873314619064331
1777560303904168400,15.99916845703125,1.076672911643982,0.052796363830566406,-0.7585799694061279
1777560303922698500,16.017698486328126,2.5122716426849365,-0.6861371994018555,-0.9042931199073792
1777560303941228300,16.036228271484376,2.7667646408081055,-1.2743854522705078,-1.1113967895507812
1777560303959758300,16.05475830078125,2.0927417278289795,-1.4387054443359375,-1.2083468437194824
1777560303978288400,16.073288330078125,1.5269653797149658,-1.2397737503051758,-1.1112096309661865
1777560303996818200,16.091818115234375,1.8247179985046387,-0.7022771835327148,-1.320683479309082
1777560304015348200,16.11034814453125,2.6192214488983154,-0.5716686248779297,-1.778381109237671
1777560304033878300,16.128878173828124,3.1427249908447266,-1.1805458068847656,-2.320493459701538
1777560304052408000,16.147407958984374,1.9668794870376587,-2.2813291549682617,-2.615530490875244
1777560304070938000,16.165938232421876,1.1631348133087158,-3.1911134719848633,-2.6059722900390625
1777560304089468000,16.184468017578126,2.1105997562408447,-3.3975486755371094,-2.555875539779663
1777560304107998000,16.202998046875,3.4926891326904297,-3.2083349227905273,-2.9814095497131348
1777560304126527700,16.22152783203125,3.5847837924957275,-3.8218421936035156,-3.824016571044922
1777560304145057800,16.240057861328125,2.312307596206665,-4.614018440246582,-3.847365140914917
1777560304163587800,16.258587890625,1.9927196502685547,-3.897735595703125,-3.0625438690185547
1777560304182117600,16.27711767578125,3.104052782058716,-1.5075654983520508,-0.967258095741272
1777560304200647700,16.295647705078125,2.622030019760132,0.8960533142089844,0.48054659366607666
1777560304219177700,16.314177734375,-1.2835336923599243,1.1901493072509766,1.4282838106155396
1777560304237707500,16.33270751953125,-3.2257301807403564,-0.6137208938598633,2.724663019180298
1777560304256237600,16.351237548828124,-3.1262874603271484,-3.6339111328125,3.0554802417755127
1777560304274767400,16.369767333984374,-1.426809310913086,-4.419981956481934,2.6578307151794434
1777560304293297400,16.38829736328125,-0.46520256996154785,-3.452699661254883,1.690309762954712
1777560304311827200,16.4068271484375,-1.1050612926483154,-2.415034294128418,0.9334755539894104
1777560304330357200,16.425357177734377,-4.234683513641357,-2.2398147583007812,-0.4630870223045349
1777560304348887300,16.44388720703125,-4.942066192626953,-1.4525032043457031,-1.402957558631897
1777560304367417300,16.462417236328125,-3.307451009750366,-0.5979776382446289,-2.45198392868042
1777560304385947100,16.480947021484376,-3.858307361602783,-0.5318574905395508,-3.326422929763794
1777560304404477200,16.499477294921874,-6.313824653625488,-0.05605602264404297,-2.0968055725097656
1777560304423007000,16.518007080078124,-6.9733500480651855,1.5744738578796387,-0.4222317337989807
1777560304441537000,16.536537109375,-5.927103519439697,3.0946435928344727,0.6458284854888916
1777560304460066800,16.55506689453125,-5.711474418640137,3.762448310852051,1.0385156869888306
1777560304478596900,16.573596923828124,-5.432552337646484,4.402203559875488,1.152721881866455
1777560304497127000,16.592126953125,-3.96903395652771,4.6557769775390625,1.0101687908172607
1777560304515656700,16.61065673828125,-3.8379900455474854,4.413764953613281,0.825652003288269
1777560304534186800,16.629186767578126,-2.864311456680298,4.201227188110352,0.9705694913864136
1777560304552716800,16.647716796875,-1.5346734523773193,4.575291633605957,1.2399706840515137
1777560304571246600,16.66624658203125,-0.5584077835083008,5.041128158569336,1.367800235748291
1777560304589776600,16.684776611328125,1.739917516708374,4.3454790115356445,1.8535807132720947
1777560304608306700,16.703306640625,4.657829284667969,2.302682399749756,3.18341064453125
1777560304626836500,16.72183642578125,8.083407402038574,-2.1662826538085938,5.269927978515625
1777560304645366500,16.740366455078124,13.287384033203125,-12.89047908782959,2.269665241241455
1777560304663896300,16.758896240234375,4.606183052062988,-20.07413673400879,-6.567337989807129
1777560304682426400,16.77742626953125,2.128436326980591,-8.296819686889648,-5.773135662078857
1777560304700956200,16.7959560546875,0.8057351112365723,3.4981184005737305,-0.9672321677207947
1777560304719486200,16.814486328125,0.06382584571838379,9.887383460998535,-0.9591168165206909
1777560304738016300,16.833016357421876,-1.9569098949432373,12.937634468078613,0.1785527467727661
1777560304756546300,16.85154638671875,-1.8077685832977295,8.163515090942383,2.785844564437866
1777560304775076000,16.870076171875,0.7931163311004639,-1.0335025787353516,3.921894073486328
1777560304793606100,16.888606201171875,4.107180595397949,-11.645758628845215,5.780101776123047
1777560304812136200,16.90713623046875,-0.9199988842010498,-17.984302520751953,2.232010841369629
1777560304830666000,16.925666015625,-13.078081130981445,-4.431164741516113,-1.214916467666626
1777560304849196000,16.944196044921874,-7.0863142013549805,5.03137731552124,3.167564868927002
1777560304867725800,16.962725830078124,-2.254230499267578,8.454270362854004,4.199241638183594
1777560304886255900,16.981255859375,-1.6177390813827515,9.517603874206543,4.44378662109375
1777560304904785700,16.99978564453125,-4.753840446472168,8.092915534973145,2.9307117462158203
1777560304923315700,17.018315673828123,-9.012965202331543,2.5060997009277344,0.9892009496688843
1777560304941845800,17.036845703125,-9.890939712524414,-8.170559883117676,-0.549752950668335
1777560304960375600,17.05537548828125,-3.7124834060668945,-14.965059280395508,-5.682952404022217
1777560304978905600,17.073905517578126,4.4918670654296875,-7.392945289611816,-7.925465106964111
1777560304997435600,17.092435546875,4.148463249206543,-1.487588882446289,-5.723596572875977
1777560305015965400,17.11096533203125,0.32683080434799194,2.285935878753662,-1.6418886184692383
1777560305034495500,17.12949560546875,-1.3206621408462524,3.850902557373047,1.3961986303329468
1777560305053025500,17.148025634765624,-2.356532096862793,4.229286193847656,2.8241641521453857
1777560305071555300,17.166555419921874,-1.8279345035552979,3.547738552093506,3.1986730098724365
1777560305090085000,17.185085205078124,-0.13825443387031555,1.2035818099975586,2.003607749938965
1777560305108615400,17.203615478515626,2.2150304317474365,-1.051248550415039,0.28362536430358887
1777560305127145200,17.222145263671877,2.253203868865967,-0.8408164978027344,-1.3165273666381836
1777560305145675300,17.24067529296875,1.802638292312622,0.055693626403808594,-2.9148759841918945
1777560305164205000,17.259205078125,0.0755649209022522,1.3226776123046875,-2.7973029613494873
1777560305182735000,17.277735107421876,-1.956787347793579,1.8934993743896484,-1.8835614919662476
1777560305201265200,17.29626513671875,-1.6966614723205566,1.603053092956543,-0.9736045598983765
1777560305219795000,17.314794921875,1.0387282371520996,0.7426958084106445,-0.5266342163085938
1777560305238325000,17.333324951171875,2.443700075149536,-0.5425930023193359,-0.7783726453781128
1777560305256855000,17.35185498046875,2.526634454727173,-1.2936553955078125,-1.0571415424346924
1777560305275384800,17.370384765625,1.871221899986267,-1.3143024444580078,-1.0599255561828613
1777560305293915000,17.388914794921874,1.3016105890274048,-1.0487594604492188,-0.5080647468566895
1777560305312445000,17.40744482421875,1.380594253540039,-0.8486919403076172,-0.45810389518737793
1777560305330974700,17.425974609375,1.6102229356765747,-0.818756103515625,-1.086601734161377
1777560305349504800,17.4445048828125,2.136698007583618,-1.1182069778442383,-1.7097724676132202
1777560305368034800,17.463034912109375,2.310722827911377,-1.455183982849121,-2.007145643234253
1777560305386564600,17.481564697265625,1.5469850301742554,-1.7037324905395508,-1.6995513439178467
1777560305405094700,17.5000947265625,1.6755759716033936,-1.9911165237426758,-1.3335378170013428
1777560305423624400,17.51862451171875,2.621988296508789,-2.4065418243408203,-2.043614387512207
1777560305442154500,17.537154541015624,3.3003053665161133,-2.9742374420166016,-3.745136260986328
1777560305460684500,17.5556845703125,3.1919002532958984,-3.11763858795166,-4.373146057128906
1777560305479214300,17.57421435546875,1.6872367858886719,-3.9921960830688477,-4.664689540863037
1777560305497744400,17.592744384765624,1.9248770475387573,-4.428900718688965,-4.205750942230225
1777560305516274200,17.611274169921874,2.044687032699585,-2.689168930053711,-1.7941277027130127
1777560305534804200,17.62980419921875,3.094531774520874,-0.16998672485351562,1.074737787246704
1777560305553334300,17.648334228515626,2.5017123222351074,1.5444002151489258,1.9637300968170166
1777560305571864300,17.6668642578125,-1.3259567022323608,0.9799690246582031,2.06937837600708
1777560305590394000,17.68539404296875,-3.2403085231781006,-1.3379526138305664,2.5224761962890625
1777560305608924200,17.703924072265625,-3.4536571502685547,-4.049935340881348,3.053373336791992
1777560305627454200,17.7224541015625,-1.1078749895095825,-4.687046051025391,2.658142328262329
1777560305645984000,17.74098388671875,-0.3286924362182617,-3.096467971801758,1.1831333637237549
1777560305664514000,17.75951416015625,-1.6988108158111572,-2.0172290802001953,0.09375613927841187
1777560305683044000,17.778044189453126,-4.583652496337891,-1.3776588439941406,-0.7453217506408691
1777560305701574000,17.796573974609377,-3.8695883750915527,-1.0452699661254883,-1.479981780052185
1777560305720104000,17.81510400390625,-1.7321395874023438,-1.062424659729004,-3.02620267868042
1777560305738634000,17.833634033203126,-4.113933086395264,-1.423018455505371,-3.513976812362671
1777560305757163800,17.852163818359376,-6.275412082672119,-0.4950428009033203,-1.7884031534194946
1777560305775693800,17.87069384765625,-6.50452995300293,1.5931153297424316,-0.4417095184326172
1777560305794223900,17.889223876953125,-6.496762275695801,2.9095325469970703,0.4279916286468506
1777560305812753700,17.907753662109375,-6.02646017074585,3.730748176574707,1.190237283706665
1777560305831283700,17.92628369140625,-5.569472312927246,4.703352928161621,1.5021181106567383
1777560305849813800,17.944813720703124,-3.841622829437256,5.087923049926758,1.060357689857483
1777560305868343600,17.963343505859374,-2.781393527984619,5.198269367218018,0.7749936580657959
1777560305886873600,17.98187353515625,-1.9021012783050537,5.132299423217773,0.8366612195968628
1777560305905403600,18.000403564453126,-1.0418078899383545,5.087204456329346,0.8892652988433838
1777560305923933400,18.018933349609377,-0.12707209587097168,4.73526668548584,0.850121021270752
1777560305942463500,18.03746337890625,2.0192818641662598,3.8209176063537598,1.438002109527588
1777560305960993300,18.0559931640625,4.105223178863525,1.6903891563415527,2.7699995040893555
1777560305979523300,18.0745234375,7.758626937866211,-2.0022525787353516,5.237063884735107
1777560305998053400,18.093053466796874,12.41102409362793,-11.786002159118652,2.4985127449035645
1777560306016583200,18.111583251953125,4.765621662139893,-19.41754150390625,-5.631386756896973
1777560306035113200,18.13011328125,2.183959484100342,-8.56344985961914,-5.176963806152344
1777560306053643300,18.148643310546873,-0.13043951988220215,3.3208999633789062,0.12439620494842529
1777560306072173000,18.167173095703124,-1.466996669769287,9.077898025512695,1.1018378734588623
1777560306090703000,18.185703125,-1.8870224952697754,11.940140724182129,2.375011920928955
1777560306109233200,18.204233154296876,0.1860792636871338,7.681763172149658,2.1204075813293457
1777560306127763000,18.222762939453126,2.9589593410491943,-0.8130865097045898,2.1943273544311523
1777560306146293000,18.24129296875,2.485292673110962,-10.989164352416992,5.733171463012695
1777560306164823000,18.259822998046875,-2.1111068725585938,-15.786020278930664,3.5146379470825195
1777560306183352800,18.278352783203125,-11.214111328125,-3.8867530822753906,-1.3631961345672607
1777560306201883000,18.2968828125,-7.454740524291992,5.412153244018555,2.6485657691955566
1777560306220413000,18.315412841796874,-2.5157554149627686,8.37673568725586,4.403745651245117
1777560306238942700,18.333942626953124,-1.7233920097351074,8.954375267028809,4.73333215713501
1777560306257472800,18.35247265625,-5.199323654174805,7.146062850952148,2.649245262145996
1777560306276002800,18.3710029296875,-9.340597152709961,0.980982780456543,0.8210874795913696
1777560306294532900,18.389532958984375,-9.707855224609375,-11.35309886932373,-1.3923001289367676
1777560306313062700,18.408062744140626,-4.8194732666015625,-12.502274513244629,-6.441389083862305
1777560306331592700,18.4265927734375,3.5672688484191895,-5.191811561584473,-8.267949104309082
1777560306350122800,18.445122802734375,4.11981201171875,-0.6026983261108398,-5.569581508636475
1777560306368652500,18.463652587890625,0.33094799518585205,2.0319719314575195,-0.8359242677688599
1777560306387182600,18.4821826171875,-1.601284146308899,3.3608994483947754,2.326402187347412
1777560306405712600,18.500712646484374,-2.1432793140411377,3.550732135772705,3.429564952850342
1777560306424242400,18.519242431640624,-0.9032168388366699,2.5915536880493164,2.599858283996582
1777560306442772500,18.5377724609375,1.000812292098999,0.6697502136230469,0.9056429862976074
1777560306461302500,18.556302490234376,2.1391372680664062,-1.108962059020996,-0.7933630347251892
1777560306479832300,18.574832275390627,2.372824192047119,-0.8963298797607422,-2.224566698074341
1777560306498362400,18.5933623046875,1.814375400543213,0.2525453567504883,-2.2815423011779785
1777560306516892400,18.611892333984375,-0.974586009979248,1.3968229293823242,-1.488415241241455
1777560306535422200,18.630422119140626,-2.899745464324951,1.9190106391906738,-0.25179773569107056
1777560306553952300,18.6489521484375,-0.7531232833862305,1.8227777481079102,-0.1400439739227295
1777560306572482300,18.667482421875,1.942244291305542,0.8857107162475586,-0.7709898948669434
1777560306591012000,18.68601220703125,2.1527810096740723,-0.2093667984008789,-1.5081887245178223
1777560306609542100,18.704542236328123,1.568232774734497,-1.0502777099609375,-1.5254764556884766
1777560306628072200,18.723072265625,1.6594023704528809,-1.288090705871582,-1.0794960260391235
1777560306646602200,18.741602294921876,2.000812530517578,-1.018540382385254,-0.5205316543579102
1777560306665132000,18.760132080078126,1.9034079313278198,-0.6687898635864258,-0.8880449533462524
1777560306683662000,18.778662109375,2.056788444519043,-0.5964183807373047,-1.755915880203247
1777560306702192000,18.797192138671875,2.449836492538452,-0.890838623046875,-1.8871960639953613
1777560306720722000,18.815721923828125,1.4208779335021973,-1.1514225006103516,-1.2998864650726318
1777560306739252000,18.834251953125,1.260791540145874,-1.616246223449707,-1.1461511850357056
1777560306757782000,18.852781982421874,2.350161075592041,-2.1335248947143555,-1.7022194862365723
1777560306776311800,18.871311767578124,3.1367664337158203,-2.907245635986328,-3.104086399078369
1777560306804107000,18.89910693359375,3.195183277130127,-2.93963623046875,-4.484401702880859
1777560306822636800,18.91763671875,2.4866960048675537,-3.74623966217041,-4.894060134887695
1777560306841166800,18.936166748046876,1.8116278648376465,-4.502285003662109,-4.113913536071777
1777560306859697000,18.95469677734375,1.9465980529785156,-3.5240707397460938,-2.280876874923706
1777560306878226700,18.973226806640625,2.9123940467834473,-0.8160505294799805,0.2938624620437622
1777560306896756700,18.9917568359375,1.683811902999878,0.9591255187988281,1.2307007312774658
1777560306915286800,19.010286865234374,-1.3473576307296753,-0.08590412139892578,1.8369474411010742
1777560306933816600,19.028816650390624,-2.729377269744873,-2.4872045516967773,2.7898778915405273
1777560306952346600,19.0473466796875,-2.3322322368621826,-4.898373603820801,2.9449081420898438
1777560306970876700,19.065876708984376,-0.8150278329849243,-4.623244285583496,1.7489030361175537
1777560306989406700,19.08440673828125,-1.6890249252319336,-2.6925048828125,0.39879459142684937
1777560307007936500,19.1029365234375,-4.019082069396973,-1.7085552215576172,-0.9730566740036011
1777560307026466600,19.121466552734375,-4.556640625,-0.8107776641845703,-1.2813546657562256
1777560307044996600,19.13999658203125,-3.0342249870300293,-0.1946096420288086,-1.714950680732727
1777560307063526400,19.1585263671875,-2.926893711090088,-0.14996337890625,-2.5096535682678223
1777560307082056400,19.177056396484375,-4.391261100769043,0.07217121124267578,-2.369633436203003
1777560307100586500,19.19558642578125,-5.6229352951049805,0.4334592819213867,-1.6252018213272095
1777560307119116300,19.2141162109375,-6.055072784423828,1.65462064743042,-0.17489945888519287
1777560307137646300,19.232646240234374,-5.80795431137085,2.2866997718811035,1.185129165649414
1777560307156176400,19.25117626953125,-5.342680931091309,2.652221202850342,1.688588261604309
1777560307174706200,19.2697060546875,-3.799253463745117,2.9941015243530273,0.9753509759902954
1777560307193236200,19.288236328125,-2.4576263427734375,3.27553653717041,0.5181530714035034
1777560307211766300,19.306766357421875,-1.9681663513183594,3.2641868591308594,0.8449498414993286
1777560307230296000,19.325296142578125,-2.0099804401397705,3.465134620666504,1.3434650897979736
1777560307248826000,19.343826171875,-2.047271966934204,3.8827362060546875,1.2447106838226318
1777560307267356200,19.362356201171874,-1.6985859870910645,4.291608810424805,0.8231410980224609
1777560307285886000,19.380885986328124,-0.7978301048278809,4.306647300720215,0.5409902334213257
1777560307304416000,19.399416015625,1.1387896537780762,3.8962197303771973,0.8348680734634399
1777560307322946000,19.417946044921877,2.7621946334838867,2.5140442848205566,1.4459916353225708
1777560307341476000,19.43647607421875,5.632577419281006,-0.6650800704956055,2.828059673309326
1777560307360006000,19.455005859375,10.640177726745605,-7.720162391662598,2.0776424407958984
1777560307378536000,19.473535888671876,9.577932357788086,-18.175151824951172,-3.3199949264526367
1777560307397066000,19.49206591796875,3.2320375442504883,-11.676230430603027,-4.068505764007568
1777560307415595800,19.510595703125,1.382319688796997,0.728266716003418,0.44275176525115967
1777560307434125800,19.529125732421875,0.29652881622314453,8.007616996765137,2.3546266555786133
1777560307452655900,19.54765576171875,-0.3511068820953369,11.148237228393555,3.431518077850342
1777560307471185700,19.566185546875,-2.6311779022216797,7.4752421379089355,6.297124862670898
1777560307489715700,19.5847158203125,1.8377795219421387,-2.108003616333008,7.168194770812988
1777560307508245800,19.603245849609376,0.4562528133392334,-11.323943138122559,2.891681671142578
1777560307526775600,19.621775634765626,-5.912975311279297,-8.725594520568848,-4.215250492095947
1777560307545305600,19.6403056640625,-9.807878494262695,1.6122541427612305,-1.220442295074463
1777560307563835600,19.658835693359375,-5.384514808654785,5.242577075958252,2.143528938293457
1777560307582365400,19.677365478515625,-3.877406120300293,5.685600280761719,2.5960917472839355
1777560307600895500,19.6958955078125,-3.198204517364502,4.975898742675781,2.258121967315674
1777560307619425500,19.714425537109374,-5.3655548095703125,1.8512201309204102,0.968456506729126
1777560307637955300,19.732955322265624,-6.575113773345947,-4.307407379150391,0.29249894618988037
1777560307656485400,19.7514853515625,-4.766590118408203,-9.659638404846191,-2.33880352973938
1777560307675015400,19.770015380859373,-1.609671950340271,-7.28452205657959,-4.769275665283203
1777560307693545200,19.788545166015624,2.1294198036193848,-3.073587417602539,-4.989890098571777
1777560307712075300,19.8070751953125,2.1986117362976074,0.23143577575683594,-2.9321413040161133
1777560307730605300,19.825605224609376,-0.06497985124588013,2.428549289703369,-0.24344292283058167
1777560307749135400,19.84413525390625,-3.1922991275787354,3.7502079010009766,1.3092364072799683
1777560307767665200,19.8626650390625,-3.324968099594116,3.8962464332580566,1.8111891746520996
1777560307786195200,19.8811953125,-1.7608115673065186,2.328484535217285,1.282397747039795
1777560307804725200,19.899725341796874,1.128490686416626,-0.23378658294677734,-0.01382090151309967
1777560307823255000,19.918255126953124,2.635430097579956,-1.0892143249511719,-1.3110618591308594
1777560307841785000,19.93678515625,2.978097438812256,-0.26431846618652344,-2.2248728275299072
1777560307860315100,19.955315185546876,1.0714372396469116,0.7584857940673828,-2.1047983169555664
1777560307878845000,19.973844970703126,-1.388650894165039,1.9110374450683594,-1.1290150880813599
1777560307897375000,19.992375,-1.4705095291137695,1.957840919494629,-0.5202382206916809
1777560307915905000,20.010905029296875,0.6947231292724609,1.1920175552368164,-0.6658995747566223
1777560307934434800,20.029434814453126,2.382255792617798,0.05096435546875,-1.1987509727478027
1777560307952964900,20.04796484375,2.2529847621917725,-1.2678585052490234,-1.7630665302276611
1777560307971495000,20.066494873046874,1.373957633972168,-1.838963508605957,-1.3818418979644775
1777560307990024700,20.085024658203125,0.9447231292724609,-1.4145231246948242,-0.22076088190078735
1777560308008554800,20.1035546875,1.1811035871505737,-0.7212972640991211,0.38660526275634766
1777560308027084800,20.122084716796873,1.9073487520217896,-0.20863914489746094,-0.11380165815353394
1777560308045614600,20.140614501953124,2.7496562004089355,-0.4211597442626953,-1.3309133052825928
1777560308064144600,20.15914453125,1.5378756523132324,-0.6531600952148438,-2.0131044387817383
1777560308082674700,20.1776748046875,-0.24152398109436035,-1.0658502578735352,-1.7698519229888916
1777560308101204500,20.19620458984375,0.5648889541625977,-1.785080909729004,-1.1964129209518433
1777560308119734500,20.214734619140625,3.3265113830566406,-2.5060205459594727,-1.2209357023239136
1777560308138264600,20.2332646484375,3.648653984069824,-2.6246185302734375,-2.2873454093933105
1777560308156794400,20.25179443359375,3.6175713539123535,-2.486360549926758,-3.625739574432373
1777560308175324400,20.270324462890624,2.678825616836548,-3.0410022735595703,-4.595901966094971
1777560308193854500,20.2888544921875,1.5318611860275269,-4.6857404708862305,-5.3204193115234375
1777560308212384300,20.30738427734375,0.7497190237045288,-4.468971252441406,-4.721186637878418
1777560308230914300,20.325914306640627,1.6088793277740479,-1.943343162536621,-1.8793230056762695
1777560308249444000,20.344444091796873,3.1777775287628174,0.6772165298461914,0.888218343257904
1777560308267974100,20.36297412109375,1.2561180591583252,0.9360971450805664,1.1003438234329224
1777560308286504200,20.381504150390626,-1.3261833190917969,-0.28974437713623047,1.6834685802459717
1777560308305034200,20.4000341796875,-1.968381643295288,-3.0234060287475586,2.1485562324523926
1777560308323564000,20.41856396484375,-2.0889291763305664,-4.523077011108398,2.020683765411377
1777560308342094000,20.437093994140625,-2.0107336044311523,-3.516219139099121,1.5239417552947998
1777560308360624000,20.4556240234375,-2.334469795227051,-1.7606801986694336,0.5188355445861816
1777560308379154000,20.47415380859375,-4.613544464111328,-1.1991052627563477,-0.4930049180984497
1777560308397684000,20.49268408203125,-5.004019260406494,-0.6062564849853516,-0.8457781672477722
1777560308416214000,20.511214111328126,-2.2560908794403076,-0.27843379974365234,-1.2961125373840332
1777560308434743800,20.529743896484376,-0.44240450859069824,-1.0892601013183594,-3.191939353942871
1777560308453273900,20.54827392578125,-3.1382720470428467,-1.300206184387207,-3.2048749923706055
1777560308471804000,20.566803955078125,-5.981325626373291,-0.6832494735717773,-1.404125452041626
1777560308490333700,20.585333740234375,-6.057746887207031,1.3193120956420898,0.4065462350845337
1777560308508863700,20.60386376953125,-5.824469089508057,2.787590980529785,1.2032557725906372
1777560308527393800,20.622393798828124,-6.006023406982422,3.780219078063965,1.1202049255371094
1777560308545923600,20.640923583984375,-4.545483589172363,4.267943382263184,0.36406803131103516
1777560308564453600,20.65945361328125,-3.145440101623535,4.32298469543457,0.4326503276824951
1777560308582983700,20.677983642578123,-2.6780385971069336,3.9707326889038086,0.9399058818817139
1777560308601513500,20.696513427734374,-2.1733689308166504,4.082456111907959,1.472086787223816
1777560308620043500,20.71504345703125,-1.815868616104126,4.878437042236328,1.6301498413085938
1777560308638573600,20.733573486328126,-0.890131950378418,5.597774505615234,1.8508448600769043
1777560308657103400,20.752103271484376,0.597564697265625,5.103710174560547,1.4706059694290161
1777560308675633400,20.77063330078125,3.2036237716674805,3.8496298789978027,2.0605900287628174
1777560308694163500,20.78916357421875,6.710838317871094,0.6357355117797852,3.1546502113342285
1777560308712693200,20.807693359375,14.183772087097168,-8.595670700073242,2.296321392059326
1777560308731223300,20.826223388671874,8.883535385131836,-23.65922737121582,-4.046446800231934
1777560308749753300,20.84475341796875,1.231945514678955,-14.218399047851562,-4.508983135223389
1777560308768283400,20.863283447265626,-0.2636120319366455,0.6457185745239258,-0.15203440189361572
1777560308786813200,20.881813232421877,-0.04508662223815918,8.918789863586426,0.24972271919250488
1777560308805343200,20.90034326171875,-0.9045290946960449,12.637960433959961,0.4379751682281494
1777560308823873300,20.918873291015625,0.25483036041259766,8.764167785644531,1.8592517375946045
1777560308842403000,20.937403076171876,5.363691806793213,-1.4984169006347656,1.8042582273483276
1777560308860933000,20.95593310546875,-0.21268248558044434,-11.905240058898926,2.371767282485962
1777560308879463200,20.974463134765625,-5.6021928787231445,-9.952871322631836,0.09608137607574463
1777560308897993000,20.992992919921875,-15.39826774597168,-0.09795188903808594,2.4198741912841797
1777560308916523000,21.01152294921875,-6.907997131347656,5.476472854614258,8.148263931274414
1777560308935053000,21.030052978515624,-1.0708268880844116,7.314940929412842,7.621442794799805
1777560308953582800,21.048582763671874,-1.5252230167388916,6.89619779586792,2.07665753364563
1777560308972113000,21.06711279296875,-6.391956806182861,4.161707878112793,-0.3734241724014282
1777560308990643000,21.085642822265626,-8.2205171585083,-1.462174415588379,-1.0263385772705078
1777560309009173000,21.104173095703125,-6.702567100524902,-10.439477920532227,-2.198497772216797
1777560309027702800,21.122702880859375,-4.33533239364624,-11.279952049255371,-5.915167808532715
1777560309046232800,21.14123291015625,1.8546645641326904,-4.765267372131348,-7.444396018981934
1777560309064763000,21.159762939453124,3.2942745685577393,-0.1348562240600586,-6.455081939697266
1777560309083292700,21.178292724609374,0.28924787044525146,2.9190797805786133,-2.7147791385650635
1777560309101822700,21.19682275390625,-2.0330896377563477,4.213062763214111,0.6193878650665283
1777560309120352800,21.215352783203127,-2.1257665157318115,4.3636627197265625,2.9250681400299072
1777560309138882600,21.233882568359373,0.35229453444480896,2.6845827102661133,3.527864694595337
1777560309157412600,21.25241259765625,2.069739818572998,0.3253364562988281,2.6483004093170166
1777560309175942700,21.270942626953126,2.9693844318389893,-0.8521938323974609,0.04882904887199402
1777560309194472700,21.28947265625,3.4280567169189453,0.02818775177001953,-2.1165249347686768
1777560309213002500,21.30800244140625,2.0962095260620117,0.8044748306274414,-2.9048004150390625
1777560309231532500,21.326532470703125,-2.1804044246673584,1.4183168411254883,-1.5074316263198853
1777560309250062600,21.3450625,-3.4065208435058594,1.4911928176879883,0.15823954343795776
1777560309268592400,21.36359228515625,0.7426586151123047,0.3452177047729492,0.16896849870681763
1777560309287122400,21.382122314453124,3.454829216003418,-1.0675573348999023,-1.0722031593322754
1777560309305652500,21.400652587890626,2.9447169303894043,-2.1884517669677734,-2.640507698059082
1777560309324182300,21.419182373046876,0.8352981805801392,-1.5843086242675781,-2.7419066429138184
1777560309342712300,21.43771240234375,0.4416426420211792,-0.2214193344116211,-1.38318932056427
1777560309361242400,21.456242431640625,2.5846540927886963,0.5078353881835938,-0.6511421203613281
1777560309379772400,21.4747724609375,3.3539700508117676,-0.344573974609375,-1.0129454135894775
1777560309398302200,21.49330224609375,1.5239723920822144,-2.058717727661133,-1.7126502990722656
1777560309416832300,21.511832275390624,0.6483044624328613,-3.6582584381103516,-2.0436758995056152
1777560309435362300,21.5303623046875,1.550828218460083,-4.053601264953613,-2.2445552349090576
1777560309453892000,21.54889208984375,3.2059640884399414,-3.520944595336914,-2.6847317218780518
1777560309472422100,21.567422119140623,3.7592504024505615,-2.9112300872802734,-3.078878879547119
1777560309490952200,21.5859521484375,3.2418956756591797,-3.6726999282836914,-3.1662487983703613
1777560309509482200,21.604482177734376,2.385439872741699,-4.345931053161621,-3.1829380989074707
1777560309528012000,21.623011962890626,2.1334526538848877,-3.946107864379883,-2.549778699874878
1777560309546542000,21.6415419921875,2.591815948486328,-1.8139314651489258,0.10683119297027588
1777560309565072100,21.660072021484375,3.290170669555664,0.7263898849487305,1.6895966529846191
1777560309583602000,21.678601806640625,-0.10258603096008301,1.4528388977050781,1.5977623462677002
1777560309602132000,21.697132080078124,-2.562479257583618,0.07481575012207031,2.5062496662139893
1777560309620662000,21.715662109375,-3.5180716514587402,-2.4815168380737305,3.4626715183258057
1777560309639191800,21.73419189453125,-1.8741201162338257,-3.9058351516723633,4.021921634674072
1777560309657721900,21.752721923828126,-0.4806872010231018,-3.21523380279541,2.9882867336273193
1777560309676252000,21.771251953125,-0.15806961059570312,-2.276219367980957,1.625685453414917
1777560309694781700,21.78978173828125,-1.4777064323425293,-1.7554426193237305,0.33468639850616455
1777560309713311700,21.808311767578125,-5.886025428771973,-1.687570571899414,-1.3858282566070557
1777560309731841800,21.826841796875,-5.244721412658691,-1.1602258682250977,-2.305055856704712
1777560309750371600,21.84537158203125,-3.6794474124908447,-0.8144960403442383,-3.433070659637451
1777560309768901600,21.863901611328124,-4.724512100219727,-0.4861888885498047,-2.572981834411621
1777560309787431700,21.882431640625,-6.262443542480469,0.8773918151855469,-1.1007139682769775
1777560309805961500,21.90096142578125,-6.418749809265137,2.3147449493408203,0.16418445110321045
1777560309824491500,21.919491455078123,-6.124506950378418,3.235548973083496,0.6442577838897705
1777560309843021600,21.938021484375,-5.223045825958252,4.072026252746582,0.5301700830459595
1777560309861551600,21.956551513671876,-4.0782904624938965,4.7734575271606445,0.3252694606781006
1777560309880081400,21.975081298828126,-3.671797752380371,5.115360736846924,0.2575252056121826
1777560309898611500,21.993611572265625,-2.728956460952759,5.1234965324401855,0.35072529315948486
1777560309917141500,22.0121416015625,-1.7755658626556396,5.132803916931152,0.37725234031677246
1777560309935671600,22.030671630859374,-1.1924984455108643,5.152536392211914,0.29451239109039307
1777560309954201300,22.049201416015624,0.4153919219970703,4.842508316040039,0.4976639747619629
1777560309972731400,22.0677314453125,3.9674088954925537,3.5645217895507812,1.7185934782028198
1777560309991261400,22.086261474609376,9.13739013671875,0.20148181915283203,4.457226753234863
1777560310009791500,22.10479150390625,15.294942855834961,-9.534645080566406,4.90965461730957
1777560310028321300,22.1233212890625,5.449491024017334,-22.050212860107422,-2.861682891845703
1777560310046851300,22.141851318359375,0.18465948104858398,-12.851283073425293,-5.284655570983887
1777560310065381400,22.16038134765625,-0.08568549156188965,-0.04343605041503906,-0.1129302978515625
1777560310083911200,22.1789111328125,0.7809762954711914,8.124616622924805,1.7454659938812256
1777560310102441200,22.197441162109374,0.12042808532714844,12.938870429992676,2.6446001529693604
1777560310120971300,22.21597119140625,-0.5524160861968994,10.842170715332031,3.5981571674346924
1777560310139501000,22.2345009765625,1.6159520149230957,2.140448570251465,3.313305377960205
1777560310158031000,22.253031005859373,3.172189235687256,-10.102998733520508,3.4775915145874023
1777560310176561200,22.27156103515625,0.13113069534301758,-14.855399131774902,1.8520982265472412
1777560310195091200,22.29009130859375,-11.132609367370605,-4.9727325439453125,-4.131899833679199
1777560310213621000,22.30862109375,-10.43212890625,4.628233909606934,1.8341113328933716
1777560310232151000,22.327151123046875,-2.9942450523376465,7.318216323852539,5.86539363861084
1777560310250681000,22.34568115234375,-2.565762996673584,7.5156402587890625,4.349362373352051
1777560310269211000,22.3642109375,-4.216293811798096,6.250655174255371,2.004939079284668
1777560310287741000,22.382740966796874,-7.275384902954102,2.123307228088379,0.9765678644180298
1777560310306271000,22.40127099609375,-8.648273468017578,-5.765372276306152,0.1572883129119873
1777560310324801000,22.419801025390626,-4.001823902130127,-14.066837310791016,-4.030974388122559
1777560310343331000,22.4383310546875,-0.7215187549591064,-9.085655212402344,-7.480434417724609
1777560310361860900,22.45686083984375,3.136213779449463,-2.273653984069824,-6.650949478149414
1777560310380391000,22.475390869140625,1.3367645740509033,1.7576751708984375,-3.938617706298828
1777560310398921000,22.4939208984375,-2.9877912998199463,4.005744934082031,0.08498044312000275
1777560310417450800,22.51245068359375,-3.877657651901245,4.79530143737793,2.7093262672424316
1777560310435980800,22.530980712890624,-0.7527559995651245,4.16362190246582,3.333559989929199
1777560310454510800,22.5495107421875,0.914609968662262,1.136683464050293,3.359438180923462
1777560310473040600,22.56804052734375,3.3464717864990234,-1.4202556610107422,1.2732621431350708
1777560310491570700,22.58657080078125,3.5080747604370117,-0.9260997772216797,-0.7461897730827332
1777560310510100700,22.605100830078126,2.6675734519958496,0.8505487442016602,-1.899377465248108
1777560310528630800,22.623630859375,-0.6829806566238403,1.8411664962768555,-2.0255374908447266
1777560310547160600,22.64216064453125,-3.641186237335205,2.537017345428467,-1.3053539991378784
1777560310565690600,22.660690673828125,-0.9639866352081299,2.3028125762939453,-0.6989372968673706
1777560310584220700,22.679220703125,3.1915221214294434,0.6019830703735352,-0.7406286001205444
1777560310602750700,22.697750732421873,3.515673875808716,-1.517411231994629,-1.751949429512024
1777560310621280800,22.71628076171875,1.7033084630966187,-2.6154298782348633,-2.5771238803863525
1777560310639810600,22.734810546875,0.44459033012390137,-2.1986284255981445,-2.285282611846924
1777560310658340600,22.753340576171876,1.4169812202453613,-1.2365894317626953,-1.6760389804840088
1777560310676870700,22.77187060546875,3.673884153366089,-0.8141336441040039,-1.6300591230392456
1777560310695400400,22.790400390625,3.70274019241333,-1.478398323059082,-1.6949491500854492
1777560310713930500,22.808930419921875,1.6089487075805664,-2.342741012573242,-1.3381283283233643
1777560310732460500,22.82746044921875,0.9693801403045654,-2.9832897186279297,-0.939436674118042
1777560310750990300,22.845990234375,2.2118983268737793,-3.247378349304199,-1.389940619468689
1777560310769520400,22.864520263671874,3.546782970428467,-3.025043487548828,-2.8184149265289307
1777560310788050400,22.883050537109376,3.2371766567230225,-2.439638137817383,-3.898955821990967
1777560310806580500,22.90158056640625,2.0997121334075928,-2.9557275772094727,-4.533341884613037
1777560310825110500,22.920110595703125,2.139824390411377,-4.389505386352539,-4.395321369171143
1777560310843640300,22.938640380859376,2.8231427669525146,-3.4549150466918945,-2.4158530235290527
1777560310862170400,22.95717041015625,4.24392032623291,-1.4036235809326172,-0.21544072031974792
1777560310880700400,22.975700439453124,2.9993185997009277,1.1342391967773438,0.8639878034591675
1777560310899230500,22.99423046875,-1.04635488986969,1.016240119934082,1.6356664896011353
1777560310917760300,23.01276025390625,-3.3009567260742188,-1.6575708389282227,2.6066977977752686
1777560310936290300,23.031290283203123,-3.488302230834961,-4.406711578369141,4.010871887207031
1777560310954820400,23.0498203125,-1.9791197776794434,-5.635834693908691,4.09511137008667
1777560310973350100,23.06835009765625,-0.31615376472473145,-4.238678932189941,3.1142992973327637
1777560310991880200,23.086880126953126,-2.0518243312835693,-2.437201499938965,1.1172919273376465
1777560311010410200,23.10541015625,-5.1730804443359375,-1.1496667861938477,-0.7521446943283081
1777560311028940300,23.123940185546875,-3.3708033561706543,-0.2300739288330078,-1.730993390083313
1777560311047470000,23.142469970703125,-2.107537269592285,-0.39501094818115234,-2.888216018676758
1777560311066000100,23.161000244140624,-4.985835552215576,-0.5064363479614258,-3.160060405731201
1777560311084530200,23.1795302734375,-6.981201648712158,-0.48834228515625,-2.1437997817993164
1777560311103060200,23.198060302734376,-6.747081756591797,1.0590600967407227,-0.39405691623687744
1777560311121590000,23.216590087890626,-6.689675331115723,2.9502944946289062,0.528958797454834
1777560311140120000,23.2351201171875,-6.768929958343506,4.115595817565918,0.7872277498245239
1777560311158650000,23.253650146484375,-4.725548267364502,4.729289531707764,0.8719300031661987
1777560311177180200,23.27218017578125,-3.9405884742736816,5.118052959442139,0.7019169330596924
1777560311195710000,23.2907099609375,-3.7694363594055176,5.305668354034424,0.6120741367340088
1777560311214240000,23.309239990234374,-2.055690288543701,4.766147136688232,0.3533813953399658
1777560311232770000,23.32777001953125,-1.838496208190918,4.561532974243164,0.19722938537597656
1777560311251300000,23.346300048828127,-1.2297730445861816,4.287263870239258,-0.07799851894378662
1777560311269830000,23.364829833984373,0.923149585723877,4.09406852722168,0.2856179475784302
1777560311288360000,23.38335986328125,5.452703475952148,3.183316707611084,1.83927321434021
1777560311306890000,23.401889892578126,8.982458114624023,-0.08677101135253906,4.611193656921387
1777560311325420000,23.420419921875,10.597375869750977,-8.296829223632812,4.189586162567139
1777560311343949800,23.43894970703125,7.180591583251953,-19.0654296875,-4.278925895690918
1777560311362479900,23.45747998046875,2.1668548583984375,-13.123464584350586,-6.88024377822876
1777560311381010000,23.476010009765623,1.0610365867614746,-0.6903800964355469,-1.0926560163497925
1777560311399539700,23.494539794921874,0.9488468170166016,6.994940757751465,1.8871735334396362
1777560311418069800,23.51306982421875,0.8427934646606445,11.203473091125488,3.735426425933838
1777560311436599800,23.531599853515626,-1.2364685535430908,9.428751945495605,5.638382434844971
1777560311455129900,23.5501298828125,2.1317429542541504,0.9250445365905762,5.5858306884765625
1777560311473660000,23.568659912109375,0.29369473457336426,-10.01616382598877,5.5790534019470215
1777560311492190000,23.58718994140625,-4.241467475891113,-12.367301940917969,-0.016957759857177734
1777560311510719700,23.6057197265625,-13.858716011047363,-2.017247200012207,-3.229494571685791
1777560311529249800,23.624249755859374,-6.708718299865723,4.7946319580078125,2.5278537273406982
1777560311547779800,23.64277978515625,-2.5535616874694824,6.215729236602783,2.503504753112793
1777560311566309600,23.6613095703125,-3.6542346477508545,6.0572052001953125,0.14190983772277832
1777560311584839700,23.679839599609377,-6.8999481201171875,4.240277290344238,-0.3317885398864746
1777560311603369700,23.69836962890625,-8.25059700012207,-0.9584693908691406,0.5231137275695801
1777560311621899500,23.7168994140625,-4.3553595542907715,-9.039819717407227,0.23482847213745117
1777560311640429600,23.7354296875,-2.017393112182617,-11.869681358337402,-4.25610876083374
1777560311658959600,23.753959716796874,1.6475539207458496,-4.358691215515137,-4.768503189086914
