time,seconds_elapsed,z,y,x
1777560288227855000,0.322855224609375,2.678920030593872,-9.38111686706543,0.9941878318786621
1777560288246385200,0.34138525390625,2.606419324874878,-9.400344848632812,1.0052274465560913
1777560288264915000,0.3599150390625,2.538891553878784,-9.4149751663208,1.0405129194259644
1777560288283445000,0.378445068359375,2.5799379348754883,-9.399401664733887,1.0796083211898804
1777560288311240000,0.406239990234375,2.609309196472168,-9.377524375915527,1.193284511566162
1777560288348299500,0.443299560546875,2.5497560501098633,-9.369523048400879,1.3715579509735107
1777560288366829600,0.46182958984375,2.534137725830078,-9.367603302001953,1.4129918813705444
1777560288385359600,0.480359619140625,2.5264673233032227,-9.366271018981934,1.4353851079940796
1777560288403889400,0.498889404296875,2.5449531078338623,-9.36288833618164,1.4247545003890991
1777560288422419200,0.517419189453125,2.6008801460266113,-9.35866641998291,1.349511742591858
1777560288440949200,0.53594921875,2.6738743782043457,-9.35435676574707,1.2315800189971924
1777560288459479300,0.554479248046875,2.7221767902374268,-9.356764793395996,1.1004983186721802
1777560288478009000,0.573009033203125,2.7360033988952637,-9.364663124084473,0.993863046169281
1777560288496539000,0.591538818359375,2.7161083221435547,-9.378612518310547,0.9136642813682556
1777560288515069000,0.61006884765625,2.6719634532928467,-9.39393424987793,0.8860019445419312
1777560288533599000,0.628598876953125,2.647733211517334,-9.398772239685059,0.9071890115737915
1777560288552128800,0.647128662109375,2.6389687061309814,-9.395490646362305,0.964883029460907
1777560288570658600,0.665658447265625,2.611133575439453,-9.395488739013672,1.037860631942749
1777560288589188600,0.684188720703125,2.566983222961426,-9.399779319763184,1.1068651676177979
1777560288607718400,0.702718505859375,2.501178503036499,-9.41241455078125,1.1493240594863892
1777560288626248400,0.72124853515625,2.413123369216919,-9.432011604309082,1.1766024827957153
1777560288644778200,0.7397783203125,2.308809757232666,-9.455109596252441,1.200286626815796
1777560288663308300,0.758308349609375,2.2294766902923584,-9.470804214477539,1.2262526750564575
1777560288681838000,0.776838134765625,2.211663007736206,-9.471541404724121,1.2525317668914795
1777560288700368100,0.7953681640625,2.2420382499694824,-9.463017463684082,1.2629146575927734
1777560288718898200,0.813898193359375,2.30725359916687,-9.448615074157715,1.2532522678375244
1777560288737428000,0.832427978515625,2.380178928375244,-9.431132316589355,1.2485488653182983
1777560288755957800,0.850957763671875,2.4289803504943848,-9.417901992797852,1.254415512084961
1777560288774487800,0.86948779296875,2.4406299591064453,-9.415937423706055,1.2465355396270752
1777560288793017600,0.888017578125,2.3932180404663086,-9.430047988891602,1.2317003011703491
1777560288811547600,0.906547607421875,2.322608709335327,-9.448569297790527,1.2249119281768799
1777560288830077400,0.925077392578125,2.2704708576202393,-9.461010932922363,1.2266324758529663
1777560288848607500,0.943607421875,2.2142205238342285,-9.474137306213379,1.228144645690918
1777560288867137300,0.96213720703125,2.1254796981811523,-9.493414878845215,1.2360405921936035
1777560288885667300,0.980667236328125,1.9922207593917847,-9.52039623260498,1.2504078149795532
1777560288904197000,0.999197021484375,1.8210943937301636,-9.55091667175293,1.2782717943191528
1777560288922727000,1.017726806640625,1.6285184621810913,-9.58178424835205,1.3067944049835205
1777560288941257000,1.036257080078125,1.4145231246948242,-9.614526748657227,1.3154433965682983
1777560288959787000,1.054787109375,1.189130187034607,-9.649663925170898,1.280755877494812
1777560288978316800,1.07331689453125,0.9388936161994934,-9.687849044799805,1.1976842880249023
1777560288996846600,1.0918466796875,0.6988421678543091,-9.723886489868164,1.0620946884155273
1777560289015376600,1.110376708984375,0.48662954568862915,-9.75063705444336,0.9266335964202881
1777560289033906400,1.128906494140625,0.3069944679737091,-9.767399787902832,0.8209954500198364
1777560289052436500,1.1474365234375,0.14572246372699738,-9.775742530822754,0.7642091512680054
1777560289070966300,1.16596630859375,-0.0010193866910412908,-9.778693199157715,0.7399645447731018
1777560289089496000,1.18449609375,-0.1558639258146286,-9.77852725982666,0.725591778755188
1777560289108026000,1.203026123046875,-0.2895200252532959,-9.777194023132324,0.7021699547767639
1777560289126556200,1.22155615234375,-0.4193989634513855,-9.77592658996582,0.6524936556816101
1777560289145086000,1.2400859375,-0.5536178946495056,-9.774059295654297,0.575889527797699
1777560289163615700,1.25861572265625,-0.669183075428009,-9.770569801330566,0.5084623694419861
1777560289182145800,1.277145751953125,-0.7911402583122253,-9.76416015625,0.4535064995288849
1777560289200675600,1.295675537109375,-0.921774685382843,-9.7553071975708,0.3933097720146179
1777560289219205600,1.31420556640625,-1.01889967918396,-9.74756145477295,0.34245625138282776
1777560289237735400,1.3327353515625,-1.07411789894104,-9.742783546447754,0.3079466223716736
1777560289256265500,1.351265380859375,-1.1327348947525024,-9.736759185791016,0.28777971863746643
1777560289274795300,1.369795166015625,-1.2028101682662964,-9.728534698486328,0.2814902365207672
1777560289293325000,1.388324951171875,-1.2782503366470337,-9.718952178955078,0.2800617516040802
1777560289311855000,1.406855224609375,-1.3530977964401245,-9.708703994750977,0.2838772237300873
1777560289330385200,1.42538525390625,-1.4252119064331055,-9.69802188873291,0.29588520526885986
1777560289348915000,1.4439150390625,-1.4956973791122437,-9.686617851257324,0.320494681596756
1777560289367444700,1.46244482421875,-1.5603642463684082,-9.67523193359375,0.3543025851249695
1777560289385974800,1.480974853515625,-1.6068207025527954,-9.665964126586914,0.39704668521881104
1777560289404504600,1.499504638671875,-1.6395010948181152,-9.658441543579102,0.44377559423446655
1777560289423034600,1.51803466796875,-1.672270655632019,-9.650508880615234,0.4915025234222412
1777560289441564400,1.536564453125,-1.701146125793457,-9.643081665039062,0.536155641078949
1777560289460094200,1.55509423828125,-1.7326704263687134,-9.635228157043457,0.5750011205673218
1777560289478624300,1.573624267578125,-1.7781884670257568,-9.62536907196045,0.6005894541740417
1777560289497154000,1.592154052734375,-1.8300049304962158,-9.614500999450684,0.618746817111969
1777560289515684000,1.61068408203125,-1.8728878498077393,-9.604846954345703,0.6399890184402466
1777560289534214000,1.6292138671875,-1.8981871604919434,-9.597686767578125,0.6720735430717468
1777560289552744000,1.647743896484375,-1.928351879119873,-9.589468955993652,0.7028073668479919
1777560289571273700,1.666273681640625,-1.9619262218475342,-9.580592155456543,0.7304049134254456
1777560289589803800,1.6848037109375,-1.9854661226272583,-9.573994636535645,0.7529529333114624
1777560289608333600,1.70333349609375,-2.003570318222046,-9.569343566894531,0.7640374302864075
1777560289626863400,1.72186328125,-2.014378070831299,-9.565953254699707,0.7779591083526611
1777560289645393400,1.740393310546875,-2.014155387878418,-9.564203262329102,0.7997268438339233
1777560289663923200,1.758923095703125,-1.977759838104248,-9.570226669311523,0.8182979822158813
1777560289682453200,1.777453369140625,-1.899484634399414,-9.58573055267334,0.8222674131393433
1777560289700983000,1.795983154296875,-1.7809381484985352,-9.609875679016113,0.8055655360221863
1777560289719512800,1.814512939453125,-1.6202079057693481,-9.642069816589355,0.7588089108467102
1777560289738043000,1.83304296875,-1.4172672033309937,-9.679341316223145,0.6870877742767334
1777560289756572700,1.85157275390625,-1.1812560558319092,-9.715633392333984,0.6176502108573914
1777560289775102700,1.870102783203125,-0.8841676115989685,-9.749252319335938,0.5837125182151794
1777560289793632500,1.888632568359375,-0.48099106550216675,-9.777239799499512,0.5870282649993896
1777560289812162600,1.90716259765625,0.01805855892598629,-9.787860870361328,0.6064981818199158
1777560289830692400,1.9256923828125,0.5247184038162231,-9.771894454956055,0.6365139484405518
1777560289849222400,1.944222412109375,0.9570757150650024,-9.738009452819824,0.6523537039756775
1777560289867752200,1.962752197265625,1.3242249488830566,-9.694270133972168,0.6617685556411743
1777560289886282200,1.9812822265625,1.6462081670761108,-9.64320182800293,0.6848615407943726
1777560289904812000,1.99981201171875,1.9400181770324707,-9.58736515045166,0.6993892788887024
1777560289923341800,2.018341796875,2.210407018661499,-9.525857925415039,0.7365685105323792
1777560289941871900,2.036871826171875,2.4216971397399902,-9.467097282409668,0.8245173692703247
1777560289960401700,2.055401611328125,2.578742504119873,-9.416753768920898,0.9193564057350159
1777560289978931700,2.073931640625,2.7849936485290527,-9.354290962219238,0.954692542552948
1777560289997461500,2.09246142578125,3.0632355213165283,-9.26940631866455,0.9300982356071472
1777560290015991300,2.1109912109375,3.308851718902588,-9.185921669006348,0.9169203042984009
1777560290034521300,2.129521240234375,3.5051541328430176,-9.10999584197998,0.944604754447937
1777560290053051100,2.148051025390625,3.6579227447509766,-9.041069030761719,1.0242410898208618
1777560290071581200,2.166581298828125,3.7864508628845215,-8.975691795349121,1.127007007598877
1777560290090111000,2.185111083984375,3.8881137371063232,-8.920540809631348,1.2152761220932007
1777560290108641000,2.20364111328125,3.955834150314331,-8.88134479522705,1.2819859981536865
1777560290127170800,2.2221708984375,3.977877140045166,-8.86498737335205,1.3262237310409546
1777560290145700900,2.240700927734375,3.9442508220672607,-8.874897956848145,1.3599464893341064
1777560290164230700,2.259230712890625,3.8465988636016846,-8.917409896850586,1.3615707159042358
1777560290182760400,2.277760498046875,3.700333833694458,-8.984213829040527,1.327340841293335
1777560290201290500,2.29629052734375,3.532010316848755,-9.0592622756958,1.2747750282287598
1777560290219820300,2.3148203125,3.375962257385254,-9.126001358032227,1.220396637916565
1777560290238350300,2.333350341796875,3.263343095779419,-9.171321868896484,1.186516523361206
1777560290256880000,2.351880126953125,3.2134625911712646,-9.191957473754883,1.162746787071228
1777560290275410000,2.370409912109375,3.250497579574585,-9.1845064163208,1.1178139448165894
1777560290293940000,2.38893994140625,3.3773138523101807,-9.147387504577637,1.0437541007995605
1777560290312469800,2.4074697265625,3.540407180786133,-9.093463897705078,0.972021758556366
1777560290330999800,2.425999755859375,3.704336404800415,-9.032800674438477,0.9256265759468079
1777560290349529600,2.444529541015625,3.8598787784576416,-8.966011047363281,0.9393545985221863
1777560290368059600,2.4630595703125,3.957336664199829,-8.911745071411133,1.0443531274795532
1777560290386589400,2.48158935546875,3.9554903507232666,-8.893044471740723,1.1992690563201904
1777560290405119500,2.500119384765625,3.864108085632324,-8.91295051574707,1.34103524684906
1777560290423649300,2.518649169921875,3.7217342853546143,-8.957605361938477,1.4423569440841675
1777560290442179000,2.537178955078125,3.637075424194336,-8.985300064086914,1.4854122400283813
1777560290460709000,2.555709228515625,3.6229329109191895,-8.991216659545898,1.4841735363006592
1777560290479239000,2.574239013671875,3.5454599857330322,-9.027806282043457,1.4487272500991821
1777560290497769000,2.59276904296875,3.382464647293091,-9.112313270568848,1.301941990852356
1777560290516298800,2.611298828125,3.1516964435577393,-9.219643592834473,1.1114730834960938
1777560290534828800,2.629828857421875,2.869518995285034,-9.319245338439941,1.043028712272644
1777560290553358600,2.648358642578125,2.5081868171691895,-9.423773765563965,1.0353232622146606
1777560290571888600,2.666888671875,2.0967533588409424,-9.52513313293457,1.022665023803711
1777560290590418400,2.68541845703125,1.7562370300292969,-9.594355583190918,1.017031192779541
1777560290608948200,2.7039482421875,1.5335966348648071,-9.634817123413086,0.9943740367889404
1777560290627478300,2.722478271484375,1.3282597064971924,-9.672624588012695,0.920029878616333
1777560290646008000,2.741008056640625,1.1348901987075806,-9.709697723388672,0.7772788405418396
1777560290664538000,2.7595380859375,0.9043232798576355,-9.747465133666992,0.5826735496520996
1777560290683068000,2.77806787109375,0.62144535779953,-9.778133392333984,0.41508471965789795
1777560290701598000,2.796597900390625,0.3174970746040344,-9.795748710632324,0.3359871506690979
1777560290720127700,2.815127685546875,0.07352258265018463,-9.800121307373047,0.3501374423503876
1777560290738657500,2.833657470703125,-0.1308823823928833,-9.797782897949219,0.39586251974105835
1777560290757187600,2.8521875,-0.3254907429218292,-9.792548179626465,0.4128437936306
1777560290775717600,2.870717529296875,-0.5133907198905945,-9.784980773925781,0.4011901021003723
1777560290794247400,2.889247314453125,-0.680411159992218,-9.775017738342285,0.3955678641796112
1777560290812777200,2.907777099609375,-0.8196310997009277,-9.764277458190918,0.3968435227870941
1777560290831307300,2.926307373046875,-0.9349077343940735,-9.753083229064941,0.4167904257774353
1777560290849837000,2.944837158203125,-1.0475773811340332,-9.739917755126953,0.4549247920513153
1777560290868367000,2.9633671875,-1.180228352546692,-9.72245979309082,0.5012207627296448
1777560290886897000,2.98189697265625,-1.3296656608581543,-9.699835777282715,0.561757504940033
1777560290905426700,3.0004267578125,-1.4878863096237183,-9.672752380371094,0.6280613541603088
1777560290923956700,3.018956787109375,-1.6270041465759277,-9.645846366882324,0.6934801340103149
1777560290942486800,3.03748681640625,-1.7295571565628052,-9.623209953308105,0.7568665742874146
1777560290961016600,3.0560166015625,-1.8162463903427124,-9.603577613830566,0.8018448948860168
1777560290979546400,3.07454638671875,-1.9070874452590942,-9.583296775817871,0.8329595923423767
1777560290998076400,3.093076416015625,-1.977596402168274,-9.566996574401855,0.8556146025657654
1777560291016606200,3.111606201171875,-2.015432119369507,-9.55605411529541,0.8889588117599487
1777560291035136300,3.13013623046875,-2.0608294010162354,-9.544063568115234,0.9133533835411072
1777560291053666000,3.148666015625,-2.1261215209960938,-9.528298377990723,0.9281891584396362
1777560291072196000,3.167196044921875,-2.1472361087799072,-9.522074699401855,0.9433303475379944
1777560291090726000,3.185725830078125,-2.1097207069396973,-9.52942943572998,0.9536512494087219
1777560291109256000,3.204255859375,-2.0264058113098145,-9.548072814941406,0.9478316903114319
1777560291127785700,3.22278564453125,-1.8905657529830933,-9.58005428314209,0.904821515083313
1777560291146315800,3.241315673828125,-1.7074658870697021,-9.622112274169922,0.8184680342674255
1777560291164845600,3.259845458984375,-1.4551478624343872,-9.6725492477417,0.7033721804618835
1777560291183375400,3.278375244140625,-1.1109448671340942,-9.726146697998047,0.5815974473953247
1777560291201905400,3.296905517578125,-0.6626251339912415,-9.77231216430664,0.48294684290885925
1777560291220435200,3.315435302734375,-0.1658758670091629,-9.796504020690918,0.41397684812545776
1777560291238965200,3.33396533203125,0.3234609365463257,-9.793058395385742,0.402221143245697
1777560291257495000,3.3524951171875,0.7769819498062134,-9.765389442443848,0.451509565114975
1777560291276025000,3.371025146484375,1.2092291116714478,-9.716334342956543,0.5486361384391785
1777560291294555000,3.389554931640625,1.6550711393356323,-9.64372730255127,0.6554609537124634
1777560291313085000,3.4080849609375,2.1057302951812744,-9.550517082214355,0.7238155007362366
1777560291331614700,3.42661474609375,2.4986515045166016,-9.451241493225098,0.7753565907478333
1777560291350144500,3.44514453125,2.7448179721832275,-9.375773429870605,0.8551216721534729
1777560291368674600,3.463674560546875,2.9328322410583496,-9.310494422912598,0.9399807453155518
1777560291387204600,3.48220458984375,3.2083218097686768,-9.218106269836426,0.9505724906921387
1777560291405734400,3.500734375,3.5122861862182617,-9.110321044921875,0.9144880771636963
1777560291424264200,3.51926416015625,3.766019582748413,-9.007793426513672,0.9204009175300598
1777560291442794200,3.537794189453125,3.9836995601654053,-8.908127784729004,0.9725075364112854
1777560291461324000,3.556323974609375,4.133232116699219,-8.831503868103027,1.0446616411209106
1777560291479854000,3.57485400390625,4.192079544067383,-8.796245574951172,1.105863332748413
1777560291498384000,3.5933837890625,4.173985004425049,-8.802651405334473,1.1231887340545654
1777560291516914000,3.611913818359375,4.092216968536377,-8.843221664428711,1.1052473783493042
1777560291535443700,3.630443603515625,3.967562437057495,-8.906105041503906,1.0536231994628906
1777560291553973800,3.648973876953125,3.7897095680236816,-8.992704391479492,0.9694145321846008
1777560291572503600,3.667503662109375,3.552277088165283,-9.097723960876465,0.8849560022354126
1777560291591033300,3.686033447265625,3.2983219623565674,-9.199653625488281,0.811066210269928
1777560291609563400,3.7045634765625,3.078003168106079,-9.281791687011719,0.7379902601242065
1777560291637358300,3.7323583984375,2.930767297744751,-9.331475257873535,0.7103365659713745
1777560291655888100,3.75088818359375,3.1252973079681396,-9.264171600341797,0.7602912187576294
1777560291674418200,3.769418212890625,3.4073901176452637,-9.162936210632324,0.7750310301780701
1777560291692948000,3.787947998046875,3.6509761810302734,-9.067240715026855,0.7911409735679626
1777560291711478000,3.80647802734375,3.8916313648223877,-8.95288372039795,0.9335352778434753
1777560291730007800,3.8250078125,4.003784656524658,-8.879875183105469,1.1348540782928467
1777560291748537900,3.843537841796875,3.947859048843384,-8.890442848205566,1.2429128885269165
1777560291767067600,3.862067626953125,3.802647113800049,-8.958646774291992,1.2053625583648682
1777560291785597700,3.88059765625,3.6536006927490234,-9.03462028503418,1.0941741466522217
1777560291804127500,3.89912744140625,3.575956106185913,-9.073858261108398,1.0237250328063965
1777560291822657500,3.917657470703125,3.50435209274292,-9.115121841430664,0.8969135880470276
1777560291841187300,3.936187255859375,3.375493049621582,-9.164959907531738,0.8831452131271362
1777560291859717000,3.954717041015625,3.16848087310791,-9.23252010345459,0.9442923665046692
1777560291878247200,3.9732470703125,2.779660701751709,-9.361559867858887,0.8972668051719666
1777560291896777200,3.991777099609375,2.278132677078247,-9.504819869995117,0.7993147373199463
1777560291915307000,4.01030712890625,1.808174729347229,-9.603755950927734,0.8177739381790161
1777560291933836800,4.0288369140625,1.5183727741241455,-9.646882057189941,0.8958773612976074
1777560291952366800,4.047366943359375,1.2569730281829834,-9.685830116271973,0.8803958892822266
1777560291970896600,4.065896728515625,0.9533917307853699,-9.732264518737793,0.7378754615783691
1777560291989426700,4.0844267578125,0.6790699362754822,-9.772364616394043,0.45841675996780396
1777560292007956500,4.10295654296875,0.3752538859844208,-9.797887802124023,0.17597556114196777
1777560292026486500,4.121486572265625,0.03632143512368202,-9.8065767288208,-0.011270814575254917
1777560292045016300,4.140016357421875,-0.26782703399658203,-9.802709579467773,-0.07450806349515915
1777560292063546400,4.15854638671875,-0.4814625680446625,-9.794809341430664,-0.0169988926500082
1777560292082076200,4.177076171875,-0.6565800905227661,-9.784374237060547,0.07276789844036102
1777560292100606200,4.195606201171875,-0.8137032985687256,-9.771876335144043,0.1368197202682495
1777560292119136000,4.214135986328125,-0.9348862171173096,-9.760313034057617,0.18078415095806122
1777560292137666000,4.232666015625,-1.0568312406539917,-9.747398376464844,0.20430350303649902
1777560292156195800,4.25119580078125,-1.2260676622390747,-9.726462364196777,0.2511289715766907
1777560292174726000,4.269725830078125,-1.4426065683364868,-9.693644523620605,0.3500407934188843
1777560292193255700,4.288255615234375,-1.6423192024230957,-9.656159400939941,0.4814290404319763
1777560292211785700,4.30678564453125,-1.7938674688339233,-9.621461868286133,0.6163744330406189
1777560292230315500,4.3253154296875,-1.9284499883651733,-9.587549209594727,0.7282720804214478
1777560292248845600,4.343845458984375,-2.0707967281341553,-9.55210018157959,0.7997329831123352
1777560292267375400,4.362375244140625,-2.1974782943725586,-9.520813941955566,0.8340120315551758
1777560292285905400,4.380905517578125,-2.2837655544281006,-9.499753952026367,0.8423010110855103
1777560292304435200,4.399435302734375,-2.3339176177978516,-9.48591423034668,0.8606127500534058
1777560292322965200,4.41796533203125,-2.381378412246704,-9.471284866333008,0.8911777138710022
1777560292341495000,4.4364951171875,-2.4315311908721924,-9.455694198608398,0.9208078980445862
1777560292360025000,4.455025146484375,-2.444014072418213,-9.45029067993164,0.9429760575294495
1777560292378555000,4.473554931640625,-2.417283296585083,-9.45633316040039,0.951259195804596
1777560292397085000,4.4920849609375,-2.3427774906158447,-9.478072166442871,0.9208278656005859
1777560292415614700,4.51061474609375,-2.1901228427886963,-9.5216703414917,0.8435254096984863
1777560292434144800,4.529144775390625,-1.9462841749191284,-9.584297180175781,0.7235984802246094
1777560292452674600,4.547674560546875,-1.6024893522262573,-9.6572847366333,0.5824493169784546
1777560292471204600,4.56620458984375,-1.1393842697143555,-9.728596687316895,0.476024329662323
1777560292489734400,4.584734375,-0.6134228110313416,-9.778801918029785,0.411244660615921
1777560292508264400,4.603264404296875,-0.10551205277442932,-9.797757148742676,0.40398213267326355
1777560292526794200,4.621794189453125,0.33575576543807983,-9.790379524230957,0.45399272441864014
1777560292545324300,4.64032421875,0.7422733902931213,-9.764323234558105,0.5267060995101929
1777560292563854000,4.65885400390625,1.169124722480774,-9.718015670776367,0.6030970811843872
1777560292582383900,4.6773837890625,1.6183503866195679,-9.647745132446289,0.6872731447219849
1777560292600914000,4.695913818359375,2.063027858734131,-9.555611610412598,0.7775617241859436
1777560292619444000,4.71444384765625,2.46112060546875,-9.453596115112305,0.8618568778038025
1777560292637973800,4.732973876953125,2.7662816047668457,-9.358837127685547,0.9644957780838013
1777560292656503800,4.75150390625,3.0196261405944824,-9.268047332763672,1.074963092803955
1777560292675033600,4.77003369140625,3.2611982822418213,-9.176188468933105,1.1543610095977783
1777560292693563600,4.788563720703125,3.487215280532837,-9.086564064025879,1.2016973495483398
1777560292712093700,4.80709375,3.69120717048645,-9.001940727233887,1.2290037870407104
1777560292730623500,4.82562353515625,3.8673832416534424,-8.92430591583252,1.2531951665878296
1777560292749153300,4.8441533203125,3.9907596111297607,-8.865386009216309,1.2841992378234863
1777560292767683300,4.862683349609375,4.06115198135376,-8.829211235046387,1.3124256134033203
1777560292786213400,4.88121337890625,4.091236114501953,-8.815533638000488,1.3109334707260132
1777560292804743200,4.8997431640625,4.076736927032471,-8.826165199279785,1.2842942476272583
1777560292823273000,4.91827294921875,3.990762948989868,-8.871223449707031,1.243218183517456
1777560292841803000,4.936802978515625,3.830580234527588,-8.946954727172852,1.2037601470947266
1777560292860333000,4.9553330078125,3.6192305088043213,-9.040857315063477,1.1551804542541504
1777560292878862800,4.97386279296875,3.3995490074157715,-9.133838653564453,1.0892417430877686
1777560292897392600,4.992392578125,3.2141060829162598,-9.21136474609375,0.9953157305717468
1777560292915922700,5.010922607421875,3.097907304763794,-9.258598327636719,0.9228846430778503
1777560292934452700,5.02945263671875,3.1257412433624268,-9.248541831970215,0.9298405647277832
1777560292952982500,5.047982421875,3.3380584716796875,-9.169917106628418,0.9697285294532776
1777560292971512600,5.0665126953125,3.574354887008667,-9.080575942993164,0.9682484865188599
1777560292990042400,5.08504248046875,3.790889024734497,-8.991325378417969,0.9775548577308655
1777560293008572400,5.103572509765625,3.98571515083313,-8.896710395812988,1.0644315481185913
1777560293027102200,5.122102294921875,4.037829875946045,-8.857401847839355,1.1885935068130493
1777560293045632300,5.14063232421875,3.9259510040283203,-8.893502235412598,1.2895357608795166
1777560293064162300,5.159162353515625,3.7676000595092773,-8.951338768005371,1.3598209619522095
1777560293082692000,5.177692138671875,3.6902999877929688,-8.974617004394531,1.4171491861343384
1777560293101222000,5.196221923828125,3.6188883781433105,-8.982376098632812,1.546273112297058
1777560293119752000,5.214751953125,3.552701473236084,-9.009086608886719,1.5443634986877441
1777560293138282000,5.233281982421875,3.4772861003875732,-9.04836654663086,1.4852406978607178
1777560293156811800,5.251811767578125,3.3079416751861572,-9.119431495666504,1.4366204738616943
1777560293175341800,5.270341796875,2.976465940475464,-9.246003150939941,1.3499804735183716
1777560293193871600,5.28887158203125,2.524078845977783,-9.402738571166992,1.1780924797058105
1777560293212401700,5.307401611328125,2.029125452041626,-9.533867835998535,1.0762872695922852
1777560293230931700,5.325931640625,1.6189483404159546,-9.609564781188965,1.0980292558670044
1777560293249461500,5.34446142578125,1.3608359098434448,-9.651009559631348,1.084678053855896
1777560293267991300,5.3629912109375,1.1202538013458252,-9.690321922302246,1.006527304649353
1777560293286521300,5.381521240234375,0.8812296986579895,-9.733879089355469,0.8033748865127563
1777560293305051400,5.400051513671875,0.6480739116668701,-9.772234916687012,0.503805935382843
1777560293323581200,5.418581298828125,0.3812609910964966,-9.796577453613281,0.22823578119277954
1777560293342111200,5.437111328125,0.07415591925382614,-9.806242942810059,0.04990171641111374
1777560293360641000,5.45564111328125,-0.19726955890655518,-9.804665565490723,0.002040879102423787
1777560293379171000,5.474171142578125,-0.3891885578632355,-9.79883098602295,0.042955491691827774
1777560293397700900,5.492700927734375,-0.5677316188812256,-9.789742469787598,0.09491439908742905
1777560293416231000,5.51123095703125,-0.7310413122177124,-9.77873706817627,0.11073033511638641
1777560293434761000,5.529760986328125,-0.8559839725494385,-9.768590927124023,0.11091163754463196
1777560293453290800,5.548290771484375,-0.9560967087745667,-9.759090423583984,0.12816815078258514
1777560293471820500,5.566820556640625,-1.0856103897094727,-9.744656562805176,0.18301482498645782
1777560293490350600,5.5853505859375,-1.2598493099212646,-9.721919059753418,0.25969770550727844
1777560293508880600,5.603880615234375,-1.4373893737792969,-9.694605827331543,0.34484708309173584
1777560293527410400,5.622410400390625,-1.599603533744812,-9.665450096130371,0.43672722578048706
1777560293545940500,5.6409404296875,-1.7521841526031494,-9.634454727172852,0.5267953872680664
1777560293564470300,5.65947021484375,-1.906883716583252,-9.600059509277344,0.6107714772224426
1777560293583000300,5.678000244140625,-2.0573537349700928,-9.564078330993652,0.6827064752578735
1777560293601530400,5.6965302734375,-2.172917604446411,-9.534005165100098,0.7426727414131165
1777560293620060200,5.71506005859375,-2.247662305831909,-9.512937545776367,0.7889382839202881
1777560293638590200,5.733590087890625,-2.2961783409118652,-9.498855590820312,0.8183546662330627
1777560293657120000,5.7521201171875,-2.3404276371002197,-9.486111640930176,0.8405130505561829
1777560293675650000,5.770650146484375,-2.411485195159912,-9.467377662658691,0.850822389125824
1777560293694179800,5.789179931640625,-2.4935836791992188,-9.445096969604492,0.8617290258407593
1777560293712710000,5.8077099609375,-2.5358245372772217,-9.432090759277344,0.8807096481323242
1777560293731240000,5.826239990234375,-2.521460771560669,-9.433168411254883,0.9099088311195374
1777560293749769700,5.844769775390625,-2.465359687805176,-9.44808578491211,0.9088781476020813
1777560293768299500,5.863299560546875,-2.366312026977539,-9.477938652038574,0.8600215911865234
1777560293786829600,5.88182958984375,-2.221243381500244,-9.52099895477295,0.7661874890327454
1777560293805359600,5.900359619140625,-1.9926058053970337,-9.580713272094727,0.6401904225349426
1777560293823889400,5.918889404296875,-1.6521257162094116,-9.65272331237793,0.5155673027038574
1777560293842419500,5.93741943359375,-1.2034448385238647,-9.72363567352295,0.4159625172615051
1777560293860949200,5.95594921875,-0.6827860474586487,-9.776805877685547,0.34390681982040405
1777560293879479300,5.974479248046875,-0.145166277885437,-9.800621032714844,0.31168246269226074
1777560293898009000,5.993009033203125,0.3248523771762848,-9.795767784118652,0.3283520042896271
1777560293916539100,6.0115390625,0.7295888066291809,-9.771622657775879,0.391755610704422
1777560293935069200,6.030069091796875,1.1368767023086548,-9.728628158569336,0.48133158683776855
1777560293953599000,6.048598876953125,1.553503155708313,-9.665834426879883,0.5733004808425903
1777560293972129000,6.06712890625,1.9409105777740479,-9.58972454071045,0.6636601090431213
1777560293990658800,6.085658935546875,2.2448134422302246,-9.514693260192871,0.775771975517273
1777560294009188900,6.10418896484375,2.531710147857666,-9.430278778076172,0.9114176630973816
1777560294027718700,6.12271875,2.8611578941345215,-9.321483612060547,1.045984148979187
1777560294046248700,6.141248779296875,3.178363561630249,-9.204649925231934,1.1588047742843628
1777560294064778800,6.15977880859375,3.4482569694519043,-9.097749710083008,1.2291679382324219
1777560294083308500,6.17830859375,3.6918771266937256,-8.995436668395996,1.2737990617752075
1777560294101838600,6.196838623046875,3.886345148086548,-8.904682159423828,1.3316665887832642
1777560294120368400,6.215368408203125,4.031104564666748,-8.828554153442383,1.406136155128479
1777560294138898400,6.2338984375,4.1386871337890625,-8.767003059387207,1.4769290685653687
1777560294157428500,6.252428466796875,4.202446460723877,-8.731022834777832,1.5096540451049805
1777560294175958300,6.270958251953125,4.205819129943848,-8.727456092834473,1.5208446979522705
1777560294194488300,6.28948828125,4.140196323394775,-8.760394096374512,1.511504888534546
1777560294213018000,6.30801806640625,3.9872117042541504,-8.838882446289062,1.465153694152832
1777560294231548200,6.326548095703125,3.7646472454071045,-8.947763442993164,1.3911690711975098
1777560294250078000,6.345077880859375,3.5245044231414795,-9.058516502380371,1.3005855083465576
1777560294268608000,6.36360791015625,3.3354156017303467,-9.142022132873535,1.2119463682174683
1777560294287138000,6.382137939453125,3.252650260925293,-9.177803993225098,1.1655769348144531
1777560294305667800,6.400667724609375,3.3153059482574463,-9.148626327514648,1.2172844409942627
1777560294324198000,6.419197998046875,3.517784833908081,-9.058149337768555,1.3211766481399536
1777560294342727700,6.437727783203125,3.71699595451355,-8.972269058227539,1.3611434698104858
1777560294361257700,6.4562578125,3.8898372650146484,-8.900416374206543,1.3498620986938477
1777560294379787500,6.47478759765625,4.039412021636963,-8.829819679260254,1.3739768266677856
1777560294398317600,6.493317626953125,4.091187477111816,-8.795367240905762,1.440172553062439
1777560294416847600,6.51184765625,4.0180816650390625,-8.814659118652344,1.5255099534988403
1777560294435377400,6.53037744140625,3.8825957775115967,-8.869551658630371,1.5578465461730957
1777560294453907500,6.548907470703125,3.783334493637085,-8.921038627624512,1.5072587728500366
1777560294472437200,6.567437255859375,3.7335281372070312,-8.95069694519043,1.454710841178894
1777560294490967300,6.58596728515625,3.6502890586853027,-8.973297119140625,1.5250245332717896
1777560294509497300,6.604497314453125,3.5939440727233887,-9.01114559173584,1.4329034090042114
1777560294528027100,6.623027099609375,3.5018956661224365,-9.072138786315918,1.2662609815597534
1777560294546557200,6.64155712890625,3.318834066390991,-9.152503967285156,1.1778759956359863
1777560294565087000,6.6600869140625,2.9754457473754883,-9.27200698852539,1.1606014966964722
1777560294583617000,6.678616943359375,2.4832839965820312,-9.427010536193848,1.0654405355453491
1777560294602146800,6.697146728515625,1.9459202289581299,-9.555658340454102,1.0359426736831665
1777560294620676900,6.7156767578125,1.5622674226760864,-9.614141464233398,1.1393028497695923
1777560294639207000,6.73420703125,1.3819732666015625,-9.63747787475586,1.1745445728302002
1777560294657736700,6.75273681640625,1.1384737491607666,-9.676493644714355,1.1134345531463623
1777560294676266800,6.771266845703125,0.8668299913406372,-9.726688385009766,0.9002943634986877
1777560294694796500,6.789796630859375,0.6075980067253113,-9.769808769226074,0.5933197736740112
1777560294713326600,6.80832666015625,0.3274679183959961,-9.795525550842285,0.33292943239212036
1777560294731856400,6.8268564453125,0.011774063110351562,-9.804733276367188,0.19352494180202484
1777560294750386400,6.845386474609375,-0.2665078938007355,-9.801582336425781,0.1683809757232666
1777560294768916500,6.86391650390625,-0.5034992694854736,-9.791587829589844,0.2041698396205902
1777560294787446300,6.8824462890625,-0.7471320033073425,-9.774843215942383,0.25422948598861694
1777560294805976300,6.900976318359375,-0.9294217824935913,-9.758469581604004,0.28081533312797546
1777560294824506000,6.919506103515625,-1.066105604171753,-9.743767738342285,0.304588258266449
1777560294843036200,6.9380361328125,-1.1814334392547607,-9.729658126831055,0.3291720449924469
1777560294861566000,6.95656591796875,-1.3203827142715454,-9.710299491882324,0.3701974153518677
1777560294880096000,6.975095947265625,-1.525412678718567,-9.677203178405762,0.44185903668403625
1777560294898626000,6.9936259765625,-1.7368189096450806,-9.637370109558105,0.5243533849716187
1777560294917155800,7.01215576171875,-1.9045568704605103,-9.600464820861816,0.6116526126861572
1777560294935686000,7.030685791015625,-2.0349035263061523,-9.568012237548828,0.6947652101516724
1777560294954215700,7.049215576171875,-2.152801513671875,-9.536662101745605,0.7667610049247742
1777560294972745700,7.067745849609375,-2.272183418273926,-9.504472732543945,0.8201033473014832
1777560294991275800,7.08627587890625,-2.383206367492676,-9.472501754760742,0.8731773495674133
1777560295009805600,7.1048056640625,-2.460529327392578,-9.447629928588867,0.9265379905700684
1777560295028335600,7.123335693359375,-2.5266494750976562,-9.425745010375977,0.9704437255859375
1777560295046865400,7.141865478515625,-2.6005215644836426,-9.402873992919922,0.9968151450157166
1777560295065395500,7.1603955078125,-2.621953248977661,-9.394685745239258,1.0176571607589722
1777560295083925200,7.17892529296875,-2.5485310554504395,-9.411717414855957,1.046394944190979
1777560295102455300,7.197455322265625,-2.409607172012329,-9.447833061218262,1.050054907798767
1777560295120985300,7.2159853515625,-2.2135887145996094,-9.502147674560547,0.989739716053009
1777560295139515100,7.23451513671875,-1.943162441253662,-9.570858001708984,0.8906024098396301
1777560295158045200,7.253045166015625,-1.5612150430679321,-9.652078628540039,0.7552230358123779
1777560295176575000,7.271574951171875,-1.071557879447937,-9.729220390319824,0.6036738157272339
1777560295195105000,7.29010498046875,-0.5141376852989197,-9.781657218933105,0.4745906591415405
1777560295213634800,7.308634765625,0.0699765756726265,-9.7992582321167,0.3742067813873291
1777560295232164900,7.327164794921875,0.6078875660896301,-9.781764030456543,0.3434174358844757
1777560295250695000,7.34569482421875,1.0514336824417114,-9.74062728881836,0.4301871359348297
1777560295269224700,7.364224609375,1.441178321838379,-9.682158470153809,0.59092777967453
1777560295287754800,7.382754638671875,1.8546663522720337,-9.60135555267334,0.7379456162452698
1777560295306284500,7.401284423828125,2.259758949279785,-9.504151344299316,0.85731041431427
1777560295324814600,7.419814697265625,2.6255645751953125,-9.396087646484375,0.9951480627059937
1777560295343344600,7.4383447265625,3.0172007083892822,-9.263649940490723,1.1187905073165894
1777560295361874400,7.45687451171875,3.3797526359558105,-9.12838077545166,1.1917771100997925
1777560295380404500,7.475404541015625,3.6606557369232178,-9.014931678771973,1.2251509428024292
1777560295398934500,7.4939345703125,3.9060943126678467,-8.908173561096191,1.2478995323181152
1777560295417464300,7.51246435546875,4.141969680786133,-8.792499542236328,1.306299090385437
1777560295435994000,7.530994140625,4.346325397491455,-8.677699089050293,1.4061884880065918
1777560295454524200,7.549524169921875,4.478877544403076,-8.590326309204102,1.5219517946243286
1777560295473054200,7.56805419921875,4.516712665557861,-8.558247566223145,1.5893754959106445
1777560295491584000,7.586583984375,4.455251216888428,-8.594254493713379,1.5684146881103516
1777560295510114000,7.605114013671875,4.3060712814331055,-8.683980941772461,1.4888293743133545
1777560295528644000,7.62364404296875,4.084482669830322,-8.807726860046387,1.3825103044509888
1777560295547174000,7.642173828125,3.782776117324829,-8.959985733032227,1.2568384408950806
1777560295565703700,7.66070361328125,3.4526021480560303,-9.1120023727417,1.10514235496521
1777560295584233700,7.679233642578125,3.206110715866089,-9.218205451965332,0.9570437669754028
1777560295602763800,7.697763671875,3.1326770782470703,-9.247424125671387,0.9175368547439575
1777560295621293600,7.71629345703125,3.285712957382202,-9.184882164001465,1.0061885118484497
1777560295639823600,7.73482373046875,3.5173799991607666,-9.088327407836914,1.095786452293396
1777560295658353700,7.753353759765625,3.6961863040924072,-9.013501167297363,1.1249043941497803
1777560295676883500,7.771883544921875,3.8966164588928223,-8.91530704498291,1.226410984992981
1777560295695413200,7.790413330078125,4.0118303298950195,-8.844012260437012,1.3634713888168335
1777560295713943300,7.808943359375,3.9871644973754883,-8.845938682556152,1.4220671653747559
1777560295732473300,7.827473388671875,3.922811985015869,-8.866189956665039,1.4739841222763062
1777560295751003100,7.846003173828125,3.834353446960449,-8.881552696228027,1.608151912689209
1777560295769533200,7.864533203125,3.7799572944641113,-8.921100616455078,1.5153470039367676
1777560295788063000,7.88306298828125,3.66452693939209,-9.009538650512695,1.2529391050338745
1777560295806593000,7.901593017578125,3.495002269744873,-9.089661598205566,1.1547253131866455
1777560295825123000,7.920123046875,3.202077865600586,-9.19829273223877,1.143890619277954
1777560295843652900,7.93865283203125,2.73459529876709,-9.36437702178955,1.000410556793213
1777560295862183000,7.957182861328125,2.2055137157440186,-9.51413631439209,0.8873085379600525
1777560295880713000,7.975712890625,1.8230451345443726,-9.589326858520508,0.9442982077598572
1777560295899242800,7.99424267578125,1.6193393468856812,-9.616532325744629,1.0346226692199707
1777560295917772500,8.0127724609375,1.3419408798217773,-9.657389640808105,1.0509097576141357
1777560295936302600,8.031302490234374,1.0160268545150757,-9.711630821228027,0.9068113565444946
1777560295954832600,8.04983251953125,0.7593433856964111,-9.758121490478516,0.6106166839599609
1777560295973362400,8.068362548828125,0.47852209210395813,-9.790513038635254,0.29539209604263306
1777560295991892200,8.086892333984375,0.13050958514213562,-9.805546760559082,0.06790731102228165
1777560296010422300,8.10542236328125,-0.20794406533241272,-9.804428100585938,-0.018395930528640747
1777560296028952300,8.123952392578126,-0.46490350365638733,-9.795605659484863,0.018858613446354866
1777560296047482000,8.142482177734376,-0.6612239480018616,-9.783767700195312,0.10514426231384277
1777560296066012200,8.16101220703125,-0.8268185257911682,-9.769899368286133,0.18926289677619934
1777560296084542200,8.179542236328125,-0.9832992553710938,-9.753862380981445,0.2562830448150635
1777560296103072000,8.198072021484375,-1.1407274007797241,-9.735394477844238,0.30205461382865906
1777560296121602000,8.21660205078125,-1.3317614793777466,-9.708863258361816,0.36710962653160095
1777560296140131800,8.2351318359375,-1.569102168083191,-9.66893196105957,0.46912020444869995
1777560296158662000,8.253661865234376,-1.789860725402832,-9.62523365020752,0.5671606063842773
1777560296177191700,8.272191650390624,-1.957929015159607,-9.587312698364258,0.648346483707428
1777560296195721700,8.2907216796875,-2.086122512817383,-9.556203842163086,0.7053025960922241
1777560296214251800,8.309251708984375,-2.20580792427063,-9.526609420776367,0.7406142950057983
1777560296232781600,8.327781494140625,-2.3280575275421143,-9.494903564453125,0.7728649377822876
1777560296251311600,8.3463115234375,-2.416083335876465,-9.46818733215332,0.8284762501716614
1777560296269841400,8.36484130859375,-2.44630765914917,-9.453814506530762,0.9007526636123657
1777560296288371500,8.383371337890624,-2.4575135707855225,-9.445297241210938,0.9577969312667847
1777560296306901500,8.401901611328125,-2.4712071418762207,-9.439119338989258,0.9831339120864868
1777560296325431300,8.420431396484375,-2.4586522579193115,-9.443266868591309,0.9747465252876282
1777560296343961000,8.438961181640625,-2.3881149291992188,-9.465867042541504,0.9298755526542664
1777560296362491100,8.4574912109375,-2.2530508041381836,-9.506375312805176,0.8502817153930664
1777560296381021200,8.476021240234376,-2.033031940460205,-9.564889907836914,0.7416641116142273
1777560296399551000,8.494551025390624,-1.7119919061660767,-9.636979103088379,0.6067178249359131
1777560296418081000,8.5130810546875,-1.284733772277832,-9.711322784423828,0.45831605792045593
1777560296436610800,8.53161083984375,-0.7508984208106995,-9.77200984954834,0.33818724751472473
1777560296455140900,8.550140869140625,-0.17678780853748322,-9.801602363586426,0.260248064994812
1777560296473670700,8.568670654296875,0.35477903485298157,-9.797170639038086,0.24488721787929535
1777560296492200700,8.58720068359375,0.8040357232093811,-9.76883316040039,0.30630576610565186
1777560296510730800,8.605730712890624,1.2269741296768188,-9.720503807067871,0.4204024076461792
1777560296529260500,8.624260498046874,1.68455171585083,-9.644501686096191,0.562362015247345
1777560296547790300,8.642790283203125,2.1870973110198975,-9.534225463867188,0.6968033909797668
1777560296566320400,8.6613203125,2.6213924884796143,-9.41572093963623,0.8017958998680115
1777560296584850400,8.679850341796875,2.9282379150390625,-9.315950393676758,0.8993809223175049
1777560296603380200,8.698380126953126,3.193828582763672,-9.222068786621094,0.9608747959136963
1777560296621910300,8.71691015625,3.444209337234497,-9.132012367248535,0.956104576587677
1777560296640440000,8.735440185546874,3.676828384399414,-9.042607307434082,0.939455509185791
1777560296658970000,8.75397021484375,3.916297435760498,-8.938233375549316,0.9700426459312439
1777560296677500200,8.772500244140625,4.155643463134766,-8.819472312927246,1.0573177337646484
1777560296696030000,8.791030029296875,4.344122886657715,-8.712003707885742,1.1832078695297241
1777560296714560000,8.80956005859375,4.417771816253662,-8.663002014160156,1.2673097848892212
1777560296733089800,8.82808984375,4.357700347900391,-8.69406795501709,1.262543797492981
1777560296751619800,8.846619873046874,4.199605464935303,-8.782622337341309,1.1829017400741577
1777560296770149600,8.865149658203125,3.9778389930725098,-8.898947715759277,1.0751395225524902
1777560296788679700,8.8836796875,3.6951828002929688,-9.033733367919922,0.9527227878570557
1777560296807209500,8.90220947265625,3.364586114883423,-9.174857139587402,0.8197221755981445
1777560296825739500,8.920739501953125,3.0652992725372314,-9.289365768432617,0.6942707896232605
1777560296844269300,8.939269287109376,2.9221837520599365,-9.337636947631836,0.6631490588188171
1777560296862799400,8.95779931640625,3.0777924060821533,-9.281291961669922,0.7451314330101013
1777560296881329400,8.976329345703125,3.3550350666046143,-9.179879188537598,0.8024562001228333
1777560296899859200,8.994859130859375,3.577317237854004,-9.088725090026855,0.8765142560005188
1777560296918389000,9.013388916015625,3.832092046737671,-8.963293075561523,1.0699656009674072
1777560296936919000,9.0319189453125,3.9936769008636475,-8.862399101257324,1.2956898212432861
1777560296955449000,9.050448974609376,3.9521753787994385,-8.867951393127441,1.382077693939209
1777560296973979000,9.068978759765624,3.800762891769409,-8.945121765136719,1.307439923286438
1777560296992509000,9.087509033203125,3.620033025741577,-9.042326927185059,1.1410902738571167
1777560297011038700,9.106038818359375,3.4879157543182373,-9.092975616455078,1.1500513553619385
1777560297029568800,9.12456884765625,3.42645525932312,-9.107744216918945,1.2160537242889404
1777560297048098600,9.1430986328125,3.3325421810150146,-9.142340660095215,1.2174369096755981
1777560297066628600,9.161628662109376,3.1313624382019043,-9.21225643157959,1.2244532108306885
1777560297085158400,9.180158447265624,2.7611443996429443,-9.336301803588867,1.1747123003005981
1777560297103688400,9.1986884765625,2.3114373683929443,-9.471212387084961,1.060082197189331
1777560297122218200,9.21721826171875,1.9320757389068604,-9.561258316040039,1.0098611116409302
1777560297140748300,9.235748291015625,1.6537251472473145,-9.612635612487793,1.0162779092788696
1777560297159278300,9.2542783203125,1.332761526107788,-9.666147232055664,0.9796642065048218
1777560297177808100,9.27280810546875,0.9859123826026917,-9.722579002380371,0.8184267282485962
1777560297196338200,9.291338134765626,0.7255940437316895,-9.76447582244873,0.5467292666435242
1777560297214868000,9.309867919921874,0.47566038370132446,-9.792184829711914,0.23925578594207764
1777560297233398000,9.32839794921875,0.16057363152503967,-9.805330276489258,0.010520972311496735
1777560297251927800,9.346927734375,-0.1689995527267456,-9.804895401000977,-0.07647508382797241
1777560297270457900,9.365457763671875,-0.43295955657958984,-9.797039031982422,-0.031192781403660774
1777560297288987600,9.383987548828125,-0.6558496952056885,-9.784432411193848,0.07156838476657867
1777560297307517700,9.402517578125,-0.8630209565162659,-9.767446517944336,0.15018804371356964
1777560297326047500,9.421047607421874,-1.0582432746887207,-9.747673034667969,0.1826963722705841
1777560297344577500,9.43957763671875,-1.2117825746536255,-9.729521751403809,0.19591279327869415
1777560297363107300,9.458107421875,-1.3833861351013184,-9.70547866821289,0.24558895826339722
1777560297381637400,9.476637451171875,-1.5797110795974731,-9.673358917236328,0.3178451955318451
1777560297400167200,9.495167236328125,-1.739581823348999,-9.642156600952148,0.4159890115261078
1777560297418697200,9.513697265625,-1.8512262105941772,-9.616470336914062,0.5165818333625793
1777560297437227000,9.53222705078125,-1.9478678703308105,-9.592246055603027,0.6041693091392517
1777560297455757000,9.550757080078125,-2.059718132019043,-9.564188957214355,0.6739781498908997
1777560297474287000,9.569287109375,-2.1739327907562256,-9.535082817077637,0.725661039352417
1777560297492817000,9.58781689453125,-2.2686452865600586,-9.509258270263672,0.773075520992279
1777560297511346700,9.6063466796875,-2.338254690170288,-9.488227844238281,0.8224904537200928
1777560297529876700,9.624876708984376,-2.3809328079223633,-9.473711967468262,0.8662072420120239
1777560297548406800,9.64340673828125,-2.4302356243133545,-9.458516120910645,0.8948748111724854
1777560297566936600,9.6619365234375,-2.4975738525390625,-9.439387321472168,0.911307156085968
1777560297594731500,9.6897314453125,-2.512380838394165,-9.433062553405762,0.935757577419281
1777560297613261300,9.70826123046875,-2.4667727947235107,-9.444635391235352,0.940368115901947
1777560297631791400,9.726791259765625,-2.359590530395508,-9.475796699523926,0.9011170864105225
1777560297650321200,9.745321044921875,-2.176577091217041,-9.528419494628906,0.8013340830802917
1777560297668851200,9.763851318359375,-1.912695288658142,-9.595871925354004,0.6566780209541321
1777560297687381000,9.782381103515625,-1.563658356666565,-9.668496131896973,0.49551334977149963
1777560297705911000,9.8009111328125,-1.0772392749786377,-9.740222930908203,0.3714880645275116
1777560297724441000,9.819441162109374,-0.5194181203842163,-9.788249015808105,0.30130091309547424
1777560297742971000,9.837970947265624,0.02647596225142479,-9.80213451385498,0.2963712513446808
1777560297761500700,9.856500732421875,0.5057547688484192,-9.787236213684082,0.3529832661151886
1777560297780030700,9.87503076171875,0.9487205147743225,-9.751251220703125,0.42826369404792786
1777560297798560800,9.893560791015625,1.3905972242355347,-9.69342041015625,0.5236779451370239
1777560297817090600,9.912090576171876,1.8521631956100464,-9.608410835266113,0.6467763185501099
1777560297835620400,9.930620361328126,2.237077236175537,-9.516461372375488,0.7764304876327515
1777560297854150400,9.949150390625,2.5420470237731934,-9.427213668823242,0.9143422245979309
1777560297872680400,9.967680419921875,2.8610713481903076,-9.32319164276123,1.0308992862701416
1777560297891210200,9.986210205078125,3.1826541423797607,-9.213982582092285,1.0693970918655396
1777560297909740000,10.004739990234375,3.4433748722076416,-9.11977767944336,1.0692167282104492
1777560297928270000,10.02327001953125,3.702981948852539,-9.014243125915527,1.096240520477295
1777560297946800000,10.041800048828126,3.970426321029663,-8.889875411987305,1.1731246709823608
1777560297965330000,10.060329833984374,4.190326690673828,-8.77578067779541,1.2638089656829834
1777560297983859700,10.078859619140625,4.325093746185303,-8.699175834655762,1.3372715711593628
1777560298002389800,10.0973896484375,4.3691277503967285,-8.676427841186523,1.3419029712677002
1777560298020919800,10.115919921875,4.333125591278076,-8.703051567077637,1.2850322723388672
1777560298039449600,10.13444970703125,4.223992347717285,-8.768385887145996,1.2015305757522583
1777560298057979400,10.1529794921875,4.033480644226074,-8.870655059814453,1.1013236045837402
1777560298076509400,10.171509521484374,3.7576234340667725,-9.00376033782959,0.9914376139640808
1777560298095039200,10.190039306640625,3.43820858001709,-9.142281532287598,0.8762416243553162
1777560298113569300,10.2085693359375,3.1535255908966064,-9.255104064941406,0.7541328072547913
1777560298132099000,10.22709912109375,2.9925787448883057,-9.313636779785156,0.6863200068473816
1777560298150629000,10.245629150390625,3.070232391357422,-9.282075881958008,0.7662389278411865
1777560298169159000,10.264158935546876,3.360454559326172,-9.170902252197266,0.8787950873374939
1777560298187689000,10.28268896484375,3.5748887062072754,-9.08416748046875,0.931915283203125
1777560298206218800,10.30121875,3.8101115226745605,-8.978867530822754,1.0165506601333618
1777560298224748800,10.319748779296875,3.9674465656280518,-8.891054153442383,1.1742626428604126
1777560298243278600,10.338278564453125,3.9590282440185547,-8.878582954406738,1.2912195920944214
1777560298261808600,10.35680859375,3.84908127784729,-8.91617488861084,1.3626385927200317
1777560298280338700,10.375338623046876,3.743065118789673,-8.942427635192871,1.4808212518692017
1777560298298868500,10.393868408203126,3.66282320022583,-8.943085670471191,1.6659352779388428
1777560298317398300,10.412398193359374,3.5120737552642822,-8.992874145507812,1.7216122150421143
1777560298335928300,10.43092822265625,3.339345693588257,-9.070874214172363,1.6548120975494385
1777560298354458400,10.449458251953125,3.118973731994629,-9.156792640686035,1.611070990562439
1777560298372988200,10.46798828125,2.7744383811950684,-9.289335250854492,1.476865530014038
1777560298391518000,10.48651806640625,2.353498697280884,-9.438154220581055,1.2460637092590332
1777560298410048000,10.505048095703126,1.940988302230835,-9.549775123596191,1.0976128578186035
1777560298428577800,10.523577880859374,1.586562156677246,-9.611881256103516,1.1246933937072754
1777560298447107800,10.54210791015625,1.3069206476211548,-9.65014934539795,1.1562747955322266
1777560298465637600,10.5606376953125,1.027708888053894,-9.690716743469238,1.0973608493804932
1777560298484167700,10.579167724609375,0.7713893055915833,-9.732693672180176,0.9219602942466736
1777560298502697500,10.597697509765625,0.5380471348762512,-9.770916938781738,0.6403648257255554
1777560298521227500,10.6162275390625,0.29056358337402344,-9.79531478881836,0.3711782991886139
1777560298539757300,10.63475732421875,0.006147551350295544,-9.805051803588867,0.1769637167453766
1777560298558287400,10.653287353515625,-0.2845326364040375,-9.802184104919434,0.08132882416248322
1777560298576817200,10.671817138671875,-0.5080158114433289,-9.793216705322266,0.07223852723836899
1777560298595347200,10.69034716796875,-0.6893618106842041,-9.781789779663086,0.10849852859973907
1777560298613877000,10.708876953125,-0.8449496030807495,-9.7691650390625,0.1409098356962204
1777560298632406800,10.72740673828125,-0.9620530009269714,-9.75810718536377,0.15557685494422913
1777560298650936800,10.745936767578126,-1.0610886812210083,-9.747628211975098,0.16801387071609497
1777560298669467000,10.764466796875,-1.2207242250442505,-9.728038787841797,0.2132570594549179
1777560298687996700,10.78299658203125,-1.4255638122558594,-9.698434829711914,0.28021663427352905
1777560298706526700,10.801526611328125,-1.6037567853927612,-9.668152809143066,0.3537917733192444
1777560298725056500,10.820056396484375,-1.7458655834197998,-9.64033031463623,0.43170833587646484
1777560298743586300,10.83858642578125,-1.8744754791259766,-9.612595558166504,0.5047000646591187
1777560298762116400,10.857116455078126,-2.0108530521392822,-9.581710815429688,0.5636315941810608
1777560298780646100,10.875646240234374,-2.1388378143310547,-9.550899505615234,0.6132463812828064
1777560298799176200,10.89417626953125,-2.2249183654785156,-9.527948379516602,0.6620593667030334
1777560298817706000,10.9127060546875,-2.2607743740081787,-9.515294075012207,0.7200441956520081
1777560298836236000,10.931236083984375,-2.2825474739074707,-9.505393028259277,0.7796558141708374
1777560298854766000,10.94976611328125,-2.313631534576416,-9.494030952453613,0.8251430988311768
1777560298873296000,10.9682958984375,-2.3622331619262695,-9.479119300842285,0.8582153916358948
1777560298891825700,10.98682568359375,-2.4274230003356934,-9.460094451904297,0.8857795596122742
1777560298910355500,11.00535546875,-2.4674346446990967,-9.447124481201172,0.9132312536239624
1777560298928885500,11.023885498046875,-2.455801010131836,-9.447754859924316,0.9377439022064209
1777560298947415600,11.04241552734375,-2.4008405208587646,-9.460216522216797,0.954283595085144
1777560298965945300,11.0609453125,-2.2954344749450684,-9.48867416381836,0.9308254718780518
1777560298984475400,11.079475341796876,-2.1188950538635254,-9.537412643432617,0.8476041555404663
1777560299003005200,11.098005126953124,-1.8701796531677246,-9.59965991973877,0.7206526398658752
1777560299021535200,11.11653515625,-1.5450501441955566,-9.66763973236084,0.5656403303146362
1777560299040065000,11.13506494140625,-1.0896050930023193,-9.737340927124023,0.40907540917396545
1777560299058594800,11.1535947265625,-0.5326844453811646,-9.787545204162598,0.3009873628616333
1777560299077124900,11.172124755859375,0.050219375640153885,-9.803542137145996,0.24169082939624786
1777560299095654700,11.190654541015626,0.5615578889846802,-9.786972045898438,0.26501044631004333
1777560299114184700,11.209184814453126,1.0139518976211548,-9.748188018798828,0.3392939865589142
1777560299132714500,11.227714599609374,1.4452662467956543,-9.690317153930664,0.4234853684902191
1777560299151244500,11.24624462890625,1.8628520965576172,-9.614141464233398,0.5181440711021423
1777560299169774300,11.2647744140625,2.2297897338867188,-9.527583122253418,0.6508315205574036
1777560299188304400,11.283304443359375,2.553337812423706,-9.43311595916748,0.816805899143219
1777560299206834200,11.301834228515625,2.875575304031372,-9.323596954345703,0.9858970046043396
1777560299225364000,11.320364013671876,3.189422130584717,-9.210076332092285,1.0828039646148682
1777560299243894000,11.33889404296875,3.458259344100952,-9.107908248901367,1.1210906505584717
1777560299262424000,11.357424072265625,3.6984000205993652,-9.006816864013672,1.1702452898025513
1777560299280953900,11.375953857421875,3.9297125339508057,-8.89608097076416,1.2599561214447021
1777560299299484000,11.39448388671875,4.122554302215576,-8.791062355041504,1.3755608797073364
1777560299318013700,11.413013671875,4.237727642059326,-8.719867706298828,1.4751091003417969
1777560299336543500,11.43154345703125,4.255383491516113,-8.700576782226562,1.5369031429290771
1777560299355073500,11.450073486328124,4.1993513107299805,-8.729202270507812,1.5286822319030762
1777560299373603300,11.468603271484374,4.081547260284424,-8.793622970581055,1.4776883125305176
1777560299392133400,11.48713330078125,3.9170279502868652,-8.881854057312012,1.3928239345550537
1777560299410663200,11.5056630859375,3.7028849124908447,-8.98861026763916,1.289935827255249
1777560299429193200,11.524193115234375,3.4744858741760254,-9.09246826171875,1.1938832998275757
1777560299447723000,11.542722900390626,3.3053112030029297,-9.166297912597656,1.1064684391021729
1777560299466253000,11.561253173828124,3.2395267486572266,-9.19617748260498,1.0517499446868896
1777560299484782800,11.579782958984374,3.2816762924194336,-9.178290367126465,1.077021598815918
1777560299503312600,11.598312744140625,3.4282374382019043,-9.112037658691406,1.1782753467559814
1777560299521842700,11.6168427734375,3.5803565979003906,-9.040184020996094,1.2753485441207886
1777560299540372700,11.635372802734375,3.7302815914154053,-8.974299430847168,1.310472846031189
1777560299558902500,11.653902587890625,3.924703598022461,-8.88224983215332,1.3684759140014648
1777560299577432300,11.672432373046876,4.066035747528076,-8.80136489868164,1.474346399307251
1777560299595962400,11.69096240234375,4.072885036468506,-8.78242301940918,1.5655816793441772
1777560299614492200,11.7094921875,3.9474987983703613,-8.833780288696289,1.5974867343902588
1777560299633022200,11.728022216796875,3.7984766960144043,-8.904909133911133,1.5635054111480713
1777560299651552000,11.746552001953125,3.728182554244995,-8.944995880126953,1.5026909112930298
1777560299670081800,11.765081787109375,3.6385974884033203,-8.980454444885254,1.510772943496704
1777560299688611800,11.78361181640625,3.5455381870269775,-9.027946472167969,1.447661280632019
1777560299707142000,11.802141845703124,3.432158946990967,-9.093500137329102,1.3034294843673706
1777560299725671700,11.820671630859374,3.2755372524261475,-9.160430908203125,1.23602294921875
1777560299744201500,11.839201416015625,2.9676249027252197,-9.265934944152832,1.2271981239318848
1777560299762731500,11.8577314453125,2.51987886428833,-9.407760620117188,1.1465710401535034
1777560299781261300,11.87626123046875,2.045232057571411,-9.528437614440918,1.0937559604644775
1777560299799791400,11.894791259765626,1.6875206232070923,-9.59107494354248,1.1549687385559082
1777560299818321200,11.913321044921876,1.4725008010864258,-9.622272491455078,1.1891199350357056
1777560299836851200,11.931851318359374,1.2036371231079102,-9.667076110839844,1.1266283988952637
1777560299855381000,11.950381103515625,0.9107950329780579,-9.718841552734375,0.9407102465629578
1777560299873910800,11.968910888671875,0.6496371030807495,-9.764115333557129,0.6406241655349731
1777560299892440800,11.98744091796875,0.3819091022014618,-9.792941093444824,0.35049375891685486
1777560299910970600,12.005970703125,0.09308528900146484,-9.804442405700684,0.18609550595283508
1777560299929500700,12.024500732421876,-0.19715377688407898,-9.8032865524292,0.1645776480436325
1777560299948030500,12.043030517578124,-0.4512355923652649,-9.794057846069336,0.2078237682580948
1777560299966560500,12.061560546875,-0.7006421685218811,-9.778173446655273,0.2584597170352936
1777560299985090300,12.08009033203125,-0.9181523323059082,-9.758716583251953,0.3079572319984436
1777560300003620400,12.098620361328125,-1.0795643329620361,-9.740798950195312,0.34894272685050964
1777560300022150100,12.117150146484375,-1.2387248277664185,-9.720252990722656,0.3906674087047577
1777560300040680000,12.135679931640626,-1.423343539237976,-9.691899299621582,0.4599609673023224
1777560300059210000,12.1542099609375,-1.610696792602539,-9.658119201660156,0.5447545647621155
1777560300077739800,12.17273974609375,-1.7652307748794556,-9.625465393066406,0.6362056136131287
1777560300096269800,12.191269775390625,-1.873081088066101,-9.598798751831055,0.7245741486549377
1777560300114799600,12.209799560546875,-1.9583173990249634,-9.575580596923828,0.8022721409797668
1777560300133329400,12.228329345703125,-2.03439998626709,-9.555113792419434,0.8552180528640747
1777560300151859500,12.246859375,-2.106553792953491,-9.536201477050781,0.8908820152282715
1777560300170389500,12.265389404296876,-2.186819553375244,-9.515202522277832,0.9214836359024048
1777560300188919800,12.283919921875,-2.283076047897339,-9.48947525024414,0.9527884721755981
1777560300207449000,12.302448974609375,-2.355177640914917,-9.466221809387207,1.0070573091506958
1777560300225979100,12.320979248046875,-2.3856709003448486,-9.451069831848145,1.075283408164978
1777560300244509000,12.339509033203125,-2.3796026706695557,-9.448100090026855,1.1141281127929688
1777560300263039000,12.3580390625,-2.3288259506225586,-9.46103286743164,1.1116752624511719
1777560300281568800,12.37656884765625,-2.20597505569458,-9.493317604064941,1.0867358446121216
1777560300300098600,12.3950986328125,-2.010767936706543,-9.542825698852539,1.030379056930542
1777560300318628600,12.413628662109375,-1.7492165565490723,-9.60444164276123,0.9302250146865845
1777560300337158400,12.432158447265625,-1.4109216928482056,-9.670092582702637,0.8179145455360413
1777560300355688400,12.4506884765625,-0.9487008452415466,-9.73647689819336,0.6865694522857666
1777560300374218200,12.46921826171875,-0.390168696641922,-9.782144546508789,0.5725339651107788
1777560300392748000,12.487748046875,0.1797371506690979,-9.792581558227539,0.4933944642543793
1777560300411278000,12.506278076171874,0.684371829032898,-9.770798683166504,0.48323971033096313
1777560300429808000,12.52480810546875,1.1178193092346191,-9.725685119628906,0.5761270523071289
1777560300448338000,12.543337890625,1.5355751514434814,-9.658516883850098,0.7248796820640564
1777560300466868000,12.561867919921875,1.9875619411468506,-9.566686630249023,0.8357539772987366
1777560300485397800,12.580397705078125,2.4052963256835938,-9.461584091186523,0.9291754364967346
1777560300503927600,12.598927490234376,2.712562322616577,-9.36552619934082,1.0484819412231445
1777560300522457600,12.61745751953125,3.015768051147461,-9.258166313171387,1.1669968366622925
1777560300540987400,12.6359873046875,3.3212499618530273,-9.144543647766113,1.2316726446151733
1777560300559517400,12.654517333984375,3.564126491546631,-9.049309730529785,1.255944848060608
1777560300578047200,12.673047119140625,3.7501649856567383,-8.968416213989258,1.2938956022262573
1777560300596577000,12.691576904296875,3.943171739578247,-8.87382984161377,1.3700124025344849
1777560300615107000,12.710107177734375,4.135735511779785,-8.772393226623535,1.4529935121536255
1777560300633636900,12.728636962890626,4.250421047210693,-8.702887535095215,1.537546157836914
1777560300661431800,12.756431884765625,4.233251094818115,-8.710792541503906,1.5401498079299927
1777560300679961600,12.774961669921876,4.101196765899658,-8.789456367492676,1.4477702379226685
1777560300698491600,12.79349169921875,3.9092469215393066,-8.896324157714844,1.3204511404037476
1777560300717021400,12.812021484375,3.675043821334839,-9.016168594360352,1.1718116998672485
1777560300735551500,12.830551513671875,3.4074339866638184,-9.139835357666016,1.0115286111831665
1777560300754081300,12.849081298828125,3.144247055053711,-9.249013900756836,0.8601321578025818
1777560300772611000,12.867611083984375,2.946387767791748,-9.323540687561035,0.7488508820533752
1777560300791141000,12.88614111328125,2.877117156982422,-9.345929145812988,0.7390377521514893
1777560300809671200,12.904671142578126,3.0976104736328125,-9.271541595458984,0.783398449420929
1777560300828201000,12.923200927734374,3.389410972595215,-9.164319038391113,0.8351864814758301
1777560300846730800,12.941730712890624,3.648239850997925,-9.057121276855469,0.9106578826904297
1777560300865260800,12.9602607421875,3.892324447631836,-8.933850288391113,1.0984159708023071
1777560300883790600,12.97879052734375,3.9828226566314697,-8.86538314819336,1.3086216449737549
1777560300902320600,12.997320556640625,3.877078056335449,-8.901847839355469,1.3768651485443115
1777560300920850400,13.015850341796876,3.6622941493988037,-9.002630233764648,1.3079177141189575
1777560300939380200,13.034380126953126,3.4975273609161377,-9.082816123962402,1.200059175491333
1777560300957910300,13.05291015625,3.358232021331787,-9.133391380310059,1.2140190601348877
1777560300976440000,13.071440185546875,3.362483024597168,-9.145182609558105,1.108929991722107
1777560300994970000,13.08997021484375,3.287290334701538,-9.18770694732666,0.974763035774231
1777560301013500200,13.108500244140625,3.1283321380615234,-9.245722770690918,0.9489670395851135
1777560301032030000,13.127030029296876,2.782270669937134,-9.355242729187012,0.9533053040504456
1777560301050559700,13.145559814453126,2.292757272720337,-9.493024826049805,0.8922664523124695
1777560301069089800,13.16408984375,1.8456921577453613,-9.58791732788086,0.914141833782196
1777560301087619600,13.18261962890625,1.5359188318252563,-9.625340461730957,1.0789637565612793
1777560301106149600,13.201149658203125,1.2404060363769531,-9.663065910339355,1.121131420135498
1777560301124679400,13.219679443359375,0.8689448237419128,-9.71841049194336,0.9837760329246521
1777560301143209200,13.238209228515625,0.5892781019210815,-9.762065887451172,0.72470623254776
1777560301161739300,13.2567392578125,0.33702248334884644,-9.793004989624023,0.3922351896762848
1777560301180269300,13.275269287109374,0.02248501032590866,-9.806050300598145,0.10607009381055832
1777560301198799000,13.293799072265625,-0.30361878871917725,-9.801857948303223,-0.04235946014523506
1777560301217329000,13.312328857421875,-0.5706021785736084,-9.79000186920166,-0.025440508499741554
1777560301235859000,13.33085888671875,-0.7800638675689697,-9.775300025939941,0.0734548568725586
1777560301254388700,13.349388671875,-0.9695506691932678,-9.756916046142578,0.18150629103183746
1777560301272918800,13.367918701171876,-1.1311004161834717,-9.737914085388184,0.2530616521835327
1777560301291448600,13.386448486328124,-1.2626547813415527,-9.720430374145508,0.2988997995853424
1777560301309978400,13.404978271484374,-1.4201198816299438,-9.696815490722656,0.3541475832462311
1777560301328508400,13.42350830078125,-1.6522119045257568,-9.656022071838379,0.4492390751838684
1777560301347038500,13.44203857421875,-1.8961856365203857,-9.606029510498047,0.5468775629997253
1777560301365568300,13.460568359375,-2.0652875900268555,-9.564237594604492,0.6559879183769226
1777560301384098000,13.47909814453125,-2.182567596435547,-9.530491828918457,0.7592918276786804
1777560301402628000,13.497628173828126,-2.2898852825164795,-9.499013900756836,0.8340038657188416
1777560301421158000,13.516157958984374,-2.394970178604126,-9.469563484191895,0.8728498816490173
1777560301439688000,13.53468798828125,-2.4695188999176025,-9.447652816772461,0.9020671248435974
1777560301458217700,13.5532177734375,-2.5003247261047363,-9.43579387664795,0.9405118823051453
1777560301476747800,13.571747802734375,-2.5077333450317383,-9.431600570678711,0.9625869393348694
1777560301495277600,13.590277587890625,-2.523247241973877,-9.428118705749512,0.9561280608177185
1777560301513807600,13.6088076171875,-2.4990580081939697,-9.43646240234375,0.937168538570404
1777560301532337400,13.62733740234375,-2.40210223197937,-9.464581489562988,0.9066399931907654
1777560301550867200,13.6458671875,-2.2272768020629883,-9.511841773986816,0.8570310473442078
1777560301569397200,13.664397216796875,-1.9653857946395874,-9.57719612121582,0.764835000038147
1777560301587927000,13.682927001953125,-1.5997326374053955,-9.65441608428955,0.6352124810218811
1777560301606457000,13.70145703125,-1.1125849485397339,-9.731304168701172,0.48401501774787903
1777560301624987100,13.719987060546876,-0.5350234508514404,-9.785850524902344,0.34824442863464355
1777560301643517000,13.738516845703124,0.04394163191318512,-9.802968978881836,0.2650783061981201
1777560301662046700,13.757046630859374,0.5481305718421936,-9.78724479675293,0.28242963552474976
1777560301680576800,13.77557666015625,0.9863090515136719,-9.747199058532715,0.4355425536632538
1777560301699106600,13.7941064453125,1.4054462909698486,-9.684837341308594,0.6316912770271301
1777560301717636600,13.81263671875,1.870339035987854,-9.596858024597168,0.7566590905189514
1777560301736166400,13.83116650390625,2.3675575256347656,-9.475817680358887,0.879744291305542
1777560301754696400,13.849696533203126,2.7921531200408936,-9.34345817565918,1.0363667011260986
1777560301773226200,13.868226318359374,3.1112678050994873,-9.22450065612793,1.1827815771102905
1777560301791756300,13.88675634765625,3.3907740116119385,-9.11738395690918,1.243523120880127
1777560301810286000,13.9052861328125,3.637831449508667,-9.025094985961914,1.2182905673980713
1777560301828816100,13.923816162109375,3.8425467014312744,-8.940317153930664,1.2148877382278442
1777560301847346000,13.942345947265625,4.049412250518799,-8.838868141174316,1.2833776473999023
1777560301865876000,13.9608759765625,4.264087200164795,-8.720969200134277,1.390191674232483
1777560301884405800,13.97940576171875,4.422427654266357,-8.623857498168945,1.4971963167190552
1777560301902935600,13.997935546875,4.466851711273193,-8.59244441986084,1.545155644416809
1777560301921465600,14.016465576171875,4.367216110229492,-8.651406288146973,1.5003266334533691
1777560301939995400,14.034995361328125,4.141391754150391,-8.77877426147461,1.3972790241241455
1777560301958525400,14.053525390625,3.8437201976776123,-8.933733940124512,1.2588125467300415
1777560301977055200,14.07205517578125,3.5213544368743896,-9.087736129760742,1.0878838300704956
1777560301995585300,14.090585205078124,3.2535014152526855,-9.206681251525879,0.9067230820655823
1777560302014115300,14.109115234375,3.138601779937744,-9.257133483886719,0.7906020283699036
1777560302032645000,14.12764501953125,3.223691940307617,-9.224772453308105,0.8256950378417969
1777560302051175000,14.1461748046875,3.4789533615112305,-9.11872673034668,0.9571281671524048
1777560302069705000,14.164705078125,3.6738157272338867,-9.024496078491211,1.1099236011505127
1777560302088235000,14.183235107421876,3.875385046005249,-8.91895866394043,1.2664753198623657
1777560302106764800,14.201764892578124,4.025013446807861,-8.820536613464355,1.4723411798477173
1777560302125294800,14.220294921875,4.0374755859375,-8.791836738586426,1.603990077972412
1777560302143824600,14.23882470703125,3.938796281814575,-8.837505340576172,1.5983644723892212
1777560302162354700,14.257354736328125,3.8027329444885254,-8.907295227050781,1.5393775701522827
1777560302180884500,14.275884521484375,3.6673080921173096,-8.959627151489258,1.5640748739242554
1777560302199414500,14.29441455078125,3.5577125549316406,-8.993502616882324,1.6217211484909058
1777560302217944300,14.3129443359375,3.3924922943115234,-9.079998016357422,1.4882922172546387
1777560302236474400,14.331474365234374,3.200038433074951,-9.161669731140137,1.412076711654663
1777560302255004200,14.350004150390625,2.9299418926239014,-9.264249801635742,1.3264597654342651
1777560302273534200,14.3685341796875,2.541347026824951,-9.399903297424316,1.163512945175171
1777560302292064000,14.38706396484375,2.1303162574768066,-9.51630687713623,1.035395860671997
1777560302310594000,14.405593994140625,1.7866055965423584,-9.580649375915527,1.0906834602355957
1777560302329123800,14.424123779296876,1.4818023443222046,-9.621841430664062,1.1810259819030762
1777560302347654000,14.44265380859375,1.1555583477020264,-9.67550277709961,1.1044169664382935
1777560302366183700,14.46118359375,0.8338097929954529,-9.730015754699707,0.8955122232437134
1777560302384713700,14.479713623046875,0.5553528666496277,-9.773539543151855,0.5830019116401672
1777560302403243500,14.498243408203125,0.25602129101753235,-9.799184799194336,0.28428226709365845
1777560302421773600,14.516773681640625,-0.06768204271793365,-9.80596923828125,0.09372574090957642
1777560302440303400,14.535303466796876,-0.3355305790901184,-9.800816535949707,0.04232826828956604
1777560302458833400,14.55383349609375,-0.5346846580505371,-9.79158878326416,0.09633833914995193
1777560302477363200,14.57236328125,-0.7093634009361267,-9.779243469238281,0.18324266374111176
1777560302495893200,14.590893310546875,-0.8883571624755859,-9.76326847076416,0.24453836679458618
1777560302514423000,14.609423095703125,-1.0347044467926025,-9.747900009155273,0.2796904742717743
1777560302532953000,14.627953125,-1.1635013818740845,-9.732377052307129,0.31220903992652893
1777560302551483000,14.64648291015625,-1.3562191724777222,-9.704899787902832,0.3820747137069702
1777560302570013000,14.665012939453124,-1.5983871221542358,-9.664320945739746,0.4652431607246399
1777560302588542700,14.683542724609374,-1.79766047000885,-9.624235153198242,0.5593745112419128
1777560302607072800,14.70207275390625,-1.947479248046875,-9.588520050048828,0.661805272102356
1777560302625602800,14.720602783203125,-2.0838189125061035,-9.553369522094727,0.7491512894630432
1777560302644132600,14.739132568359375,-2.217383623123169,-9.518446922302246,0.807939887046814
1777560302662662700,14.75766259765625,-2.338059425354004,-9.48569107055664,0.8517841696739197
1777560302681192400,14.7761923828125,-2.426234483718872,-9.458978652954102,0.9008241891860962
1777560302699722500,14.794722412109374,-2.4710333347320557,-9.442835807800293,0.9472256898880005
1777560302718252300,14.813252197265625,-2.4898908138275146,-9.434314727783203,0.9821056127548218
1777560302736782300,14.8317822265625,-2.507965564727783,-9.4273042678833,1.0032020807266235
1777560302755312000,14.85031201171875,-2.505573034286499,-9.42653751373291,1.0163054466247559
1777560302773842200,14.86884228515625,-2.465364456176758,-9.436504364013672,1.0221290588378906
1777560302792372200,14.887372314453126,-2.358459711074829,-9.465145111083984,1.0095030069351196
1777560302810902000,14.905902099609374,-2.1655259132385254,-9.517004013061523,0.9526458978652954
1777560302829431800,14.924431884765625,-1.8978424072265625,-9.584185600280762,0.8437789082527161
1777560302847961900,14.9429619140625,-1.5395922660827637,-9.659923553466797,0.6970804929733276
1777560302866492000,14.961491943359375,-1.0562931299209595,-9.733817100524902,0.5544882416725159
1777560302885021700,14.980021728515625,-0.5146056413650513,-9.782622337341309,0.4537372887134552
1777560302903551700,14.9985517578125,0.010169915854930878,-9.797759056091309,0.41738447546958923
1777560302922081500,15.01708154296875,0.474680632352829,-9.784272193908691,0.4616120755672455
1777560302940611600,15.035611572265625,0.9047876596450806,-9.749515533447266,0.5465307831764221
1777560302959141400,15.054141357421875,1.3328518867492676,-9.695391654968262,0.6271161437034607
1777560302977671400,15.07267138671875,1.7669235467910767,-9.618571281433105,0.7290129065513611
1777560302996201500,15.091201416015625,2.153027296066284,-9.526325225830078,0.8854252696037292
1777560303014731300,15.109731201171876,2.4450156688690186,-9.438155174255371,1.055241346359253
1777560303033261000,15.128260986328126,2.704803943634033,-9.348941802978516,1.2048733234405518
1777560303051791000,15.146791015625,2.9679296016693115,-9.25527572631836,1.3044708967208862
1777560303070321200,15.165321044921875,3.2198476791381836,-9.164743423461914,1.3455229997634888
1777560303088851200,15.183851318359375,3.428523302078247,-9.08549976348877,1.367220401763916
1777560303107381000,15.202381103515625,3.623138427734375,-9.005044937133789,1.397291898727417
1777560303125910800,15.220910888671876,3.81304931640625,-8.91872787475586,1.4447591304779053
1777560303144440800,15.23944091796875,3.9518678188323975,-8.846478462219238,1.5142499208450317
1777560303162971000,15.257970947265624,4.02073860168457,-8.808380126953125,1.5545090436935425
1777560303181500700,15.276500732421875,4.0242156982421875,-8.809734344482422,1.5377460718154907
1777560303200030700,15.29503076171875,3.975900411605835,-8.83873462677002,1.496457815170288
1777560303218560800,15.313560791015625,3.887575626373291,-8.887588500976562,1.438022494316101
1777560303237090600,15.332090576171876,3.7390058040618896,-8.96030330657959,1.3795582056045532
1777560303255620400,15.350620361328126,3.5425896644592285,-9.047014236450195,1.3311567306518555
1777560303274150400,15.369150390625,3.3512113094329834,-9.127694129943848,1.274743914604187
1777560303292680400,15.387680419921875,3.2017927169799805,-9.189481735229492,1.2133948802947998
1777560303311210200,15.406210205078125,3.137585163116455,-9.212857246398926,1.2038280963897705
1777560303329740300,15.424740234375,3.2113306522369385,-9.177597045898438,1.276500940322876
1777560303348270300,15.443270263671875,3.366306781768799,-9.110816955566406,1.3532898426055908
1777560303366800100,15.461800048828126,3.511518955230713,-9.053685188293457,1.3676323890686035
1777560303385330000,15.480329833984374,3.667517900466919,-8.990935325622559,1.3721418380737305
1777560303403860000,15.49885986328125,3.767364501953125,-8.942657470703125,1.4164137840270996
1777560303422390000,15.51739013671875,3.749508857727051,-8.939927101135254,1.4796193838119507
1777560303440919800,15.535919921875,3.6134397983551025,-8.985427856445312,1.5412722826004028
1777560303459449900,15.554449951171875,3.419025182723999,-9.048619270324707,1.613427758216858
1777560303477980000,15.57297998046875,3.374910354614258,-9.045778274536133,1.718798041343689
1777560303496509700,15.591509765625,3.3604624271392822,-9.036433219909668,1.7945911884307861
1777560303515039700,15.610039794921875,3.2861130237579346,-9.097993850708008,1.6119427680969238
1777560303533569500,15.628569580078125,3.1518402099609375,-9.189931869506836,1.3347020149230957
1777560303552099600,15.647099609375,2.9936540126800537,-9.270927429199219,1.1217507123947144
1777560303570629600,15.665629638671875,2.725304365158081,-9.364153861999512,1.0274841785430908
1777560303589159400,15.684159423828126,2.3210322856903076,-9.479092597961426,0.9643646478652954
1777560303607689500,15.702689453125,1.8842177391052246,-9.569775581359863,1.0195599794387817
1777560303626219300,15.72121923828125,1.5426710844039917,-9.61085319519043,1.1924947500228882
1777560303644749300,15.739749267578125,1.3694441318511963,-9.6298246383667,1.2495954036712646
1777560303663279000,15.758279052734375,1.1690945625305176,-9.665708541870117,1.1737555265426636
1777560303681809200,15.77680908203125,0.9276934266090393,-9.718463897705078,0.9280310869216919
1777560303700339200,15.795339111328126,0.6758759617805481,-9.764275550842285,0.6103394031524658
1777560303718869000,15.813868896484376,0.39686158299446106,-9.792632102966309,0.34244200587272644
1777560303737399000,15.83239892578125,0.1001644879579544,-9.804396629333496,0.18485018610954285
1777560303755929000,15.85092919921875,-0.16150479018688202,-9.803885459899902,0.16771486401557922
1777560303774459000,15.869458984375,-0.36547449231147766,-9.797073364257812,0.23273728787899017
1777560303792988700,15.88798876953125,-0.5745434165000916,-9.785537719726562,0.2890464961528778
1777560303811518700,15.906518798828126,-0.7546573877334595,-9.772171974182129,0.3248651325702667
1777560303830048800,15.925048828125,-0.8855383396148682,-9.760504722595215,0.34459859132766724
1777560303848578600,15.94357861328125,-1.0174291133880615,-9.74657917022705,0.373372882604599
1777560303867108600,15.962108642578125,-1.1901367902755737,-9.724807739257812,0.4267013669013977
1777560303885638700,15.980638671875,-1.3896342515945435,-9.695240020751953,0.4915691912174225
1777560303904168400,15.99916845703125,-1.5859782695770264,-9.661239624023438,0.5616905093193054
1777560303922698500,16.017698486328126,-1.75218665599823,-9.627852439880371,0.6361573934555054
1777560303941228300,16.036228271484376,-1.8899435997009277,-9.596790313720703,0.707204282283783
1777560303959758300,16.05475830078125,-2.0103349685668945,-9.566995620727539,0.7755938172340393
1777560303978288400,16.073288330078125,-2.1143476963043213,-9.539196014404297,0.838841438293457
1777560303996818200,16.091818115234375,-2.199300765991211,-9.515044212341309,0.8929689526557922
1777560304015348200,16.11034814453125,-2.2597804069519043,-9.495659828186035,0.9466907382011414
1777560304033878300,16.128878173828124,-2.2833356857299805,-9.484955787658691,0.9961880445480347
1777560304052408000,16.147407958984374,-2.2906482219696045,-9.479315757751465,1.0324211120605469
1777560304070938000,16.165938232421876,-2.312209129333496,-9.472365379333496,1.0480328798294067
1777560304089468000,16.184468017578126,-2.3210465908050537,-9.4711332321167,1.0395939350128174
1777560304107998000,16.202998046875,-2.2744510173797607,-9.485189437866211,1.0141202211380005
1777560304126527700,16.22152783203125,-2.143615484237671,-9.52092456817627,0.9629657864570618
1777560304145057800,16.240057861328125,-1.9347699880599976,-9.573372840881348,0.8818080425262451
1777560304163587800,16.258587890625,-1.6508023738861084,-9.63595199584961,0.7704985737800598
1777560304182117600,16.27711767578125,-1.2498741149902344,-9.705940246582031,0.6347496509552002
1777560304200647700,16.295647705078125,-0.7293127775192261,-9.765385627746582,0.5251127481460571
1777560304219177700,16.314177734375,-0.1684601604938507,-9.794922828674316,0.4488840699195862
1777560304237707500,16.33270751953125,0.36054351925849915,-9.790038108825684,0.44223472476005554
1777560304256237600,16.351237548828124,0.8233725428581238,-9.75894832611084,0.5053383708000183
1777560304274767400,16.369767333984374,1.2418209314346313,-9.707549095153809,0.625916063785553
1777560304293297400,16.38829736328125,1.6597942113876343,-9.634990692138672,0.7631741166114807
1777560304311827200,16.4068271484375,2.101897716522217,-9.536783218383789,0.8956416845321655
1777560304330357200,16.425357177734377,2.5123653411865234,-9.424104690551758,1.0220801830291748
1777560304348887300,16.44388720703125,2.81221604347229,-9.324485778808594,1.1470803022384644
1777560304367417300,16.462417236328125,3.0711936950683594,-9.228697776794434,1.2527133226394653
1777560304385947100,16.480947021484376,3.341336488723755,-9.131162643432617,1.275814414024353
1777560304404477200,16.499477294921874,3.5757367610931396,-9.046010971069336,1.246670126914978
1777560304423007000,16.518007080078124,3.7648160457611084,-8.966913223266602,1.2613548040390015
1777560304441537000,16.536537109375,3.947737455368042,-8.878178596496582,1.3280372619628906
1777560304460066800,16.55506689453125,4.116244792938232,-8.790792465209961,1.3960204124450684
1777560304478596900,16.573596923828124,4.199621677398682,-8.742259979248047,1.4513676166534424
1777560304497127000,16.592126953125,4.189061641693115,-8.746771812438965,1.4546995162963867
1777560304515656700,16.61065673828125,4.097810745239258,-8.797805786132812,1.406039834022522
1777560304534186800,16.629186767578126,3.9248011112213135,-8.888633728027344,1.3260858058929443
1777560304552716800,16.647716796875,3.670819044113159,-9.012642860412598,1.2115042209625244
1777560304571246600,16.66624658203125,3.3420984745025635,-9.155558586120605,1.084673285484314
1777560304589776600,16.684776611328125,3.0066630840301514,-9.284089088439941,0.9674957990646362
1777560304608306700,16.703306640625,2.7641584873199463,-9.367223739624023,0.8859608173370361
1777560304626836500,16.72183642578125,2.7167043685913086,-9.379144668579102,0.9063955545425415
1777560304645366500,16.740366455078124,2.9790568351745605,-9.284870147705078,1.042489767074585
1777560304663896300,16.758896240234375,3.301905393600464,-9.163773536682129,1.1371337175369263
1777560304682426400,16.77742626953125,3.5152628421783447,-9.081537246704102,1.157151222229004
1777560304700956200,16.7959560546875,3.768118143081665,-8.964216232299805,1.2706246376037598
1777560304719486200,16.814486328125,3.943145990371704,-8.863998413085938,1.432315468788147
1777560304738016300,16.833016357421876,3.9203176498413086,-8.864546775817871,1.4904088973999023
1777560304756546300,16.85154638671875,3.7503750324249268,-8.941214561462402,1.469613790512085
1777560304775076000,16.870076171875,3.517612934112549,-9.042113304138184,1.4272310733795166
1777560304793606100,16.888606201171875,3.3333396911621094,-9.107361793518066,1.4543735980987549
1777560304812136200,16.90713623046875,3.2586100101470947,-9.117706298828125,1.5554038286209106
1777560304830666000,16.925666015625,3.166538953781128,-9.163386344909668,1.4750545024871826
1777560304849196000,16.944196044921874,3.0420148372650146,-9.221925735473633,1.368437647819519
1777560304867725800,16.962725830078124,2.8856217861175537,-9.285964012145996,1.2706129550933838
1777560304886255900,16.981255859375,2.610321521759033,-9.379555702209473,1.1749629974365234
1777560304904785700,16.99978564453125,2.266456127166748,-9.477076530456543,1.10390043258667
1777560304923315700,17.018315673828123,1.9435598850250244,-9.543475151062012,1.1467564105987549
1777560304941845800,17.036845703125,1.6500657796859741,-9.580986976623535,1.2854399681091309
1777560304960375600,17.05537548828125,1.3721787929534912,-9.617975234985352,1.3349428176879883
1777560304978905600,17.073905517578126,1.0871413946151733,-9.668082237243652,1.2315471172332764
1777560304997435600,17.092435546875,0.8601818680763245,-9.720169067382812,0.97405606508255
1777560305015965400,17.11096533203125,0.6270143389701843,-9.763986587524414,0.6646723747253418
1777560305034495500,17.12949560546875,0.3732433021068573,-9.791141510009766,0.4057479500770569
1777560305053025500,17.148025634765624,0.10275164991617203,-9.802892684936523,0.25124475359916687
1777560305071555300,17.166555419921874,-0.14919991791248322,-9.80306339263916,0.2192518413066864
1777560305090085000,17.185085205078124,-0.3758172392845154,-9.79589557647705,0.26380470395088196
1777560305108615400,17.203615478515626,-0.5692546367645264,-9.78508472442627,0.313774436712265
1777560305127145200,17.222145263671877,-0.7275421023368835,-9.773308753967285,0.3514461815357208
1777560305145675300,17.24067529296875,-0.8710983991622925,-9.760941505432129,0.3682336211204529
1777560305164205000,17.259205078125,-0.9972551465034485,-9.748772621154785,0.3705345690250397
1777560305182735000,17.277735107421876,-1.139330267906189,-9.732218742370605,0.3952556550502777
1777560305201265200,17.29626513671875,-1.3202214241027832,-9.707489967346191,0.43824175000190735
1777560305219795000,17.314794921875,-1.5093541145324707,-9.677545547485352,0.4871797263622284
1777560305238325000,17.333324951171875,-1.6786266565322876,-9.646635055541992,0.5431655049324036
1777560305256855000,17.35185498046875,-1.8194832801818848,-9.61740493774414,0.6044605374336243
1777560305275384800,17.370384765625,-1.9393560886383057,-9.589958190917969,0.6648145914077759
1777560305293915000,17.388914794921874,-2.042046308517456,-9.564560890197754,0.7208355069160461
1777560305312445000,17.40744482421875,-2.1185050010681152,-9.543959617614746,0.7714704275131226
1777560305330974700,17.425974609375,-2.1805834770202637,-9.526444435119629,0.8138237595558167
1777560305349504800,17.4445048828125,-2.2379415035247803,-9.509681701660156,0.853201687335968
1777560305368034800,17.463034912109375,-2.284677028656006,-9.494989395141602,0.8920839428901672
1777560305386564600,17.481564697265625,-2.328747510910034,-9.480754852294922,0.9287731051445007
1777560305405094700,17.5000947265625,-2.372152090072632,-9.46668529510498,0.9618527889251709
1777560305423624400,17.51862451171875,-2.3860533237457275,-9.46060562133789,0.9869579076766968
1777560305442154500,17.537154541015624,-2.3635733127593994,-9.466310501098633,0.9863394498825073
1777560305460684500,17.5556845703125,-2.2840445041656494,-9.489221572875977,0.9529991149902344
1777560305479214300,17.57421435546875,-2.156832456588745,-9.525126457214355,0.8890637159347534
1777560305497744400,17.592744384765624,-1.9768415689468384,-9.573385238647461,0.7827988266944885
1777560305516274200,17.611274169921874,-1.7214486598968506,-9.632251739501953,0.6532494425773621
1777560305534804200,17.62980419921875,-1.3483809232711792,-9.699081420898438,0.5292072892189026
1777560305553334300,17.648334228515626,-0.8510386347770691,-9.759737968444824,0.4400128126144409
1777560305571864300,17.6668642578125,-0.30062857270240784,-9.794478416442871,0.3849739134311676
1777560305590394000,17.68539404296875,0.23680540919303894,-9.79626750946045,0.38397565484046936
1777560305608924200,17.703924072265625,0.701596200466156,-9.77158260345459,0.4408392012119293
1777560305627454200,17.7224541015625,1.1200106143951416,-9.726289749145508,0.5614771842956543
1777560305645984000,17.74098388671875,1.5627354383468628,-9.6558837890625,0.7015321850776672
1777560305664514000,17.75951416015625,2.010775327682495,-9.563398361206055,0.8176685571670532
1777560305683044000,17.778044189453126,2.379204511642456,-9.469209671020508,0.9186072945594788
1777560305701574000,17.796573974609377,2.6463725566864014,-9.386987686157227,1.0254573822021484
1777560305720104000,17.81510400390625,2.9159328937530518,-9.29861831665039,1.0970104932785034
1777560305738634000,17.833634033203126,3.2016475200653076,-9.205307960510254,1.0872641801834106
1777560305757163800,17.852163818359376,3.4517197608947754,-9.117226600646973,1.0640478134155273
1777560305775693800,17.87069384765625,3.692542791366577,-9.018397331237793,1.0972857475280762
1777560305794223900,17.889223876953125,3.930035352706909,-8.905632019042969,1.18950617313385
1777560305812753700,17.907753662109375,4.131133079528809,-8.800065040588379,1.2895598411560059
1777560305831283700,17.92628369140625,4.235465049743652,-8.73816204071045,1.3695813417434692
1777560305849813800,17.944813720703124,4.246195316314697,-8.728987693786621,1.3946340084075928
1777560305868343600,17.963343505859374,4.179262161254883,-8.765408515930176,1.3681280612945557
1777560305886873600,17.98187353515625,4.0349297523498535,-8.841646194458008,1.3095905780792236
1777560305905403600,18.000403564453126,3.808837413787842,-8.952256202697754,1.232985019683838
1777560305923933400,18.018933349609377,3.5132851600646973,-9.082687377929688,1.1541218757629395
1777560305942463500,18.03746337890625,3.209927797317505,-9.204827308654785,1.0667263269424438
1777560305960993300,18.0559931640625,2.9633941650390625,-9.29792594909668,0.9681090116500854
1777560305979523300,18.0745234375,2.893259048461914,-9.320917129516602,0.9591434597969055
1777560305998053400,18.093053466796874,3.1640079021453857,-9.218332290649414,1.0871038436889648
1777560306016583200,18.111583251953125,3.4727590084075928,-9.092658996582031,1.1974492073059082
1777560306035113200,18.13011328125,3.6786794662475586,-9.005126953125,1.2431399822235107
1777560306053643300,18.148643310546873,3.8922276496887207,-8.895435333251953,1.375566840171814
1777560306072173000,18.167173095703124,4.0086846351623535,-8.814382553100586,1.5516141653060913
1777560306090703000,18.185703125,3.9334840774536133,-8.83194351196289,1.6416007280349731
1777560306109233200,18.204233154296876,3.761228084564209,-8.91399097442627,1.6013494729995728
1777560306127763000,18.222762939453126,3.619431257247925,-8.991147994995117,1.4931083917617798
1777560306146293000,18.24129296875,3.500971794128418,-9.04184627532959,1.4692177772521973
1777560306164823000,18.259822998046875,3.3788535594940186,-9.062019348144531,1.622819423675537
1777560306183352800,18.278352783203125,3.27117919921875,-9.107193946838379,1.5902186632156372
1777560306201883000,18.2968828125,3.137996196746826,-9.171747207641602,1.484054446220398
1777560306220413000,18.315412841796874,2.932504177093506,-9.256532669067383,1.3738353252410889
1777560306238942700,18.333942626953124,2.5863027572631836,-9.376449584960938,1.2504462003707886
1777560306257472800,18.35247265625,2.1735951900482178,-9.493703842163086,1.14693021774292
1777560306276002800,18.3710029296875,1.8121281862258911,-9.56662654876709,1.1688563823699951
1777560306294532900,18.389532958984375,1.5205633640289307,-9.60583782196045,1.2594242095947266
1777560306313062700,18.408062744140626,1.2331572771072388,-9.646985054016113,1.2591224908828735
1777560306331592700,18.4265927734375,0.9329813718795776,-9.69437313079834,1.1485025882720947
1777560306350122800,18.445122802734375,0.7079598903656006,-9.740447044372559,0.8904260993003845
1777560306368652500,18.463652587890625,0.48712971806526184,-9.77695369720459,0.5867484211921692
1777560306387182600,18.4821826171875,0.22802896797657013,-9.79769515991211,0.3515132963657379
1777560306405712600,18.500712646484374,-0.06307728588581085,-9.803922653198242,0.22249671816825867
1777560306424242400,18.519242431640624,-0.3256728947162628,-9.799332618713379,0.1933804750442505
1777560306442772500,18.5377724609375,-0.5127703547477722,-9.790816307067871,0.21764642000198364
1777560306461302500,18.556302490234376,-0.6826134324073792,-9.77969741821289,0.2489292323589325
1777560306479832300,18.574832275390627,-0.8352488875389099,-9.767589569091797,0.25872039794921875
1777560306498362400,18.5933623046875,-0.9521370530128479,-9.756772994995117,0.2630952298641205
1777560306516892400,18.611892333984375,-1.0739784240722656,-9.74374008178711,0.27656587958335876
1777560306535422200,18.630422119140626,-1.2347058057785034,-9.72316837310791,0.3253830075263977
1777560306553952300,18.6489521484375,-1.4238487482070923,-9.69473934173584,0.3938002288341522
1777560306572482300,18.667482421875,-1.5994127988815308,-9.663900375366211,0.47042688727378845
1777560306591012000,18.68601220703125,-1.7492519617080688,-9.633536338806152,0.5527182817459106
1777560306609542100,18.704542236328123,-1.8927562236785889,-9.601436614990234,0.6326659321784973
1777560306628072200,18.723072265625,-2.036691188812256,-9.567330360412598,0.6989116668701172
1777560306646602200,18.741602294921876,-2.1533055305480957,-9.537099838256836,0.7598659992218018
1777560306665132000,18.760132080078126,-2.2187387943267822,-9.516980171203613,0.8213821053504944
1777560306683662000,18.778662109375,-2.264751434326172,-9.500809669494629,0.8808585405349731
1777560306702192000,18.797192138671875,-2.296610116958618,-9.48836612701416,0.9310670495033264
1777560306720722000,18.815721923828125,-2.324856996536255,-9.476520538330078,0.9803022146224976
1777560306739252000,18.834251953125,-2.3671793937683105,-9.461311340332031,1.0249029397964478
1777560306757782000,18.852781982421874,-2.397536039352417,-9.449925422668457,1.058835744857788
1777560306776311800,18.871311767578124,-2.385333299636841,-9.45097541809082,1.0768617391586304
1777560306794841900,18.889841796875,-2.3371787071228027,-9.463544845581055,1.072053074836731
1777560306813372000,18.908371826171877,-2.2299792766571045,-9.493021965026855,1.0392872095108032
1777560306831901700,18.926901611328127,-2.0534327030181885,-9.540989875793457,0.9608938694000244
1777560306850431700,18.945431640625,-1.7999542951583862,-9.602439880371094,0.850717306137085
1777560306868961800,18.9639619140625,-1.4369324445724487,-9.673991203308105,0.7207726240158081
1777560306887491600,18.98249169921875,-0.953048825263977,-9.741283416748047,0.607848048210144
1777560306906021600,19.001021728515624,-0.42244625091552734,-9.782833099365234,0.5367555022239685
1777560306924551700,19.0195517578125,0.10631396621465683,-9.792301177978516,0.5195430517196655
1777560306943081500,19.03808154296875,0.5795799493789673,-9.772679328918457,0.5737746953964233
1777560306961611500,19.056611572265624,0.9899443984031677,-9.733407020568848,0.671699583530426
1777560306980141600,19.0751416015625,1.3894803524017334,-9.67650032043457,0.777873694896698
1777560306998671600,19.093671630859376,1.7956448793411255,-9.599506378173828,0.8919273614883423
1777560307017201400,19.112201416015626,2.1680262088775635,-9.508611679077148,1.0277881622314453
1777560307035731500,19.1307314453125,2.481264114379883,-9.413853645324707,1.1802867650985718
1777560307054261500,19.149261474609375,2.77266526222229,-9.313782691955566,1.3176352977752686
1777560307072791300,19.167791259765625,3.0622963905334473,-9.209820747375488,1.4042564630508423
1777560307091321300,19.1863212890625,3.3251752853393555,-9.112539291381836,1.440565824508667
1777560307109851400,19.204851318359374,3.554003953933716,-9.02189826965332,1.4645112752914429
1777560307128381200,19.223381103515624,3.745253086090088,-8.937699317932129,1.5036579370498657
1777560307146911200,19.2419111328125,3.9007933139801025,-8.860435485839844,1.5642503499984741
1777560307165441300,19.260441162109377,4.0045881271362305,-8.80311393737793,1.6244537830352783
1777560307183971000,19.27897119140625,4.053266525268555,-8.778351783752441,1.6376731395721436
1777560307202501000,19.297501220703126,4.058973789215088,-8.78231430053711,1.6019026041030884
1777560307221031200,19.31603125,4.0279316902160645,-8.80594253540039,1.5496882200241089
1777560307239561000,19.33456103515625,3.9451870918273926,-8.85169792175293,1.5011045932769775
1777560307258091000,19.353091064453125,3.786703109741211,-8.92888069152832,1.4513245820999146
1777560307276621000,19.37162109375,3.558899402618408,-9.033134460449219,1.3809800148010254
1777560307295150800,19.39015087890625,3.2995669841766357,-9.143728256225586,1.2943974733352661
1777560307313681000,19.408680908203124,3.0616724491119385,-9.238617897033691,1.201870322227478
1777560307332211000,19.4272109375,2.894609212875366,-9.299412727355957,1.145658016204834
1777560307350741000,19.445740966796876,2.8880932331085205,-9.296183586120605,1.187545657157898
1777560307369270800,19.464270751953126,3.098475217819214,-9.217864036560059,1.2652380466461182
1777560307387800800,19.48280078125,3.3173446655273438,-9.142719268798828,1.255508303642273
1777560307406331000,19.501330810546875,3.5225086212158203,-9.069985389709473,1.2237987518310547
1777560307424860700,19.519860595703125,3.7341060638427734,-8.977145195007324,1.2797259092330933
1777560307443390700,19.538390625,3.8124539852142334,-8.928654670715332,1.383728265762329
1777560307461920800,19.556920654296874,3.713134288787842,-8.956982612609863,1.4681601524353027
1777560307480450600,19.575450439453125,3.5789926052093506,-8.992241859436035,1.581386685371399
1777560307498980600,19.593980712890627,3.5323526859283447,-8.975571632385254,1.7697420120239258
1777560307517510700,19.6125107421875,3.4465279579162598,-8.99101734161377,1.858345627784729
1777560307536040400,19.63104052734375,3.286919593811035,-9.080936431884766,1.7038581371307373
1777560307554570500,19.649570556640626,3.1032700538635254,-9.173653602600098,1.544076681137085
1777560307573100500,19.6681005859375,2.852529287338257,-9.269654273986816,1.4515446424484253
1777560307591630300,19.68663037109375,2.4930925369262695,-9.387084007263184,1.3555532693862915
1777560307610160400,19.705160400390625,2.1341843605041504,-9.486832618713379,1.27108633518219
1777560307628690400,19.7236904296875,1.8393516540527344,-9.549272537231445,1.2643438577651978
1777560307647220200,19.74222021484375,1.5906500816345215,-9.59000301361084,1.2930854558944702
1777560307665750300,19.760750244140624,1.353136658668518,-9.633261680603027,1.240836262702942
1777560307684280300,19.7792802734375,1.0683637857437134,-9.686097145080566,1.0993220806121826
1777560307702810400,19.797810302734376,0.8004395961761475,-9.736064910888672,0.8594964742660522
1777560307721340200,19.816340087890627,0.5776273608207703,-9.772680282592773,0.5757190585136414
1777560307739870200,19.8348701171875,0.33551499247550964,-9.7951021194458,0.33734560012817383
1777560307758400300,19.853400146484375,0.03920172154903412,-9.804413795471191,0.20574171841144562
1777560307776930000,19.871929931640626,-0.23037265241146088,-9.802286148071289,0.18031473457813263
1777560307795460000,19.890460205078124,-0.46139171719551086,-9.793375015258789,0.2174910008907318
1777560307813990100,19.908990234375,-0.6826773285865784,-9.779447555541992,0.2583838105201721
1777560307832520000,19.92752001953125,-0.8596099615097046,-9.764511108398438,0.29287227988243103
1777560307851050000,19.946050048828123,-0.9806375503540039,-9.752508163452148,0.3119661509990692
1777560307869580000,19.964580078125,-1.1061609983444214,-9.73850154876709,0.3292258083820343
1777560307888109800,19.98310986328125,-1.2604122161865234,-9.71805191040039,0.37579843401908875
1777560307906640000,20.001639892578126,-1.4231672286987305,-9.692936897277832,0.4381255507469177
1777560307925170000,20.020169921875,-1.5757827758789062,-9.665760040283203,0.5102702975273132
1777560307943699700,20.03869970703125,-1.712388277053833,-9.637572288513184,0.5960912704467773
1777560307962229800,20.057229736328125,-1.841685175895691,-9.608345031738281,0.676963746547699
1777560307980759800,20.075759765625,-1.967475175857544,-9.578484535217285,0.7430087924003601
1777560307999289600,20.09428955078125,-2.0784049034118652,-9.550199508666992,0.8026851415634155
1777560308017819600,20.112819580078124,-2.1534738540649414,-9.528515815734863,0.8604186773300171
1777560308036349700,20.131349609375,-2.1952457427978516,-9.513277053833008,0.9213261604309082
1777560308054879700,20.149879638671877,-2.216062068939209,-9.503396034240723,0.9720691442489624
1777560308073409500,20.168409423828123,-2.2491681575775146,-9.491681098937988,1.0097644329071045
1777560308091939600,20.186939697265625,-2.325303316116333,-9.470633506774902,1.03462553024292
1777560308110469600,20.2054697265625,-2.394284963607788,-9.451495170593262,1.0521608591079712
1777560308128999400,20.22399951171875,-2.407809257507324,-9.445507049560547,1.0748169422149658
1777560308147529500,20.242529541015625,-2.383106231689453,-9.4493989944458,1.0954713821411133
1777560308166059500,20.2610595703125,-2.307034730911255,-9.468870162963867,1.090168833732605
1777560308184589300,20.27958935546875,-2.1683592796325684,-9.506877899169922,1.043013334274292
1777560308203119400,20.298119384765624,-1.9786345958709717,-9.558481216430664,0.9438378810882568
1777560308221649400,20.3166494140625,-1.7320704460144043,-9.61876392364502,0.8060433864593506
1777560308240179200,20.33517919921875,-1.380240559577942,-9.686391830444336,0.6626611948013306
1777560308258709200,20.353709228515626,-0.9142582416534424,-9.747963905334473,0.5583084225654602
1777560308277239300,20.3722392578125,-0.4050326347351074,-9.78603744506836,0.4896963834762573
1777560308295769000,20.39076904296875,0.10518454760313034,-9.794167518615723,0.4833129346370697
1777560308314299100,20.409299072265625,0.5622014403343201,-9.776311874389648,0.5272824764251709
1777560308332829200,20.4278291015625,0.9759337306022644,-9.740376472473145,0.5856783390045166
1777560308351359000,20.44635888671875,1.391037940979004,-9.68466567993164,0.665323793888092
1777560308369889000,20.464888916015624,1.8057509660720825,-9.608880996704102,0.7609608769416809
1777560308388419000,20.483419189453127,2.131328582763672,-9.532355308532715,0.8729445934295654
1777560308406948900,20.501948974609373,2.357553482055664,-9.463497161865234,1.026916265487671
1777560308425479000,20.52047900390625,2.578827381134033,-9.386300086975098,1.1905487775802612
1777560308444009000,20.539009033203126,2.8496246337890625,-9.297945022583008,1.2642171382904053
1777560308462539000,20.5575390625,3.12019944190979,-9.21239185333252,1.251624345779419
1777560308481068800,20.57606884765625,3.361786127090454,-9.128470420837402,1.2408899068832397
1777560308499598800,20.594598876953125,3.597749948501587,-9.03307056427002,1.2768021821975708
1777560308518129000,20.61312890625,3.7953972816467285,-8.941311836242676,1.3484426736831665
1777560308536658700,20.63165869140625,3.905515432357788,-8.881704330444336,1.4257138967514038
1777560308555188700,20.650188720703124,3.9393117427825928,-8.860949516296387,1.4614322185516357
1777560308573718800,20.66871875,3.918652296066284,-8.869098663330078,1.4675266742706299
1777560308592248600,20.68724853515625,3.8431997299194336,-8.903071403503418,1.4613457918167114
1777560308610778600,20.705778564453126,3.702449321746826,-8.966531753540039,1.4365092515945435
1777560308629308700,20.72430859375,3.492867946624756,-9.0595121383667,1.3767738342285156
1777560308647838500,20.74283837890625,3.2265820503234863,-9.170760154724121,1.2871301174163818
1777560308666368500,20.761368408203126,2.927616596221924,-9.286248207092285,1.1683515310287476
1777560308684898600,20.779898681640624,2.6681315898895264,-9.375126838684082,1.0763194561004639
1777560308703428400,20.798428466796874,2.599597454071045,-9.390352249145508,1.1107510328292847
1777560308721958400,20.81695849609375,2.9498865604400635,-9.275653839111328,1.1961674690246582
1777560308740488400,20.835488525390623,3.2668240070343018,-9.165546417236328,1.2210652828216553
1777560308759018200,20.854018310546873,3.5297000408172607,-9.05895709991455,1.2833181619644165
1777560308777548300,20.87254833984375,3.819641590118408,-8.909339904785156,1.4847158193588257
1777560308796078300,20.891078369140626,3.9842159748077393,-8.801847457885742,1.680443286895752
1777560308814608400,20.9096083984375,3.9262523651123047,-8.808491706848145,1.779157042503357
1777560308833138200,20.92813818359375,3.778110980987549,-8.87214183807373,1.7836389541625977
1777560308851668200,20.946668212890625,3.6720986366271973,-8.913981437683105,1.796388864517212
1777560308870198300,20.9651982421875,3.488814353942871,-8.992255210876465,1.7714135646820068
1777560308888728000,20.98372802734375,3.3797643184661865,-9.070679664611816,1.571738839149475
1777560308907258000,21.002258056640624,3.277763843536377,-9.134098052978516,1.4124120473861694
1777560308925788200,21.0207880859375,3.1185083389282227,-9.183815956115723,1.450102686882019
1777560308944318000,21.03931787109375,2.7975990772247314,-9.279485702514648,1.4949822425842285
1777560308962848000,21.057847900390627,2.34333872795105,-9.42212963104248,1.3793529272079468
1777560308981378000,21.0763779296875,1.9258041381835938,-9.528999328613281,1.2883460521697998
1777560308999907800,21.094907958984376,1.6574972867965698,-9.57817268371582,1.2967973947525024
1777560309018438000,21.11343798828125,1.4632604122161865,-9.610702514648438,1.2898306846618652
1777560309036968000,21.131968017578124,1.1376025676727295,-9.664114952087402,1.2170252799987793
1777560309055497700,21.150497802734375,0.7983778119087219,-9.7220458984375,1.0073727369308472
1777560309074027800,21.16902783203125,0.5157875418663025,-9.768314361572266,0.6959728002548218
1777560309092557800,21.187557861328123,0.2169509381055832,-9.795417785644531,0.4160381555557251
1777560309111087600,21.206087646484374,-0.10381188243627548,-9.803215980529785,0.23784306645393372
1777560309129617700,21.22461767578125,-0.3973848819732666,-9.796868324279785,0.1839282363653183
1777560309148147700,21.243147705078126,-0.619653046131134,-9.784440040588379,0.2261849045753479
1777560309166677800,21.261677734375,-0.8098834753036499,-9.768428802490234,0.3037472069263458
1777560309185207600,21.28020751953125,-0.978985071182251,-9.75097942352295,0.3610878884792328
1777560309203737600,21.298737548828125,-1.0999952554702759,-9.736371994018555,0.4042831361293793
1777560309222267600,21.317267578125,-1.1970850229263306,-9.72343635559082,0.4383612275123596
1777560309240797400,21.33579736328125,-1.3588887453079224,-9.699321746826172,0.49696779251098633
1777560309268592400,21.36359228515625,-1.6786895990371704,-9.643182754516602,0.6011760234832764
1777560309287122400,21.382122314453124,-1.834007978439331,-9.610445976257324,0.6679385900497437
1777560309305652500,21.400652587890626,-1.9577717781066895,-9.582111358642578,0.7215636372566223
1777560309324182300,21.419182373046876,-2.0731191635131836,-9.555370330810547,0.7532984614372253
1777560309342712300,21.43771240234375,-2.1990511417388916,-9.526002883911133,0.7680026292800903
1777560309361242400,21.456242431640625,-2.305098295211792,-9.498676300048828,0.7950169444084167
1777560309379772400,21.4747724609375,-2.3579349517822266,-9.480598449707031,0.8536799550056458
1777560309398302200,21.49330224609375,-2.393446445465088,-9.46555233001709,0.9192997813224792
1777560309416832300,21.511832275390624,-2.4454407691955566,-9.448482513427734,0.9572816491127014
1777560309435362300,21.5303623046875,-2.4920096397399902,-9.43624496459961,0.9578912854194641
1777560309453892000,21.54889208984375,-2.4928524494171143,-9.437366485595703,0.9445511102676392
1777560309472422100,21.567422119140623,-2.4313840866088867,-9.455194473266602,0.926307201385498
1777560309490952200,21.5859521484375,-2.29895281791687,-9.49190616607666,0.8882158398628235
1777560309509482200,21.604482177734376,-2.1113271713256836,-9.54193115234375,0.8149991631507874
1777560309528012000,21.623011962890626,-1.8589845895767212,-9.60212516784668,0.7167741656303406
1777560309546542000,21.6415419921875,-1.5058863162994385,-9.67123031616211,0.6082822680473328
1777560309565072100,21.660072021484375,-1.0221856832504272,-9.739150047302246,0.5239146947860718
1777560309583602000,21.678601806640625,-0.48194316029548645,-9.783385276794434,0.4727425277233124
1777560309602132000,21.697132080078124,0.05700366944074631,-9.795269012451172,0.4688567817211151
1777560309620662000,21.715662109375,0.5367127656936646,-9.778180122375488,0.5191586017608643
1777560309639191800,21.73419189453125,0.9732062220573425,-9.737842559814453,0.6306247115135193
1777560309657721900,21.752721923828126,1.4050527811050415,-9.674162864685059,0.7789696455001831
1777560309676252000,21.771251953125,1.8516712188720703,-9.58653736114502,0.9165170192718506
1777560309694781700,21.78978173828125,2.3037304878234863,-9.475815773010254,1.0354422330856323
1777560309713311700,21.808311767578125,2.673614740371704,-9.364051818847656,1.156161904335022
1777560309731841800,21.826841796875,2.9611785411834717,-9.259188652038574,1.2919832468032837
1777560309750371600,21.84537158203125,3.2560322284698486,-9.145912170410156,1.3859790563583374
1777560309768901600,21.863901611328124,3.568436622619629,-9.022336959838867,1.4262146949768066
1777560309787431700,21.882431640625,3.8535094261169434,-8.895535469055176,1.4799613952636719
1777560309805961500,21.90096142578125,4.09623384475708,-8.769506454467773,1.5770303010940552
1777560309824491500,21.919491455078123,4.274465084075928,-8.661429405212402,1.6967546939849854
1777560309843021600,21.938021484375,4.368987083435059,-8.592339515686035,1.803893804550171
1777560309861551600,21.956551513671876,4.3764190673828125,-8.577859878540039,1.8540968894958496
1777560309880081400,21.975081298828126,4.2940263748168945,-8.62366771697998,1.834143042564392
1777560309898611500,21.993611572265625,4.137627124786377,-8.715579986572266,1.757582664489746
1777560309917141500,22.0121416015625,3.92270565032959,-8.836379051208496,1.643523931503296
1777560309935671600,22.030671630859374,3.647357940673828,-8.977293014526367,1.5084354877471924
1777560309954201300,22.049201416015624,3.329767942428589,-9.123771667480469,1.356398582458496
1777560309972731400,22.0677314453125,3.047992706298828,-9.243490219116211,1.19917631149292
1777560309991261400,22.086261474609376,2.9537882804870605,-9.285795211791992,1.1043235063552856
1777560310009791500,22.10479150390625,3.17620587348938,-9.209637641906738,1.1245793104171753
1777560310028321300,22.1233212890625,3.4893271923065186,-9.088480949401855,1.1808884143829346
1777560310046851300,22.141851318359375,3.6524765491485596,-9.01386833190918,1.2569743394851685
1777560310065381400,22.16038134765625,3.8709094524383545,-8.901394844055176,1.39700448513031
1777560310083911200,22.1789111328125,4.059413433074951,-8.786046028137207,1.5801713466644287
1777560310102441200,22.197441162109374,4.092469692230225,-8.747523307800293,1.7037956714630127
1777560310120971300,22.21597119140625,3.9678003787994385,-8.80044174194336,1.7260292768478394
1777560310139501000,22.2345009765625,3.8028149604797363,-8.881202697753906,1.6832212209701538
1777560310158031000,22.253031005859373,3.7402586936950684,-8.9043607711792,1.7009422779083252
1777560310176561200,22.27156103515625,3.6158359050750732,-8.936367988586426,1.7992868423461914
1777560310195091200,22.29009130859375,3.4893531799316406,-9.011236190795898,1.6710578203201294
1777560310213621000,22.30862109375,3.366184711456299,-9.089096069335938,1.492480993270874
1777560310232151000,22.327151123046875,3.2315316200256348,-9.149446487426758,1.4195842742919922
1777560310250681000,22.34568115234375,2.911543369293213,-9.2660551071167,1.3540771007537842
1777560310269211000,22.3642109375,2.439070463180542,-9.425824165344238,1.1726713180541992
1777560310287741000,22.382740966796874,1.9791370630264282,-9.54712963104248,1.0515286922454834
1777560310306271000,22.40127099609375,1.6261820793151855,-9.6098051071167,1.0851587057113647
1777560310324801000,22.419801025390626,1.4375762939453125,-9.63601016998291,1.118514895439148
1777560310343331000,22.4383310546875,1.191607117652893,-9.680279731750488,1.0210943222045898
1777560310361860900,22.45686083984375,0.8765172362327576,-9.735307693481445,0.7911306619644165
1777560310380391000,22.475390869140625,0.6000529527664185,-9.777647018432617,0.4560204744338989
1777560310398921000,22.4939208984375,0.26703914999961853,-9.801799774169922,0.1542365401983261
1777560310417450800,22.51245068359375,-0.10899950563907623,-9.80603313446045,-0.01503763347864151
1777560310435980800,22.530980712890624,-0.3734474778175354,-9.799417495727539,-0.04841917008161545
1777560310454510800,22.5495107421875,-0.5610413551330566,-9.790569305419922,0.01932922936975956
1777560310473040600,22.56804052734375,-0.7371310591697693,-9.778337478637695,0.10552211105823517
1777560310491570700,22.58657080078125,-0.913507878780365,-9.762726783752441,0.15825501084327698
1777560310510100700,22.605100830078126,-1.04549241065979,-9.748579978942871,0.2062530368566513
1777560310528630800,22.623630859375,-1.149281620979309,-9.735441207885742,0.2659330666065216
1777560310547160600,22.64216064453125,-1.3232146501541138,-9.711153984069824,0.3361198604106903
1777560310565690600,22.660690673828125,-1.5534396171569824,-9.674137115478516,0.4102190434932709
1777560310584220700,22.679220703125,-1.7493064403533936,-9.636235237121582,0.5032728314399719
1777560310602750700,22.697750732421873,-1.8974591493606567,-9.602067947387695,0.6085528135299683
1777560310621280800,22.71628076171875,-2.02970552444458,-9.569315910339355,0.6920207738876343
1777560310639810600,22.734810546875,-2.1552224159240723,-9.538448333740234,0.7371704578399658
1777560310658340600,22.753340576171876,-2.2656781673431396,-9.51164436340332,0.7521392107009888
1777560310676870700,22.77187060546875,-2.333601474761963,-9.49389934539795,0.7684857845306396
1777560310695400400,22.790400390625,-2.3527894020080566,-9.486761093139648,0.7975867390632629
1777560310713930500,22.808930419921875,-2.372626304626465,-9.479212760925293,0.8279747366905212
1777560310732460500,22.82746044921875,-2.4098739624023438,-9.46833610534668,0.8446908593177795
1777560310750990300,22.845990234375,-2.4241244792938232,-9.464524269104004,0.846627414226532
1777560310769520400,22.864520263671874,-2.390139102935791,-9.473672866821289,0.8409137725830078
1777560310797315300,22.8923154296875,-2.241802930831909,-9.51401424407959,0.792616605758667
1777560310815845400,22.910845458984376,-2.091071367263794,-9.55435848236084,0.7155753374099731
1777560310834375400,22.92937548828125,-1.8796404600143433,-9.606032371520996,0.6012469530105591
1777560310852905500,22.947905517578125,-1.5553373098373413,-9.670860290527344,0.47517120838165283
1777560310871435300,22.966435302734375,-1.0708802938461304,-9.741326332092285,0.3607890009880066
1777560310889965300,22.98496533203125,-0.4901873767375946,-9.790539741516113,0.2746467888355255
1777560310908495400,23.003495361328124,0.08284781873226166,-9.80386734008789,0.21839827299118042
1777560310927025200,23.022025146484374,0.5890260934829712,-9.786421775817871,0.2222377061843872
1777560310945555200,23.04055517578125,1.0381165742874146,-9.74660587310791,0.3104332983493805
1777560310964085200,23.059085205078127,1.4644922018051147,-9.687167167663574,0.42947348952293396
1777560310982615300,23.077615234375,1.9100152254104614,-9.602982521057129,0.5522414445877075
1777560311001145300,23.096145263671875,2.332159996032715,-9.501437187194824,0.6738860607147217
1777560311019675100,23.114675048828126,2.6787314414978027,-9.398117065429688,0.8186466693878174
1777560311038205200,23.133205078125,3.021831750869751,-9.2786283493042,0.9726138710975647
1777560311056735200,23.1517353515625,3.3813998699188232,-9.140298843383789,1.091544508934021
1777560311075265000,23.17026513671875,3.685276985168457,-9.012043952941895,1.171398401260376
1777560311093795000,23.188795166015623,3.931568145751953,-8.898948669433594,1.2336446046829224
1777560311112325000,23.2073251953125,4.179664611816406,-8.773283958435059,1.3154057264328003
1777560311130855200,23.225855224609376,4.40493106842041,-8.641457557678223,1.4464367628097534
1777560311149385200,23.24438525390625,4.5509562492370605,-8.540162086486816,1.5889670848846436
1777560311167915000,23.2629150390625,4.617549896240234,-8.4893159866333,1.6673719882965088
1777560311186445000,23.281445068359375,4.585432529449463,-8.504888534545898,1.676623821258545
1777560311204975000,23.29997509765625,4.468506813049316,-8.572962760925293,1.6453388929367065
1777560311223505200,23.318505126953124,4.295968532562256,-8.67520523071289,1.5671206712722778
1777560311242035000,23.337034912109374,4.051551818847656,-8.810494422912598,1.4596291780471802
1777560311260565000,23.35556494140625,3.745840311050415,-8.965031623840332,1.3293945789337158
1777560311279095000,23.374094970703126,3.4554951190948486,-9.101728439331055,1.178337812423706
1777560311297624800,23.392624755859377,3.291344165802002,-9.178799629211426,1.0426305532455444
1777560311316155000,23.41115478515625,3.285888195037842,-9.181946754455566,1.0320760011672974
1777560311334685000,23.429684814453125,3.4427309036254883,-9.113282203674316,1.1252007484436035
1777560311353215000,23.448215087890624,3.577347755432129,-9.048040390014648,1.2271559238433838
1777560311371745000,23.4667451171875,3.716442108154297,-8.98277759552002,1.2915717363357544
1777560311390274800,23.48527490234375,3.9151175022125244,-8.878706932067871,1.418029546737671
1777560311408804900,23.503804931640627,4.0314226150512695,-8.801795959472656,1.5640983581542969
1777560311427335000,23.5223349609375,3.9678657054901123,-8.821824073791504,1.6130249500274658
1777560311445864700,23.54086474609375,3.8004653453826904,-8.896171569824219,1.607787847518921
1777560311464394800,23.559394775390626,3.697951316833496,-8.92397403717041,1.6906325817108154
1777560311482924800,23.5779248046875,3.5641000270843506,-8.944707870483398,1.860047698020935
1777560311501454800,23.596454833984374,3.437598705291748,-8.997879981994629,1.8415956497192383
1777560311519984600,23.614984619140625,3.280170440673828,-9.082393646240234,1.709096908569336
1777560311538514700,23.6335146484375,3.0654866695404053,-9.167803764343262,1.6506197452545166
1777560311557044700,23.652044677734374,2.7090978622436523,-9.295225143432617,1.5588353872299194
1777560311575574800,23.67057470703125,2.260840654373169,-9.44426441192627,1.3655989170074463
1777560311594104800,23.689104736328126,1.8351778984069824,-9.553323745727539,1.239558219909668
1777560311612634600,23.707634521484376,1.5126492977142334,-9.606345176696777,1.2650694847106934
1777560311631164700,23.72616455078125,1.342986822128296,-9.626025199890137,1.306301474571228
1777560311649694700,23.74469482421875,1.1049751043319702,-9.66833209991455,1.213572382926941
1777560311668224500,23.763224609375,0.7863386273384094,-9.72429084777832,0.9951109290122986
1777560311686754600,23.781754638671874,0.5114077925682068,-9.768393516540527,0.6980855464935303
1777560311705284600,23.80028466796875,0.23309475183486938,-9.79386043548584,0.4431295096874237
1777560311723814700,23.818814697265626,-0.051427166908979416,-9.801844596862793,0.3026343286037445
1777560311742344400,23.837344482421877,-0.3029943108558655,-9.797741889953613,0.28780585527420044
1777560311760874500,23.85587451171875,-0.5215283632278442,-9.786372184753418,0.35397642850875854
1777560311779404500,23.874404541015625,-0.7366835474967957,-9.769789695739746,0.4229608476161957
1777560311797934600,23.8929345703125,-0.9309835433959961,-9.751629829406738,0.4575539231300354
1777560311816464400,23.91146435546875,-1.0622631311416626,-9.737780570983887,0.46649324893951416
