time,seconds_elapsed,z,y,x
1777560288339034600,0.43403466796875,0.10323614627122879,-0.023823726922273636,-0.09040798991918564
1777560288357564700,0.452564697265625,0.03543015569448471,-0.14660754799842834,-0.05497783049941063
1777560288376094500,0.471094482421875,-0.018325943499803543,-0.2883281707763672,-0.06108647957444191
1777560288394624500,0.48962451171875,-0.056199558079242706,-0.4111120104789734,-0.018325943499803543
1777560288413154300,0.508154296875,-0.04276053607463837,-0.4214966893196106,0.09834922850131989
1777560288431684400,0.526684326171875,0.017104214057326317,-0.3402516841888428,0.1948658674955368
1777560288450214100,0.545214111328125,0.12095122784376144,-0.27977606654167175,0.2364046722650528
1777560288468744200,0.563744140625,0.21441353857517242,-0.31031930446624756,0.20647229254245758
1777560288487274000,0.58227392578125,0.2779434621334076,-0.4257727563381195,0.15271618962287903
1777560288505804000,0.600803955078125,0.2809978127479553,-0.6169734001159668,0.1185077652335167
1777560288524333800,0.619333740234375,0.20708316564559937,-0.749531090259552,0.12156209349632263
1777560288542864000,0.63786376953125,0.09896009415388107,-0.7293725609779358,0.028099779039621353
1777560288561393700,0.6563935546875,0.02871064469218254,-0.5009090900421143,-0.15760311484336853
1777560288579923700,0.674923828125,-0.017104214057326317,-0.21746785938739777,-0.3035998046398163
1777560288598453500,0.69345361328125,-0.043371398001909256,0.009162971749901772,-0.4166097939014435
1777560288616983600,0.711983642578125,-0.0616973415017128,0.13500112295150757,-0.5229002237319946
1777560288635513300,0.730513427734375,-0.059864748269319534,0.0665842592716217,-0.5772672295570374
1777560288654043100,0.749043212890625,-0.047036588191986084,-0.18570289015769958,-0.49418962001800537
1777560288672573200,0.7675732421875,-0.06963858753442764,-0.401949018239975,-0.24556763470172882
1777560288691103200,0.786103271484375,-0.06475166976451874,-0.6071996092796326,0.04581485688686371
1777560288709633000,0.804633056640625,0.017104214057326317,-0.8814778923988342,0.27488914132118225
1777560288728163000,0.8231630859375,0.09285144507884979,-0.9932661056518555,0.35246896743774414
1777560288746692900,0.84169287109375,0.09896009415388107,-0.8790343999862671,0.20463970303535461
1777560288765223000,0.860222900390625,0.1178968995809555,-0.5161807537078857,0.025045456364750862
1777560288783752700,0.878752685546875,0.15821397304534912,-0.21258094906806946,-0.14782927930355072
1777560288802282800,0.89728271484375,0.16615521907806396,-0.04459312930703163,-0.29138249158859253
1777560288820812500,0.9158125,0.12705987691879272,-0.008552107028663158,-0.2632827162742615
1777560288839342300,0.93434228515625,0.10567960888147354,0.0616973415017128,-0.2767217457294464
1777560288857872400,0.952872314453125,0.11239911615848541,0.11178825795650482,-0.34636032581329346
1777560288876402200,0.971402099609375,0.09834922850131989,0.3249800503253937,-0.5784889459609985
1777560288894932200,0.98993212890625,0.012217295356094837,0.7263182401657104,-0.8356630206108093
1777560288913462000,1.0084619140625,-0.08491020649671555,1.1716386079788208,-1.056185245513916
1777560288931992000,1.026991943359375,-0.1740964651107788,1.3713914155960083,-1.119104266166687
1777560288950521900,1.04552197265625,-0.10873392969369888,1.1893537044525146,-1.0201442241668701
1777560288969052000,1.064052001953125,0.021380268037319183,0.9358448386192322,-1.0873392820358276
1777560288987581700,1.082581787109375,0.24434591829776764,0.7935133576393127,-1.1789690256118774
1777560289006111500,1.101111572265625,0.32559093832969666,0.7250964641571045,-1.153923511505127
1777560289024641500,1.1196416015625,0.3029889166355133,0.6530144214630127,-0.9944878816604614
1777560289043171600,1.138171630859375,0.25045454502105713,0.5864301919937134,-0.8778126835823059
1777560289061701400,1.156701416015625,0.23518294095993042,0.7904590368270874,-0.8338304162025452
1777560289080231200,1.175231201171875,0.26511532068252563,0.8381064534187317,-0.8735366463661194
1777560289108026000,1.203026123046875,0.3243691921234131,1.0122029781341553,-0.8454368710517883
1777560289126556200,1.22155615234375,0.3756818473339081,1.2986985445022583,-0.8851430416107178
1777560289145086000,1.2400859375,0.3915643095970154,1.415373682975769,-0.8197805285453796
1777560289163615700,1.25861572265625,0.23029601573944092,1.1728603839874268,-0.5962040424346924
1777560289182145800,1.277145751953125,0.11178825795650482,0.7250964641571045,-0.5540543794631958
1777560289200675600,1.295675537109375,0.10934479534626007,0.3836230933666229,-0.6078104376792908
1777560289219205600,1.31420556640625,0.11728604137897491,0.5015199780464172,-0.5558869242668152
1777560289237735400,1.3327353515625,0.13439024984836578,0.7360920310020447,-0.45998117327690125
1777560289256265500,1.351265380859375,0.1185077652335167,0.6633991599082947,-0.43004879355430603
1777560289274795300,1.369795166015625,0.056810423731803894,0.5516108870506287,-0.40744680166244507
1777560289293325000,1.388324951171875,0.033597562462091446,0.5039634704589844,-0.4013381600379944
1777560289311855000,1.406855224609375,0.001832594396546483,0.5125155448913574,-0.38728827238082886
1777560289330385200,1.42538525390625,-0.006719512399286032,0.6860011219978333,-0.4050033390522003
1777560289348915000,1.4439150390625,-0.021991131827235222,0.740368127822876,-0.4373791813850403
1777560289367444700,1.46244482421875,-0.037262752652168274,0.7073814272880554,-0.4404335021972656
1777560289385974800,1.480974853515625,-0.08491020649671555,0.7006618976593018,-0.36835145950317383
1777560289404504600,1.499504638671875,-0.1386663019657135,0.6462949514389038,-0.29077163338661194
1777560289423034600,1.51803466796875,-0.185092031955719,0.5485565662384033,-0.2669478952884674
1777560289441564400,1.536564453125,-0.20830489695072174,0.5381718873977661,-0.2370155304670334
1777560289460094200,1.55509423828125,-0.19181154668331146,0.6035344004631042,-0.2467893660068512
1777560289478624300,1.573624267578125,-0.1441640853881836,0.6444623470306396,-0.29993459582328796
1777560289497154000,1.592154052734375,-0.09590577334165573,0.7391464114189148,-0.3292561173439026
1777560289515684000,1.61068408203125,-0.08002328872680664,0.8991929292678833,-0.3042106628417969
1777560289534214000,1.6292138671875,-0.08674279600381851,0.9553925395011902,-0.2315177470445633
1777560289552744000,1.647743896484375,-0.09651663154363632,0.720820426940918,-0.2620609998703003
1777560289571273700,1.666273681640625,-0.14294235408306122,0.4575377106666565,-0.26389357447624207
1777560289589803800,1.6848037109375,-0.16676609218120575,0.4043924808502197,-0.23029601573944092
1777560289608333600,1.70333349609375,-0.13561198115348816,0.4269944727420807,-0.2254091054201126
1777560289626863400,1.72186328125,-0.164322629570961,0.3439168632030487,-0.18875721096992493
1777560289645393400,1.740393310546875,-0.22479823231697083,0.15760311484336853,-0.10445787757635117
1777560289663923200,1.758923095703125,-0.2211330533027649,-0.1178968995809555,0.10384701192378998
1777560289682453200,1.777453369140625,-0.20769402384757996,-0.4361574649810791,0.3610210716724396
1777560289700983000,1.795983154296875,-0.11484257876873016,-0.5589412450790405,0.5839866995811462
1777560289719512800,1.814512939453125,0.03237583488225937,-0.5797106623649597,0.8344413042068481
1777560289738043000,1.83304296875,0.15027274191379547,-0.7195987105369568,1.1026109457015991
1777560289756572700,1.85157275390625,0.1380554437637329,-1.0787872076034546,1.3518437147140503
1777560289775102700,1.870102783203125,-0.01588248461484909,-1.5766420364379883,1.785557746887207
1777560289793632500,1.888632568359375,-0.13683371245861053,-2.1642940044403076,2.4324636459350586
1777560289812162600,1.90716259765625,-0.18142683804035187,-2.3347251415252686,2.9046621322631836
1777560289830692400,1.9256923828125,-0.16126830875873566,-1.9456043243408203,2.9211554527282715
1777560289849222400,1.944222412109375,-0.04520399495959282,-0.9853248596191406,2.528369426727295
1777560289867752200,1.962752197265625,-0.01588248461484909,-0.16859868168830872,2.2149956226348877
1777560289886282200,1.9812822265625,-0.0720820426940918,0.20647229254245758,1.989586591720581
1777560289904812000,1.99981201171875,-0.004886918235570192,0.04214967042207718,1.79410982131958
1777560289923341800,2.018341796875,-0.09101885557174683,-0.45448338985443115,1.6621630191802979
1777560289941871900,2.036871826171875,-0.20891575515270233,-1.110552191734314,1.3762784004211426
1777560289960401700,2.055401611328125,-0.17837251722812653,-1.227838158607483,1.186299443244934
1777560289978931700,2.073931640625,0.07330377399921417,-0.8845322132110596,1.5412118434906006
1777560289997461500,2.09246142578125,0.3170388340950012,-0.7367029190063477,1.8936808109283447
1777560290015991300,2.1109912109375,0.4172206521034241,-1.148425817489624,1.7318016290664673
1777560290034521300,2.129521240234375,0.42271843552589417,-1.6145156621932983,1.4947861433029175
1777560290053051100,2.148051025390625,0.3610210716724396,-2.1160356998443604,1.3109158277511597
1777560290071581200,2.166581298828125,0.3439168632030487,-2.126420259475708,1.1698060035705566
1777560290090111000,2.185111083984375,0.3121519088745117,-1.6988149881362915,0.9175189137458801
1777560290108641000,2.20364111328125,0.2712239623069763,-1.1606431007385254,0.6029235124588013
1777560290127170800,2.2221708984375,0.235793799161911,-0.7220421433448792,0.22357651591300964
1777560290145700900,2.240700927734375,0.21685700118541718,-0.5253437161445618,-0.21258094906806946
1777560290164230700,2.259230712890625,0.2162461280822754,-0.16187916696071625,-0.6585122346878052
1777560290182760400,2.277760498046875,0.22724169492721558,0.18692462146282196,-0.9541707634925842
1777560290201290500,2.29629052734375,0.23945899307727814,0.35674503445625305,-1.0519092082977295
1777560290219820300,2.3148203125,0.18692462146282196,0.4673115611076355,-0.9737184643745422
1777560290238350300,2.333350341796875,0.11545344442129135,0.33047783374786377,-0.7104357481002808
1777560290256880000,2.351880126953125,0.16798780858516693,-0.10995566099882126,-0.3072649836540222
1777560290275410000,2.370409912109375,0.39828383922576904,-0.646905779838562,0.24740023910999298
1777560290293940000,2.38893994140625,0.6114756464958191,-1.036637544631958,0.759304940700531
1777560290312469800,2.4074697265625,0.5424479246139526,-0.7861829996109009,0.916297197341919
1777560290330999800,2.425999755859375,0.3909534513950348,-0.5112938284873962,0.9602794051170349
1777560290349529600,2.444529541015625,0.23273947834968567,-0.9065233469009399,0.9456186890602112
1777560290368059600,2.4630595703125,0.02260199747979641,-1.4471386671066284,0.5699368119239807
1777560290386589400,2.48158935546875,-0.18081597983837128,-1.4110976457595825,-0.020769402384757996
1777560290405119500,2.500119384765625,-0.27366742491722107,-0.851545512676239,-0.5558869242668152
1777560290423649300,2.518649169921875,-0.31520622968673706,-0.1178968995809555,-0.8491020202636719
1777560290442179000,2.537178955078125,-0.39767298102378845,0.9908226728439331,-0.5406153202056885
1777560290460709000,2.555709228515625,-0.3390299379825592,0.9926552772521973,-0.15088360011577606
1777560290479239000,2.574239013671875,-0.04153880476951599,1.1252129077911377,-0.5790998339653015
1777560290497769000,2.59276904296875,0.18203771114349365,2.5130977630615234,-1.202792763710022
1777560290516298800,2.611298828125,0.34208428859710693,2.4575090408325195,-1.5332705974578857
1777560290534828800,2.629828857421875,-0.09162971377372742,1.7733404636383057,-1.8380920886993408
1777560290553358600,2.648358642578125,-0.6334667801856995,2.83319091796875,-2.4190244674682617
1777560290571888600,2.666888671875,-0.7690787315368652,3.2504115104675293,-2.392146587371826
1777560290590418400,2.68541845703125,-0.5332849621772766,1.8191553354263306,-1.6187916994094849
1777560290608948200,2.7039482421875,-0.13683371245861053,0.29138249158859253,-0.9834923148155212
1777560290627478300,2.722478271484375,0.23396120965480804,-0.18325942754745483,-1.0574069023132324
1777560290646008000,2.741008056640625,0.6591231226921082,0.5998691916465759,-1.1404845714569092
1777560290664538000,2.7595380859375,0.943175196647644,1.1704169511795044,-1.4019346237182617
1777560290683068000,2.77806787109375,0.8283326625823975,1.2534945011138916,-1.6114612817764282
1777560290701598000,2.796597900390625,0.3995055556297302,0.5980366468429565,-1.5919135808944702
1777560290720127700,2.815127685546875,-0.06963858753442764,0.2565632164478302,-1.2479966878890991
1777560290738657500,2.833657470703125,-0.23273947834968567,0.4062250852584839,-1.1777472496032715
1777560290757187600,2.8521875,-0.07452550530433655,0.48502662777900696,-1.0983349084854126
1777560290775717600,2.870717529296875,0.024434590712189674,0.6884446144104004,-1.05496346950531
1777560290794247400,2.889247314453125,-0.000610864779446274,0.8625410795211792,-0.9553925395011902
1777560290812777200,2.907777099609375,-0.010995565913617611,0.905912458896637,-0.7892373204231262
1777560290831307300,2.926307373046875,-0.09407317638397217,0.9199623465538025,-0.6707295179367065
1777560290849837000,2.944837158203125,-0.17287473380565643,0.7330377101898193,-0.6511818766593933
1777560290868367000,2.9633671875,-0.22846342623233795,0.41844236850738525,-0.7434224486351013
1777560290886897000,2.98189697265625,-0.34147340059280396,0.2205221801996231,-0.8692606091499329
1777560290905426700,3.0004267578125,-0.35246896743774414,0.19242240488529205,-0.9352339506149292
1777560290923956700,3.018956787109375,-0.3176496922969818,0.45937031507492065,-0.8521563410758972
1777560290942486800,3.03748681640625,-0.23945899307727814,0.685390293598175,-0.656679630279541
1777560290961016600,3.0560166015625,-0.1588248461484909,0.5375609993934631,-0.5534434914588928
1777560290979546400,3.07454638671875,-0.12583814561367035,0.29443681240081787,-0.544891357421875
1777560290998076400,3.093076416015625,-0.12644900381565094,0.3017672002315521,-0.4373791813850403
1777560291016606200,3.111606201171875,-0.11606431007385254,0.7012727856636047,-0.3231474757194519
1777560291035136300,3.13013623046875,-0.024434590712189674,0.8057306408882141,-0.40744680166244507
1777560291053666000,3.148666015625,-0.11362084746360779,0.20219624042510986,-0.4269944727420807
1777560291072196000,3.167196044921875,-0.1539379209280014,0.08918625861406326,-0.14660754799842834
1777560291090726000,3.185725830078125,-0.15515965223312378,0.12156209349632263,0.13744457066059113
1777560291109256000,3.204255859375,-0.11117739230394363,-0.16249002516269684,0.4569268524646759
1777560291127785700,3.22278564453125,-0.02260199747979641,-0.7776308655738831,0.8210022449493408
1777560291146315800,3.241315673828125,0.13622283935546875,-1.2736530303955078,1.1490366458892822
1777560291164845600,3.259845458984375,0.3078758418560028,-1.6420044898986816,1.5809180736541748
1777560291183375400,3.278375244140625,0.40805765986442566,-2.0250167846679688,2.1245877742767334
1777560291201905400,3.296905517578125,0.3799578845500946,-2.1306962966918945,2.6560399532318115
1777560291220435200,3.315435302734375,0.3225366175174713,-2.064723014831543,2.894888162612915
1777560291238965200,3.33396533203125,0.09529490768909454,-1.9199479818344116,2.8270821571350098
1777560291257495000,3.3524951171875,-0.1637117564678192,-1.285259485244751,2.6022839546203613
1777560291276025000,3.371025146484375,-0.41844236850738525,-0.6811142563819885,2.4795000553131104
1777560291294555000,3.389554931640625,-0.4776962697505951,-0.08796452730894089,2.5497496128082275
1777560291313085000,3.4080849609375,-0.3249800503253937,0.3035998046398163,2.5637993812561035
1777560291331614700,3.42661474609375,-0.27855435013771057,0.010384701192378998,2.2333216667175293
1777560291350144500,3.44514453125,-0.27855435013771057,-0.8594867587089539,1.525329351425171
1777560291368674600,3.463674560546875,-0.13194678723812103,-1.2693769931793213,1.4043781757354736
1777560291387204600,3.48220458984375,0.17898337543010712,-0.6236929297447205,1.8759657144546509
1777560291405734400,3.500734375,0.4269944727420807,-0.8112284541130066,1.9901974201202393
1777560291424264200,3.51926416015625,0.5326740741729736,-1.658497929573059,1.8008294105529785
1777560291442794200,3.537794189453125,0.6200277805328369,-2.1532983779907227,1.6334524154663086
1777560291461324000,3.556323974609375,0.740368127822876,-2.4269657135009766,1.176525592803955
1777560291479854000,3.57485400390625,0.7733548283576965,-2.162461280822754,0.5955931544303894
1777560291498384000,3.5933837890625,0.7177661061286926,-1.4373648166656494,0.029932374134659767
1777560291516914000,3.611913818359375,0.637742817401886,-0.9071341753005981,-0.42271843552589417
1777560291535443700,3.630443603515625,0.6218603253364563,-0.44470956921577454,-0.758083164691925
1777560291553973800,3.648973876953125,0.6346884965896606,-0.11178825795650482,-1.1624757051467896
1777560291572503600,3.667503662109375,0.5613847374916077,-0.08613193035125732,-1.4953969717025757
1777560291591033300,3.686033447265625,0.4874700903892517,-0.023823726922273636,-1.5308271646499634
1777560291609563400,3.7045634765625,0.41355544328689575,0.17287473380565643,-1.3127484321594238
1777560291637358300,3.7323583984375,0.0665842592716217,-0.4465421438217163,-0.20219624042510986
1777560291655888100,3.75088818359375,0.006719512399286032,-1.0677915811538696,1.3420698642730713
1777560291674418200,3.769418212890625,0.20708316564559937,-1.1594213247299194,1.598022222518921
1777560291692948000,3.787947998046875,0.35796675086021423,-1.6859867572784424,1.6511675119400024
1777560291711478000,3.80647802734375,0.1795942485332489,-2.8875577449798584,1.6420044898986816
1777560291730007800,3.8250078125,0.3488037884235382,-3.2760677337646484,0.7525854110717773
1777560291748537900,3.843537841796875,0.26939135789871216,-1.3249657154083252,-0.49541133642196655
1777560291767067600,3.862067626953125,0.15515965223312378,0.740368127822876,-1.0775654315948486
1777560291785597700,3.88059765625,-0.3451386094093323,2.584568977355957,-1.1716386079788208
1777560291804127500,3.89912744140625,-0.5949822664260864,3.081812858581543,-0.4410443603992462
1777560291822657500,3.917657470703125,0.24862197041511536,1.433699607849121,-0.25045454502105713
1777560291841187300,3.936187255859375,0.15149445831775665,-0.08063415437936783,-0.5998691916465759
1777560291859717000,3.954717041015625,-0.07941242307424545,0.10506874322891235,-1.4617993831634521
1777560291878247200,3.9732470703125,-0.5778780579566956,3.800189733505249,-2.8466298580169678
1777560291896777200,3.991777099609375,-0.8943060636520386,5.528326034545898,-3.2229225635528564
1777560291915307000,4.01030712890625,-1.0286962985992432,3.495979070663452,-2.436128854751587
1777560291933836800,4.0288369140625,-0.5491674542427063,0.5302306413650513,-1.1899645328521729
1777560291952366800,4.047366943359375,0.05192350596189499,-0.4868592321872711,-1.451414704322815
1777560291970896600,4.065896728515625,0.6035344004631042,1.5412118434906006,-1.841146469116211
1777560291989426700,4.0844267578125,1.2760965824127197,2.8619015216827393,-1.7201951742172241
1777560292007956500,4.10295654296875,1.2956441640853882,2.9651377201080322,-1.7733404636383057
1777560292026486500,4.121486572265625,0.915686309337616,2.1392483711242676,-1.8112140893936157
1777560292045016300,4.140016357421875,0.29016077518463135,0.6585122346878052,-1.51616632938385
1777560292063546400,4.15854638671875,-0.3121519088745117,0.07269290834665298,-1.109330415725708
1777560292082076200,4.177076171875,-0.41905322670936584,0.4404335021972656,-1.007315993309021
1777560292100606200,4.195606201171875,-0.2669478952884674,1.062904715538025,-0.8808670043945312
1777560292119136000,4.214135986328125,-0.11667517572641373,1.8698570728302002,-0.6982184648513794
1777560292137666000,4.232666015625,0.06414080411195755,2.2235476970672607,-0.7354812026023865
1777560292156195800,4.25119580078125,-0.1331685185432434,1.4911209344863892,-1.0048725605010986
1777560292174726000,4.269725830078125,-0.47952884435653687,0.42088583111763,-1.221118688583374
1777560292193255700,4.288255615234375,-0.6414080262184143,0.49480047821998596,-1.1398736238479614
1777560292211785700,4.30678564453125,-0.6151408553123474,0.9566142559051514,-0.915075421333313
1777560292230315500,4.3253154296875,-0.5119046568870544,0.9065233469009399,-0.8521563410758972
1777560292248845600,4.343845458984375,-0.42332929372787476,0.4269944727420807,-0.8680388331413269
1777560292267375400,4.362375244140625,-0.2938259541988373,0.05925388261675835,-0.740368127822876
1777560292285905400,4.380905517578125,-0.08002328872680664,0.2614501118659973,-0.5540543794631958
1777560292304435200,4.399435302734375,-0.01588248461484909,0.6359102129936218,-0.389120876789093
1777560292322965200,4.41796533203125,-0.07757982611656189,0.47036588191986084,-0.36224281787872314
1777560292341495000,4.4364951171875,-0.12767073512077332,0.1484401375055313,-0.3347539007663727
1777560292360025000,4.455025146484375,-0.11484257876873016,0.13622283935546875,-0.09651663154363632
1777560292378555000,4.473554931640625,-0.06475166976451874,0.05803215503692627,0.11545344442129135
1777560292397085000,4.4920849609375,0.03481929376721382,-0.39278605580329895,0.5112938284873962
1777560292415614700,4.51061474609375,0.18631376326084137,-0.8399390578269958,0.9993748068809509
1777560292434144800,4.529144775390625,0.35674503445625305,-1.2235621213912964,1.5308271646499634
1777560292452674600,4.547674560546875,0.4886918365955353,-1.5118902921676636,2.1105377674102783
1777560292471204600,4.56620458984375,0.38179048895835876,-1.6438370943069458,2.7256786823272705
1777560292489734400,4.584734375,0.2467893660068512,-1.6481131315231323,3.0164501667022705
1777560292508264400,4.603264404296875,-0.009773836471140385,-1.6578869819641113,2.886336088180542
1777560292526794200,4.621794189453125,-0.2101374864578247,-1.2137882709503174,2.4917173385620117
1777560292545324300,4.64032421875,-0.3035998046398163,-0.7611374855041504,2.3200645446777344
1777560292563854000,4.65885400390625,-0.347582072019577,-0.545502245426178,2.461785078048706
1777560292582383900,4.6773837890625,-0.3799578845500946,-0.6976075768470764,2.6383249759674072
1777560292600914000,4.695913818359375,-0.3646862804889679,-0.7330377101898193,2.6254968643188477
1777560292619444000,4.71444384765625,-0.2993237376213074,-0.8203914165496826,2.3487751483917236
1777560292637973800,4.732973876953125,-0.32192572951316833,-1.1594213247299194,1.8967351913452148
1777560292656503800,4.75150390625,-0.2938259541988373,-1.1435388326644897,1.6908737421035767
1777560292675033600,4.77003369140625,-0.0665842592716217,-1.1319323778152466,1.6578869819641113
1777560292693563600,4.788563720703125,0.24373504519462585,-1.3408482074737549,1.6279546022415161
1777560292712093700,4.80709375,0.5400044918060303,-1.6365067958831787,1.5552617311477661
1777560292730623500,4.82562353515625,0.794124186038971,-2.1001532077789307,1.4294235706329346
1777560292749153300,4.8441533203125,0.8527672290802002,-2.188117742538452,1.0958913564682007
1777560292767683300,4.862683349609375,0.7373138070106506,-1.8142683506011963,0.7116574645042419
1777560292786213400,4.88121337890625,0.6579013466835022,-1.230892539024353,0.3597993552684784
1777560292804743200,4.8997431640625,0.6426297426223755,-0.8619301915168762,-0.0360410213470459
1777560292823273000,4.91827294921875,0.6023126840591431,-0.6579013466835022,-0.5491674542427063
1777560292841803000,4.936802978515625,0.5247328281402588,-0.5186241865158081,-1.0152572393417358
1777560292860333000,4.9553330078125,0.462424635887146,-0.25350889563560486,-1.29503333568573
1777560292878862800,4.97386279296875,0.4862483739852905,-0.02626718580722809,-1.3029745817184448
1777560292897392600,4.992392578125,0.5412262082099915,0.19853104650974274,-1.0946696996688843
1777560292915922700,5.010922607421875,0.4373791813850403,-0.12095122784376144,-0.6017017960548401
1777560292934452700,5.02945263671875,0.1490510106086731,-0.7867938280105591,0.3445277214050293
1777560292952982500,5.047982421875,0.09957095980644226,-1.0164790153503418,1.3738348484039307
1777560292971512600,5.0665126953125,0.3549124300479889,-1.1911863088607788,1.4245367050170898
1777560292990042400,5.08504248046875,0.43860089778900146,-1.5198315382003784,1.4923427104949951
1777560293008572400,5.103572509765625,0.26511532068252563,-1.941939115524292,1.204014539718628
1777560293027102200,5.122102294921875,0.2987128794193268,-2.145967960357666,0.2528980076313019
1777560293045632300,5.14063232421875,0.3225366175174713,-1.6530001163482666,-0.6921098232269287
1777560293064162300,5.159162353515625,-0.09651663154363632,-0.38240134716033936,-0.916297197341919
1777560293082692000,5.177692138671875,-0.7666352987289429,1.2168426513671875,-0.516791582107544
1777560293101222000,5.196221923828125,-1.2192860841751099,0.9975422024726868,-0.40927940607070923
1777560293119752000,5.214751953125,-0.06352993845939636,0.6713404059410095,-0.10079269111156464
1777560293138282000,5.233281982421875,0.34574946761131287,0.41905322670936584,-0.37690356373786926
1777560293156811800,5.251811767578125,0.347582072019577,0.23945899307727814,-1.2431098222732544
1777560293175341800,5.270341796875,-0.05436696484684944,2.6358814239501953,-2.551582098007202
1777560293193871600,5.28887158203125,-0.46975502371788025,5.478846073150635,-3.310887098312378
1777560293212401700,5.307401611328125,-0.8051197528839111,5.2461066246032715,-3.1257951259613037
1777560293230931700,5.325931640625,-0.7470875978469849,2.7232351303100586,-2.1129813194274902
1777560293249461500,5.34446142578125,0.020769402384757996,0.059864748269319534,-1.155145287513733
1777560293267991300,5.3629912109375,0.26878049969673157,0.6401863098144531,-1.4734058380126953
1777560293286521300,5.381521240234375,0.9407317638397217,2.4434590339660645,-1.5870267152786255
1777560293305051400,5.400051513671875,1.3946043252944946,3.2449138164520264,-1.524107575416565
1777560293323581200,5.418581298828125,1.2913681268692017,3.4434447288513184,-1.5974113941192627
1777560293342111200,5.437111328125,0.8533781170845032,2.610225200653076,-1.6505566835403442
1777560293360641000,5.45564111328125,0.20830489695072174,1.1392627954483032,-1.3072506189346313
1777560293379171000,5.474171142578125,-0.235793799161911,0.23518294095993042,-0.9871574640274048
1777560293397700900,5.492700927734375,-0.21380266547203064,0.6029235124588013,-1.035415768623352
1777560293416231000,5.51123095703125,0.01649334840476513,1.616348147392273,-0.9669989347457886
1777560293434761000,5.529760986328125,0.1288924664258957,2.330449104309082,-0.7079922556877136
1777560293453290800,5.548290771484375,0.01893680728971958,2.0714423656463623,-0.5485565662384033
1777560293471820500,5.566820556640625,-0.2419024556875229,1.025641918182373,-0.7079922556877136
1777560293490350600,5.5853505859375,-0.3915643095970154,0.39400777220726013,-0.9651663303375244
1777560293508880600,5.603880615234375,-0.44837474822998047,0.3964512348175049,-0.998763918876648
1777560293527410400,5.622410400390625,-0.4477638900279999,0.6963858604431152,-0.9596685767173767
1777560293545940500,5.6409404296875,-0.42394015192985535,0.759304940700531,-0.925460159778595
1777560293564470300,5.65947021484375,-0.37751442193984985,0.6071996092796326,-0.9309579133987427
1777560293592265200,5.68726513671875,-0.3139844834804535,0.29016077518463135,-0.7770199775695801
1777560293610795300,5.705795166015625,-0.24251331388950348,0.3689623177051544,-0.5528326034545898
1777560293629325000,5.724324951171875,-0.10934479534626007,0.5864301919937134,-0.42394015192985535
1777560293647855000,5.742855224609375,-0.009773836471140385,0.7904590368270874,-0.35246896743774414
1777560293666385200,5.76138525390625,0.047036588191986084,0.7177661061286926,-0.4428769648075104
1777560293684915000,5.7799150390625,-0.036651886999607086,0.15210533142089844,-0.5149590373039246
1777560293703444700,5.79844482421875,-0.09468404203653336,0.09712749719619751,-0.42821621894836426
1777560293721974800,5.816974853515625,-0.11362084746360779,0.33231043815612793,-0.1337793916463852
1777560293740504800,5.8355048828125,-0.08063415437936783,0.20769402384757996,0.1484401375055313
1777560293759034600,5.85403466796875,0.004886918235570192,-0.30115634202957153,0.4789179861545563
1777560293777564700,5.872564697265625,0.13622283935546875,-0.7391464114189148,0.759304940700531
1777560293796094500,5.891094482421875,0.26389357447624207,-1.173471212387085,1.1710277795791626
1777560293814624500,5.90962451171875,0.46059203147888184,-1.2217295169830322,1.737910270690918
1777560293833154300,5.928154296875,0.3787361681461334,-1.694538950920105,2.3872594833374023
1777560293851684400,5.946684326171875,0.318871408700943,-1.6450588703155518,2.8173084259033203
1777560293870214400,5.96521435546875,0.20647229254245758,-1.5741984844207764,3.073871612548828
1777560293888744200,5.983744140625,0.03237583488225937,-1.463021159172058,2.849684238433838
1777560293907274200,6.002274169921875,-0.18142683804035187,-1.0855066776275635,2.4049746990203857
1777560293925804000,6.020803955078125,-0.35246896743774414,-0.8527672290802002,2.313344955444336
1777560293944334000,6.039333984375,-0.39767298102378845,-0.8747583627700806,2.4074180126190186
1777560293962863900,6.05786376953125,-0.3439168632030487,-0.8973603844642639,2.388481378555298
1777560293981394000,6.076393798828125,-0.3121519088745117,-1.4343105554580688,2.067777395248413
1777560293999924000,6.094924072265625,-0.3756818473339081,-1.6334524154663086,1.8161009550094604
1777560294018453800,6.113453857421875,-0.49602219462394714,-1.1575887203216553,2.011577606201172
1777560294036983800,6.13198388671875,-0.4612029194831848,-0.8808670043945312,2.1050400733947754
1777560294055513600,6.150513671875,-0.1331685185432434,-1.0427461862564087,1.9113959074020386
1777560294074043600,6.169043701171875,0.2107483446598053,-1.239444613456726,1.7996076345443726
1777560294092573400,6.187573486328125,0.4972439408302307,-1.832594394683838,1.674991250038147
1777560294111103500,6.206103515625,0.6114756464958191,-2.2620322704315186,1.4092650413513184
1777560294129633500,6.224633544921875,0.5491674542427063,-2.095266103744507,1.156977891921997
1777560294148163300,6.243163330078125,0.4929678738117218,-1.5063925981521606,0.8008437156677246
1777560294166693400,6.261693359375,0.46547895669937134,-1.0555742979049683,0.3591884970664978
1777560294185223200,6.28022314453125,0.47097674012184143,-0.851545512676239,-0.08796452730894089
1777560294203753200,6.298753173828125,0.5522217750549316,-0.5705476999282837,-0.695164144039154
1777560294222283300,6.317283203125,0.5711585879325867,-0.24984370172023773,-1.25715970993042
1777560294240813000,6.33581298828125,0.5100721120834351,0.12522727251052856,-1.5198315382003784
1777560294259343000,6.354343017578125,0.4068359434604645,0.4886918365955353,-1.3756674528121948
1777560294277873000,6.372872802734375,0.2608392536640167,0.43860089778900146,-0.8393282294273376
1777560294296403000,6.39140283203125,0.014049889519810677,-0.31031930446624756,0.056810423731803894
1777560294314932700,6.4099326171875,-0.18387030065059662,-1.2534945011138916,1.0793980360031128
1777560294333462800,6.428462890625,0.10506874322891235,-1.629176378250122,1.4752384424209595
1777560294351992800,6.446992919921875,0.4318813979625702,-1.174692988395691,1.2253947257995605
1777560294370522600,6.465522705078125,0.4373791813850403,-1.0983349084854126,1.1423171758651733
1777560294389052700,6.484052734375,0.4159989058971405,-1.553429126739502,0.6621774435043335
1777560294407582500,6.50258251953125,0.43004879355430603,-1.877798318862915,-0.025045456364750862
1777560294426112500,6.521112548828125,0.3848448097705841,-1.359174132347107,-0.6542361974716187
1777560294444642300,6.539642333984375,0.2938259541988373,0.012217295356094837,-0.7886264324188232
1777560294463172400,6.55817236328125,0.03481929376721382,1.1459823846817017,-0.526565432548523
1777560294481702400,6.576702392578125,-0.5858193039894104,0.5064069032669067,-0.3909534513950348
1777560294500232200,6.595232177734375,-0.143553227186203,1.0341941118240356,-0.3597993552684784
1777560294518762200,6.61376220703125,0.24801109731197357,1.9309436082839966,-0.45509424805641174
1777560294537292000,6.6322919921875,0.49418962001800537,1.1136064529418945,-0.8967494964599609
1777560294555822000,6.650822021484375,0.14782927930355072,0.40378162264823914,-1.8167119026184082
1777560294574352000,6.669351806640625,-0.5534434914588928,3.8655524253845215,-3.131903648376465
1777560294592882000,6.6878818359375,-0.9926552772521973,5.791608810424805,-3.5582873821258545
1777560294611412000,6.706411865234375,-1.2644901275634766,3.8325655460357666,-2.6786420345306396
1777560294629941800,6.724941650390625,-0.6603448390960693,0.7641918659210205,-0.924849271774292
1777560294648471800,6.743471923828125,0.021380268037319183,-0.6218603253364563,-1.0769546031951904
1777560294667001600,6.762001708984375,0.5668824911117554,1.2699878215789795,-1.7623448371887207
1777560294685531600,6.78053173828125,1.3445134162902832,2.517984628677368,-1.703091025352478
1777560294704061700,6.799061767578125,1.3823870420455933,2.956585645675659,-1.64566969871521
1777560294722591500,6.817591552734375,0.9578359723091125,2.0476186275482178,-1.7043126821517944
1777560294741121500,6.83612158203125,0.34208428859710693,0.7886264324188232,-1.5607595443725586
1777560294759651300,6.8546513671875,-0.07757982611656189,-0.20463970303535461,-1.2986985445022583
1777560294778181400,6.873181396484375,-0.2724456787109375,-0.21807873249053955,-1.4037672281265259
1777560294796711200,6.891711181640625,-0.13255766034126282,0.6255255341529846,-1.2382229566574097
1777560294815241200,6.9102412109375,-0.0256563201546669,1.433699607849121,-0.915075421333313
1777560294833771300,6.928771240234375,0.002443459117785096,1.7977750301361084,-0.7312051653862
1777560294852301000,6.947301025390625,-0.04764745384454727,1.4605777263641357,-0.6988292932510376
1777560294870831000,6.9658310546875,-0.33169957995414734,0.4367683231830597,-1.0012073516845703
1777560294889361000,6.98436083984375,-0.49113526940345764,-0.20280711352825165,-1.1997383832931519
1777560294907891000,7.002890869140625,-0.472198486328125,0.21991132199764252,-1.1087195873260498
1777560294926421000,7.0214208984375,-0.35796675086021423,0.8851430416107178,-0.9419534802436829
1777560294944950800,7.03995068359375,-0.2559523284435272,1.0219768285751343,-0.8087849617004395
1777560294963480800,7.058480712890625,-0.23335035145282745,0.45326167345046997,-0.7244856357574463
1777560294982010600,7.0770107421875,-0.29016077518463135,0.03787361457943916,-0.6896663308143616
1777560295000540700,7.095540771484375,-0.29504770040512085,0.15760311484336853,-0.5558869242668152
1777560295019070500,7.114070556640625,-0.18875721096992493,0.5528326034545898,-0.4764745235443115
1777560295037600500,7.1326005859375,-0.0977383628487587,0.5198459029197693,-0.545502245426178
1777560295056130600,7.151130615234375,-0.143553227186203,0.04459312930703163,-0.3536907136440277
1777560295074660400,7.169660400390625,-0.0769689604640007,0.5235111117362976,0.07269290834665298
1777560295093190400,7.1881904296875,-0.06902772188186646,0.5021308660507202,0.5271763205528259
1777560295111720200,7.20672021484375,0.08429934084415436,-0.1484401375055313,0.9688315391540527
1777560295130250200,7.225250244140625,0.13439024984836578,-0.9608902931213379,1.406821608543396
1777560295148780000,7.243780029296875,0.30054548382759094,-1.4593559503555298,2.0292928218841553
1777560295167310000,7.26231005859375,0.4630354940891266,-2.1746785640716553,2.7030766010284424
1777560295185840000,7.280840087890625,0.5302306413650513,-2.299294948577881,3.120908260345459
1777560295204370000,7.299369873046875,0.5595521330833435,-1.5833615064620972,3.3011133670806885
1777560295222900000,7.31789990234375,0.40378162264823914,-1.1795798540115356,3.2058184146881104
1777560295241429800,7.3364296875,-0.13683371245861053,-1.1716386079788208,2.7476696968078613
1777560295259959800,7.354959716796875,-0.5485565662384033,-1.7825034856796265,2.382983446121216
1777560295278489600,7.373489501953125,-0.5864301919937134,-1.5741984844207764,2.411083221435547
1777560295297019600,7.39201953125,-0.4202749729156494,-1.2510510683059692,2.525315046310425
1777560295315549700,7.4105498046875,-0.430659681558609,-1.507614254951477,2.395200729370117
1777560295334079500,7.42907958984375,-0.5387827157974243,-0.9682206511497498,2.3848161697387695
1777560295352609500,7.447609619140625,-0.35063639283180237,-0.6560688018798828,2.428187608718872
1777560295371139300,7.466139404296875,0.14599667489528656,-1.1924080848693848,2.1025965213775635
1777560295389669400,7.48466943359375,0.5192350745201111,-1.6004657745361328,1.884517788887024
1777560295408199400,7.503199462890625,0.6621774435043335,-2.0531165599823,1.905287265777588
1777560295426729200,7.521729248046875,0.7519745230674744,-2.637103319168091,1.886350393295288
1777560295445259300,7.54025927734375,0.8008437156677246,-2.9541420936584473,1.5699224472045898
1777560295463789300,7.558789306640625,0.8210022449493408,-2.475224018096924,0.9315688014030457
1777560295482319000,7.577319091796875,0.8625410795211792,-1.533881425857544,0.10506874322891235
1777560295500849000,7.595848876953125,0.8820887207984924,-0.7648026943206787,-0.6298015713691711
1777560295519379000,7.61437890625,0.8338304162025452,-0.2626718580722809,-1.1783581972122192
1777560295537909000,7.632908935546875,0.7910698652267456,-0.014660755172371864,-1.7275255918502808
1777560295556438800,7.651438720703125,0.8020654320716858,0.30115634202957153,-2.1080944538116455
1777560295574968800,7.66996875,0.6872228980064392,0.8588758707046509,-1.8979568481445312
1777560295593499000,7.688498779296875,0.3194822669029236,0.8521563410758972,-1.0012073516845703
1777560295612028700,7.707028564453125,-0.33231043815612793,0.15088360011577606,0.277332603931427
1777560295630558500,7.725558349609375,-0.3072649836540222,-0.9694424271583557,1.5613703727722168
1777560295649088500,7.744088623046875,0.22479823231697083,-1.7617340087890625,1.2870920896530151
1777560295667618600,7.76261865234375,0.22968515753746033,-1.7898337841033936,1.454469084739685
1777560295686148400,7.7811484375,0.10934479534626007,-2.282801628112793,1.109330415725708
1777560295704678400,7.799678466796875,0.277332603931427,-1.4593559503555298,0.19853104650974274
1777560295723208400,7.81820849609375,-0.11667517572641373,0.1893680840730667,-0.6041452884674072
1777560295741738200,7.83673828125,-0.832608699798584,0.13500112295150757,-0.3811796307563782
1777560295760268000,7.85526806640625,-0.7971785664558411,1.849698543548584,-0.637742817401886
1777560295778798000,7.873798095703125,0.36651885509490967,2.8906121253967285,-0.667064368724823
1777560295797328100,7.892328125,0.7959567904472351,0.6750055551528931,-0.758083164691925
1777560295815858200,7.910858154296875,0.47097674012184143,-0.7189878225326538,-1.3561197519302368
1777560295834388000,7.929387939453125,-0.21991132199764252,3.2229225635528564,-2.906494617462158
1777560295852917800,7.947917724609375,-0.7153226733207703,6.099484920501709,-3.5588982105255127
1777560295871447800,7.96644775390625,-0.9871574640274048,4.046978950500488,-2.559523344039917
1777560295889977900,7.984977783203125,-0.7159335017204285,0.5308414697647095,-1.0574069023132324
1777560295908507600,8.003507568359375,-0.26511532068252563,-1.221118688583374,-1.0274745225906372
1777560295927037700,8.02203759765625,0.2412915825843811,0.1899789422750473,-1.9437717199325562
1777560295945567500,8.0405673828125,1.074511170387268,2.2009458541870117,-1.7452406883239746
1777560295964097500,8.05909765625,1.5179989337921143,2.8845036029815674,-1.6450588703155518
1777560295982627300,8.07762744140625,1.3548980951309204,2.5912883281707764,-1.8576397895812988
1777560296001157400,8.096157470703124,0.7831286191940308,1.533881425857544,-1.887572169303894
1777560296019687400,8.1146875,0.04886918142437935,0.2412915825843811,-1.490510106086731
1777560296038217200,8.13321728515625,-0.3555232882499695,0.09957095980644226,-1.2076796293258667
1777560296056747300,8.151747314453125,-0.41844236850738525,0.6200277805328369,-1.0177006721496582
1777560296075277000,8.170277099609375,-0.3231474757194519,1.3585633039474487,-0.943786084651947
1777560296093807000,8.18880712890625,-0.11972949653863907,2.062279462814331,-0.916297197341919
1777560296112337000,8.2073369140625,-0.15515965223312378,1.581528902053833,-0.9786053895950317
1777560296130867000,8.225866943359375,-0.5149590373039246,0.3787361681461334,-1.2266165018081665
1777560296149397000,8.24439697265625,-0.5980366468429565,-0.009773836471140385,-1.3054180145263672
1777560296167926800,8.2629267578125,-0.42943793535232544,0.627968966960907,-1.1459823846817017
1777560296186456800,8.281456787109375,-0.18875721096992493,1.2327251434326172,-0.9566142559051514
1777560296204986600,8.299986572265626,-0.09468404203653336,0.9743293523788452,-0.8057306408882141
1777560296223516700,8.3185166015625,-0.16249002516269684,0.1130099818110466,-0.748920202255249
1777560296242046700,8.337046630859374,-0.3329212963581085,-0.19730933010578156,-0.6310232877731323
1777560296260576500,8.355576416015625,-0.42271843552589417,0.08368847519159317,-0.3426951467990875
1777560296279106600,8.3741064453125,-0.28527384996414185,0.6114756464958191,-0.20280711352825165
1777560296297636400,8.39263623046875,-0.1282816082239151,0.5180133581161499,-0.18692462146282196
1777560296316166400,8.41116650390625,-0.06719512492418289,0.0513126403093338,-0.06963858753442764
1777560296334696200,8.4296962890625,0.09162971377372742,-0.031154103577136993,0.21319180727005005
1777560296353226200,8.448226318359374,0.23335035145282745,-0.13561198115348816,0.5882627964019775
1777560296371756000,8.466756103515625,0.30970844626426697,-0.6560688018798828,1.0720677375793457
1777560296390286000,8.4852861328125,0.35796675086021423,-1.2980875968933105,1.690262794494629
1777560296408815900,8.50381591796875,0.45937031507492065,-1.9547673463821411,2.2724170684814453
1777560296427346000,8.522345947265626,0.4734202027320862,-2.084881544113159,2.869231939315796
1777560296445876000,8.5408759765625,0.4196641147136688,-1.9187263250350952,3.233307361602783
1777560296464405800,8.55940576171875,0.25350889563560486,-1.5070034265518188,3.1563382148742676
1777560296482935800,8.577935791015625,-0.08857539296150208,-1.0641264915466309,2.7061309814453125
1777560296501465600,8.596465576171875,-0.37690356373786926,-1.1282672882080078,2.459341526031494
1777560296519995600,8.61499560546875,-0.5613847374916077,-1.0574069023132324,2.548527956008911
1777560296538525400,8.633525390625,-0.6444623470306396,-0.6126973628997803,2.8570146560668945
1777560296557055500,8.652055419921876,-0.5180133581161499,-0.4459312856197357,2.8069236278533936
1777560296575585500,8.67058544921875,-0.43004879355430603,-0.5797106623649597,2.098931312561035
1777560296594115300,8.689115234375,-0.35674503445625305,-0.4251618981361389,1.7244713306427002
1777560296612645000,8.70764501953125,0.10384701192378998,-0.7037162184715271,1.7024801969528198
1777560296631175200,8.726175048828125,0.5247328281402588,-1.1789690256118774,1.6694934368133545
1777560296649705200,8.744705322265625,0.5943714380264282,-1.693317174911499,1.7458515167236328
1777560296668235000,8.763235107421876,0.5790998339653015,-2.2314889430999756,1.8515311479568481
1777560296686765000,8.78176513671875,0.5809323787689209,-2.704298496246338,1.7482949495315552
1777560296705294800,8.800294921875,0.758083164691925,-2.6621487140655518,1.1221586465835571
1777560296723825000,8.818824951171875,0.9327905178070068,-1.9205588102340698,0.18203771114349365
1777560296742355000,8.83735498046875,0.9144645929336548,-0.8967494964599609,-0.7128791809082031
1777560296760884700,8.855884765625,0.8051197528839111,-0.25900667905807495,-1.2315033674240112
1777560296779414500,8.87441455078125,0.7165443897247314,0.12400554865598679,-1.6413936614990234
1777560296797944600,8.892944580078124,0.6780598759651184,0.3543015718460083,-2.020129919052124
1777560296816474600,8.911474609375,0.5882627964019775,0.7641918659210205,-2.0604469776153564
1777560296835004400,8.93000439453125,0.24373504519462585,0.952949047088623,-1.433088779449463
1777560296853534500,8.948534423828125,-0.4196641147136688,0.41783151030540466,0.11178825795650482
1777560296872064300,8.967064208984375,-0.24495677649974823,-0.573602020740509,1.6884303092956543
1777560296890594300,8.98559423828125,0.2205221801996231,-2.268141031265259,1.5406010150909424
1777560296909124000,9.0041240234375,0.16187916696071625,-3.0054547786712646,1.8319834470748901
1777560296927654100,9.022654052734374,0.023823726922273636,-3.4275622367858887,1.638950228691101
1777560296946184000,9.041183837890625,0.38240134716033936,-2.557080030441284,0.3139844834804535
1777560296964714000,9.0597138671875,0.4880809485912323,-0.38850998878479004,-0.925460159778595
1777560296983243800,9.078243896484375,0.13561198115348816,2.257145404815674,-1.4227041006088257
1777560297001773800,9.09677392578125,-1.2272273302078247,4.395782947540283,-1.4648537635803223
1777560297020304000,9.115303955078126,-1.0488548278808594,1.637117624282837,-0.05742128938436508
1777560297038833700,9.133833740234374,0.3280344009399414,-0.6945532560348511,0.05253437161445618
1777560297057363500,9.152363525390625,0.6371319890022278,-1.426369309425354,-0.6798924803733826
1777560297075893500,9.1708935546875,0.16676609218120575,0.4416552484035492,-2.0244059562683105
1777560297094423600,9.189423583984375,-0.5858193039894104,4.719541072845459,-3.107469081878662
1777560297112953300,9.207953369140625,-0.7703005075454712,5.265654563903809,-2.679252862930298
1777560297131483400,9.2264833984375,-0.6157516837120056,2.6890268325805664,-1.6780455112457275
1777560297150013200,9.24501318359375,0.024434590712189674,-0.30604326725006104,-1.323133111000061
1777560297168543200,9.263543212890625,0.47525280714035034,0.2522871494293213,-2.0775511264801025
1777560297187073300,9.2820732421875,0.9572250843048096,2.5754058361053467,-1.841146469116211
1777560297205603000,9.30060302734375,1.4104868173599243,3.3243260383605957,-1.5381574630737305
1777560297224132900,9.3191328125,1.2913681268692017,3.3426520824432373,-1.6572761535644531
1777560297242663000,9.337662841796876,0.7440332770347595,2.199113130569458,-1.7782273292541504
1777560297261192700,9.356192626953124,0.0360410213470459,0.49968740344047546,-1.4367539882659912
1777560297279722800,9.37472265625,-0.49968740344047546,-0.4679224193096161,-1.2626575231552124
1777560297298252500,9.39325244140625,-0.500298261642456,0.020769402384757996,-1.201570987701416
1777560297316782600,9.411782470703125,-0.19730933010578156,1.2217295169830322,-1.2143992185592651
1777560297335312600,9.430312744140625,0.07819069176912308,1.9474369287490845,-0.963333785533905
1777560297353842400,9.448842529296876,-0.05497783049941063,1.5687007904052734,-0.9028581380844116
1777560297372372200,9.467372314453126,-0.27366742491722107,0.5418370366096497,-1.0708459615707397
1777560297390902300,9.48590234375,-0.44898560643196106,0.1441640853881836,-1.0152572393417358
1777560297409432300,9.504432373046875,-0.500298261642456,0.43493571877479553,-0.7904590368270874
1777560297427962000,9.522962158203125,-0.4196641147136688,0.8289434909820557,-0.6652317643165588
1777560297446492200,9.5414921875,-0.328645259141922,0.8582650423049927,-0.6847794055938721
1777560297465022000,9.56002197265625,-0.2577849328517914,0.5485565662384033,-0.7147117853164673
1777560297483552000,9.578552001953126,-0.2620609998703003,0.2254091054201126,-0.6169734001159668
1777560297502081800,9.597081787109374,-0.26022839546203613,0.2406807243824005,-0.5082395076751709
1777560297520611800,9.61561181640625,-0.18753549456596375,0.5033525824546814,-0.37690356373786926
1777560297539141600,9.6341416015625,-0.06414080411195755,0.6914989352226257,-0.3597993552684784
1777560297557671700,9.652671630859375,-0.031154103577136993,0.3952295184135437,-0.4819723069667816
1777560297576201500,9.671201416015625,-0.09712749719619751,0.1178968995809555,-0.3176496922969818
1777560297594731500,9.6897314453125,-0.06719512492418289,0.3231474757194519,-0.05742128938436508
1777560297613261300,9.70826123046875,-0.010384701192378998,0.2467893660068512,0.19853104650974274
1777560297631791400,9.726791259765625,0.09101885557174683,-0.3597993552684784,0.6621774435043335
1777560297650321200,9.745321044921875,0.31520622968673706,-0.7843503952026367,1.1465932130813599
1777560297668851200,9.763851318359375,0.46486809849739075,-1.2809834480285645,1.6328415870666504
1777560297687381000,9.782381103515625,0.5601630210876465,-1.8014402389526367,2.1722352504730225
1777560297705911000,9.8009111328125,0.4111120104789734,-2.03723406791687,2.8771731853485107
1777560297724441000,9.819441162109374,0.2620609998703003,-1.8154901266098022,3.171609878540039
1777560297742971000,9.837970947265624,-0.013439024798572063,-1.3005311489105225,3.028667688369751
1777560297761500700,9.856500732421875,-0.24006985127925873,-0.8289434909820557,2.674365997314453
1777560297780030700,9.87503076171875,-0.3072649836540222,-0.6621774435043335,2.5112650394439697
1777560297798560800,9.893560791015625,-0.44470956921577454,-0.5626064538955688,2.5503604412078857
1777560297817090600,9.912090576171876,-0.526565432548523,-0.9975422024726868,2.7226243019104004
1777560297835620400,9.930620361328126,-0.38667741417884827,-1.7055344581604004,2.3115122318267822
1777560297854150400,9.949150390625,-0.4838049113750458,-1.386052131652832,1.904065489768982
1777560297872680400,9.967680419921875,-0.4520399272441864,-0.6499601006507874,2.0237951278686523
1777560297891210200,9.986210205078125,0.023823726922273636,-0.7018836140632629,2.006079912185669
1777560297909740000,10.004739990234375,0.4013381600379944,-1.221118688583374,1.7959424257278442
1777560297928270000,10.02327001953125,0.47586366534233093,-1.7684534788131714,1.9456043243408203
1777560297946800000,10.041800048828126,0.526565432548523,-2.2809691429138184,2.0195188522338867
1777560297965330000,10.060329833984374,0.7385355234146118,-2.5973970890045166,1.7372994422912598
1777560297983859700,10.078859619140625,0.7648026943206787,-2.160017967224121,1.1044435501098633
1777560298002389800,10.0973896484375,0.7739656567573547,-1.2486076354980469,0.38179048895835876
1777560298020919800,10.115919921875,0.7446441650390625,-0.5662716627120972,-0.22235478460788727
1777560298039449600,10.13444970703125,0.7147117853164673,-0.2932150959968567,-0.7287616729736328
1777560298057979400,10.1529794921875,0.7513636946678162,-0.14477495849132538,-1.26021409034729
1777560298076509400,10.171509521484374,0.7556397318840027,-0.07147117704153061,-1.7623448371887207
1777560298095039200,10.190039306640625,0.7159335017204285,0.11728604137897491,-1.950491189956665
1777560298113569300,10.2085693359375,0.5772672295570374,0.6010909676551819,-1.7263038158416748
1777560298132099000,10.22709912109375,0.19730933010578156,0.39828383922576904,-0.8778126835823059
1777560298150629000,10.245629150390625,-0.3756818473339081,-0.646905779838562,0.6731730103492737
1777560298169159000,10.264158935546876,-0.23518294095993042,-1.451414704322815,1.7806708812713623
1777560298187689000,10.28268896484375,0.2101374864578247,-1.760512351989746,1.4740166664123535
1777560298206218800,10.30121875,0.17043127119541168,-2.0964879989624023,1.626121997833252
1777560298224748800,10.319748779296875,0.24312418699264526,-2.570518970489502,1.0097594261169434
1777560298243278600,10.338278564453125,0.28466299176216125,-1.64566969871521,-0.15638138353824615
1777560298261808600,10.35680859375,-0.1337793916463852,-0.2559523284435272,-0.7721330523490906
1777560298280338700,10.375338623046876,-1.0054833889007568,0.9419534802436829,-0.6817250847816467
1777560298298868500,10.393868408203126,-1.5558725595474243,1.1074978113174438,-0.564439058303833
1777560298317398300,10.412398193359374,-0.31154105067253113,0.7672461867332458,-0.7483093738555908
1777560298335928300,10.43092822265625,0.27000224590301514,0.5271763205528259,-0.9211840629577637
1777560298354458400,10.449458251953125,0.3035998046398163,0.3023780584335327,-1.479514479637146
1777560298372988200,10.46798828125,0.1649334877729416,2.8405213356018066,-2.5949535369873047
1777560298391518000,10.48651806640625,-0.07635809481143951,5.590634346008301,-3.121519088745117
1777560298410048000,10.505048095703126,-0.4868592321872711,5.15814208984375,-2.64382266998291
1777560298428577800,10.523577880859374,-0.7666352987289429,2.6248860359191895,-1.9364413022994995
1777560298447107800,10.54210791015625,-0.1337793916463852,-0.13500112295150757,-1.2773182392120361
1777560298465637600,10.5606376953125,0.2522871494293213,0.007330377586185932,-1.564424753189087
1777560298484167700,10.579167724609375,0.8277217745780945,2.137415885925293,-1.6725478172302246
1777560298502697500,10.597697509765625,1.349400281906128,3.076314926147461,-1.5638138055801392
1777560298521227500,10.6162275390625,1.3151918649673462,3.1813838481903076,-1.5289945602416992
1777560298539757300,10.63475732421875,0.9963204264640808,2.6774203777313232,-1.6218459606170654
1777560298558287400,10.653287353515625,0.5051851868629456,1.9382739067077637,-1.5033382177352905
1777560298576817200,10.671817138671875,0.0616973415017128,0.9969313144683838,-1.1068869829177856
1777560298595347200,10.69034716796875,-0.18264856934547424,0.6579013466835022,-1.0030399560928345
1777560298613877000,10.708876953125,-0.10323614627122879,1.2534945011138916,-0.8936951756477356
1777560298632406800,10.72740673828125,0.07452550530433655,2.138026714324951,-0.6884446144104004
1777560298650936800,10.745936767578126,0.08307760953903198,2.1142029762268066,-0.573602020740509
1777560298669467000,10.764466796875,-0.19608759880065918,0.9450078010559082,-0.9107993841171265
1777560298687996700,10.78299658203125,-0.37690356373786926,0.10140355676412582,-1.099556565284729
1777560298706526700,10.801526611328125,-0.42271843552589417,0.2828303873538971,-1.0091485977172852
1777560298725056500,10.820056396484375,-0.4068359434604645,0.5332849621772766,-0.8393282294273376
1777560298743586300,10.83858642578125,-0.36224281787872314,0.500298261642456,-0.794124186038971
1777560298762116400,10.857116455078126,-0.2809978127479553,0.3549124300479889,-0.8240565657615662
1777560298780646100,10.875646240234374,-0.24434591829776764,0.14538581669330597,-0.7422007322311401
1777560298799176200,10.89417626953125,-0.25045454502105713,0.11911863088607788,-0.48930269479751587
1777560298817706000,10.9127060546875,-0.24862197041511536,0.39889469742774963,-0.2608392536640167
1777560298836236000,10.931236083984375,-0.15271618962287903,0.7959567904472351,-0.25473061203956604
1777560298854766000,10.94976611328125,-0.0409279391169548,0.8808670043945312,-0.30482152104377747
1777560298873296000,10.9682958984375,-0.003665188793092966,0.7690787315368652,-0.3958403766155243
1777560298891825700,10.98682568359375,-0.037262752652168274,0.5143481492996216,-0.4520399272441864
1777560298910355500,11.00535546875,-0.17104214429855347,0.10690133273601532,-0.24556763470172882
1777560298928885500,11.023885498046875,-0.16554436087608337,0.18692462146282196,-0.000610864779446274
1777560298947415600,11.04241552734375,-0.1130099818110466,0.2412915825843811,0.22907429933547974
1777560298965945300,11.0609453125,0.06414080411195755,-0.09957095980644226,0.6053670048713684
1777560298984475400,11.079475341796876,0.22663083672523499,-0.8008437156677246,1.1050543785095215
1777560299003005200,11.098005126953124,0.29565855860710144,-1.546709656715393,1.57297682762146
1777560299021535200,11.11653515625,0.43860089778900146,-2.123976945877075,2.0635011196136475
1777560299040065000,11.13506494140625,0.5192350745201111,-2.263864755630493,2.744004487991333
1777560299058594800,11.1535947265625,0.43493571877479553,-2.2394301891326904,3.213759660720825
1777560299077124900,11.172124755859375,0.29504770040512085,-1.72141695022583,3.2485787868499756
1777560299095654700,11.190654541015626,-0.09468404203653336,-1.1221586465835571,2.80814528465271
1777560299114184700,11.209184814453126,-0.287106454372406,-0.7544180154800415,2.576016664505005
1777560299132714500,11.227714599609374,-0.3433060050010681,-0.45326167345046997,2.469726324081421
1777560299151244500,11.24624462890625,-0.4068359434604645,-0.6927206516265869,2.4471242427825928
1777560299169774300,11.2647744140625,-0.45020735263824463,-1.6426154375076294,2.2339324951171875
1777560299188304400,11.283304443359375,-0.5913171172142029,-1.6420044898986816,2.0500621795654297
1777560299206834200,11.301834228515625,-0.6585122346878052,-1.1502584218978882,2.0463969707489014
1777560299225364000,11.320364013671876,-0.2370155304670334,-0.9266818761825562,2.001193046569824
1777560299243894000,11.33889404296875,0.15699224174022675,-1.1282672882080078,1.7947207689285278
1777560299262424000,11.357424072265625,0.2101374864578247,-1.3573415279388428,1.750738501548767
1777560299280953900,11.375953857421875,0.28466299176216125,-1.9822561740875244,1.7837251424789429
1777560299299484000,11.39448388671875,0.45509424805641174,-2.355494499206543,1.5961896181106567
1777560299318013700,11.413013671875,0.6444623470306396,-2.391535520553589,1.0684025287628174
1777560299336543500,11.43154345703125,0.6652317643165588,-1.813657522201538,0.37140578031539917
1777560299364338400,11.45933837890625,0.6328558921813965,-0.7043271064758301,-0.49052441120147705
1777560299382868500,11.477868408203125,0.6071996092796326,-0.19669845700263977,-0.8881973624229431
1777560299401398300,11.496398193359376,0.6212494969367981,0.1288924664258957,-1.2547162771224976
1777560299419928000,11.514927978515624,0.544891357421875,0.2467893660068512,-1.4587451219558716
1777560299447723000,11.542722900390626,0.30604326725006104,0.6878337264060974,-1.043357014656067
1777560299466253000,11.561253173828124,0.10690133273601532,0.565049946308136,-0.4105011224746704
1777560299484782800,11.579782958984374,-0.15699224174022675,-0.20280711352825165,0.3042106628417969
1777560299503312600,11.598312744140625,-0.20402882993221283,-1.37078058719635,1.0128138065338135
1777560299521842700,11.6168427734375,0.11667517572641373,-1.971260666847229,1.0781763792037964
1777560299540372700,11.635372802734375,0.4269944727420807,-1.8044945001602173,1.2424989938735962
1777560299558902500,11.653902587890625,0.3549124300479889,-1.858250617980957,1.4391974210739136
1777560299577432300,11.672432373046876,0.23273947834968567,-1.8295400142669678,0.9230166673660278
1777560299595962400,11.69096240234375,0.21746785938739777,-1.32985258102417,-0.036651886999607086
1777560299614492200,11.7094921875,0.2761108875274658,-0.5308414697647095,-0.8545998334884644
1777560299633022200,11.728022216796875,0.21441353857517242,0.3995055556297302,-0.9608902931213379
1777560299651552000,11.746552001953125,-0.11239911615848541,1.324354887008667,-0.6102539300918579
1777560299670081800,11.765081787109375,-0.5467239618301392,1.064737319946289,-0.6126973628997803
1777560299688611800,11.78361181640625,0.03481929376721382,1.5497639179229736,-0.5705476999282837
1777560299707142000,11.802141845703124,0.21502439677715302,1.75623619556427,-0.7422007322311401
1777560299725671700,11.820671630859374,0.13072505593299866,0.8032872080802917,-1.0702351331710815
1777560299744201500,11.839201416015625,-0.1233946830034256,1.074511170387268,-2.1612396240234375
1777560299762731500,11.8577314453125,-0.5064069032669067,4.092793941497803,-3.1563382148742676
1777560299781261300,11.87626123046875,-0.8869756460189819,4.504517078399658,-2.9040510654449463
1777560299799791400,11.894791259765626,-1.0012073516845703,2.551582098007202,-1.85092031955719
1777560299818321200,11.913321044921876,-0.22418737411499023,0.07819069176912308,-0.9401208758354187
1777560299836851200,11.931851318359374,0.2577849328517914,-0.21441353857517242,-1.5699224472045898
1777560299855381000,11.950381103515625,0.9053016304969788,1.4844014644622803,-1.7825034856796265
1777560299873910800,11.968910888671875,1.4593559503555298,2.9437572956085205,-1.7299690246582031
1777560299892440800,11.98744091796875,1.398269534111023,3.071428060531616,-1.6224569082260132
1777560299910970600,12.005970703125,0.749531090259552,2.0665555000305176,-1.5839723348617554
1777560299929500700,12.024500732421876,0.09468404203653336,0.8216131329536438,-1.4672971963882446
1777560299948030500,12.043030517578124,-0.21991132199764252,-0.02260199747979641,-1.360395908355713
1777560299966560500,12.061560546875,-0.25961753726005554,0.2364046722650528,-1.416595458984375
1777560299985090300,12.08009033203125,-0.2315177470445633,1.05496346950531,-1.2382229566574097
1777560300003620400,12.098620361328125,-0.0616973415017128,1.9755367040634155,-0.9602794051170349
1777560300022150100,12.117150146484375,-0.0665842592716217,2.009134292602539,-0.9731075763702393
1777560300040680000,12.135679931640626,-0.32620179653167725,0.9291253089904785,-1.026863694190979
1777560300059210000,12.1542099609375,-0.4770853817462921,0.08979712426662445,-1.0219768285751343
1777560300077739800,12.17273974609375,-0.5222893953323364,0.11728604137897491,-0.8814778923988342
1777560300096269800,12.191269775390625,-0.47036588191986084,0.389120876789093,-0.6988292932510376
1777560300114799600,12.209799560546875,-0.3549124300479889,0.6908880472183228,-0.6114756464958191
1777560300133329400,12.228329345703125,-0.18570289015769958,0.6969966888427734,-0.5387827157974243
1777560300151859500,12.246859375,-0.13927717506885529,0.3909534513950348,-0.45509424805641174
1777560300170389500,12.265389404296876,-0.17165300250053406,0.09896009415388107,-0.4825831651687622
1777560300188919800,12.283919921875,-0.23518294095993042,-0.0769689604640007,-0.5705476999282837
1777560300207449000,12.302448974609375,-0.3384190797805786,0.11911863088607788,-0.4361574649810791
1777560300225979100,12.320979248046875,-0.3249800503253937,0.31031930446624756,-0.2364046722650528
1777560300244509000,12.339509033203125,-0.22174391150474548,0.09346231073141098,-0.028099779039621353
1777560300263039000,12.3580390625,-0.056199558079242706,-0.04581485688686371,0.24495677649974823
1777560300281568800,12.37656884765625,-0.018325943499803543,-0.17226386070251465,0.6963858604431152
1777560300300098600,12.3950986328125,0.09162971377372742,-0.593149721622467,1.166751742362976
1777560300318628600,12.413628662109375,0.2315177470445633,-1.186299443244934,1.6328415870666504
1777560300337158400,12.432158447265625,0.1997527778148651,-2.34999680519104,2.207054376602173
1777560300355688400,12.4506884765625,0.3799578845500946,-2.8203625679016113,2.914435863494873
1777560300374218200,12.46921826171875,0.48563748598098755,-2.243706226348877,3.2601852416992188
1777560300392748000,12.487748046875,0.42394015192985535,-1.5577051639556885,3.2229225635528564
1777560300411278000,12.506278076171874,0.07452550530433655,-1.0360267162322998,2.832580089569092
1777560300429808000,12.52480810546875,-0.38667741417884827,-1.4013237953186035,2.5185954570770264
1777560300448338000,12.543337890625,-0.6017017960548401,-1.2192860841751099,2.466671943664551
1777560300466868000,12.561867919921875,-0.4874700903892517,-0.3042106628417969,2.6413793563842773
1777560300485397800,12.580397705078125,-0.3854556679725647,-0.9053016304969788,2.489274024963379
1777560300503927600,12.598927490234376,-0.38301220536231995,-1.489288330078125,2.017075538635254
1777560300522457600,12.61745751953125,-0.3799578845500946,-1.045189619064331,2.0054690837860107
1777560300540987400,12.6359873046875,-0.024434590712189674,-0.9957095980644226,1.9657628536224365
1777560300559517400,12.654517333984375,0.3695732057094574,-1.3915499448776245,1.6969823837280273
1777560300578047200,12.673047119140625,0.5442805290222168,-2.0048582553863525,1.533881425857544
1777560300596577000,12.691576904296875,0.565049946308136,-2.313955783843994,1.6896519660949707
1777560300615107000,12.710107177734375,0.7391464114189148,-2.522871494293213,1.6658282279968262
1777560300633636900,12.728636962890626,0.851545512676239,-2.6426010131835938,1.1166608333587646
1777560300661431800,12.756431884765625,0.9388991594314575,-1.1954623460769653,-0.1178968995809555
1777560300679961600,12.774961669921876,0.8796452879905701,-0.3848448097705841,-0.8338304162025452
1777560300698491600,12.79349169921875,0.7910698652267456,0.16065743565559387,-1.255937933921814
1777560300717021400,12.812021484375,0.7263182401657104,0.6071996092796326,-1.5748094320297241
1777560300735551500,12.830551513671875,0.6688969135284424,0.8784235715866089,-1.7751730680465698
1777560300754081300,12.849081298828125,0.5888736248016357,0.9572250843048096,-1.6725478172302246
1777560300772611000,12.867611083984375,0.3591884970664978,0.8833104968070984,-1.2339468002319336
1777560300791141000,12.88614111328125,-0.10140355676412582,0.22418737411499023,-0.32070401310920715
1777560300809671200,12.904671142578126,-0.1288924664258957,-0.4630354940891266,1.5406010150909424
1777560300828201000,12.923200927734374,0.16249002516269684,-2.123365879058838,1.7818925380706787
1777560300846730800,12.941730712890624,0.3139844834804535,-2.5100433826446533,1.8539745807647705
1777560300865260800,12.9602607421875,0.007330377586185932,-3.118464708328247,1.6731586456298828
1777560300883790600,12.97879052734375,0.18753549456596375,-3.023169755935669,0.574212908744812
1777560300902320600,12.997320556640625,0.45326167345046997,-1.232114315032959,-0.8368847370147705
1777560300920850400,13.015850341796876,0.3396408259868622,0.721431314945221,-1.4929535388946533
1777560300939380200,13.034380126953126,-0.3439168632030487,2.6242752075195312,-1.2999202013015747
1777560300957910300,13.05291015625,-1.117882490158081,2.8875577449798584,-0.8252783417701721
1777560300976440000,13.071440185546875,0.34208428859710693,1.6029092073440552,0.23457208275794983
1777560300994970000,13.08997021484375,0.740368127822876,0.27916520833969116,-0.26939135789871216
1777560301013500200,13.108500244140625,0.6224712133407593,-1.1759146451950073,-0.9321796298027039
1777560301032030000,13.127030029296876,0.08796452730894089,0.5619956254959106,-2.4239113330841064
1777560301050559700,13.145559814453126,-0.8448259830474854,5.425090312957764,-3.3829691410064697
1777560301069089800,13.16408984375,-1.386052131652832,5.252215385437012,-2.601673126220703
1777560301087619600,13.18261962890625,-1.320078730583191,1.6768238544464111,-1.4159845113754272
1777560301106149600,13.201149658203125,-0.000610864779446274,-1.766010046005249,-1.33290696144104
1777560301124679400,13.219679443359375,0.6585122346878052,0.13927717506885529,-2.1227550506591797
1777560301143209200,13.238209228515625,1.166751742362976,2.7012441158294678,-1.7782273292541504
1777560301161739300,13.2567392578125,1.6139047145843506,3.422675371170044,-1.6426154375076294
1777560301180269300,13.275269287109374,1.4361430406570435,3.2901177406311035,-1.830150842666626
1777560301198799000,13.293799072265625,0.7519745230674744,1.9034546613693237,-1.6694934368133545
1777560301217329000,13.312328857421875,-0.10201441496610641,-0.023823726922273636,-1.3225222826004028
1777560301235859000,13.33085888671875,-0.526565432548523,-0.5320632457733154,-1.128878116607666
1777560301254388700,13.349388671875,-0.5155698657035828,0.2864955961704254,-1.1221586465835571
1777560301272918800,13.367918701171876,-0.2364046722650528,1.601076602935791,-0.9688315391540527
1777560301291448600,13.386448486328124,0,2.4972152709960938,-0.8093958497047424
1777560301309978400,13.404978271484374,-0.15638138353824615,1.8008294105529785,-0.9450078010559082
1777560301328508400,13.42350830078125,-0.5137372612953186,0.2632827162742615,-1.3066397905349731
1777560301347038500,13.44203857421875,-0.5436696410179138,0.05192350596189499,-1.341459035873413
1777560301365568300,13.460568359375,-0.48930269479751587,0.8662062287330627,-1.0311397314071655
1777560301384098000,13.47909814453125,-0.3689623177051544,1.1594213247299194,-0.8100066781044006
1777560301402628000,13.497628173828126,-0.2864955961704254,0.7336485981941223,-0.7238747477531433
1777560301421158000,13.516157958984374,-0.1899789422750473,0.19364413619041443,-0.6444623470306396
1777560301439688000,13.53468798828125,-0.18875721096992493,0.15210533142089844,-0.45448338985443115
1777560301458217700,13.5532177734375,-0.16187916696071625,0.39828383922576904,-0.24006985127925873
1777560301476747800,13.571747802734375,-0.03176496922969818,0.5082395076751709,-0.17226386070251465
1777560301495277600,13.590277587890625,0.053145237267017365,0.20647229254245758,-0.18264856934547424
1777560301513807600,13.6088076171875,0.0409279391169548,-0.01893680728971958,0.11178825795650482
1777560301532337400,13.62733740234375,0.09834922850131989,0.006108647678047419,0.5125155448913574
1777560301550867200,13.6458671875,0.13072505593299866,-0.40378162264823914,1.0329723358154297
1777560301569397200,13.664397216796875,0.21930044889450073,-1.1239912509918213,1.617569923400879
1777560301587927000,13.682927001953125,0.28038692474365234,-2.011577606201172,2.2919647693634033
1777560301606457000,13.70145703125,0.46425724029541016,-2.3353359699249268,2.9321508407592773
1777560301624987100,13.719987060546876,0.5369501113891602,-2.0659446716308594,3.355480194091797
1777560301643517000,13.738516845703124,0.4159989058971405,-1.8264856338500977,3.2540767192840576
1777560301662046700,13.757046630859374,-0.07269290834665298,-1.3237439393997192,2.7989823818206787
1777560301680576800,13.77557666015625,-0.7104357481002808,-1.5748094320297241,2.4966044425964355
1777560301699106600,13.7941064453125,-0.7690787315368652,-1.2932007312774658,2.450789451599121
1777560301717636600,13.81263671875,-0.5491674542427063,-0.11178825795650482,2.6786420345306396
1777560301736166400,13.83116650390625,-0.759304940700531,0.08552107214927673,2.8796164989471436
1777560301754696400,13.849696533203126,-0.7764091491699219,-0.729983389377594,2.526536703109741
1777560301773226200,13.868226318359374,-0.5656607747077942,-0.9004147052764893,2.022573232650757
1777560301791756300,13.88675634765625,-0.059864748269319534,-0.7012727856636047,1.8283182382583618
1777560301810286000,13.9052861328125,0.4563159942626953,-0.7984002828598022,1.665217399597168
1777560301828816100,13.923816162109375,0.6145299673080444,-1.6975932121276855,1.6035200357437134
1777560301847346000,13.942345947265625,0.5858193039894104,-2.3206753730773926,1.7751730680465698
1777560301865876000,13.9608759765625,0.6401863098144531,-2.640768527984619,1.8258748054504395
1777560301884405800,13.97940576171875,0.7250964641571045,-2.5130977630615234,1.3762784004211426
1777560301902935600,13.997935546875,0.8399390578269958,-1.7556253671646118,0.44470956921577454
1777560301921465600,14.016465576171875,0.8912517428398132,-0.7831286191940308,-0.6695078015327454
1777560301939995400,14.034995361328125,0.8362739086151123,-0.16554436087608337,-1.4886775016784668
1777560301958525400,14.053525390625,0.7971785664558411,0.2987128794193268,-1.9370522499084473
1777560301977055200,14.07205517578125,0.7794634699821472,0.7641918659210205,-2.076329469680786
1777560301995585300,14.090585205078124,0.7122683525085449,1.0690133571624756,-1.674991250038147
1777560302014115300,14.109115234375,0.3237583339214325,0.9022472500801086,-0.6860011219978333
1777560302032645000,14.12764501953125,-0.38667741417884827,0.4318813979625702,0.6078104376792908
1777560302051175000,14.1461748046875,-0.45509424805641174,-1.3267983198165894,1.6077960729599
1777560302069705000,14.164705078125,-0.023212861269712448,-2.6474878787994385,1.4923427104949951
1777560302088235000,14.183235107421876,-0.03543015569448471,-2.626718521118164,1.5674790143966675
1777560302106764800,14.201764892578124,-0.05436696484684944,-2.6395466327667236,1.0818414688110352
1777560302125294800,14.220294921875,0.25350889563560486,-1.6884303092956543,0.0409279391169548
1777560302143824600,14.23882470703125,0.2461785078048706,0.19853104650974274,-0.851545512676239
1777560302162354700,14.257354736328125,-0.22907429933547974,1.7715078592300415,-1.1398736238479614
1777560302180884500,14.275884521484375,-1.1087195873260498,2.1172573566436768,-1.0488548278808594
1777560302199414500,14.29441455078125,-0.5882627964019775,1.4813470840454102,-0.6218603253364563
1777560302217944300,14.3129443359375,0.46547895669937134,0.915686309337616,-0.8454368710517883
1777560302236474400,14.331474365234374,0.44470956921577454,0.09957095980644226,-1.033583164215088
1777560302255004200,14.350004150390625,0.43310311436653137,0.9046907424926758,-1.897346019744873
1777560302273534200,14.3685341796875,-0.11423171311616898,4.428769588470459,-2.8906121253967285
1777560302292064000,14.38706396484375,-0.6181951761245728,5.189296245574951,-2.6951353549957275
1777560302310594000,14.405593994140625,-1.08978271484375,2.8063127994537354,-1.9193371534347534
1777560302329123800,14.424123779296876,-0.41294458508491516,-0.07452550530433655,-1.4049890041351318
1777560302347654000,14.44265380859375,0.39767298102378845,-0.2834412455558777,-1.8099923133850098
1777560302366183700,14.46118359375,0.9107993841171265,2.1001532077789307,-2.025627613067627
1777560302384713700,14.479713623046875,1.454469084739685,3.3176066875457764,-1.8167119026184082
1777560302403243500,14.498243408203125,1.4208714962005615,3.229642152786255,-1.8124357461929321
1777560302421773600,14.516773681640625,0.9450078010559082,2.1441354751586914,-1.7134757041931152
1777560302440303400,14.535303466796876,0.23518294095993042,0.5760455131530762,-1.3103049993515015
1777560302458833400,14.55383349609375,-0.3090975880622864,-0.24006985127925873,-1.0470222234725952
1777560302477363200,14.57236328125,-0.4221075773239136,0.17592905461788177,-1.0213658809661865
1777560302495893200,14.590893310546875,-0.2559523284435272,0.9871574640274048,-1.053130865097046
1777560302514423000,14.609423095703125,-0.0409279391169548,1.9688172340393066,-0.8503237962722778
1777560302532953000,14.627953125,-0.047036588191986084,1.8558071851730347,-0.7776308655738831
1777560302551483000,14.64648291015625,-0.35063639283180237,0.6194168925285339,-1.1166608333587646
1777560302570013000,14.665012939453124,-0.4526508152484894,-0.010995565913617611,-1.3121376037597656
1777560302588542700,14.683542724609374,-0.4838049113750458,0.3848448097705841,-1.1221586465835571
1777560302607072800,14.70207275390625,-0.4062250852584839,1.046411395072937,-0.9700532555580139
1777560302625602800,14.720602783203125,-0.3042106628417969,1.0299180746078491,-0.8943060636520386
1777560302644132600,14.739132568359375,-0.2724456787109375,0.3121519088745117,-0.7947350740432739
1777560302662662700,14.75766259765625,-0.3078758418560028,-0.0665842592716217,-0.6872228980064392
1777560302681192400,14.7761923828125,-0.30054548382759094,0.13194678723812103,-0.5381718873977661
1777560302699722500,14.794722412109374,-0.20219624042510986,0.4471530318260193,-0.3433060050010681
1777560302718252300,14.813252197265625,-0.039706211537122726,0.7739656567573547,-0.26878049969673157
1777560302736782300,14.8317822265625,-0.012217295356094837,0.4825831651687622,-0.20402882993221283
1777560302755312000,14.85031201171875,-0.09162971377372742,0.02871064469218254,-0.01893680728971958
1777560302773842200,14.86884228515625,-0.08124501258134842,0.010384701192378998,0.19303326308727264
1777560302792372200,14.887372314453126,0.018325943499803543,-0.01893680728971958,0.6316341757774353
1777560302810902000,14.905902099609374,0.15149445831775665,-0.5974257588386536,1.211344838142395
1777560302829431800,14.924431884765625,0.2565632164478302,-1.4862339496612549,1.7067562341690063
1777560302847961900,14.9429619140625,0.4324922561645508,-2.0995421409606934,2.2840235233306885
1777560302866492000,14.961491943359375,0.5057960152626038,-1.7947207689285278,2.853349447250366
1777560302885021700,14.980021728515625,0.4416552484035492,-1.5381574630737305,3.089754104614258
1777560302903551700,14.9985517578125,0.16554436087608337,-1.164919137954712,2.9290966987609863
1777560302922081500,15.01708154296875,-0.19914191961288452,-0.6603448390960693,2.590677499771118
1777560302940611600,15.035611572265625,-0.3659079968929291,-0.4257727563381195,2.4355177879333496
1777560302959141400,15.054141357421875,-0.35674503445625305,-0.34147340059280396,2.455676317214966
1777560302977671400,15.07267138671875,-0.5180133581161499,-0.6591231226921082,2.539364814758301
1777560302996201500,15.091201416015625,-0.637742817401886,-1.6212351322174072,2.3237295150756836
1777560303014731300,15.109731201171876,-0.5766563415527344,-1.7153083086013794,1.8967351913452148
1777560303033261000,15.128260986328126,-0.5375609993934631,-1.1716386079788208,1.7085888385772705
1777560303051791000,15.146791015625,-0.2987128794193268,-0.8002328872680664,1.7421863079071045
1777560303070321200,15.165321044921875,0.01588248461484909,-0.6420188546180725,1.6450588703155518
1777560303088851200,15.183851318359375,0.24495677649974823,-0.9694424271583557,1.4898991584777832
1777560303107381000,15.202381103515625,0.5131264328956604,-1.6444480419158936,1.5705333948135376
1777560303125910800,15.220910888671876,0.6444623470306396,-2.1172573566436768,1.5705333948135376
1777560303144440800,15.23944091796875,0.6010909676551819,-2.1978914737701416,1.2205078601837158
1777560303162971000,15.257970947265624,0.6065887212753296,-1.5961896181106567,0.6591231226921082
1777560303181500700,15.276500732421875,0.618806004524231,-0.9224058389663696,0.13744457066059113
1777560303200030700,15.29503076171875,0.6047561168670654,-0.6432406306266785,-0.20219624042510986
1777560303218560800,15.313560791015625,0.6010909676551819,-0.4367683231830597,-0.5235111117362976
1777560303237090600,15.332090576171876,0.5595521330833435,-0.42882707715034485,-0.9205732345581055
1777560303255620400,15.350620361328126,0.45509424805641174,-0.33536475896835327,-1.1777472496032715
1777560303283415600,15.37841552734375,0.36163195967674255,0.17715078592300415,-1.0830632448196411
1777560303301945300,15.3969453125,0.22357651591300964,0.06475166976451874,-0.6737838387489319
1777560303320475100,15.41547509765625,-0.02871064469218254,-0.748920202255249,0.16004657745361328
1777560303339005200,15.434005126953124,-0.06230820715427399,-1.4624103307724,0.9669989347457886
1777560303357535200,15.45253515625,0.2101374864578247,-1.4593559503555298,1.0409135818481445
1777560303376065000,15.47106494140625,0.32009315490722656,-0.9639446139335632,1.0665699243545532
1777560303403860000,15.49885986328125,0.23823726177215576,-1.1435388326644897,0.5876519083976746
1777560303422390000,15.51739013671875,0.3133736252784729,-1.341459035873413,-0.11606431007385254
1777560303440919800,15.535919921875,0.11178825795650482,-0.7031053900718689,-0.8631519079208374
1777560303459449900,15.554449951171875,-0.3689623177051544,0.3744601011276245,-1.2052361965179443
1777560303477980000,15.57297998046875,-1.007315993309021,0.9938769936561584,-0.19669845700263977
1777560303496509700,15.591509765625,-0.5082395076751709,0.6542361974716187,-0.13133592903614044
1777560303515039700,15.610039794921875,0.4868592321872711,2.213163137435913,-0.7861829996109009
1777560303533569500,15.628569580078125,0.7507528066635132,2.6059491634368896,-1.0122029781341553
1777560303552099600,15.647099609375,0.7293725609779358,1.4159845113754272,-1.1404845714569092
1777560303570629600,15.665629638671875,0.030543239787220955,2.0580034255981445,-1.9871431589126587
1777560303589159400,15.684159423828126,-0.7232639193534851,4.469086647033691,-2.8435754776000977
1777560303607689500,15.702689453125,-1.2528836727142334,3.517359495162964,-2.531423568725586
1777560303626219300,15.72121923828125,-1.156977891921997,0.7770199775695801,-1.5008947849273682
1777560303644749300,15.739749267578125,-0.22785256803035736,-0.9352339506149292,-0.6090322136878967
1777560303663279000,15.758279052734375,0.3549124300479889,0.24801109731197357,-1.293811559677124
1777560303681809200,15.77680908203125,1.18446683883667,2.098320484161377,-1.6334524154663086
1777560303700339200,15.795339111328126,1.4941751956939697,2.766606569290161,-1.6328415870666504
1777560303718869000,15.813868896484376,1.284037709236145,2.414748430252075,-1.6365067958831787
1777560303737399000,15.83239892578125,0.758083164691925,1.6029092073440552,-1.609628677368164
1777560303755929000,15.85092919921875,0.020158538594841957,0.3292561173439026,-1.2968659400939941
1777560303774459000,15.869458984375,-0.3597993552684784,-0.35796675086021423,-1.0958913564682007
1777560303792988700,15.88798876953125,-0.27488914132118225,0.043982263654470444,-1.229670763015747
1777560303811518700,15.906518798828126,-0.13439024984836578,1.1068869829177856,-1.0323615074157715
1777560303830048800,15.925048828125,-0.012217295356094837,1.7421863079071045,-0.7990111112594604
1777560303848578600,15.94357861328125,-0.06291907280683517,1.663995623588562,-0.8045089244842529
1777560303867108600,15.962108642578125,-0.23273947834968567,0.9999856352806091,-0.9779945015907288
1777560303885638700,15.980638671875,-0.32620179653167725,0.4575377106666565,-1.1142174005508423
1777560303904168400,15.99916845703125,-0.3597993552684784,0.37323838472366333,-1.1062761545181274
1777560303922698500,16.017698486328126,-0.3402516841888428,0.5351175665855408,-0.9847140312194824
1777560303941228300,16.036228271484376,-0.26511532068252563,0.8216131329536438,-0.8826996088027954
1777560303959758300,16.05475830078125,-0.2406807243824005,0.8344413042068481,-0.7800742983818054
1777560303978288400,16.073288330078125,-0.27366742491722107,0.4612029194831848,-0.648127555847168
1777560303996818200,16.091818115234375,-0.2730565667152405,0.29443681240081787,-0.5283980369567871
1777560304015348200,16.11034814453125,-0.2718348205089569,0.318871408700943,-0.3952295184135437
1777560304033878300,16.128878173828124,-0.2101374864578247,0.48991355299949646,-0.21991132199764252
1777560304052408000,16.147407958984374,-0.11484257876873016,0.6163625717163086,-0.17653992772102356
1777560304070938000,16.165938232421876,-0.04276053607463837,0.3805687427520752,-0.2254091054201126
1777560304089468000,16.184468017578126,-0.03543015569448471,-0.1545487940311432,-0.05253437161445618
1777560304107998000,16.202998046875,0.012217295356094837,-0.27000224590301514,0.2877173125743866
1777560304126527700,16.22152783203125,0.15515965223312378,-0.2834412455558777,0.7947350740432739
1777560304145057800,16.240057861328125,0.20769402384757996,-0.8313869833946228,1.2748748064041138
1777560304163587800,16.258587890625,0.32192572951316833,-1.515555500984192,1.7831143140792847
1777560304182117600,16.27711767578125,0.4514290690422058,-1.9346086978912354,2.4770567417144775
1777560304200647700,16.295647705078125,0.42332929372787476,-1.7617340087890625,3.031721830368042
1777560304219177700,16.314177734375,0.3426951467990875,-1.6413936614990234,3.2149813175201416
1777560304237707500,16.33270751953125,0.037262752652168274,-1.459966778755188,2.989572286605835
1777560304256237600,16.351237548828124,-0.2614501118659973,-1.2156208753585815,2.629772901535034
1777560304274767400,16.369767333984374,-0.5375609993934631,-1.0372483730316162,2.411694049835205
1777560304293297400,16.38829736328125,-0.6133082509040833,-0.6548470258712769,2.4495677947998047
1777560304311827200,16.4068271484375,-0.6206386089324951,-0.46608981490135193,2.618777275085449
1777560304339622400,16.434622314453126,-0.49418962001800537,-0.9022472500801086,2.112370491027832
1777560304358152200,16.453152099609376,-0.45998117327690125,-0.905912458896637,1.7263038158416748
1777560304376682200,16.47168212890625,-0.16859868168830872,-0.5583304166793823,1.7568471431732178
1777560304395212000,16.4902119140625,0.3194822669029236,-0.5827649831771851,1.692095398902893
1777560304413742000,16.5087421875,0.5009090900421143,-1.265711784362793,1.5216641426086426
1777560304432272100,16.527272216796874,0.5235111117362976,-2.0213515758514404,1.5228859186172485
1777560304450802000,16.545802001953124,0.6389645338058472,-2.249204158782959,1.5583161115646362
1777560304469332000,16.56433203125,0.750141978263855,-2.254701852798462,1.1410953998565674
1777560304487862000,16.582862060546876,0.7898481488227844,-1.7739512920379639,0.4251618981361389
1777560304506391800,16.601391845703127,0.7984002828598022,-1.0378592014312744,-0.2101374864578247
1777560304524921900,16.619921875,0.7892373204231262,-0.6444623470306396,-0.7886264324188232
1777560304543451600,16.63845166015625,0.8142827749252319,-0.2608392536640167,-1.3548980951309204
1777560304561981700,16.656981689453126,0.7764091491699219,0.11484257876873016,-1.9065089225769043
1777560304580511500,16.675511474609376,0.6359102129936218,0.3860665261745453,-2.126420259475708
1777560304599041500,16.69404150390625,0.4276053309440613,0.6768381595611572,-1.792277216911316
1777560304617571600,16.712571533203125,0.003665188793092966,0.7281508445739746,-0.8564324378967285
1777560304636101400,16.731101318359375,-0.5845975875854492,-0.06352993845939636,0.7990111112594604
1777560304654631400,16.74963134765625,-0.3426951467990875,-1.4691298007965088,2.2595887184143066
1777560304673161500,16.768161376953124,0.3170388340950012,-1.9596542119979858,1.552207350730896
1777560304691691300,16.786691162109374,0.3738492429256439,-2.35305118560791,1.7763947248458862
1777560304710221300,16.80522119140625,0.12095122784376144,-2.743393659591675,1.6310089826583862
1777560304728751400,16.82375146484375,0.27366742491722107,-1.7568471431732178,0.3445277214050293
1777560304747281200,16.84228125,0.39400777220726013,-0.4923570156097412,-0.870482325553894
1777560304765811200,16.860811279296875,0.22174391150474548,0.3170388340950012,-1.4159845113754272
1777560304784341000,16.879341064453126,-0.3897317349910736,1.5754202604293823,-1.5167772769927979
1777560304802871000,16.89787109375,-1.1209368705749512,1.1197150945663452,-0.6719512343406677
1777560304821401000,16.916401123046874,0.026878049597144127,0.5974257588386536,-0.17653992772102356
1777560304839931000,16.934930908203125,0.6212494969367981,0.2614501118659973,-0.4978547990322113
1777560304858461000,16.9534609375,0.6487383842468262,0.21380266547203064,-0.7513636946678162
1777560304876991000,16.971990966796874,0.38789913058280945,1.0836740732192993,-1.598022222518921
1777560304895520800,16.990520751953124,-0.44898560643196106,4.084852695465088,-2.414748430252075
1777560304914050800,17.00905078125,-1.0427461862564087,4.690830707550049,-2.288910388946533
1777560304932580900,17.027580810546876,-1.1606431007385254,2.056781768798828,-1.6572761535644531
1777560304951110700,17.046110595703126,-0.45326167345046997,-0.8393282294273376,-1.1264346837997437
1777560304969640700,17.064640625,0.20158538222312927,-0.8185588121414185,-1.5412118434906006
1777560304988170500,17.08317041015625,0.8686497211456299,1.7794491052627563,-1.6646065711975098
1777560305006700500,17.101700439453126,1.4037672281265259,2.8313581943511963,-1.5735876560211182
1777560305025230300,17.120230224609376,1.3909391164779663,2.844186305999756,-1.5265511274337769
1777560305043760400,17.138760498046874,1.0128138065338135,2.2724170684814453,-1.518609881401062
1777560305062290400,17.15729052734375,0.41844236850738525,1.229670763015747,-1.3842196464538574
1777560305080820200,17.1758203125,-0.1081230640411377,0.318871408700943,-1.2498292922973633
1777560305099350300,17.194350341796873,-0.25534147024154663,0.1490510106086731,-1.1618647575378418
1777560305117880300,17.21288037109375,-0.19914191961288452,0.6084213256835938,-0.9853248596191406
1777560305136410400,17.231410400390626,-0.09529490768909454,1.3011419773101807,-0.9169080257415771
1777560305154940200,17.249940185546876,0.08368847519159317,1.7947207689285278,-0.7990111112594604
1777560305173470200,17.26847021484375,-0.001832594396546483,1.5045599937438965,-0.7574723362922668
1777560305192000300,17.287000244140625,-0.19914191961288452,0.5485565662384033,-0.9004147052764893
1777560305210530000,17.305530029296875,-0.25350889563560486,0.12278381735086441,-1.0555742979049683
1777560305229060000,17.32406005859375,-0.2675587832927704,0.328645259141922,-1.0458004474639893
1777560305247590000,17.34258984375,-0.26511532068252563,0.5406153202056885,-0.9285144805908203
1777560305266120000,17.361119873046874,-0.24862197041511536,0.665842592716217,-0.8014546036720276
1777560305284649700,17.379649658203125,-0.2309068888425827,0.5577195286750793,-0.6933315396308899
1777560305303179800,17.3981796875,-0.24006985127925873,0.2974911332130432,-0.5241219997406006
1777560305321709800,17.416709716796873,-0.21197007596492767,0.2614501118659973,-0.41783151030540466
1777560305340239600,17.435239501953124,-0.17104214429855347,0.38179048895835876,-0.4153880476951599
1777560305358769700,17.453769775390626,-0.15515965223312378,0.5253437161445618,-0.39400777220726013
1777560305377299700,17.4722998046875,-0.11728604137897491,0.6407971382141113,-0.36163195967674255
1777560305395829500,17.49082958984375,-0.12522727251052856,0.4557051360607147,-0.3597993552684784
1777560305414359600,17.509359619140625,-0.205861434340477,0.0054977829568088055,-0.19669845700263977
1777560305432889600,17.5278896484375,-0.17226386070251465,-0.15088360011577606,-0.008552107028663158
1777560305451419400,17.54641943359375,0.017715077847242355,-0.0513126403093338,0.2614501118659973
1777560305469949400,17.564949462890624,0.06230820715427399,-0.4612029194831848,0.6322450637817383
1777560305488479500,17.5834794921875,0.18814635276794434,-1.0097594261169434,0.9541707634925842
1777560305507009500,17.602009521484376,0.3536907136440277,-1.3213005065917969,1.3506220579147339
1777560305525539300,17.620539306640627,0.4098902642726898,-1.7947207689285278,1.9303326606750488
1777560305544069400,17.6390693359375,0.3384190797805786,-2.0744967460632324,2.6609270572662354
1777560305562599200,17.65759912109375,0.2779434621334076,-1.9022328853607178,3.087921380996704
1777560305581129200,17.676129150390626,0.12095122784376144,-1.6756020784378052,3.165501356124878
1777560305599659300,17.6946591796875,-0.09651663154363632,-1.3182462453842163,2.841132164001465
1777560305618189000,17.71318896484375,-0.4355465769767761,-1.0152572393417358,2.44468092918396
1777560305636719000,17.731718994140625,-0.6395754218101501,-0.7703005075454712,2.4917173385620117
1777560305655249000,17.750248779296875,-0.5925388336181641,-0.5790998339653015,2.6340489387512207
1777560305673779000,17.768779052734374,-0.44348782300949097,-0.554665207862854,2.4019203186035156
1777560305692309000,17.78730908203125,-0.401949018239975,-0.915075421333313,1.8417572975158691
1777560305710838800,17.8058388671875,-0.3903425931930542,-0.665842592716217,1.6383392810821533
1777560305729368800,17.824368896484376,0.006719512399286032,-0.4312705397605896,1.821598768234253
1777560305747899000,17.84289892578125,0.3805687427520752,-0.7837395071983337,1.766010046005249
1777560305766428700,17.8614287109375,0.45387253165245056,-1.4440842866897583,1.7531819343566895
1777560305784958700,17.879958740234375,0.4221075773239136,-2.156963586807251,1.8637484312057495
1777560305803488800,17.89848876953125,0.5797106623649597,-2.576627731323242,1.8008294105529785
1777560305822018600,17.9170185546875,0.7269290685653687,-2.5155410766601562,1.2980875968933105
1777560305840548600,17.935548583984374,0.7330377101898193,-1.8839069604873657,0.5522217750549316
1777560305859078700,17.95407861328125,0.676227331161499,-1.0971131324768066,-0.09529490768909454
1777560305877608400,17.9726083984375,0.6273581385612488,-0.5387827157974243,-0.6743947267532349
1777560305896138500,17.991138427734374,0.5974257588386536,-0.20463970303535461,-1.230892539024353
1777560305914668500,18.00966845703125,0.5583304166793823,-0.10445787757635117,-1.72141695022583
1777560305933198600,18.028198486328126,0.4770853817462921,0.17776164412498474,-1.9187263250350952
1777560305951728400,18.046728271484376,0.38667741417884827,0.7984002828598022,-1.7678426504135132
1777560305970258400,18.065258544921875,0.07880155742168427,1.0415244102478027,-1.062904715538025
1777560305988788500,18.08378857421875,-0.5473348498344421,0.08368847519159317,0.8759800791740417
1777560306007318300,18.102318359375,-0.33108872175216675,-1.5406010150909424,2.2009458541870117
1777560306025848300,18.120848388671874,0.2883281707763672,-2.1227550506591797,1.588248372077942
1777560306044378400,18.13937841796875,0.2516762912273407,-2.2229368686676025,1.6236785650253296
1777560306062908200,18.157908203125,0.053756099194288254,-2.558912515640259,1.3335177898406982
1777560306081438200,18.176438232421877,0.31520622968673706,-2.067166328430176,0.12522727251052856
1777560306099968300,18.19496826171875,0.4825831651687622,-0.6627882719039917,-1.0030399560928345
1777560306118498000,18.213498046875,0.5070177912712097,0.44470956921577454,-1.072678565979004
1777560306137028000,18.232028076171876,-0.007941242307424545,1.4605777263641357,-0.9639446139335632
1777560306155558100,18.25055810546875,-1.1160500049591064,0.676227331161499,-0.7244856357574463
1777560306174088000,18.269087890625,-0.25961753726005554,0.3488037884235382,-0.38301220536231995
1777560306192618000,18.287617919921875,0.3707949221134186,0.8289434909820557,-0.6230821013450623
1777560306211148000,18.30614794921875,0.5998691916465759,0.5381718873977661,-1.0299180746078491
1777560306229677800,18.324677734375,0.4575377106666565,1.3255765438079834,-2.0408992767333984
1777560306248208000,18.343207763671874,-0.35674503445625305,4.569268703460693,-2.911992311477661
1777560306266738000,18.361738037109376,-1.0054833889007568,5.266876220703125,-2.6163339614868164
1777560306285268000,18.38026806640625,-1.0983349084854126,2.7818782329559326,-1.775783896446228
1777560306303797800,18.3987978515625,-0.20280711352825165,-0.5045742988586426,-1.1679733991622925
1777560306322327800,18.417327880859375,0.23029601573944092,-0.4990765154361725,-1.6646065711975098
1777560306340857900,18.43585791015625,0.8662062287330627,2.070220708847046,-1.6884303092956543
1777560306359387600,18.4543876953125,1.4440842866897583,2.977965831756592,-1.4819579124450684
1777560306377917700,18.472917724609374,1.3365721702575684,2.8924448490142822,-1.499062180519104
1777560306396447700,18.49144775390625,0.9187406301498413,2.2974624633789062,-1.5986331701278687
1777560306414977500,18.5099775390625,0.379347026348114,1.3506220579147339,-1.5192207098007202
1777560306433507600,18.528507568359377,-0.01649334840476513,0.5711585879325867,-1.1099413633346558
1777560306452037600,18.54703759765625,-0.1545487940311432,0.6438514590263367,-0.9914335608482361
1777560306470567400,18.5655673828125,-0.02932151034474373,1.2119556665420532,-0.988990068435669
1777560306498362400,18.5933623046875,0.10690133273601532,2.0628902912139893,-0.7244856357574463
1777560306526157300,18.6211572265625,-0.08063415437936783,1.4324779510498047,-0.7977893948554993
1777560306544687400,18.639687255859375,-0.2981020212173462,0.4618137776851654,-0.9773836731910706
1777560306563217400,18.658217529296873,-0.36285367608070374,0.3811796307563782,-1.046411395072937
1777560306581747200,18.676747314453124,-0.3744601011276245,0.676227331161499,-0.9523382186889648
1777560306600277200,18.69527734375,-0.35185810923576355,0.8185588121414185,-0.8998038172721863
1777560306618807300,18.713807373046876,-0.28527384996414185,0.729983389377594,-0.9083559513092041
1777560306637337000,18.732337158203126,-0.24801109731197357,0.535728394985199,-0.8222240209579468
1777560306655867100,18.7508671875,-0.2883281707763672,0.328645259141922,-0.5057960152626038
1777560306674397200,18.769397216796875,-0.2767217457294464,0.46608981490135193,-0.3640754222869873
1777560306692927200,18.78792724609375,-0.18387030065059662,0.6731730103492737,-0.33169957995414734
1777560306711457000,18.80645703125,-0.13133592903614044,0.8069523572921753,-0.2809978127479553
1777560306729987000,18.824987060546874,-0.12461641430854797,0.7159335017204285,-0.337808221578598
1777560306748517000,18.84351708984375,-0.1649334877729416,0.33719736337661743,-0.31581708788871765
1777560306767047000,18.862046875,-0.16004657745361328,0.16798780858516693,-0.08979712426662445
1777560306785577000,18.880576904296873,-0.08796452730894089,0.12767073512077332,0.09590577334165573
1777560306804107000,18.89910693359375,-0.046425722539424896,-0.17837251722812653,0.4373791813850403
1777560306822636800,18.91763671875,0.09651663154363632,-0.6444623470306396,0.8936951756477356
1777560306841166800,18.936166748046876,0.19364413619041443,-1.2431098222732544,1.3597849607467651
1777560306859697000,18.95469677734375,0.34086254239082336,-1.750738501548767,1.9388848543167114
1777560306878226700,18.973226806640625,0.4098902642726898,-2.0775511264801025,2.6450445652008057
1777560306896756700,18.9917568359375,0.3225366175174713,-1.9034546613693237,2.992626667022705
1777560306915286800,19.010286865234374,0.19608759880065918,-1.7739512920379639,3.0860888957977295
1777560306933816600,19.028816650390624,-0.11056652665138245,-1.3921607732772827,2.869231939315796
1777560306952346600,19.0473466796875,-0.3640754222869873,-0.9639446139335632,2.4599523544311523
1777560306970876700,19.065876708984376,-0.4825831651687622,-0.564439058303833,2.291353702545166
1777560306989406700,19.08440673828125,-0.5253437161445618,-0.5424479246139526,2.383594274520874
1777560307007936500,19.1029365234375,-0.5253437161445618,-1.1600322723388672,2.422078847885132
1777560307026466600,19.121466552734375,-0.5613847374916077,-1.3878847360610962,2.1355831623077393
1777560307044996600,19.13999658203125,-0.5760455131530762,-1.138651967048645,1.9107850790023804
1777560307063526400,19.1585263671875,-0.3530798554420471,-0.9853248596191406,1.915671944618225
1777560307082056400,19.177056396484375,0.015271619893610477,-1.0207550525665283,1.8735222816467285
1777560307100586500,19.19558642578125,0.37751442193984985,-1.4190388917922974,1.784335970878601
1777560307119116300,19.2141162109375,0.5943714380264282,-1.9511021375656128,1.6658282279968262
1777560307137646300,19.232646240234374,0.7672461867332458,-2.4550654888153076,1.553429126739502
1777560307156176400,19.25117626953125,0.7916807532310486,-2.543030023574829,1.2907572984695435
1777560307174706200,19.2697060546875,0.7434224486351013,-1.8661918640136719,0.7935133576393127
1777560307193236200,19.288236328125,0.6792816519737244,-1.0360267162322998,0.32070401310920715
1777560307211766300,19.306766357421875,0.6139190793037415,-0.5314523577690125,-0.01588248461484909
1777560307230296000,19.325296142578125,0.5595521330833435,-0.42455101013183594,-0.31642794609069824
1777560307248826000,19.343826171875,0.5412262082099915,-0.4508182108402252,-0.7483093738555908
1777560307267356200,19.362356201171874,0.555276095867157,-0.2767217457294464,-1.2388337850570679
1777560307285886000,19.380885986328124,0.5571087002754211,-0.06108647957444191,-1.544877052307129
1777560307304416000,19.399416015625,0.49663305282592773,0.2767217457294464,-1.5650355815887451
1777560307322946000,19.417946044921877,0.40927940607070923,0.22418737411499023,-1.2418880462646484
1777560307341476000,19.43647607421875,0.13988803327083588,-0.4734202027320862,-0.430659681558609
1777560307360006000,19.455005859375,-0.14477495849132538,-1.1826342344284058,0.9071341753005981
1777560307378536000,19.473535888671876,0.2528980076313019,-1.398269534111023,1.553429126739502
1777560307397066000,19.49206591796875,0.554665207862854,-1.2522728443145752,1.3267983198165894
1777560307415595800,19.510595703125,0.3860665261745453,-1.3897173404693604,1.5131120681762695
1777560307434125800,19.529125732421875,0.18264856934547424,-1.7177517414093018,0.915686309337616
1777560307452655900,19.54765576171875,0.10995566099882126,-1.1588104963302612,-0.27855435013771057
1777560307471185700,19.566185546875,-0.2309068888425827,-0.2370155304670334,-0.8991929292678833
1777560307489715700,19.5847158203125,-0.9022472500801086,0.03543015569448471,-0.34208428859710693
1777560307508245800,19.603245849609376,-1.0555742979049683,0.42332929372787476,-0.379347026348114
1777560307526775600,19.621775634765626,-0.006108647678047419,1.581528902053833,-0.9456186890602112
1777560307545305600,19.6403056640625,0.4612029194831848,1.5955787897109985,-1.1239912509918213
1777560307563835600,19.658835693359375,0.4630354940891266,0.7189878225326538,-1.2968659400939941
1777560307582365400,19.677365478515625,0.15821397304534912,1.527161955833435,-2.1471896171569824
1777560307600895500,19.6958955078125,-0.33047783374786377,3.858222007751465,-2.618166446685791
1777560307619425500,19.714425537109374,-0.6921098232269287,4.061639785766602,-2.1496331691741943
1777560307637955300,19.732955322265624,-0.618806004524231,2.2168283462524414,-1.5540399551391602
1777560307656485400,19.7514853515625,-0.03298669680953026,0.5815432667732239,-1.1997383832931519
1777560307675015400,19.770015380859373,0.42332929372787476,0.5516108870506287,-1.5412118434906006
1777560307693545200,19.788545166015624,0.8637627959251404,2.0476186275482178,-1.8405355215072632
1777560307712075300,19.8070751953125,1.2651009559631348,3.023169755935669,-1.5705333948135376
1777560307730605300,19.825605224609376,1.247385859489441,3.332878351211548,-1.422093152999878
1777560307749135400,19.84413525390625,0.8631519079208374,2.713461399078369,-1.5986331701278687
1777560307767665200,19.8626650390625,0.3121519088745117,1.4025455713272095,-1.4819579124450684
1777560307786195200,19.8811953125,-0.11484257876873016,0.23212862014770508,-1.2522728443145752
1777560307804725200,19.899725341796874,-0.23884813487529755,0.1178968995809555,-1.2663227319717407
1777560307823255000,19.918255126953124,-0.1802051067352295,0.6725621223449707,-1.156977891921997
1777560307841785000,19.93678515625,-0.059864748269319534,1.4202606678009033,-0.8338304162025452
1777560307860315100,19.955315185546876,0.06536252796649933,1.8955134153366089,-0.7428115606307983
1777560307878845000,19.973844970703126,-0.08491020649671555,1.32985258102417,-0.8179479241371155
1777560307897375000,19.992375,-0.29077163338661194,0.37629270553588867,-0.870482325553894
1777560307915905000,20.010905029296875,-0.3958403766155243,0.05070177838206291,-0.8888082504272461
1777560307934434800,20.029434814453126,-0.4673115611076355,0.17592905461788177,-0.8460476994514465
1777560307952964900,20.04796484375,-0.42943793535232544,0.5051851868629456,-0.8240565657615662
1777560307971495000,20.066494873046874,-0.29016077518463135,0.7171552777290344,-0.8106175661087036
1777560307990024700,20.085024658203125,-0.23029601573944092,0.5613847374916077,-0.7330377101898193
1777560308008554800,20.1035546875,-0.2767217457294464,0.1496618688106537,-0.526565432548523
1777560308027084800,20.122084716796873,-0.3329212963581085,0.09285144507884979,-0.33108872175216675
1777560308045614600,20.140614501953124,-0.20830489695072174,0.5919279456138611,-0.2632827162742615
1777560308064144600,20.15914453125,-0.05803215503692627,0.9706641435623169,-0.2724456787109375
1777560308082674700,20.1776748046875,-0.004886918235570192,0.8735366463661194,-0.4740310609340668
1777560308101204500,20.19620458984375,-0.053756099194288254,0.3341430425643921,-0.5186241865158081
1777560308119734500,20.214734619140625,-0.08857539296150208,0.25900667905807495,-0.28038692474365234
1777560308138264600,20.2332646484375,-0.1337793916463852,0.2993237376213074,-0.05497783049941063
1777560308156794400,20.25179443359375,-0.07513637095689774,0.19120067358016968,0.21441353857517242
1777560308175324400,20.270324462890624,-0.011606430634856224,-0.2883281707763672,0.656679630279541
1777560308193854500,20.2888544921875,0.16615521907806396,-0.7666352987289429,1.0231984853744507
1777560308212384300,20.30738427734375,0.32192572951316833,-1.3304635286331177,1.387273907661438
1777560308230914300,20.325914306640627,0.4886918365955353,-1.7354668378829956,1.8735222816467285
1777560308249444000,20.344444091796873,0.4068359434604645,-1.9468261003494263,2.525315046310425
1777560308267974100,20.36297412109375,0.3237583339214325,-1.858250617980957,2.872286081314087
1777560308286504200,20.381504150390626,0.11484257876873016,-1.9651520252227783,2.9773550033569336
1777560308305034200,20.4000341796875,-0.10506874322891235,-1.4434734582901,2.7501132488250732
1777560308323564000,20.41856396484375,-0.21197007596492767,-0.7556397318840027,2.4208571910858154
1777560308342094000,20.437093994140625,-0.3176496922969818,-0.48075059056282043,2.3787074089050293
1777560308360624000,20.4556240234375,-0.401949018239975,-0.6976075768470764,2.4941608905792236
1777560308379154000,20.47415380859375,-0.3500255048274994,-1.2907572984695435,2.241262912750244
1777560308397684000,20.49268408203125,-0.3909534513950348,-1.8380920886993408,1.692095398902893
1777560308416214000,20.511214111328126,-0.5925388336181641,-1.7434080839157104,1.4471386671066284
1777560308434743800,20.529743896484376,-0.39278605580329895,-0.9963204264640808,1.6627739667892456
1777560308453273900,20.54827392578125,0.13439024984836578,-0.6805033683776855,1.8099923133850098
1777560308471804000,20.566803955078125,0.4978547990322113,-1.1826342344284058,1.766010046005249
1777560308490333700,20.585333740234375,0.6071996092796326,-1.9346086978912354,1.820376992225647
1777560308508863700,20.60386376953125,0.6731730103492737,-2.458730697631836,1.7788382768630981
1777560308527393800,20.622393798828124,0.7263182401657104,-2.732398271560669,1.3432916402816772
1777560308545923600,20.640923583984375,0.7574723362922668,-2.285245180130005,0.740368127822876
1777560308564453600,20.65945361328125,0.6695078015327454,-1.553429126739502,0.24556763470172882
1777560308582983700,20.677983642578123,0.5528326034545898,-1.071456789970398,-0.15760311484336853
1777560308601513500,20.696513427734374,0.48930269479751587,-0.7483093738555908,-0.6041452884674072
1777560308620043500,20.71504345703125,0.5241219997406006,-0.33536475896835327,-1.1013891696929932
1777560308638573600,20.733573486328126,0.5033525824546814,0.16310089826583862,-1.5540399551391602
1777560308657103400,20.752103271484376,0.536339282989502,0.5913171172142029,-1.8771874904632568
1777560308675633400,20.77063330078125,0.42943793535232544,0.9211840629577637,-1.8710788488388062
1777560308694163500,20.78916357421875,-0.046425722539424896,0.6059778332710266,-1.082452416419983
1777560308712693200,20.807693359375,-0.5613847374916077,-0.12156209349632263,1.1673625707626343
1777560308731223300,20.826223388671874,-0.01954767294228077,-1.0641264915466309,2.3072361946105957
1777560308749753300,20.84475341796875,0.3903425931930542,-2.0549490451812744,1.8435899019241333
1777560308768283400,20.863283447265626,0.13011419773101807,-3.0054547786712646,2.2278237342834473
1777560308786813200,20.881813232421877,-0.014049889519810677,-2.844186305999756,1.7201951742172241
1777560308805343200,20.90034326171875,0.25473061203956604,-2.081216335296631,0.2620609998703003
1777560308823873300,20.918873291015625,0.3970620930194855,-0.8991929292678833,-0.8991929292678833
1777560308842403000,20.937403076171876,0.034208428114652634,-0.07880155742168427,-0.6175842881202698
1777560308860933000,20.95593310546875,-0.7159335017204285,1.6523892879486084,-1.3518437147140503
1777560308879463200,20.974463134765625,-0.20402882993221283,3.117853879928589,-1.0592395067214966
1777560308897993000,20.992992919921875,0.6780598759651184,1.674991250038147,-0.44409868121147156
1777560308916523000,21.01152294921875,0.5088503360748291,-0.6114756464958191,-0.5320632457733154
1777560308935053000,21.030052978515624,0.0513126403093338,-0.8692606091499329,-1.4911209344863892
1777560308953582800,21.048582763671874,-0.3530798554420471,3.4752097129821777,-3.078758478164673
1777560308972113000,21.06711279296875,-0.6780598759651184,5.73907470703125,-3.230252981185913
1777560308990643000,21.085642822265626,-0.7837395071983337,4.181369304656982,-2.0531165599823
1777560309009173000,21.104173095703125,-0.3805687427520752,1.29503333568573,-0.9694424271583557
1777560309027702800,21.122702880859375,0.1594357043504715,-0.5632173418998718,-1.3994911909103394
1777560309046232800,21.14123291015625,0.6334667801856995,0.8216131329536438,-2.1410810947418213
1777560309064763000,21.159762939453124,1.3402373790740967,2.4623959064483643,-1.913839340209961
1777560309083292700,21.178292724609374,1.454469084739685,2.8124215602874756,-1.7849469184875488
1777560309101822700,21.19682275390625,1.1380411386489868,2.2369868755340576,-1.7873903512954712
1777560309120352800,21.215352783203127,0.565049946308136,1.0201442241668701,-1.6572761535644531
1777560309138882600,21.233882568359373,-0.0513126403093338,-0.31459537148475647,-1.293811559677124
1777560309157412600,21.25241259765625,-0.39217519760131836,-0.5369501113891602,-1.1129956245422363
1777560309175942700,21.270942626953126,-0.33108872175216675,0.23273947834968567,-1.0787872076034546
1777560309194472700,21.28947265625,-0.16249002516269684,1.3933825492858887,-0.8814778923988342
1777560309213002500,21.30800244140625,-0.01588248461484909,2.154520034790039,-0.6511818766593933
1777560309231532500,21.326532470703125,-0.1282816082239151,1.4098758697509766,-0.7648026943206787
1777560309250062600,21.3450625,-0.4214966893196106,-0.05742128938436508,-1.1129956245422363
1777560309268592400,21.36359228515625,-0.4043924808502197,-0.2608392536640167,-1.1062761545181274
1777560309287122400,21.382122314453124,-0.3127627670764923,0.4575377106666565,-0.9272927641868591
1777560309305652500,21.400652587890626,-0.15149445831775665,0.9645555019378662,-0.8295543789863586
1777560309324182300,21.419182373046876,-0.0873536616563797,0.6322450637817383,-0.7312051653862
1777560309342712300,21.43771240234375,-0.12461641430854797,-0.01954767294228077,-0.7336485981941223
1777560309361242400,21.456242431640625,-0.24740023910999298,-0.16737695038318634,-0.5760455131530762
1777560309379772400,21.4747724609375,-0.2919933497905731,0.4269944727420807,-0.36835145950317383
1777560309398302200,21.49330224609375,-0.19669845700263977,0.8265000581741333,-0.3396408259868622
1777560309416832300,21.511832275390624,-0.07330377399921417,0.5894845128059387,-0.4166097939014435
1777560309435362300,21.5303623046875,-0.04520399495959282,-0.004886918235570192,-0.28588470816612244
1777560309453892000,21.54889208984375,0.020158538594841957,0.039706211537122726,-0.03237583488225937
1777560309472422100,21.567422119140623,0.05558869615197182,0.13744457066059113,0.32070401310920715
1777560309490952200,21.5859521484375,0.1490510106086731,-0.07574722915887833,0.750141978263855
1777560309509482200,21.604482177734376,0.1997527778148651,-0.6866120100021362,1.1166608333587646
1777560309528012000,21.623011962890626,0.25900667905807495,-1.2626575231552124,1.5503748655319214
1777560309546542000,21.6415419921875,0.3042106628417969,-1.7599014043807983,2.196058988571167
1777560309565072100,21.660072021484375,0.2364046722650528,-1.8723005056381226,2.852738618850708
1777560309583602000,21.678601806640625,0.18264856934547424,-1.6334524154663086,3.1111342906951904
1777560309602132000,21.697132080078124,0.004886918235570192,-1.3206896781921387,3.053713083267212
1777560309620662000,21.715662109375,-0.22174391150474548,-0.9804379940032959,2.712850570678711
1777560309639191800,21.73419189453125,-0.5143481492996216,-0.8081740736961365,2.506989002227783
1777560309657721900,21.752721923828126,-0.6548470258712769,-0.7745765447616577,2.5082108974456787
1777560309676252000,21.771251953125,-0.6334667801856995,-0.41294458508491516,2.596175193786621
1777560309694781700,21.78978173828125,-0.6407971382141113,-0.015271619893610477,2.6028947830200195
1777560309713311700,21.808311767578125,-0.6035344004631042,-0.5674933791160583,2.184452533721924
1777560309731841800,21.826841796875,-0.5436696410179138,-0.9615011811256409,1.896124243736267
1777560309750371600,21.84537158203125,-0.21441353857517242,-0.9523382186889648,2.0299036502838135
1777560309768901600,21.863901611328124,0.09896009415388107,-0.9694424271583557,2.129474639892578
1777560309787431700,21.882431640625,0.20402882993221283,-1.4129302501678467,2.05617094039917
1777560309805961500,21.90096142578125,0.26511532068252563,-1.9425499439239502,1.8820743560791016
1777560309824491500,21.919491455078123,0.4416552484035492,-2.342055559158325,1.5680898427963257
1777560309843021600,21.938021484375,0.5442805290222168,-2.210719585418701,0.9896009564399719
1777560309861551600,21.956551513671876,0.6322450637817383,-1.5234967470169067,0.2968802750110626
1777560309880081400,21.975081298828126,0.6982184648513794,-0.842382550239563,-0.4367683231830597
1777560309898611500,21.993611572265625,0.7177661061286926,-0.25900667905807495,-1.0018181800842285
1777560309917141500,22.0121416015625,0.7293725609779358,0.11606431007385254,-1.4306453466415405
1777560309935671600,22.030671630859374,0.7739656567573547,0.2510654330253601,-1.814879298210144
1777560309954201300,22.049201416015624,0.8564324378967285,0.27488914132118225,-2.0079126358032227
1777560309972731400,22.0677314453125,0.8063415288925171,0.4734202027320862,-1.6890411376953125
1777560309991261400,22.086261474609376,0.3402516841888428,0.5015199780464172,-0.4667007029056549
1777560310009791500,22.10479150390625,-0.28588470816612244,0.516791582107544,1.4746276140213013
1777560310028321300,22.1233212890625,-0.15638138353824615,-1.0195332765579224,1.71836256980896
1777560310046851300,22.141851318359375,0.19425499439239502,-2.127031087875366,1.395825982093811
1777560310065381400,22.16038134765625,0.10690133273601532,-2.6114468574523926,1.8008294105529785
1777560310083911200,22.1789111328125,0.1637117564678192,-2.514930248260498,1.3225222826004028
1777560310102441200,22.197441162109374,0.2828303873538971,-1.666439175605774,0.10140355676412582
1777560310120971300,22.21597119140625,0.370184063911438,-0.40927940607070923,-0.9749401807785034
1777560310139501000,22.2345009765625,0.17348559200763702,0.4819723069667816,-1.0311397314071655
1777560310158031000,22.253031005859373,-0.5473348498344421,0.7483093738555908,-0.4825831651687622
1777560310176561200,22.27156103515625,-0.8106175661087036,0.6169734001159668,-0.7690787315368652
1777560310195091200,22.29009130859375,0.24862197041511536,1.8997894525527954,-0.8216131329536438
1777560310213621000,22.30862109375,0.5809323787689209,1.2339468002319336,-0.6524035930633545
1777560310232151000,22.327151123046875,0.49663305282592773,-0.13133592903614044,-0.8759800791740417
1777560310250681000,22.34568115234375,0.17531819641590118,1.6731586456298828,-2.433074474334717
1777560310269211000,22.3642109375,-0.2211330533027649,5.205178737640381,-3.417177677154541
1777560310287741000,22.382740966796874,-0.6493492722511292,5.293143272399902,-2.883281707763672
1777560310306271000,22.40127099609375,-0.8399390578269958,2.5045456886291504,-1.786779522895813
1777560310324801000,22.419801025390626,-0.20891575515270233,0.45326167345046997,-0.8008437156677246
1777560310343331000,22.4383310546875,0.4373791813850403,0.430659681558609,-1.5888593196868896
1777560310361860900,22.45686083984375,1.05496346950531,2.3231186866760254,-1.9822561740875244
1777560310380391000,22.475390869140625,1.5766420364379883,3.433670997619629,-1.758679747581482
1777560310398921000,22.4939208984375,1.4135410785675049,3.165501356124878,-1.9401065111160278
1777560310417450800,22.51245068359375,0.8008437156677246,1.8539745807647705,-1.9107850790023804
1777560310435980800,22.530980712890624,0.11911863088607788,0.1386663019657135,-1.2339468002319336
1777560310454510800,22.5495107421875,-0.4098902642726898,-0.6676751971244812,-1.0177006721496582
1777560310473040600,22.56804052734375,-0.3995055556297302,0.039706211537122726,-1.0671807527542114
1777560310491570700,22.58657080078125,-0.15577052533626556,1.3561197519302368,-1.0702351331710815
1777560310510100700,22.605100830078126,-0.10384701192378998,2.1416919231414795,-0.7507528066635132
1777560310528630800,22.623630859375,-0.16859868168830872,2.036623239517212,-0.6328558921813965
1777560310547160600,22.64216064453125,-0.3280344009399414,0.84177166223526,-1.008537769317627
1777560310565690600,22.660690673828125,-0.4575377106666565,-0.10506874322891235,-1.2486076354980469
1777560310584220700,22.679220703125,-0.535728394985199,0.21380266547203064,-1.1026109457015991
1777560310602750700,22.697750732421873,-0.46914416551589966,0.8680388331413269,-0.94439697265625
1777560310621280800,22.71628076171875,-0.2809978127479553,1.0415244102478027,-0.8643736839294434
1777560310639810600,22.734810546875,-0.15149445831775665,0.4917461574077606,-0.7544180154800415
1777560310658340600,22.753340576171876,-0.13683371245861053,-0.10445787757635117,-0.6206386089324951
1777560310676870700,22.77187060546875,-0.13927717506885529,0.06780599057674408,-0.4098902642726898
1777560310695400400,22.790400390625,-0.06230820715427399,0.6676751971244812,-0.22357651591300964
1777560310713930500,22.808930419921875,0.04153880476951599,0.9712749719619751,-0.2834412455558777
1777560310732460500,22.82746044921875,0.03237583488225937,0.5106829404830933,-0.3023780584335327
1777560310750990300,22.845990234375,-0.030543239787220955,0.06536252796649933,-0.09651663154363632
1777560310769520400,22.864520263671874,0.03237583488225937,0.28405213356018066,0.1282816082239151
1777560310788050400,22.883050537109376,0.10323614627122879,0.14721840620040894,0.4575377106666565
1777560310806580500,22.90158056640625,0.1233946830034256,-0.4990765154361725,0.7690787315368652
1777560310825110500,22.920110595703125,0.2559523284435272,-1.053741693496704,1.0800089836120605
1777560310843640300,22.938640380859376,0.3530798554420471,-1.508836030960083,1.6126830577850342
1777560310862170400,22.95717041015625,0.38301220536231995,-1.896124243736267,2.464839458465576
1777560310880700400,22.975700439453124,0.36285367608070374,-1.8258748054504395,3.143510103225708
1777560310899230500,22.99423046875,0.3481929302215576,-1.6707152128219604,3.3041675090789795
1777560310917760300,23.01276025390625,0.20769402384757996,-1.406821608543396,3.0109524726867676
1777560310936290300,23.031290283203123,-0.21868959069252014,-1.0769546031951904,2.6700899600982666
1777560310954820400,23.0498203125,-0.43921178579330444,-0.8930842876434326,2.475834846496582
1777560310973350100,23.06835009765625,-0.5198459029197693,-0.5516108870506287,2.51431941986084
1777560310991880200,23.086880126953126,-0.5082395076751709,-0.5571087002754211,2.5888450145721436
1777560311010410200,23.10541015625,-0.5137372612953186,-1.158199667930603,2.2809691429138184
1777560311028940300,23.123940185546875,-0.6371319890022278,-1.082452416419983,2.1190898418426514
1777560311047470000,23.142469970703125,-0.6493492722511292,-0.536339282989502,2.251647472381592
1777560311066000100,23.161000244140624,-0.3756818473339081,-0.6249146461486816,2.12580943107605
1777560311084530200,23.1795302734375,0.10629047453403473,-1.2632683515548706,1.8802417516708374
1777560311103060200,23.198060302734376,0.4068359434604645,-1.879020094871521,1.8985676765441895
1777560311121590000,23.216590087890626,0.4667007029056549,-2.3658792972564697,1.998138666152954
1777560311140120000,23.2351201171875,0.5021308660507202,-2.693302869796753,1.619402527809143
1777560311158650000,23.253650146484375,0.535728394985199,-2.056781768798828,1.0158681869506836
1777560311177180200,23.27218017578125,0.5900954008102417,-1.2192860841751099,0.24006985127925873
1777560311195710000,23.2907099609375,0.5564978122711182,-0.720820426940918,-0.4764745235443115
1777560311214240000,23.309239990234374,0.5583304166793823,-0.13439024984836578,-0.9456186890602112
1777560311232770000,23.32777001953125,0.6261364221572876,0.049480047076940536,-1.4208714962005615
1777560311251300000,23.346300048828127,0.7623592615127563,0.05070177838206291,-1.8185445070266724
1777560311269830000,23.364829833984373,0.8191696405410767,0.21135921776294708,-1.9511021375656128
1777560311288360000,23.38335986328125,0.6933315396308899,0.7055488228797913,-1.4752384424209595
1777560311306890000,23.401889892578126,0.23335035145282745,0.5369501113891602,-0.5088503360748291
1777560311325420000,23.420419921875,-0.3591884970664978,-0.11484257876873016,0.5094612240791321
1777560311343949800,23.43894970703125,-0.13072505593299866,-1.8350378274917603,1.22234046459198
1777560311362479900,23.45747998046875,0.3042106628417969,-2.3322818279266357,1.0769546031951904
1777560311381010000,23.476010009765623,0.23457208275794983,-2.1752893924713135,1.5008947849273682
1777560311399539700,23.494539794921874,0.13988803327083588,-2.290742874145508,1.2333359718322754
1777560311418069800,23.51306982421875,0.2968802750110626,-1.3469568490982056,0.001832594396546483
1777560311436599800,23.531599853515626,0.328645259141922,-0.03848448023200035,-1.0903936624526978
