time,seconds_elapsed,z,y,x
1777560288246385200,0.34138525390625,0.3402516841888428,-0.007635809946805239,-0.2897026240825653
1777560288264915000,0.3599150390625,0.3084867000579834,-0.07422006875276566,-0.25121814012527466
1777560288283445000,0.378445068359375,0.27366742491722107,-0.04245510324835777,-0.16447533667087555
1777560288311240000,0.406239990234375,0.2205221801996231,0.0717766135931015,-0.11621702462434769
1777560288348299500,0.443299560546875,0.06291907280683517,-0.08888082206249237,-0.07712167501449585
1777560288366829600,0.46182958984375,0.009162971749901772,-0.2110537886619568,-0.058795735239982605
1777560288385359600,0.480359619140625,-0.04520399495959282,-0.3643808364868164,-0.05757400393486023
1777560288403889400,0.498889404296875,-0.0616973415017128,-0.42974337935447693,0.0334448479115963
1777560288422419200,0.517419189453125,-0.01649334840476513,-0.38759371638298035,0.145843967795372
1777560288440949200,0.53594921875,0.06291907280683517,-0.3020726442337036,0.21975859999656677
1777560288459479300,0.554479248046875,0.16676609218120575,-0.2813032269477844,0.2228129357099533
1777560288478009000,0.573009033203125,0.24556763470172882,-0.35155269503593445,0.17516547441482544
1777560288496539000,0.591538818359375,0.29077163338661194,-0.5219839811325073,0.12140937149524689
1777560288515069000,0.61006884765625,0.24984370172023773,-0.6985238790512085,0.11896591633558273
1777560288533599000,0.628598876953125,0.15027274191379547,-0.7657189965248108,0.08536835014820099
1777560288552128800,0.647128662109375,0.05436696484684944,-0.6343830823898315,-0.06612611562013626
1777560288570658600,0.665658447265625,0.004886918235570192,-0.35705047845840454,-0.2438877671957016
1777560288589188600,0.684188720703125,-0.0360410213470459,-0.09071341902017593,-0.36422812938690186
1777560288607718400,0.702718505859375,-0.05436696484684944,0.08338304609060287,-0.4790706932544708
1777560288626248400,0.72124853515625,-0.06780599057674408,0.13530655205249786,-0.5639809370040894
1777560288644778200,0.7397783203125,-0.05253437161445618,-0.051618073135614395,-0.5621483325958252
1777560288663308300,0.758308349609375,-0.05742128938436508,-0.3039052188396454,-0.39110618829727173
1777560288681838000,0.776838134765625,-0.07880155742168427,-0.4969384968280792,-0.09850194305181503
1777560288700368100,0.7953681640625,-0.03298669680953026,-0.7455604672431946,0.16478078067302704
1777560288718898200,0.813898193359375,0.06597339361906052,-0.971580445766449,0.3364337682723999
1777560288737428000,0.832427978515625,0.09834922850131989,-0.9679152369499207,0.29367324709892273
1777560288755957800,0.850957763671875,0.10140355676412582,-0.7095194458961487,0.10430516302585602
1777560288774487800,0.86948779296875,0.13744457066059113,-0.3497200906276703,-0.06246092543005943
1777560288793017600,0.888017578125,0.16676609218120575,-0.11148282140493393,-0.2438877671957016
1777560288811547600,0.906547607421875,0.14782927930355072,-0.024740023538470268,-0.2909243404865265
1777560288830077400,0.925077392578125,0.1081230640411377,0.02779434807598591,-0.2689332067966461
1777560288848607500,0.943607421875,0.10384701192378998,0.08277218043804169,-0.2945895493030548
1777560288867137300,0.96213720703125,0.11362084746360779,0.1737910360097885,-0.46196648478507996
1777560288885667300,0.980667236328125,0.056810423731803894,0.526870846748352,-0.70753413438797
1777560288904197000,0.999197021484375,-0.034208428114652634,0.9453132748603821,-0.9695951342582703
1777560288922727000,1.017726806640625,-0.14477495849132538,1.3374884128570557,-1.1210895776748657
1777560288941257000,1.036257080078125,-0.1533270627260208,1.2861758470535278,-1.0697768926620483
1777560288959787000,1.054787109375,-0.056199558079242706,1.0613775253295898,-1.0233511924743652
1777560288978316800,1.07331689453125,0.13439024984836578,0.8561269640922546,-1.154076337814331
1777560288996846600,1.0918466796875,0.30482152104377747,0.7559451460838318,-1.1882847547531128
1777560289015376600,1.110376708984375,0.31154105067253113,0.7021890878677368,-1.0850485563278198
1777560289033906400,1.128906494140625,0.27977606654167175,0.5952877402305603,-0.9292780160903931
1777560289052436500,1.1474365234375,0.22907429933547974,0.6808087825775146,-0.8516982197761536
1777560289070966300,1.16596630859375,0.2528980076313019,0.8414662480354309,-0.8547525405883789
1777560289089496000,1.18449609375,0.27427828311920166,0.8176425099372864,-0.8901826739311218
1777560289108026000,1.203026123046875,0.3225366175174713,1.0112866163253784,-0.8504765033721924
1777560289126556200,1.22155615234375,0.3738492429256439,1.2977821826934814,-0.8901826739311218
1777560289145086000,1.2400859375,0.3897317349910736,1.4144574403762817,-0.8248201608657837
1777560289163615700,1.25861572265625,0.22846342623233795,1.17194402217865,-0.6012436747550964
1777560289182145800,1.277145751953125,0.10995566099882126,0.7241802215576172,-0.5590940117835999
1777560289200675600,1.295675537109375,0.10751219838857651,0.38270679116249084,-0.6128500699996948
1777560289219205600,1.31420556640625,0.11545344442129135,0.5006036758422852,-0.5609265565872192
1777560289237735400,1.3327353515625,0.13255766034126282,0.7351757884025574,-0.4650208055973053
1777560289256265500,1.351265380859375,0.11667517572641373,0.6624828577041626,-0.4350884258747101
1777560289274795300,1.369795166015625,0.05497783049941063,0.5506945848464966,-0.4124864339828491
1777560289293325000,1.388324951171875,0.03176496922969818,0.5030471682548523,-0.40637779235839844
1777560289311855000,1.406855224609375,0,0.5115992426872253,-0.3923279047012329
1777560289330385200,1.42538525390625,-0.008552107028663158,0.685084879398346,-0.41004297137260437
1777560289348915000,1.4439150390625,-0.023823726922273636,0.7394518256187439,-0.44241881370544434
1777560289367444700,1.46244482421875,-0.03909534588456154,0.7064651250839233,-0.4454731345176697
1777560289385974800,1.480974853515625,-0.08674279600381851,0.6997455954551697,-0.3733910918235779
1777560289404504600,1.499504638671875,-0.14049890637397766,0.6453786492347717,-0.295811265707016
1777560289423034600,1.51803466796875,-0.18692462146282196,0.5476402640342712,-0.27198755741119385
1777560289441564400,1.536564453125,-0.2101374864578247,0.537255585193634,-0.24205516278743744
1777560289460094200,1.55509423828125,-0.19364413619041443,0.6026180982589722,-0.25182899832725525
1777560289478624300,1.573624267578125,-0.14599667489528656,0.6435460448265076,-0.304974228143692
1777560289497154000,1.592154052734375,-0.0977383628487587,0.7382301092147827,-0.33429574966430664
1777560289515684000,1.61068408203125,-0.0818558782339096,0.898276686668396,-0.3092502951622009
1777560289534214000,1.6292138671875,-0.08857539296150208,0.9544762372970581,-0.23655737936496735
1777560289552744000,1.647743896484375,-0.09834922850131989,0.7199041247367859,-0.26710063219070435
1777560289571273700,1.666273681640625,-0.14477495849132538,0.4566214084625244,-0.2689332067966461
1777560289589803800,1.6848037109375,-0.16859868168830872,0.40347617864608765,-0.23533566296100616
1777560289608333600,1.70333349609375,-0.13744457066059113,0.4260781705379486,-0.23044873774051666
1777560289626863400,1.72186328125,-0.16615521907806396,0.3430005609989166,-0.19379685819149017
1777560289645393400,1.740393310546875,-0.22663083672523499,0.15668681263923645,-0.10949750989675522
1777560289663923200,1.758923095703125,-0.22296564280986786,-0.11881320178508759,0.09880737960338593
1777560289682453200,1.777453369140625,-0.20952661335468292,-0.4370737373828888,0.3559814393520355
1777560289700983000,1.795983154296875,-0.11667517572641373,-0.5598575472831726,0.5789470672607422
1777560289719512800,1.814512939453125,0.030543239787220955,-0.5806269645690918,0.8294016718864441
1777560289738043000,1.83304296875,0.1484401375055313,-0.7205150127410889,1.0975712537765503
1777560289756572700,1.85157275390625,0.13622283935546875,-1.079703450202942,1.346804141998291
1777560289775102700,1.870102783203125,-0.017715077847242355,-1.5775582790374756,1.7805181741714478
1777560289793632500,1.888632568359375,-0.1386663019657135,-2.165210247039795,2.4274239540100098
1777560289812162600,1.90716259765625,-0.18325942754745483,-2.335641384124756,2.8996224403381348
1777560289830692400,1.9256923828125,-0.16310089826583862,-1.9465205669403076,2.9161157608032227
1777560289849222400,1.944222412109375,-0.047036588191986084,-0.9862411618232727,2.523329734802246
1777560289867752200,1.962752197265625,-0.017715077847242355,-0.1695149689912796,2.209956169128418
1777560289886282200,1.9812822265625,-0.07391463965177536,0.2055560052394867,1.9845468997955322
1777560289904812000,1.99981201171875,-0.006719512399286032,0.0412333719432354,1.7890702486038208
1777560289923341800,2.018341796875,-0.09285144507884979,-0.45539969205856323,1.6571234464645386
1777560289941871900,2.036871826171875,-0.2107483446598053,-1.1114684343338013,1.3712387084960938
1777560289960401700,2.055401611328125,-0.1802051067352295,-1.2287545204162598,1.1812597513198853
1777560289978931700,2.073931640625,0.07147117704153061,-0.8854485154151917,1.5361721515655518
1777560289997461500,2.09246142578125,0.31520622968673706,-0.7376192212104797,1.8886412382125854
1777560290015991300,2.1109912109375,0.4153880476951599,-1.1493420600891113,1.726762056350708
1777560290034521300,2.129521240234375,0.42088583111763,-1.6154319047927856,1.4897464513778687
1777560290053051100,2.148051025390625,0.3591884970664978,-2.1169519424438477,1.3058761358261108
1777560290071581200,2.166581298828125,0.34208428859710693,-2.1273365020751953,1.1647664308547974
1777560290090111000,2.185111083984375,0.31031930446624756,-1.6997312307357788,0.9124792814254761
1777560290108641000,2.20364111328125,0.26939135789871216,-1.1615593433380127,0.5978838801383972
1777560290127170800,2.2221708984375,0.23396120965480804,-0.7229584455490112,0.2185368686914444
1777560290145700900,2.240700927734375,0.21502439677715302,-0.5262600183486938,-0.2176205813884735
1777560290164230700,2.259230712890625,0.21441353857517242,-0.16279546916484833,-0.6635518670082092
1777560290182760400,2.277760498046875,0.2254091054201126,0.18600831925868988,-0.9592103958129883
1777560290201290500,2.29629052734375,0.23762640357017517,0.35582873225212097,-1.0569487810134888
1777560290219820300,2.3148203125,0.185092031955719,0.4663952589035034,-0.9787580966949463
1777560290238350300,2.333350341796875,0.11362084746360779,0.3295615613460541,-0.7154753804206848
1777560290256880000,2.351880126953125,0.16615521907806396,-0.11087195575237274,-0.31230461597442627
1777560290275410000,2.370409912109375,0.3964512348175049,-0.6478220820426941,0.24236060678958893
1777560290293940000,2.38893994140625,0.6096430420875549,-1.0375537872314453,0.754265308380127
1777560290312469800,2.4074697265625,0.5406153202056885,-0.7870992422103882,0.9112575054168701
1777560290330999800,2.425999755859375,0.389120876789093,-0.5122101306915283,0.9552397727966309
1777560290349529600,2.444529541015625,0.2309068888425827,-0.907439649105072,0.9405790567398071
1777560290368059600,2.4630595703125,0.020769402384757996,-1.4480549097061157,0.5648971796035767
1777560290386589400,2.48158935546875,-0.18264856934547424,-1.4120138883590698,-0.025809036567807198
1777560290405119500,2.500119384765625,-0.27550002932548523,-0.8524618148803711,-0.5609265565872192
1777560290423649300,2.518649169921875,-0.3170388340950012,-0.11881320178508759,-0.8541416525840759
1777560290442179000,2.537178955078125,-0.3995055556297302,0.989906370639801,-0.5456549525260925
1777560290460709000,2.555709228515625,-0.34086254239082336,0.9917389750480652,-0.15592323243618011
1777560290479239000,2.574239013671875,-0.043371398001909256,1.1242966651916504,-0.5841394662857056
1777560290497769000,2.59276904296875,0.1802051067352295,2.512181520462036,-1.2078323364257812
1777560290516298800,2.611298828125,0.3402516841888428,2.4565927982330322,-1.5383102893829346
1777560290534828800,2.629828857421875,-0.09346231073141098,1.7724241018295288,-1.8431317806243896
1777560290553358600,2.648358642578125,-0.6352993845939636,2.8322744369506836,-2.4240641593933105
1777560290571888600,2.666888671875,-0.7709113359451294,3.249495267868042,-2.397186040878296
1777560290590418400,2.68541845703125,-0.5351175665855408,1.8182389736175537,-1.6238312721252441
1777560290608948200,2.7039482421875,-0.1386663019657135,0.29046618938446045,-0.9885319471359253
1777560290627478300,2.722478271484375,0.23212862014770508,-0.18417572975158691,-1.0624465942382812
1777560290646008000,2.741008056640625,0.657290518283844,0.5989528894424438,-1.1455241441726685
1777560290664538000,2.7595380859375,0.9413426518440247,1.1695005893707275,-1.4069743156433105
1777560290683068000,2.77806787109375,0.8265000581741333,1.2525782585144043,-1.616500973701477
1777560290701598000,2.796597900390625,0.39767298102378845,0.5971203446388245,-1.596953272819519
1777560290720127700,2.815127685546875,-0.07147117704153061,0.2556469142436981,-1.253036379814148
1777560290738657500,2.833657470703125,-0.23457208275794983,0.4053087830543518,-1.1827869415283203
1777560290757187600,2.8521875,-0.07635809481143951,0.4841103255748749,-1.1033744812011719
1777560290775717600,2.870717529296875,0.02260199747979641,0.6875283122062683,-1.0600031614303589
1777560290794247400,2.889247314453125,-0.002443459117785096,0.8616247773170471,-0.9604321718215942
1777560290812777200,2.907777099609375,-0.01282816007733345,0.9049961566925049,-0.7942769527435303
1777560290831307300,2.926307373046875,-0.09590577334165573,0.9190460443496704,-0.6757691502571106
1777560290849837000,2.944837158203125,-0.1747073233127594,0.732121467590332,-0.6562215089797974
1777560290868367000,2.9633671875,-0.23029601573944092,0.4175260663032532,-0.7484620809555054
1777560290886897000,2.98189697265625,-0.3433060050010681,0.21960589289665222,-0.8743002414703369
1777560290905426700,3.0004267578125,-0.3543015718460083,0.19150610268115997,-0.9402735829353333
1777560290923956700,3.018956787109375,-0.3194822669029236,0.4584540128707886,-0.8571959733963013
1777560290942486800,3.03748681640625,-0.2412915825843811,0.684473991394043,-0.6617192625999451
1777560290961016600,3.0560166015625,-0.16065743565559387,0.536644697189331,-0.5584831237792969
1777560290979546400,3.07454638671875,-0.12767073512077332,0.2935205399990082,-0.549930989742279
1777560290998076400,3.093076416015625,-0.1282816082239151,0.30085089802742004,-0.44241881370544434
1777560291016606200,3.111606201171875,-0.1178968995809555,0.7003564834594727,-0.32818710803985596
1777560291035136300,3.13013623046875,-0.02626718580722809,0.804814338684082,-0.4124864339828491
1777560291053666000,3.148666015625,-0.11545344442129135,0.20127993822097778,-0.43203410506248474
1777560291072196000,3.167196044921875,-0.15577052533626556,0.08826996386051178,-0.1516471803188324
1777560291090726000,3.185725830078125,-0.15699224174022675,0.12064579129219055,0.13240493834018707
1777560291109256000,3.204255859375,-0.1130099818110466,-0.16340632736682892,0.45188722014427185
1777560291137050600,3.232050537109375,0.0513126403093338,-1.0595449209213257,0.966846227645874
1777560291155580700,3.25058056640625,0.21502439677715302,-1.469435214996338,1.3474149703979492
1777560291174110500,3.2691103515625,0.38240134716033936,-1.8182389736175537,1.8391611576080322
1777560291192640500,3.287640625,0.3958403766155243,-2.1719298362731934,2.4133739471435547
1777560291211170300,3.30617041015625,0.3610210716724396,-2.067471742630005,2.8061599731445312
1777560291229700400,3.324700439453125,0.22296564280986786,-2.0467023849487305,2.8953464031219482
1777560291248230100,3.343230224609375,-0.031154103577136993,-1.6514729261398315,2.7108652591705322
1777560291266760000,3.361760009765625,-0.3066541254520416,-0.9581413865089417,2.508668899536133
1777560291285290000,3.3802900390625,-0.4880809485912323,-0.3863719701766968,2.4958407878875732
1777560291303819800,3.39881982421875,-0.4098902642726898,0.15118902921676636,2.574031352996826
1777560291322349800,3.417349853515625,-0.2932150959968567,0.2782489061355591,2.466519355773926
1777560291340879600,3.435879638671875,-0.29016077518463135,-0.4199695289134979,1.8587088584899902
1777560291359409700,3.45440966796875,-0.23273947834968567,-1.2037090063095093,1.3480257987976074
1777560291387204600,3.48220458984375,0.17715078592300415,-0.6246092319488525,1.8709261417388916
1777560291405734400,3.500734375,0.4251618981361389,-0.8121446967124939,1.98515784740448
1777560291424264200,3.51926416015625,0.5308414697647095,-1.6594141721725464,1.7957897186279297
1777560291442794200,3.537794189453125,0.6181951761245728,-2.15421462059021,1.6284128427505493
1777560291461324000,3.556323974609375,0.7385355234146118,-2.427881956100464,1.1714859008789062
1777560291479854000,3.57485400390625,0.7715222239494324,-2.163377523422241,0.5905535221099854
1777560291498384000,3.5933837890625,0.7159335017204285,-1.4382811784744263,0.024892739951610565
1777560291516914000,3.611913818359375,0.6359102129936218,-0.9080504775047302,-0.4277580678462982
1777560291535443700,3.630443603515625,0.6200277805328369,-0.4456258714199066,-0.7631227970123291
1777560291553973800,3.648973876953125,0.6328558921813965,-0.1127045527100563,-1.1675152778625488
1777560291572503600,3.667503662109375,0.5595521330833435,-0.0870482325553894,-1.5004366636276245
1777560291591033300,3.686033447265625,0.48563748598098755,-0.024740023538470268,-1.5358667373657227
1777560291609563400,3.7045634765625,0.411722868680954,0.17195843160152435,-1.317788004875183
1777560291637358300,3.7323583984375,0.06475166976451874,-0.4474584460258484,-0.20723587274551392
1777560291655888100,3.75088818359375,0.004886918235570192,-1.0687079429626465,1.337030291557312
1777560291674418200,3.769418212890625,0.2052505612373352,-1.1603376865386963,1.5929826498031616
1777560291692948000,3.787947998046875,0.35613417625427246,-1.6869031190872192,1.6461278200149536
1777560291711478000,3.80647802734375,0.17776164412498474,-2.888474225997925,1.6369649171829224
1777560291730007800,3.8250078125,0.34697118401527405,-3.276984214782715,0.7475457787513733
1777560291748537900,3.843537841796875,0.2675587832927704,-1.3258819580078125,-0.5004509687423706
1777560291767067600,3.862067626953125,0.1533270627260208,0.7394518256187439,-1.0826051235198975
1777560291785597700,3.88059765625,-0.34697118401527405,2.5836524963378906,-1.1766782999038696
1777560291804127500,3.89912744140625,-0.5968148708343506,3.0808966159820557,-0.44608399271965027
1777560291822657500,3.917657470703125,0.2467893660068512,1.4327833652496338,-0.25549420714378357
1777560291841187300,3.936187255859375,0.1496618688106537,-0.08155044913291931,-0.60490882396698
1777560291859717000,3.954717041015625,-0.08124501258134842,0.10415244847536087,-1.466839075088501
1777560291878247200,3.9732470703125,-0.5797106623649597,3.7992734909057617,-2.8516695499420166
1777560291896777200,3.991777099609375,-0.896138608455658,5.52741003036499,-3.2279622554779053
1777560291915307000,4.01030712890625,-1.0305289030075073,3.495062828063965,-2.4411683082580566
1777560291933836800,4.0288369140625,-0.5510000586509705,0.5293143391609192,-1.1950042247772217
1777560291952366800,4.047366943359375,0.050090912729501724,-0.4877755343914032,-1.4564543962478638
1777560291970896600,4.065896728515625,0.6017017960548401,1.5402956008911133,-1.8461860418319702
1777560291989426700,4.0844267578125,1.2742639780044556,2.860985279083252,-1.725234866142273
1777560292007956500,4.10295654296875,1.293811559677124,2.964221239089966,-1.778380036354065
1777560292026486500,4.121486572265625,0.9138537049293518,2.1383321285247803,-1.816253662109375
1777560292045016300,4.140016357421875,0.2883281707763672,0.6575959324836731,-1.521206021308899
1777560292063546400,4.15854638671875,-0.3139844834804535,0.0717766135931015,-1.1143701076507568
1777560292082076200,4.177076171875,-0.42088583111763,0.43951719999313354,-1.0123556852340698
1777560292100606200,4.195606201171875,-0.26878049969673157,1.0619884729385376,-0.8859066367149353
1777560292119136000,4.214135986328125,-0.1185077652335167,1.868940830230713,-0.7032580971717834
1777560292137666000,4.232666015625,0.06230820715427399,2.2226314544677734,-0.7405208349227905
1777560292156195800,4.25119580078125,-0.13500112295150757,1.4902045726776123,-1.0099122524261475
1777560292174726000,4.269725830078125,-0.481361448764801,0.4199695289134979,-1.2261583805084229
1777560292193255700,4.288255615234375,-0.6432406306266785,0.4938841760158539,-1.1449133157730103
1777560292211785700,4.30678564453125,-0.6169734001159668,0.9556979537010193,-0.920115053653717
1777560292230315500,4.3253154296875,-0.5137372612953186,0.9056070446968079,-0.8571959733963013
1777560292248845600,4.343845458984375,-0.4251618981361389,0.4260781705379486,-0.873078465461731
1777560292267375400,4.362375244140625,-0.29565855860710144,0.05833758786320686,-0.74540776014328
1777560292285905400,4.380905517578125,-0.0818558782339096,0.2605338394641876,-0.5590940117835999
1777560292304435200,4.399435302734375,-0.017715077847242355,0.6349939107894897,-0.39416050910949707
1777560292322965200,4.41796533203125,-0.07941242307424545,0.46944957971572876,-0.3672824501991272
1777560292341495000,4.4364951171875,-0.12950333952903748,0.14752385020256042,-0.33979353308677673
1777560292360025000,4.455025146484375,-0.11667517572641373,0.13530655205249786,-0.10155627131462097
1777560292378555000,4.473554931640625,-0.0665842592716217,0.05711585655808449,0.1104138121008873
1777560292397085000,4.4920849609375,0.03298669680953026,-0.39370235800743103,0.5062541961669922
1777560292415614700,4.51061474609375,0.1844811588525772,-0.8408553600311279,0.9943351149559021
1777560292434144800,4.529144775390625,0.3549124300479889,-1.2244784832000732,1.5257874727249146
1777560292452674600,4.547674560546875,0.4868592321872711,-1.5128066539764404,2.1054980754852295
1777560292471204600,4.56620458984375,0.3799578845500946,-1.6447534561157227,2.7206389904022217
1777560292489734400,4.584734375,0.24495677649974823,-1.6490294933319092,3.011410713195801
1777560292508264400,4.603264404296875,-0.011606430634856224,-1.6588033437728882,2.881296396255493
1777560292526794200,4.621794189453125,-0.21197007596492767,-1.2147046327590942,2.486677885055542
1777560292545324300,4.64032421875,-0.30543237924575806,-0.7620537877082825,2.3150248527526855
1777560292563854000,4.65885400390625,-0.3494146466255188,-0.5464185476303101,2.4567453861236572
1777560292582383900,4.6773837890625,-0.38179048895835876,-0.6985238790512085,2.6332852840423584
1777560292600914000,4.695913818359375,-0.36651885509490967,-0.7339540123939514,2.620457172393799
1777560292619444000,4.71444384765625,-0.30115634202957153,-0.8213077187538147,2.343735456466675
1777560292637973800,4.732973876953125,-0.3237583339214325,-1.1603376865386963,1.891695499420166
1777560292656503800,4.75150390625,-0.29565855860710144,-1.1444551944732666,1.6858340501785278
1777560292675033600,4.77003369140625,-0.06841685622930527,-1.1328487396240234,1.652847409248352
1777560292693563600,4.788563720703125,0.2419024556875229,-1.3417644500732422,1.6229150295257568
1777560292712093700,4.80709375,0.5381718873977661,-1.637423038482666,1.5502220392227173
1777560292730623500,4.82562353515625,0.7922916412353516,-2.101069450378418,1.4243839979171753
1777560292749153300,4.8441533203125,0.850934624671936,-2.1890339851379395,1.0908517837524414
1777560292767683300,4.862683349609375,0.7354812026023865,-1.8151847124099731,0.7066178321838379
1777560292786213400,4.88121337890625,0.6560688018798828,-1.2318087816238403,0.35475972294807434
1777560292804743200,4.8997431640625,0.6407971382141113,-0.8628464937210083,-0.04108065739274025
1777560292823273000,4.91827294921875,0.6004800796508789,-0.6588176488876343,-0.5542070865631104
1777560292841803000,4.936802978515625,0.5229002237319946,-0.5195404887199402,-1.0202969312667847
1777560292860333000,4.9553330078125,0.46059203147888184,-0.25442516803741455,-1.3000729084014893
1777560292878862800,4.97386279296875,0.48441576957702637,-0.02718348242342472,-1.308014154434204
1777560292897392600,4.992392578125,0.5393936038017273,0.19761475920677185,-1.0997092723846436
1777560292915922700,5.010922607421875,0.4355465769767761,-0.12186752259731293,-0.6067414283752441
1777560292934452700,5.02945263671875,0.14721840620040894,-0.7877101302146912,0.33948808908462524
1777560292952982500,5.047982421875,0.0977383628487587,-1.017395257949829,1.3687952756881714
1777560292971512600,5.0665126953125,0.3530798554420471,-1.1921026706695557,1.419497013092041
1777560292990042400,5.08504248046875,0.4367683231830597,-1.5207479000091553,1.4873030185699463
1777560293008572400,5.103572509765625,0.2632827162742615,-1.9428554773330688,1.198974847793579
1777560293027102200,5.122102294921875,0.2968802750110626,-2.1468842029571533,0.24785839021205902
1777560293045632300,5.14063232421875,0.32070401310920715,-1.653916358947754,-0.6971494555473328
1777560293064162300,5.159162353515625,-0.09834922850131989,-0.38331764936447144,-0.921336829662323
1777560293082692000,5.177692138671875,-0.768467903137207,1.2159262895584106,-0.521831214427948
1777560293101222000,5.196221923828125,-1.221118688583374,0.9966259002685547,-0.4143190383911133
1777560293119752000,5.214751953125,-0.06536252796649933,0.6704241037368774,-0.10583232343196869
1777560293138282000,5.233281982421875,0.3439168632030487,0.41813695430755615,-0.3819431960582733
1777560293156811800,5.251811767578125,0.34574946761131287,0.23854269087314606,-1.2481495141983032
1777560293175341800,5.270341796875,-0.056199558079242706,2.634965181350708,-2.556621789932251
1777560293193871600,5.28887158203125,-0.471587598323822,5.477930068969727,-3.3159267902374268
1777560293212401700,5.307401611328125,-0.8069523572921753,5.245190620422363,-3.1308348178863525
1777560293230931700,5.325931640625,-0.748920202255249,2.7223188877105713,-2.118021011352539
1777560293249461500,5.34446142578125,0.01893680728971958,0.05894844979047775,-1.1601849794387817
1777560293267991300,5.3629912109375,0.2669478952884674,0.639270007610321,-1.4784455299377441
1777560293286521300,5.381521240234375,0.9388991594314575,2.442542791366577,-1.5920662879943848
1777560293305051400,5.400051513671875,1.3927717208862305,3.24399733543396,-1.5291472673416138
1777560293323581200,5.418581298828125,1.2895355224609375,3.442528486251831,-1.6024510860443115
1777560293342111200,5.437111328125,0.851545512676239,2.609308958053589,-1.6555962562561035
1777560293360641000,5.45564111328125,0.20647229254245758,1.138346552848816,-1.3122903108596802
1777560293379171000,5.474171142578125,-0.23762640357017517,0.23426663875579834,-0.9921970963478088
1777560293397700900,5.492700927734375,-0.2156352698802948,0.602007269859314,-1.0404554605484009
1777560293416231000,5.51123095703125,0.014660755172371864,1.6154319047927856,-0.9720385670661926
1777560293434761000,5.529760986328125,0.12705987691879272,2.3295328617095947,-0.7130318880081177
1777560293453290800,5.548290771484375,0.017104214057326317,2.070526123046875,-0.5535961985588074
1777560293471820500,5.566820556640625,-0.24373504519462585,1.0247256755828857,-0.7130318880081177
1777560293490350600,5.5853505859375,-0.39339691400527954,0.39309149980545044,-0.9702059626579285
1777560293508880600,5.603880615234375,-0.45020735263824463,0.3955349326133728,-1.0038034915924072
1777560293527410400,5.622410400390625,-0.44959646463394165,0.6954695582389832,-0.9647082090377808
1777560293545940500,5.6409404296875,-0.4257727563381195,0.7583886384963989,-0.930499792098999
1777560293564470300,5.65947021484375,-0.379347026348114,0.6062833070755005,-0.9359975457191467
1777560293583000300,5.678000244140625,-0.32559093832969666,0.37843072414398193,-0.8779653906822205
1777560293601530400,5.6965302734375,-0.2919933497905731,0.3032943606376648,-0.6641627550125122
1777560293620060200,5.71506005859375,-0.18387030065059662,0.4834994673728943,-0.4894554018974304
1777560293638590200,5.733590087890625,-0.053756099194288254,0.6801979541778564,-0.37583455443382263
1777560293657120000,5.7521201171875,0.01649334840476513,0.8029817342758179,-0.3862192630767822
1777560293675650000,5.770650146484375,0.028099779039621353,0.4425715208053589,-0.49861836433410645
1777560293694179800,5.789179931640625,-0.08979712426662445,0.05100720748305321,-0.5114465355873108
1777560293712710000,5.8077099609375,-0.09407317638397217,0.2208276242017746,-0.28725916147232056
1777560293731240000,5.826239990234375,-0.12217295914888382,0.3277289569377899,0.002290742937475443
1777560293749769700,5.844769775390625,-0.037262752652168274,-0.04428769648075104,0.3119991719722748
1777560293768299500,5.863299560546875,0.06902772188186646,-0.528092622756958,0.6180424690246582
1777560293786829600,5.88182958984375,0.18875721096992493,-0.9746347665786743,0.9253074526786804
1777560293805359600,5.900359619140625,0.389120876789093,-1.1768310070037842,1.4323252439498901
1777560293823889400,5.918889404296875,0.4221075773239136,-1.4480549097061157,2.067624568939209
1777560293842419500,5.93741943359375,0.3494146466255188,-1.7534873485565186,2.623511552810669
1777560293860949200,5.95594921875,0.27366742491722107,-1.5781691074371338,2.9741477966308594
1777560293879479300,5.974479248046875,0.1178968995809555,-1.5512911081314087,3.0211844444274902
1777560293898009000,5.993009033203125,-0.0720820426940918,-1.2990039587020874,2.606407403945923
1777560293916539100,6.0115390625,-0.2828303873538971,-0.9221003651618958,2.302807569503784
1777560293935069200,6.030069091796875,-0.3970620930194855,-0.8542944192886353,2.358396291732788
1777560293953599000,6.048598876953125,-0.3689623177051544,-0.8451313972473145,2.4219260215759277
1777560293972129000,6.06712890625,-0.32131487131118774,-1.128572702407837,2.2582144737243652
1777560293990658800,6.085658935546875,-0.32192572951316833,-1.6502511501312256,1.8715369701385498
1777560294009188900,6.10418896484375,-0.4520399272441864,-1.4101812839508057,1.881921648979187
1777560294027718700,6.12271875,-0.5088503360748291,-0.9648609161376953,2.1000003814697266
1777560294046248700,6.141248779296875,-0.3280344009399414,-0.9404263496398926,2.014479398727417
1777560294064778800,6.15977880859375,0.040317077189683914,-1.118798851966858,1.828776478767395
1777560294083308500,6.17830859375,0.370184063911438,-1.500589370727539,1.7524182796478271
1777560294101838600,6.196838623046875,0.573602020740509,-2.1218388080596924,1.5373939275741577
1777560294120368400,6.215368408203125,0.5986474752426147,-2.218355417251587,1.2844959497451782
1777560294138898400,6.2338984375,0.4984656572341919,-1.8322888612747192,0.9851721525192261
1777560294157428500,6.252428466796875,0.4776962697505951,-1.2238675355911255,0.5789470672607422
1777560294175958300,6.270958251953125,0.462424635887146,-0.9630283117294312,0.14034618437290192
1777560294194488300,6.28948828125,0.5161807537078857,-0.7480039000511169,-0.3831649422645569
1777560294213018000,6.30801806640625,0.5748237371444702,-0.4224129915237427,-1.004414439201355
1777560294231548200,6.326548095703125,0.5418370366096497,-0.035735588520765305,-1.4362958669662476
1777560294250078000,6.345077880859375,0.47586366534233093,0.30634868144989014,-1.5053235292434692
1777560294268608000,6.36360791015625,0.33231043815612793,0.5409207344055176,-1.1650718450546265
1777560294287138000,6.382137939453125,0.16065743565559387,0.1383608728647232,-0.42042768001556396
1777560294305667800,6.400667724609375,-0.1282816082239151,-0.8261946439743042,0.5636754631996155
1777560294324198000,6.419197998046875,-0.09896009415388107,-1.5567889213562012,1.4219404458999634
1777560294342727700,6.437727783203125,0.3084867000579834,-1.4199551343917847,1.3107631206512451
1777560294361257700,6.4562578125,0.45020735263824463,-1.0357211828231812,1.1953096389770508
1777560294379787500,6.47478759765625,0.40317076444625854,-1.3271037340164185,0.9491311311721802
1777560294398317600,6.493317626953125,0.4355465769767761,-1.728441834449768,0.3205513060092926
1777560294416847600,6.51184765625,0.4043924808502197,-1.7712024450302124,-0.3831649422645569
1777560294435377400,6.53037744140625,0.35613417625427246,-0.7058542370796204,-0.7765618562698364
1777560294453907500,6.548907470703125,0.18142683804035187,0.703410804271698,-0.7179188132286072
1777560294472437200,6.567437255859375,-0.22785256803035736,0.9935715794563293,-0.4247037470340729
1777560294490967300,6.58596728515625,-0.5039634704589844,0.25442516803741455,-0.41004297137260437
1777560294509497300,6.604497314453125,0.0616973415017128,1.7803653478622437,-0.3452913165092468
1777560294528027100,6.623027099609375,0.46547895669937134,1.691789984703064,-0.6281217336654663
1777560294546557200,6.64155712890625,0.38667741417884827,0.42913252115249634,-1.2756383419036865
1777560294565087000,6.6600869140625,-0.2309068888425827,1.8237367868423462,-2.512028694152832
1777560294583617000,6.678616943359375,-0.7892373204231262,5.376526355743408,-3.508960008621216
1777560294602146800,6.697146728515625,-1.1887428760528564,5.12362813949585,-3.260338068008423
1777560294620676900,6.7156767578125,-1.145371437072754,2.374736785888672,-1.7472259998321533
1777560294639207000,6.73420703125,-0.18753549456596375,-0.5335903763771057,-0.7252492308616638
1777560294657736700,6.75273681640625,0.19914191961288452,0.231212317943573,-1.5535818338394165
1777560294676266800,6.771266845703125,1.0396918058395386,2.023489475250244,-1.7563889026641846
1777560294694796500,6.789796630859375,1.4269801378250122,2.8848090171813965,-1.6641483306884766
1777560294713326600,6.80832666015625,1.2205078601837158,2.63740873336792,-1.669646143913269
1777560294731856400,6.8268564453125,0.6352993845939636,1.385746717453003,-1.6885830163955688
1777560294750386400,6.845386474609375,0.10567960888147354,0.22815799713134766,-1.4057525396347046
1777560294768916500,6.86391650390625,-0.2156352698802948,-0.3912588953971863,-1.3055707216262817
1777560294787446300,6.8824462890625,-0.22907429933547974,0.1737910360097885,-1.4069743156433105
1777560294805976300,6.900976318359375,-0.05925388261675835,1.0870338678359985,-1.0557270050048828
1777560294824506000,6.919506103515625,-0.013439024798572063,1.6814053058624268,-0.8272636532783508
1777560294843036200,6.9380361328125,0.009773836471140385,1.7351614236831665,-0.6776017546653748
1777560294861566000,6.95656591796875,-0.17837251722812653,1.0210604667663574,-0.8290961980819702
1777560294880096000,6.975095947265625,-0.43493571877479553,-0.032070402055978775,-1.1479676961898804
1777560294898626000,6.9936259765625,-0.5027416944503784,-0.10048725455999374,-1.177899956703186
1777560294917155800,7.01215576171875,-0.4196641147136688,0.5891790986061096,-1.0343468189239502
1777560294935686000,7.030685791015625,-0.29565855860710144,1.0149518251419067,-0.8669698238372803
1777560294954215700,7.049215576171875,-0.235793799161911,0.8078686594963074,-0.7673988938331604
1777560294972745700,7.067745849609375,-0.2608392536640167,0.13775001466274261,-0.7057015299797058
1777560294991275800,7.08627587890625,-0.30482152104377747,0.0565049909055233,-0.6446150541305542
1777560295009805600,7.1048056640625,-0.2608392536640167,0.32589635252952576,-0.48884454369544983
1777560295028335600,7.123335693359375,-0.1282816082239151,0.6209440231323242,-0.5138899683952332
1777560295046865400,7.141865478515625,-0.12034036219120026,0.21471896767616272,-0.4961749315261841
1777560295065395500,7.1603955078125,-0.12095122784376144,0.21349723637104034,-0.16081015765666962
1777560295083925200,7.17892529296875,-0.07819069176912308,0.6276635527610779,0.3052796721458435
1777560295102455300,7.197455322265625,0.0054977829568088055,0.26542073488235474,0.7371610999107361
1777560295120985300,7.2159853515625,0.10995566099882126,-0.61117023229599,1.1818705797195435
1777560295139515100,7.23451513671875,0.19425499439239502,-1.1896591186523438,1.6864449977874756
1777560295158045200,7.253045166015625,0.37812530994415283,-1.8438953161239624,2.385885000228882
1777560295176575000,7.271574951171875,0.5155698657035828,-2.3741259574890137,2.982089042663574
1777560295195105000,7.29010498046875,0.5412262082099915,-1.953240156173706,3.213606834411621
1777560295213634800,7.308634765625,0.5253437161445618,-1.3295471668243408,3.2936301231384277
1777560295232164900,7.327164794921875,0.15027274191379547,-1.1181880235671997,2.9961390495300293
1777560295250695000,7.34569482421875,-0.3799578845500946,-1.444389820098877,2.5306601524353027
1777560295269224700,7.364224609375,-0.6096430420875549,-1.8493931293487549,2.33579421043396
1777560295287754800,7.382754638671875,-0.5094612240791321,-1.2990039587020874,2.489121198654175
1777560295306284500,7.401284423828125,-0.4050033390522003,-1.3729186058044434,2.4707953929901123
1777560295324814600,7.419814697265625,-0.4923570156097412,-1.3808598518371582,2.336405038833618
1777560295343344600,7.4383447265625,-0.5192350745201111,-0.6343830823898315,2.450636863708496
1777560295361874400,7.45687451171875,-0.10140355676412582,-0.9367611408233643,2.2789838314056396
1777560295380404500,7.475404541015625,0.347582072019577,-1.4077378511428833,1.9503384828567505
1777560295398934500,7.4939345703125,0.627968966960907,-1.8200715780258179,1.8825324773788452
1777560295417464300,7.51246435546875,0.6939423680305481,-2.3399174213409424,1.9033019542694092
1777560295435994000,7.530994140625,0.794124186038971,-2.868926525115967,1.772576928138733
1777560295454524200,7.549524169921875,0.8045089244842529,-2.780351161956787,1.281441569328308
1777560295473054200,7.56805419921875,0.8356630206108093,-2.082132577896118,0.5166388750076294
1777560295491584000,7.586583984375,0.8778126835823059,-1.0858120918273926,-0.29153522849082947
1777560295510114000,7.605114013671875,0.8558215498924255,-0.4725039005279541,-0.9280562996864319
1777560295528644000,7.62364404296875,0.8051197528839111,-0.16157373785972595,-1.450345754623413
1777560295547174000,7.642173828125,0.80389803647995,0.10598503798246384,-1.9775220155715942
1777560295565703700,7.66070361328125,0.7617483735084534,0.5775726437568665,-2.092364549636841
1777560295584233700,7.679233642578125,0.5583304166793823,0.9752455949783325,-1.5383102893829346
1777560295602763800,7.697763671875,-0.01588248461484909,0.5213730931282043,-0.42592546343803406
1777560295621293600,7.71629345703125,-0.43860089778900146,-0.250149130821228,1.1055124998092651
1777560295639823600,7.73482373046875,-0.08307760953903198,-1.6331470012664795,1.4170535802841187
1777560295658353700,7.753353759765625,0.34208428859710693,-1.6685771942138672,1.3614648580551147
1777560295676883500,7.771883544921875,0.08857539296150208,-2.0809109210968018,1.3712387084960938
1777560295695413200,7.790413330078125,0.2528980076313019,-2.1670427322387695,0.7163916826248169
1777560295713943300,7.808943359375,0.12767073512077332,-0.5323686599731445,-0.4143190383911133
1777560295732473300,7.827473388671875,-0.5112938284873962,0.3912588953971863,-0.36483898758888245
1777560295751003100,7.846003173828125,-1.0024291276931763,0.6166679859161377,-0.6183478832244873
1777560295769533200,7.864533203125,-0.23273947834968567,3.045466423034668,-0.6519454121589661
1777560295788063000,7.88306298828125,0.7434224486351013,1.8921536207199097,-0.7020363211631775
1777560295806593000,7.901593017578125,0.6725621223449707,-0.4926624298095703,-0.9286671876907349
1777560295825123000,7.920123046875,0.13133592903614044,0.776103675365448,-2.122907876968384
1777560295843652900,7.93865283203125,-0.5082395076751709,5.312385559082031,-3.448484420776367
1777560295862183000,7.957182861328125,-0.8857539296150208,5.488314628601074,-3.2230753898620605
1777560295880713000,7.975712890625,-0.94439697265625,2.2812745571136475,-1.779601812362671
1777560295899242800,7.99424267578125,-0.4361574649810791,-0.7596103549003601,-0.735023021697998
1777560295917772500,8.0127724609375,-0.06536252796649933,-0.7797688841819763,-1.614668369293213
1777560295936302600,8.031302490234374,0.6450732350349426,1.3234385251998901,-1.9048291444778442
1777560295954832600,8.04983251953125,1.387273907661438,2.6502368450164795,-1.641546368598938
1777560295973362400,8.068362548828125,1.4929535388946533,2.85548734664917,-1.7441716194152832
1777560295991892200,8.086892333984375,1.1117738485336304,2.1383321285247803,-1.9329289197921753
1777560296010422300,8.10542236328125,0.4062250852584839,0.8408553600311279,-1.7081305980682373
1777560296028952300,8.123952392578126,-0.20769402384757996,-0.005803215317428112,-1.3379465341567993
1777560296047482000,8.142482177734376,-0.42882707715034485,0.31673339009284973,-1.0990984439849854
1777560296066012200,8.16101220703125,-0.3854556679725647,0.9654718041419983,-0.9738711714744568
1777560296084542200,8.179542236328125,-0.22357651591300964,1.7925827503204346,-0.9341649413108826
1777560296103072000,8.198072021484375,-0.08674279600381851,1.9935572147369385,-0.9256128668785095
1777560296121602000,8.21660205078125,-0.3292561173439026,0.9850194454193115,-1.0978766679763794
1777560296140131800,8.2351318359375,-0.6059778332710266,0.005803215317428112,-1.3067924976348877
1777560296158662000,8.253661865234376,-0.5332849621772766,0.2367101013660431,-1.243262529373169
1777560296177191700,8.272191650390624,-0.3084867000579834,0.9923498630523682,-1.0545053482055664
1777560296195721700,8.2907216796875,-0.1185077652335167,1.2366957664489746,-0.8749110698699951
1777560296214251800,8.309251708984375,-0.10506874322891235,0.5421425104141235,-0.7790052890777588
1777560296232781600,8.327781494140625,-0.2577849328517914,-0.15790854394435883,-0.7124210596084595
1777560296251311600,8.3463115234375,-0.39278605580329895,-0.09926552325487137,-0.5047270059585571
1777560296269841400,8.36484130859375,-0.3842339515686035,0.3393353819847107,-0.24144430458545685
1777560296288371500,8.383371337890624,-0.19303326308727264,0.6655371785163879,-0.19868376851081848
1777560296306901500,8.401901611328125,-0.09834922850131989,0.30451610684394836,-0.1669187992811203
1777560296325431300,8.420431396484375,-0.004276053514331579,-0.04306596517562866,0.0487164668738842
1777560296343961000,8.438961181640625,0.16187916696071625,-0.048563748598098755,0.3877464234828949
1777560296362491100,8.4574912109375,0.29077163338661194,-0.3381136655807495,0.8049670457839966
1777560296381021200,8.476021240234376,0.3274235129356384,-0.962417483329773,1.3742930889129639
1777560296399551000,8.494551025390624,0.4043924808502197,-1.6630793809890747,1.9766056537628174
1777560296418081000,8.5130810546875,0.4838049113750458,-2.1145083904266357,2.5838053226470947
1777560296436610800,8.53161083984375,0.45020735263824463,-1.9960006475448608,3.0798275470733643
1777560296455140900,8.550140869140625,0.3555232882499695,-1.7528765201568604,3.2545347213745117
1777560296473670700,8.568670654296875,0.09834922850131989,-1.2562434673309326,2.9423828125
1777560296492200700,8.58720068359375,-0.25961753726005554,-1.038164734840393,2.5324926376342773
1777560296510730800,8.605730712890624,-0.48075059056282043,-1.1420117616653442,2.4518585205078125
1777560296529260500,8.624260498046874,-0.6175842881202698,-0.8726203441619873,2.7004804611206055
1777560296547790300,8.642790283203125,-0.6151408553123474,-0.4272999167442322,2.9240570068359375
1777560296566320400,8.6613203125,-0.4422661066055298,-0.5910117030143738,2.4659082889556885
1777560296584850400,8.679850341796875,-0.4324922561645508,-0.4822777509689331,1.8318307399749756
1777560296603380200,8.698380126953126,-0.164322629570961,-0.537255585193634,1.6925536394119263
1777560296621910300,8.71691015625,0.35185810923576355,-0.9172134399414062,1.680947184562683
1777560296640440000,8.735440185546874,0.5882627964019775,-1.4358376264572144,1.6815580129623413
1777560296658970000,8.75397021484375,0.5772672295570374,-1.953240156173706,1.8031201362609863
1777560296677500200,8.772500244140625,0.5723803043365479,-2.48896861076355,1.8501566648483276
1777560296696030000,8.791030029296875,0.637742817401886,-2.7730207443237305,1.4915790557861328
1777560296714560000,8.80956005859375,0.8680388331413269,-2.3729043006896973,0.680350661277771
1777560296733089800,8.82808984375,0.9468404054641724,-1.413846492767334,-0.3208567202091217
1777560296751619800,8.846619873046874,0.8698714375495911,-0.5115992426872253,-1.0050252676010132
1777560296770149600,8.865149658203125,0.7525854110717773,-0.060781046748161316,-1.4442371129989624
1777560296788679700,8.8836796875,0.6908880472183228,0.22876885533332825,-1.8510730266571045
1777560296807209500,8.90220947265625,0.6560688018798828,0.5482511520385742,-2.1076362133026123
1777560296825739500,8.920739501953125,0.46486809849739075,0.9605848789215088,-1.8596251010894775
1777560296844269300,8.939269287109376,-0.09834922850131989,0.7021890878677368,-0.7796161770820618
1777560296862799400,8.95779931640625,-0.45875945687294006,0.14813470840454102,1.1403318643569946
1777560296881329400,8.976329345703125,0.001221729558892548,-1.609323263168335,1.6296344995498657
1777560296899859200,8.994859130859375,0.27855435013771057,-2.6032001972198486,1.6577342748641968
1777560296918389000,9.013388916015625,0.023823726922273636,-3.378387689590454,1.8782564401626587
1777560296936919000,9.0319189453125,0.18203771114349365,-3.215897560119629,1.0713040828704834
1777560296955449000,9.050448974609376,0.5039634704589844,-1.49081552028656,-0.41554075479507446
1777560296973979000,9.068978759765624,0.3964512348175049,0.795040488243103,-1.2114975452423096
1777560296992509000,9.087509033203125,-0.4563159942626953,3.694204807281494,-1.6116139888763428
1777560297011038700,9.106038818359375,-1.5418226718902588,3.5353798866271973,-0.780837893486023
1777560297029568800,9.12456884765625,-0.2565632164478302,0.15302163362503052,0.145843967795372
1777560297048098600,9.1430986328125,0.5919279456138611,-1.203098177909851,-0.26282456517219543
1777560297066628600,9.161628662109376,0.4886918365955353,-0.9911280870437622,-1.2707514762878418
1777560297085158400,9.180158447265624,-0.2663370370864868,2.682001829147339,-2.7166683673858643
1777560297103688400,9.1986884765625,-0.729983389377594,5.574446678161621,-3.0972371101379395
1777560297122218200,9.21721826171875,-0.7886264324188232,4.221381187438965,-2.1870486736297607
1777560297140748300,9.235748291015625,-0.24251331388950348,0.9685261249542236,-1.2738057374954224
1777560297159278300,9.2542783203125,0.22968515753746033,-0.5885682106018066,-1.7918190956115723
1777560297177808100,9.27280810546875,0.7037162184715271,1.5751148462295532,-2.053269147872925
1777560297196338200,9.291338134765626,1.2302817106246948,3.1132724285125732,-1.6617048978805542
1777560297214868000,9.309867919921874,1.4147628545761108,3.4382524490356445,-1.5529710054397583
1777560297233398000,9.32839794921875,1.065959095954895,2.9080216884613037,-1.7771583795547485
1777560297251927800,9.346927734375,0.39828383922576904,1.360701322555542,-1.6293290853500366
1777560297270457900,9.365457763671875,-0.3035998046398163,-0.16768237948417664,-1.3318378925323486
1777560297288987600,9.383987548828125,-0.5595521330833435,-0.36682429909706116,-1.2133301496505737
1777560297307517700,9.402517578125,-0.36651885509490967,0.601396381855011,-1.226769208908081
1777560297326047500,9.421047607421874,-0.03909534588456154,1.7217223644256592,-1.1290308237075806
1777560297353842400,9.448842529296876,-0.056810423731803894,1.5677844285964966,-0.9078977704048157
1777560297372372200,9.467372314453126,-0.27550002932548523,0.5409207344055176,-1.075885534286499
1777560297390902300,9.48590234375,-0.4508182108402252,0.1432477980852127,-1.0202969312667847
1777560297409432300,9.504432373046875,-0.5021308660507202,0.43401941657066345,-0.7954986691474915
1777560297427962000,9.522962158203125,-0.4214966893196106,0.8280271887779236,-0.6702713966369629
1777560297446492200,9.5414921875,-0.33047783374786377,0.8573487401008606,-0.6898190379142761
1777560297465022000,9.56002197265625,-0.25961753726005554,0.5476402640342712,-0.7197514176368713
1777560297483552000,9.578552001953126,-0.26389357447624207,0.22449280321598053,-0.6220130324363708
1777560297502081800,9.597081787109374,-0.2620609998703003,0.23976442217826843,-0.513279139995575
1777560297520611800,9.61561181640625,-0.1893680840730667,0.5024362802505493,-0.3819431960582733
1777560297548406800,9.64340673828125,-0.03481929376721382,0.5794052481651306,-0.4271472096443176
1777560297566936600,9.6619365234375,-0.07269290834665298,0.18173226714134216,-0.4534143805503845
1777560297594731500,9.6897314453125,-0.06902772188186646,0.3222311735153198,-0.06246092543005943
1777560297613261300,9.70826123046875,-0.012217295356094837,0.2458730787038803,0.19349141418933868
1777560297631791400,9.726791259765625,0.08918625861406326,-0.3607156574726105,0.6571378111839294
1777560297650321200,9.745321044921875,0.3133736252784729,-0.7852666974067688,1.141553521156311
1777560297668851200,9.763851318359375,0.4630354940891266,-1.2818996906280518,1.6278018951416016
1777560297687381000,9.782381103515625,0.5583304166793823,-1.802356481552124,2.1671955585479736
1777560297705911000,9.8009111328125,0.40927940607070923,-2.0381503105163574,2.872133493423462
1777560297724441000,9.819441162109374,0.26022839546203613,-1.8164063692092896,3.1665701866149902
1777560297742971000,9.837970947265624,-0.015271619893610477,-1.3014473915100098,3.023627996444702
1777560297761500700,9.856500732421875,-0.2419024556875229,-0.8298597931861877,2.6693263053894043
1777560297780030700,9.87503076171875,-0.3090975880622864,-0.6630937457084656,2.5062255859375
1777560297798560800,9.893560791015625,-0.4465421438217163,-0.5635227560997009,2.545320749282837
1777560297817090600,9.912090576171876,-0.5283980369567871,-0.9984585046768188,2.7175846099853516
1777560297835620400,9.930620361328126,-0.38850998878479004,-1.7064508199691772,2.3064727783203125
1777560297854150400,9.949150390625,-0.48563748598098755,-1.3869684934616089,1.8990259170532227
1777560297872680400,9.967680419921875,-0.45387253165245056,-0.6508764028549194,2.0187554359436035
1777560297891210200,9.986210205078125,0.021991131827235222,-0.702799916267395,2.00104022026062
1777560297909740000,10.004739990234375,0.3995055556297302,-1.2220350503921509,1.790902853012085
1777560297928270000,10.02327001953125,0.4740310609340668,-1.7693698406219482,1.9405646324157715
1777560297946800000,10.041800048828126,0.5247328281402588,-2.2818853855133057,2.014479398727417
1777560297965330000,10.060329833984374,0.7367029190063477,-2.598313331604004,1.732259750366211
1777560297983859700,10.078859619140625,0.7629700899124146,-2.1609342098236084,1.0994038581848145
1777560298002389800,10.0973896484375,0.7721330523490906,-1.2495238780975342,0.3767508566379547
1777560298020919800,10.115919921875,0.7428115606307983,-0.5671879649162292,-0.22739441692829132
1777560298039449600,10.13444970703125,0.7128791809082031,-0.29413139820098877,-0.7338013052940369
1777560298057979400,10.1529794921875,0.749531090259552,-0.14569124579429626,-1.2652536630630493
1777560298076509400,10.171509521484374,0.7538071274757385,-0.07238747924566269,-1.7673845291137695
1777560298095039200,10.190039306640625,0.7141009569168091,0.11636973917484283,-1.9555308818817139
1777560298113569300,10.2085693359375,0.5754346251487732,0.6001746654510498,-1.7313435077667236
1777560298132099000,10.22709912109375,0.1954767256975174,0.39736753702163696,-0.88285231590271
1777560298150629000,10.245629150390625,-0.37751442193984985,-0.6478220820426941,0.6681333780288696
1777560298169159000,10.264158935546876,-0.2370155304670334,-1.4523310661315918,1.7756311893463135
1777560298187689000,10.28268896484375,0.20830489695072174,-1.7614285945892334,1.4689770936965942
1777560298206218800,10.30121875,0.16859868168830872,-2.0974042415618896,1.6210824251174927
1777560298224748800,10.319748779296875,0.2412915825843811,-2.5714352130889893,1.004719853401184
1777560298243278600,10.338278564453125,0.2828303873538971,-1.6465860605239868,-0.1614210158586502
1777560298261808600,10.35680859375,-0.13561198115348816,-0.2568686306476593,-0.7771727442741394
1777560298280338700,10.375338623046876,-1.007315993309021,0.9410371780395508,-0.6867647171020508
1777560298298868500,10.393868408203126,-1.5577051639556885,1.1065815687179565,-0.5694786906242371
1777560298317398300,10.412398193359374,-0.3133736252784729,0.7663298845291138,-0.7533490061759949
1777560298335928300,10.43092822265625,0.268169641494751,0.5262600183486938,-0.9262236952781677
1777560298354458400,10.449458251953125,0.3017672002315521,0.30146175622940063,-1.4845541715621948
1777560298372988200,10.46798828125,0.16310089826583862,2.8396048545837402,-2.5999932289123535
1777560298391518000,10.48651806640625,-0.07819069176912308,5.589718341827393,-3.126558542251587
1777560298410048000,10.505048095703126,-0.4886918365955353,5.157226085662842,-2.648862361907959
1777560298428577800,10.523577880859374,-0.768467903137207,2.623969554901123,-1.9414809942245483
1777560298447107800,10.54210791015625,-0.13561198115348816,-0.13591741025447845,-1.282357931137085
1777560298465637600,10.5606376953125,0.25045454502105713,0.006414080038666725,-1.5694643259048462
1777560298484167700,10.579167724609375,0.8258891701698303,2.1364996433258057,-1.6775873899459839
1777560298502697500,10.597697509765625,1.3475676774978638,3.0753986835479736,-1.568853497505188
1777560298521227500,10.6162275390625,1.313359260559082,3.180467367172241,-1.5340341329574585
1777560298539757300,10.63475732421875,0.9944878816604614,2.676504135131836,-1.6268856525421143
1777560298558287400,10.653287353515625,0.5033525824546814,1.9373576641082764,-1.5083779096603394
1777560298576817200,10.671817138671875,0.059864748269319534,0.9960150122642517,-1.111926555633545
1777560298595347200,10.69034716796875,-0.1844811588525772,0.6569850444793701,-1.0080796480178833
1777560298613877000,10.708876953125,-0.10506874322891235,1.2525782585144043,-0.8987348079681396
1777560298632406800,10.72740673828125,0.07269290834665298,2.137110471725464,-0.6934842467308044
1777560298650936800,10.745936767578126,0.08124501258134842,2.1132867336273193,-0.5786416530609131
1777560298669467000,10.764466796875,-0.19792018830776215,0.9440914988517761,-0.9158390164375305
1777560298687996700,10.78299658203125,-0.3787361681461334,0.10048725455999374,-1.1045962572097778
1777560298706526700,10.801526611328125,-0.42455101013183594,0.281914085149765,-1.014188289642334
1777560298725056500,10.820056396484375,-0.40866854786872864,0.5323686599731445,-0.8443678617477417
1777560298743586300,10.83858642578125,-0.3640754222869873,0.499381959438324,-0.799163818359375
1777560298762116400,10.857116455078126,-0.2828303873538971,0.3539961278438568,-0.8290961980819702
1777560298780646100,10.875646240234374,-0.2461785078048706,0.1444695144891739,-0.7472403645515442
1777560298799176200,10.89417626953125,-0.2522871494293213,0.1182023361325264,-0.4943423271179199
1777560298817706000,10.9127060546875,-0.25045454502105713,0.39797839522361755,-0.2658788859844208
1777560298836236000,10.931236083984375,-0.1545487940311432,0.795040488243103,-0.2597702443599701
1777560298854766000,10.94976611328125,-0.04276053607463837,0.8799507021903992,-0.3098611533641815
1777560298873296000,10.9682958984375,-0.0054977829568088055,0.7681624889373779,-0.40088000893592834
1777560298891825700,10.98682568359375,-0.03909534588456154,0.5134318470954895,-0.45707955956459045
1777560298910355500,11.00535546875,-0.17287473380565643,0.10598503798246384,-0.25060728192329407
1777560298928885500,11.023885498046875,-0.16737695038318634,0.18600831925868988,-0.005650499369949102
1777560298947415600,11.04241552734375,-0.11484257876873016,0.24037529528141022,0.2240346521139145
1777560298965945300,11.0609453125,0.06230820715427399,-0.10048725455999374,0.6003273725509644
1777560298984475400,11.079475341796876,0.22479823231697083,-0.8017600178718567,1.1000148057937622
1777560299003005200,11.098005126953124,0.2938259541988373,-1.5476258993148804,1.5679371356964111
1777560299021535200,11.11653515625,0.4367683231830597,-2.1248931884765625,2.0584616661071777
1777560299040065000,11.13506494140625,0.5174024701118469,-2.2647812366485596,2.7389650344848633
1777560299058594800,11.1535947265625,0.43310311436653137,-2.240346670150757,3.2087199687957764
1777560299077124900,11.172124755859375,0.2932150959968567,-1.7223331928253174,3.243539333343506
1777560299095654700,11.190654541015626,-0.09651663154363632,-1.1230748891830444,2.8031058311462402
1777560299114184700,11.209184814453126,-0.2889390289783478,-0.7553343176841736,2.570977210998535
1777560299132714500,11.227714599609374,-0.3451386094093323,-0.45417797565460205,2.464686632156372
1777560299151244500,11.24624462890625,-0.40866854786872864,-0.693636953830719,2.442084789276123
1777560299169774300,11.2647744140625,-0.4520399272441864,-1.6435316801071167,2.2288928031921387
1777560299188304400,11.283304443359375,-0.593149721622467,-1.6429208517074585,2.045022487640381
1777560299206834200,11.301834228515625,-0.6603448390960693,-1.1511746644973755,2.0413572788238525
1777560299225364000,11.320364013671876,-0.23884813487529755,-0.9275981783866882,1.9961533546447754
1777560299243894000,11.33889404296875,0.15515965223312378,-1.1291835308074951,1.789681077003479
1777560299262424000,11.357424072265625,0.20830489695072174,-1.3582578897476196,1.7456988096237183
1777560299280953900,11.375953857421875,0.2828303873538971,-1.9831725358963013,1.7786855697631836
1777560299299484000,11.39448388671875,0.45326167345046997,-2.3564109802246094,1.5911500453948975
1777560299318013700,11.413013671875,0.6426297426223755,-2.3924520015716553,1.0633628368377686
1777560299336543500,11.43154345703125,0.6633991599082947,-1.814573884010315,0.3663661479949951
1777560299355073500,11.450073486328124,0.648127555847168,-0.9685261249542236,-0.24572035670280457
1777560299373603300,11.468603271484374,0.6230821013450623,-0.44501498341560364,-0.7008146047592163
1777560299392133400,11.48713330078125,0.6120865345001221,0.003970621153712273,-1.0819942951202393
1777560299410663200,11.5056630859375,0.5919279456138611,0.1847866028547287,-1.3984222412109375
1777560299429193200,11.524193115234375,0.47036588191986084,0.3741546869277954,-1.422245979309082
1777560299447723000,11.542722900390626,0.3042106628417969,0.6869174242019653,-1.0483967065811157
1777560299466253000,11.561253173828124,0.10506874322891235,0.5641336441040039,-0.41554075479507446
1777560299484782800,11.579782958984374,-0.1588248461484909,-0.20372340083122253,0.2991710305213928
1777560299503312600,11.598312744140625,-0.205861434340477,-1.3716968297958374,1.0077741146087646
1777560299521842700,11.6168427734375,0.11484257876873016,-1.9721769094467163,1.0731366872787476
1777560299540372700,11.635372802734375,0.4251618981361389,-1.8054108619689941,1.2374593019485474
1777560299558902500,11.653902587890625,0.3530798554420471,-1.8591669797897339,1.4341577291488647
1777560299577432300,11.672432373046876,0.2309068888425827,-1.830456256866455,0.9179770350456238
1777560299595962400,11.69096240234375,0.2156352698802948,-1.3307689428329468,-0.04169152304530144
1777560299614492200,11.7094921875,0.27427828311920166,-0.5317577719688416,-0.8596394658088684
1777560299633022200,11.728022216796875,0.21258094906806946,0.39858928322792053,-0.9659299254417419
1777560299651552000,11.746552001953125,-0.11423171311616898,1.3234385251998901,-0.615293562412262
1777560299670081800,11.765081787109375,-0.5485565662384033,1.0638209581375122,-0.6177369952201843
1777560299688611800,11.78361181640625,0.03298669680953026,1.5488476753234863,-0.5755873322486877
1777560299707142000,11.802141845703124,0.21319180727005005,1.7553199529647827,-0.7472403645515442
1777560299725671700,11.820671630859374,0.1288924664258957,0.8023709058761597,-1.0752747058868408
1777560299744201500,11.839201416015625,-0.12522727251052856,1.0735948085784912,-2.1662793159484863
1777560299762731500,11.8577314453125,-0.5082395076751709,4.0918779373168945,-3.1613779067993164
1777560299781261300,11.87626123046875,-0.8888082504272461,4.503600597381592,-2.909090757369995
1777560299799791400,11.894791259765626,-1.0030399560928345,2.550665855407715,-1.8559598922729492
1777560299818321200,11.913321044921876,-0.2260199636220932,0.0772743970155716,-0.9451605081558228
1777560299836851200,11.931851318359374,0.2559523284435272,-0.2153298407793045,-1.5749621391296387
1777560299855381000,11.950381103515625,0.9034690260887146,1.4834851026535034,-1.7875430583953857
1777560299873910800,11.968910888671875,1.4575233459472656,2.942841053009033,-1.735008716583252
1777560299892440800,11.98744091796875,1.3964369297027588,3.070511817932129,-1.6274964809417725
1777560299910970600,12.005970703125,0.7476984858512878,2.0656392574310303,-1.5890120267868042
1777560299929500700,12.024500732421876,0.09285144507884979,0.8206968307495117,-1.4723368883132935
1777560299948030500,12.043030517578124,-0.22174391150474548,-0.023518294095993042,-1.3654354810714722
1777560299966560500,12.061560546875,-0.2614501118659973,0.23548837006092072,-1.4216350317001343
1777560299985090300,12.08009033203125,-0.23335035145282745,1.0540472269058228,-1.243262529373169
1777560300003620400,12.098620361328125,-0.06352993845939636,1.9746203422546387,-0.9653190970420837
1777560300022150100,12.117150146484375,-0.06841685622930527,2.0082180500030518,-0.9781472086906433
1777560300040680000,12.135679931640626,-0.3280344009399414,0.9282090067863464,-1.0319033861160278
1777560300059210000,12.1542099609375,-0.4789179861545563,0.08888082206249237,-1.0270164012908936
1777560300077739800,12.17273974609375,-0.5241219997406006,0.11636973917484283,-0.8865175247192383
1777560300096269800,12.191269775390625,-0.472198486328125,0.38820457458496094,-0.7038689255714417
1777560300114799600,12.209799560546875,-0.35674503445625305,0.6899717450141907,-0.6165152788162231
1777560300133329400,12.228329345703125,-0.18753549456596375,0.6960803866386414,-0.5438223481178284
1777560300151859500,12.246859375,-0.14110976457595825,0.3900371491909027,-0.4601338803768158
1777560300170389500,12.265389404296876,-0.17348559200763702,0.09804379940032959,-0.48762279748916626
1777560300188919800,12.283919921875,-0.2370155304670334,-0.07788526266813278,-0.5755873322486877
1777560300207449000,12.302448974609375,-0.3402516841888428,0.1182023361325264,-0.44119709730148315
1777560300225979100,12.320979248046875,-0.32681265473365784,0.3094030022621155,-0.24144430458545685
1777560300244509000,12.339509033203125,-0.22357651591300964,0.0925460159778595,-0.033139415085315704
1777560300263039000,12.3580390625,-0.05803215503692627,-0.04673115536570549,0.23991714417934418
1777560300281568800,12.37656884765625,-0.020158538594841957,-0.17318016290664673,0.6913462281227112
1777560300300098600,12.3950986328125,0.08979712426662445,-0.5940660238265991,1.1617120504379272
1777560300318628600,12.413628662109375,0.22968515753746033,-1.1872156858444214,1.6278018951416016
1777560300337158400,12.432158447265625,0.19792018830776215,-2.3509130477905273,2.202014923095703
1777560300355688400,12.4506884765625,0.37812530994415283,-2.8212790489196777,2.909396171569824
1777560300374218200,12.46921826171875,0.4838049113750458,-2.2446227073669434,3.255145788192749
1777560300392748000,12.487748046875,0.4221075773239136,-1.5586215257644653,3.2178828716278076
1777560300411278000,12.506278076171874,0.07269290834665298,-1.036942958831787,2.827540397644043
1777560300429808000,12.52480810546875,-0.38850998878479004,-1.4022401571273804,2.5135557651519775
1777560300448338000,12.543337890625,-0.6035344004631042,-1.2202024459838867,2.461632251739502
1777560300466868000,12.561867919921875,-0.48930269479751587,-0.30512696504592896,2.6363396644592285
1777560300485397800,12.580397705078125,-0.38728827238082886,-0.9062178730964661,2.48423433303833
1777560300503927600,12.598927490234376,-0.3848448097705841,-1.4902045726776123,2.012035846710205
1777560300522457600,12.61745751953125,-0.38179048895835876,-1.046105980873108,2.000429391860962
1777560300540987400,12.6359873046875,-0.02626718580722809,-0.9966259002685547,1.9607232809066772
1777560300559517400,12.654517333984375,0.36774060130119324,-1.3924663066864014,1.6919426918029785
1777560300578047200,12.673047119140625,0.5424479246139526,-2.00577449798584,1.5288418531417847
1777560300596577000,12.691576904296875,0.5632173418998718,-2.3148720264434814,1.6846123933792114
1777560300615107000,12.710107177734375,0.7373138070106506,-2.5237877368927,1.660788655281067
1777560300633636900,12.728636962890626,0.8497129082679749,-2.643517255783081,1.1116211414337158
1777560300661431800,12.756431884765625,0.9370665550231934,-1.1963787078857422,-0.12293653935194016
1777560300679961600,12.774961669921876,0.8778126835823059,-0.3857611119747162,-0.8388700485229492
1777560300698491600,12.79349169921875,0.7892373204231262,0.1597411334514618,-1.2609776258468628
1777560300717021400,12.812021484375,0.7244856357574463,0.6062833070755005,-1.5798490047454834
1777560300735551500,12.830551513671875,0.667064368724823,0.8775072693824768,-1.780212640762329
1777560300754081300,12.849081298828125,0.5870410799980164,0.9563088417053223,-1.6775873899459839
1777560300772611000,12.867611083984375,0.35735589265823364,0.8823941946029663,-1.2389864921569824
1777560300791141000,12.88614111328125,-0.10323614627122879,0.22327107191085815,-0.3257436454296112
1777560300809671200,12.904671142578126,-0.13072505593299866,-0.46395179629325867,1.5355613231658936
1777560300828201000,12.923200927734374,0.16065743565559387,-2.1242823600769043,1.7768529653549194
1777560300846730800,12.941730712890624,0.3121519088745117,-2.5109596252441406,1.8489350080490112
1777560300865260800,12.9602607421875,0.0054977829568088055,-3.1193809509277344,1.668118953704834
1777560300883790600,12.97879052734375,0.18570289015769958,-3.0240859985351562,0.569173276424408
1777560300902320600,12.997320556640625,0.4514290690422058,-1.2330305576324463,-0.8419243693351746
1777560300920850400,13.015850341796876,0.337808221578598,0.7205150127410889,-1.4979931116104126
1777560300939380200,13.034380126953126,-0.34574946761131287,2.623358726501465,-1.3049598932266235
1777560300957910300,13.05291015625,-1.1197150945663452,2.886641502380371,-0.8303179740905762
1777560300976440000,13.071440185546875,0.3402516841888428,1.6019928455352783,0.22953243553638458
1777560300994970000,13.08997021484375,0.7385355234146118,0.2782489061355591,-0.2744309902191162
1777560301013500200,13.108500244140625,0.6206386089324951,-1.1768310070037842,-0.9372192621231079
1777560301032030000,13.127030029296876,0.08613193035125732,0.5610793232917786,-2.4289510250091553
1777560301050559700,13.145559814453126,-0.8466585874557495,5.424173831939697,-3.3880088329315186
1777560301069089800,13.16408984375,-1.3878847360610962,5.251298904418945,-2.606712818145752
1777560301087619600,13.18261962890625,-1.321911334991455,1.6759074926376343,-1.421024203300476
1777560301106149600,13.201149658203125,-0.002443459117785096,-1.7669264078140259,-1.3379465341567993
1777560301124679400,13.219679443359375,0.656679630279541,0.1383608728647232,-2.1277947425842285
1777560301143209200,13.238209228515625,1.164919137954712,2.7003278732299805,-1.7832670211791992
1777560301161739300,13.2567392578125,1.6120721101760864,3.4217591285705566,-1.6476550102233887
1777560301180269300,13.275269287109374,1.4343105554580688,3.289201498031616,-1.8351905345916748
1777560301198799000,13.293799072265625,0.750141978263855,1.9025382995605469,-1.6745331287384033
1777560301217329000,13.312328857421875,-0.10384701192378998,-0.024740023538470268,-1.327561855316162
1777560301235859000,13.33085888671875,-0.5283980369567871,-0.5329795479774475,-1.1339176893234253
1777560301254388700,13.349388671875,-0.5174024701118469,0.28557929396629333,-1.1271982192993164
1777560301272918800,13.367918701171876,-0.23823726177215576,1.6001602411270142,-0.9738711714744568
1777560301291448600,13.386448486328124,-0.001832594396546483,2.4962990283966064,-0.8144354820251465
1777560301309978400,13.404978271484374,-0.15821397304534912,1.7999130487442017,-0.9500474333763123
1777560301328508400,13.42350830078125,-0.5155698657035828,0.2623664140701294,-1.3116793632507324
1777560301347038500,13.44203857421875,-0.545502245426178,0.05100720748305321,-1.346498727798462
1777560301365568300,13.460568359375,-0.49113526940345764,0.8652899861335754,-1.0361794233322144
1777560301384098000,13.47909814453125,-0.3707949221134186,1.1585050821304321,-0.8150463104248047
1777560301402628000,13.497628173828126,-0.2883281707763672,0.7327322959899902,-0.7289143800735474
1777560301421158000,13.516157958984374,-0.19181154668331146,0.19272783398628235,-0.6495019793510437
1777560301439688000,13.53468798828125,-0.1905898153781891,0.15118902921676636,-0.4595230221748352
1777560301458217700,13.5532177734375,-0.1637117564678192,0.39736753702163696,-0.24510949850082397
1777560301476747800,13.571747802734375,-0.033597562462091446,0.5073232054710388,-0.1773035079240799
1777560301495277600,13.590277587890625,0.0513126403093338,0.2055560052394867,-0.1876882016658783
1777560301513807600,13.6088076171875,0.03909534588456154,-0.019853105768561363,0.10674861818552017
1777560301532337400,13.62733740234375,0.09651663154363632,0.005192350596189499,0.5074759125709534
1777560301550867200,13.6458671875,0.1288924664258957,-0.4046979248523712,1.0279327630996704
1777560301569397200,13.664397216796875,0.21746785938739777,-1.1249074935913086,1.6125303506851196
1777560301587927000,13.682927001953125,0.27855435013771057,-2.0124940872192383,2.2869250774383545
1777560301606457000,13.70145703125,0.462424635887146,-2.336252450942993,2.9271113872528076
1777560301624987100,13.719987060546876,0.5351175665855408,-2.0668609142303467,3.350440502166748
1777560301643517000,13.738516845703124,0.41416633129119873,-1.8274019956588745,3.249037027359009
1777560301662046700,13.757046630859374,-0.07452550530433655,-1.324660301208496,2.79394268989563
1777560301680576800,13.77557666015625,-0.7122683525085449,-1.5757256746292114,2.4915647506713867
1777560301699106600,13.7941064453125,-0.7709113359451294,-1.2941170930862427,2.4457497596740723
1777560301717636600,13.81263671875,-0.5510000586509705,-0.1127045527100563,2.673602342605591
1777560301736166400,13.83116650390625,-0.7611374855041504,0.08460476994514465,2.874577045440674
1777560301754696400,13.849696533203126,-0.778241753578186,-0.7308996915817261,2.5214970111846924
1777560301773226200,13.868226318359374,-0.5674933791160583,-0.9013310074806213,2.017533540725708
1777560301791756300,13.88675634765625,-0.0616973415017128,-0.7021890878677368,1.8232786655426025
1777560301810286000,13.9052861328125,0.45448338985443115,-0.7993165850639343,1.6601777076721191
1777560301828816100,13.923816162109375,0.6126973628997803,-1.6985095739364624,1.598480463027954
1777560301847346000,13.942345947265625,0.5839866995811462,-2.32159161567688,1.770133376121521
1777560301865876000,13.9608759765625,0.638353705406189,-2.6416847705841064,1.8208352327346802
1777560301884405800,13.97940576171875,0.7232639193534851,-2.5140140056610107,1.3712387084960938
1777560301902935600,13.997935546875,0.8381064534187317,-1.7565417289733887,0.4396699368953705
1777560301921465600,14.016465576171875,0.8894191384315491,-0.7840449213981628,-0.6745474338531494
1777560301939995400,14.034995361328125,0.8344413042068481,-0.16646064817905426,-1.493717074394226
1777560301958525400,14.053525390625,0.7953459620475769,0.2977965772151947,-1.9420918226242065
1777560301977055200,14.07205517578125,0.7776308655738831,0.7632755637168884,-2.081368923187256
1777560301995585300,14.090585205078124,0.7104357481002808,1.0680971145629883,-1.6800308227539062
1777560302014115300,14.109115234375,0.32192572951316833,0.9013310074806213,-0.6910407543182373
1777560302032645000,14.12764501953125,-0.38850998878479004,0.4309650957584381,0.6027708053588867
1777560302051175000,14.1461748046875,-0.4569268524646759,-1.3277145624160767,1.6027565002441406
1777560302069705000,14.164705078125,-0.025045456364750862,-2.648404359817505,1.4873030185699463
1777560302088235000,14.183235107421876,-0.037262752652168274,-2.6276347637176514,1.5624394416809082
1777560302106764800,14.201764892578124,-0.056199558079242706,-2.64046311378479,1.0768018960952759
1777560302125294800,14.220294921875,0.2516762912273407,-1.6893465518951416,0.03588830679655075
1777560302143824600,14.23882470703125,0.24434591829776764,0.19761475920677185,-0.8565851449966431
1777560302162354700,14.257354736328125,-0.2309068888425827,1.7705916166305542,-1.1449133157730103
1777560302180884500,14.275884521484375,-1.110552191734314,2.1163411140441895,-1.0538945198059082
1777560302199414500,14.29441455078125,-0.5900954008102417,1.4804308414459229,-0.6268999576568604
1777560302217944300,14.3129443359375,0.46364638209342957,0.9147700071334839,-0.8504765033721924
1777560302236474400,14.331474365234374,0.4428769648075104,0.09865466505289078,-1.0386228561401367
1777560302255004200,14.350004150390625,0.4312705397605896,0.9037744402885437,-1.9023855924606323
1777560302273534200,14.3685341796875,-0.11606431007385254,4.427853584289551,-2.8956518173217773
1777560302292064000,14.38706396484375,-0.6200277805328369,5.188380241394043,-2.7001750469207764
1777560302310594000,14.405593994140625,-1.0916153192520142,2.805396556854248,-1.9243767261505127
1777560302329123800,14.424123779296876,-0.4147771894931793,-0.07544180005788803,-1.4100285768508911
1777560302347654000,14.44265380859375,0.3958403766155243,-0.28435754776000977,-1.8150320053100586
1777560302366183700,14.46118359375,0.9089667797088623,2.0992367267608643,-2.030667304992676
1777560302384713700,14.479713623046875,1.452636480331421,3.31669020652771,-1.8217514753341675
1777560302403243500,14.498243408203125,1.4190388917922974,3.2287259101867676,-1.817475438117981
1777560302421773600,14.516773681640625,0.943175196647644,2.143218994140625,-1.718515396118164
1777560302440303400,14.535303466796876,0.23335035145282745,0.5751292109489441,-1.3153445720672607
1777560302458833400,14.55383349609375,-0.31093016266822815,-0.2409861534833908,-1.052061915397644
1777560302477363200,14.57236328125,-0.42394015192985535,0.1750127524137497,-1.0264055728912354
1777560302495893200,14.590893310546875,-0.2577849328517914,0.9862411618232727,-1.0581705570220947
1777560302514423000,14.609423095703125,-0.04276053607463837,1.9679008722305298,-0.8553634285926819
1777560302532953000,14.627953125,-0.04886918142437935,1.8548909425735474,-0.7826704978942871
1777560302551483000,14.64648291015625,-0.35246896743774414,0.6185005903244019,-1.121700406074524
1777560302570013000,14.665012939453124,-0.45448338985443115,-0.011911863461136818,-1.317177176475525
1777560302588542700,14.683542724609374,-0.48563748598098755,0.383928507566452,-1.1271982192993164
1777560302607072800,14.70207275390625,-0.40805765986442566,1.0454950332641602,-0.975092887878418
1777560302625602800,14.720602783203125,-0.30604326725006104,1.0290017127990723,-0.8993456959724426
1777560302644132600,14.739132568359375,-0.27427828311920166,0.31123560667037964,-0.799774706363678
1777560302662662700,14.75766259765625,-0.30970844626426697,-0.06750056147575378,-0.6922625303268433
1777560302681192400,14.7761923828125,-0.3023780584335327,0.13103049993515015,-0.5432115197181702
1777560302699722500,14.794722412109374,-0.20402882993221283,0.4462367296218872,-0.34834563732147217
1777560302718252300,14.813252197265625,-0.04153880476951599,0.7730493545532227,-0.2738201320171356
1777560302736782300,14.8317822265625,-0.014049889519810677,0.4816668927669525,-0.20906847715377808
1777560302755312000,14.85031201171875,-0.09346231073141098,0.02779434807598591,-0.023976443335413933
1777560302773842200,14.86884228515625,-0.08307760953903198,0.00946840364485979,0.1879936307668686
1777560302792372200,14.887372314453126,0.01649334840476513,-0.019853105768561363,0.6265945434570312
1777560302810902000,14.905902099609374,0.1496618688106537,-0.5983420610427856,1.2063052654266357
1777560302829431800,14.924431884765625,0.25473061203956604,-1.4871503114700317,1.7017165422439575
1777560302847961900,14.9429619140625,0.430659681558609,-2.1004586219787598,2.2789838314056396
1777560302866492000,14.961491943359375,0.5039634704589844,-1.7956370115280151,2.8483097553253174
1777560302885021700,14.980021728515625,0.43982264399528503,-1.5390738248825073,3.084714412689209
1777560302903551700,14.9985517578125,0.1637117564678192,-1.1658353805541992,2.9240570068359375
1777560302922081500,15.01708154296875,-0.2009745091199875,-0.6612611413002014,2.5856378078460693
1777560302940611600,15.035611572265625,-0.36774060130119324,-0.4266890585422516,2.43047833442688
1777560302959141400,15.054141357421875,-0.3585776388645172,-0.34238970279693604,2.450636863708496
1777560302977671400,15.07267138671875,-0.5198459029197693,-0.6600393652915955,2.534325361251831
1777560302996201500,15.091201416015625,-0.6395754218101501,-1.6221513748168945,2.318690061569214
1777560303014731300,15.109731201171876,-0.5784889459609985,-1.7162245512008667,1.891695499420166
1777560303033261000,15.128260986328126,-0.5393936038017273,-1.1725549697875977,1.7035491466522217
1777560303051791000,15.146791015625,-0.30054548382759094,-0.8011491298675537,1.7371467351913452
1777560303070321200,15.165321044921875,0.014049889519810677,-0.6429351568222046,1.640019178390503
1777560303088851200,15.183851318359375,0.24312418699264526,-0.9703587293624878,1.484859585762024
1777560303107381000,15.202381103515625,0.5112938284873962,-1.6453642845153809,1.5654937028884888
1777560303125910800,15.220910888671876,0.6426297426223755,-2.118173599243164,1.5654937028884888
1777560303144440800,15.23944091796875,0.5992583632469177,-2.198807716369629,1.215468168258667
1777560303162971000,15.257970947265624,0.6047561168670654,-1.5971059799194336,0.6540834903717041
1777560303181500700,15.276500732421875,0.6169734001159668,-0.9233221411705017,0.13240493834018707
1777560303200030700,15.29503076171875,0.6029235124588013,-0.6441569328308105,-0.20723587274551392
1777560303218560800,15.313560791015625,0.5992583632469177,-0.4376846253871918,-0.5285507440567017
1777560303237090600,15.332090576171876,0.5577195286750793,-0.42974337935447693,-0.9256128668785095
1777560303255620400,15.350620361328126,0.45326167345046997,-0.33628106117248535,-1.1827869415283203
1777560303274150400,15.369150390625,0.37812530994415283,0.038789913058280945,-1.1785109043121338
1777560303292680400,15.387680419921875,0.3127627670764923,0.21960589289665222,-0.9286671876907349
1777560303311210200,15.406210205078125,0.09834922850131989,-0.2984074354171753,-0.3110828995704651
1777560303329740300,15.424740234375,-0.0977383628487587,-1.1872156858444214,0.6339249014854431
1777560303348270300,15.443270263671875,0.050090912729501724,-1.551901936531067,1.0615302324295044
1777560303366800100,15.461800048828126,0.3127627670764923,-1.220813274383545,1.0456477403640747
1777560303385330000,15.480329833984374,0.2724456787109375,-0.8823941946029663,1.0004438161849976
1777560303403860000,15.49885986328125,0.2364046722650528,-1.1444551944732666,0.5826122760772705
1777560303422390000,15.51739013671875,0.31154105067253113,-1.34237539768219,-0.12110394239425659
1777560303440919800,15.535919921875,0.10995566099882126,-0.7040216326713562,-0.8681915402412415
1777560303459449900,15.554449951171875,-0.3707949221134186,0.37354379892349243,-1.2102758884429932
1777560303477980000,15.57297998046875,-1.0091485977172852,0.9929606914520264,-0.20173808932304382
1777560303496509700,15.591509765625,-0.5100721120834351,0.6533198952674866,-0.1363755613565445
1777560303515039700,15.610039794921875,0.48502662777900696,2.212246894836426,-0.7912226319313049
1777560303533569500,15.628569580078125,0.748920202255249,2.6050329208374023,-1.0172425508499146
1777560303552099600,15.647099609375,0.7275399565696716,1.41506826877594,-1.1455241441726685
1777560303570629600,15.665629638671875,0.02871064469218254,2.0570871829986572,-1.992182731628418
1777560303589159400,15.684159423828126,-0.7250964641571045,4.468170642852783,-2.8486151695251465
1777560303607689500,15.702689453125,-1.2547162771224976,3.5164430141448975,-2.5364632606506348
1777560303626219300,15.72121923828125,-1.1588104963302612,0.776103675365448,-1.5059343576431274
1777560303644749300,15.739749267578125,-0.22968515753746033,-0.9361502528190613,-0.6140718460083008
1777560303663279000,15.758279052734375,0.3530798554420471,0.24709481000900269,-1.2988512516021729
1777560303681809200,15.77680908203125,1.1826342344284058,2.0974042415618896,-1.6384921073913574
1777560303700339200,15.795339111328126,1.4923427104949951,2.765690326690674,-1.6378811597824097
1777560303718869000,15.813868896484376,1.2822052240371704,2.413832187652588,-1.641546368598938
1777560303737399000,15.83239892578125,0.7562506198883057,1.6019928455352783,-1.614668369293213
1777560303755929000,15.85092919921875,0.018325943499803543,0.3283398151397705,-1.3019055128097534
1777560303774459000,15.869458984375,-0.36163195967674255,-0.3588830530643463,-1.1009310483932495
1777560303792988700,15.88798876953125,-0.2767217457294464,0.04306596517562866,-1.234710454940796
1777560303820783900,15.915783935546875,-0.050090912729501724,1.5134174823760986,-0.8907935619354248
1777560303839313700,15.934313720703125,-0.015271619893610477,1.777311086654663,-0.7667880058288574
1777560303857843700,15.95284375,-0.1484401375055313,1.4034618139266968,-0.9078977704048157
1777560303876373500,15.97137353515625,-0.29626941680908203,0.6594285368919373,-1.0532835721969604
1777560303894903600,15.989903564453124,-0.347582072019577,0.3692677617073059,-1.142469882965088
1777560303913433300,16.008433349609376,-0.36712974309921265,0.43890634179115295,-1.0581705570220947
1777560303931963400,16.02696337890625,-0.30970844626426697,0.6661480665206909,-0.9274454712867737
1777560303950493400,16.045493408203125,-0.24373504519462585,0.9001092314720154,-0.8455895781517029
1777560303969023200,16.064023193359375,-0.26389357447624207,0.6594285368919373,-0.7203623056411743
1777560303987553300,16.08255322265625,-0.2657261788845062,0.3503309488296509,-0.5926915407180786
1777560304006083300,16.101083251953124,-0.27366742491722107,0.33322674036026,-0.48701193928718567
1777560304024613000,16.119613037109374,-0.2614501118659973,0.3906480371952057,-0.3116937577724457
1777560304043143200,16.13814306640625,-0.1594357043504715,0.5897899270057678,-0.17974695563316345
1777560304061673000,16.1566728515625,-0.07024945318698883,0.5592467188835144,-0.22128576040267944
1777560304080203000,16.175203125,-0.049480047076940536,0.06566796451807022,-0.16814053058624268
1777560304098733000,16.193733154296876,-0.01282816007733345,-0.21471896767616272,0.08597921580076218
1777560304117262800,16.212262939453126,0.08368847519159317,-0.23915356397628784,0.5166388750076294
1777560304135792600,16.230792724609376,0.19364413619041443,-0.4889972507953644,1.0346522331237793
1777560304154322700,16.24932275390625,0.21991132199764252,-1.2171480655670166,1.5074615478515625
1777560304172852700,16.267852783203125,0.4159989058971405,-1.757763385772705,2.103665590286255
1777560304191382500,16.286382568359375,0.4312705397605896,-1.905592679977417,2.7933318614959717
1777560304209912600,16.30491259765625,0.40927940607070923,-1.6905683279037476,3.168402910232544
1777560304228442600,16.323442626953124,0.20341797173023224,-1.5628975629806519,3.13480544090271
1777560304246972400,16.341972412109374,-0.12156209349632263,-1.3258819580078125,2.799440622329712
1777560304265502500,16.36050244140625,-0.42271843552589417,-1.1316269636154175,2.486677885055542
1777560304284032500,16.379032470703127,-0.6017017960548401,-0.8408553600311279,2.391993761062622
1777560304302562300,16.397562255859373,-0.6218603253364563,-0.5390881896018982,2.5294382572174072
1777560304321092400,16.41609228515625,-0.6010909676551819,-0.5115992426872253,2.599076986312866
1777560304339622400,16.434622314453126,-0.49602219462394714,-0.9031635522842407,2.107330799102783
1777560304358152200,16.453152099609376,-0.4618137776851654,-0.906828761100769,1.7212642431259155
1777560304376682200,16.47168212890625,-0.17043127119541168,-0.5592467188835144,1.751807451248169
1777560304395212000,16.4902119140625,0.3176496922969818,-0.5836812853813171,1.6870558261871338
1777560304413742000,16.5087421875,0.4990765154361725,-1.2666281461715698,1.5166245698928833
1777560304432272100,16.527272216796874,0.5216785073280334,-2.0222678184509277,1.5178462266921997
1777560304450802000,16.545802001953124,0.6371319890022278,-2.2501204013824463,1.5532764196395874
1777560304469332000,16.56433203125,0.7483093738555908,-2.255618095397949,1.136055827140808
1777560304487862000,16.582862060546876,0.7880155444145203,-1.7748676538467407,0.42012226581573486
1777560304506391800,16.601391845703127,0.7965676784515381,-1.0387755632400513,-0.21517711877822876
1777560304524921900,16.619921875,0.7874047160148621,-0.6453786492347717,-0.7936660647392273
1777560304543451600,16.63845166015625,0.8124501705169678,-0.2617555558681488,-1.3599376678466797
1777560304561981700,16.656981689453126,0.7745765447616577,0.11392628401517868,-1.9115486145019531
1777560304580511500,16.675511474609376,0.6340776681900024,0.3851502537727356,-2.131459951400757
1777560304599041500,16.69404150390625,0.4257727563381195,0.6759218573570251,-1.7973169088363647
1777560304617571600,16.712571533203125,0.001832594396546483,0.7272345423698425,-0.8614720702171326
1777560304636101400,16.731101318359375,-0.5864301919937134,-0.06444623321294785,0.7939714789390564
1777560304654631400,16.74963134765625,-0.3445277214050293,-1.470046043395996,2.254549264907837
1777560304673161500,16.768161376953124,0.31520622968673706,-1.9605704545974731,1.5471677780151367
1777560304691691300,16.786691162109374,0.37201663851737976,-2.3539674282073975,1.771355152130127
1777560304710221300,16.80522119140625,0.11911863088607788,-2.744310140609741,1.6259692907333374
1777560304728751400,16.82375146484375,0.2718348205089569,-1.757763385772705,0.33948808908462524
1777560304747281200,16.84228125,0.39217519760131836,-0.4932733178138733,-0.8755219578742981
1777560304765811200,16.860811279296875,0.21991132199764252,0.31612253189086914,-1.421024203300476
1777560304784341000,16.879341064453126,-0.3915643095970154,1.574504017829895,-1.5218168497085571
1777560304802871000,16.89787109375,-1.1227694749832153,1.118798851966858,-0.6769908666610718
1777560304821401000,16.916401123046874,0.025045456364750862,0.5965094566345215,-0.1815795600414276
1777560304839931000,16.934930908203125,0.6194168925285339,0.2605338394641876,-0.502894401550293
1777560304858461000,16.9534609375,0.646905779838562,0.21288637816905975,-0.7564033269882202
1777560304876991000,16.971990966796874,0.3860665261745453,1.082757830619812,-1.6030619144439697
1777560304895520800,16.990520751953124,-0.4508182108402252,4.08393669128418,-2.419788122177124
1777560304914050800,17.00905078125,-1.0445787906646729,4.689914226531982,-2.293950080871582
1777560304932580900,17.027580810546876,-1.1624757051467896,2.055865526199341,-1.6623157262802124
1777560304951110700,17.046110595703126,-0.45509424805641174,-0.8402445316314697,-1.131474256515503
1777560304969640700,17.064640625,0.1997527778148651,-0.8194751143455505,-1.5462514162063599
1777560304988170500,17.08317041015625,0.8668171167373657,1.778532862663269,-1.669646143913269
1777560305006700500,17.101700439453126,1.4019346237182617,2.830441951751709,-1.578627347946167
1777560305025230300,17.120230224609376,1.3891065120697021,2.8432700634002686,-1.5315907001495361
1777560305043760400,17.138760498046874,1.0109812021255493,2.271500587463379,-1.5236494541168213
1777560305062290400,17.15729052734375,0.4166097939014435,1.2287545204162598,-1.3892592191696167
1777560305080820200,17.1758203125,-0.10995566099882126,0.3179551064968109,-1.254868984222412
1777560305099350300,17.194350341796873,-0.2571740746498108,0.14813470840454102,-1.1669044494628906
1777560305117880300,17.21288037109375,-0.2009745091199875,0.6075050234794617,-0.9903645515441895
1777560305136410400,17.231410400390626,-0.09712749719619751,1.3002257347106934,-0.9219476580619812
1777560305154940200,17.249940185546876,0.0818558782339096,1.793804407119751,-0.8040507435798645
1777560305173470200,17.26847021484375,-0.003665188793092966,1.5036436319351196,-0.7625119686126709
1777560305192000300,17.287000244140625,-0.2009745091199875,0.5476402640342712,-0.9054543375968933
1777560305210530000,17.305530029296875,-0.25534147024154663,0.12186752259731293,-1.060613989830017
1777560305229060000,17.32406005859375,-0.26939135789871216,0.3277289569377899,-1.050840139389038
1777560305247590000,17.34258984375,-0.2669478952884674,0.5396990180015564,-0.9335541129112244
1777560305266120000,17.361119873046874,-0.25045454502105713,0.664926290512085,-0.8064942359924316
1777560305284649700,17.379649658203125,-0.23273947834968567,0.5568032264709473,-0.698371171951294
1777560305303179800,17.3981796875,-0.2419024556875229,0.2965748608112335,-0.5291616320610046
1777560305321709800,17.416709716796873,-0.21380266547203064,0.2605338394641876,-0.4228711426258087
1777560305340239600,17.435239501953124,-0.17287473380565643,0.3808741867542267,-0.42042768001556396
1777560305358769700,17.453769775390626,-0.15699224174022675,0.5244274139404297,-0.3990474045276642
1777560305377299700,17.4722998046875,-0.11911863088607788,0.6398808360099792,-0.3666715919971466
1777560305395829500,17.49082958984375,-0.12705987691879272,0.45478883385658264,-0.36483898758888245
1777560305414359600,17.509359619140625,-0.20769402384757996,0.004581485874950886,-0.20173808932304382
1777560305432889600,17.5278896484375,-0.1740964651107788,-0.15179990231990814,-0.01359174121171236
1777560305451419400,17.54641943359375,0.01588248461484909,-0.05222893878817558,0.25641047954559326
1777560305469949400,17.564949462890624,0.06047561392188072,-0.4621191918849945,0.6272054314613342
1777560305488479500,17.5834794921875,0.18631376326084137,-1.0106757879257202,0.9491311311721802
1777560305507009500,17.602009521484376,0.35185810923576355,-1.3222168684005737,1.345582365989685
1777560305525539300,17.620539306640627,0.40805765986442566,-1.7956370115280151,1.9252930879592896
1777560305544069400,17.6390693359375,0.33658650517463684,-2.0754129886627197,2.6558873653411865
1777560305562599200,17.65759912109375,0.2761108875274658,-1.9031492471694946,3.0828819274902344
1777560305581129200,17.676129150390626,0.11911863088607788,-1.676518440246582,3.160461664199829
1777560305599659300,17.6946591796875,-0.09834922850131989,-1.3191624879837036,2.836092472076416
1777560305618189000,17.71318896484375,-0.4373791813850403,-1.0161736011505127,2.439641237258911
1777560305636719000,17.731718994140625,-0.6414080262184143,-0.7712168097496033,2.486677885055542
1777560305655249000,17.750248779296875,-0.5943714380264282,-0.5800161361694336,2.629009246826172
1777560305673779000,17.768779052734374,-0.4453204274177551,-0.5555815100669861,2.396880626678467
1777560305692309000,17.78730908203125,-0.40378162264823914,-0.9159917235374451,1.8367177248001099
1777560305710838800,17.8058388671875,-0.39217519760131836,-0.6667588949203491,1.633299708366394
1777560305729368800,17.824368896484376,0.004886918235570192,-0.4321868419647217,1.8165591955184937
1777560305747899000,17.84289892578125,0.3787361681461334,-0.7846558094024658,1.7609704732894897
1777560305766428700,17.8614287109375,0.4520399272441864,-1.4450006484985352,1.7481422424316406
1777560305784958700,17.879958740234375,0.4202749729156494,-2.1578798294067383,1.8587088584899902
1777560305803488800,17.89848876953125,0.5778780579566956,-2.5775439739227295,1.7957897186279297
1777560305822018600,17.9170185546875,0.7250964641571045,-2.5164575576782227,1.2930480241775513
1777560305840548600,17.935548583984374,0.7312051653862,-1.8848233222961426,0.5471821427345276
1777560305859078700,17.95407861328125,0.6743947267532349,-1.0980294942855835,-0.1003345400094986
1777560305877608400,17.9726083984375,0.6255255341529846,-0.5396990180015564,-0.6794343590736389
1777560305896138500,17.991138427734374,0.5955931544303894,-0.2055560052394867,-1.2359321117401123
1777560305914668500,18.00966845703125,0.5564978122711182,-0.10537417232990265,-1.726456642150879
1777560305933198600,18.028198486328126,0.47525280714035034,0.17684535682201385,-1.9237658977508545
1777560305951728400,18.046728271484376,0.3848448097705841,0.7974839806556702,-1.772882342338562
1777560305970258400,18.065258544921875,0.0769689604640007,1.0406081676483154,-1.0679444074630737
1777560305988788500,18.08378857421875,-0.5491674542427063,0.08277218043804169,0.8709404468536377
1777560306007318300,18.102318359375,-0.3329212963581085,-1.5415172576904297,2.195906162261963
1777560306025848300,18.120848388671874,0.2864955961704254,-2.123671293258667,1.5832087993621826
1777560306044378400,18.13937841796875,0.24984370172023773,-2.22385311126709,1.6186389923095703
1777560306062908200,18.157908203125,0.05192350596189499,-2.559828758239746,1.328478217124939
1777560306081438200,18.176438232421877,0.3133736252784729,-2.068082809448242,0.12018764764070511
1777560306099968300,18.19496826171875,0.48075059056282043,-0.6637045741081238,-1.0080796480178833
1777560306118498000,18.213498046875,0.5051851868629456,0.44379326701164246,-1.0777181386947632
1777560306137028000,18.232028076171876,-0.009773836471140385,1.4596613645553589,-0.9689842462539673
1777560306155558100,18.25055810546875,-1.117882490158081,0.6753110289573669,-0.7295252680778503
1777560306174088000,18.269087890625,-0.2614501118659973,0.34788748621940613,-0.388051837682724
1777560306192618000,18.287617919921875,0.3689623177051544,0.8280271887779236,-0.6281217336654663
1777560306211148000,18.30614794921875,0.5980366468429565,0.537255585193634,-1.0349576473236084
1777560306229677800,18.324677734375,0.4557051360607147,1.324660301208496,-2.0459389686584473
1777560306248208000,18.343207763671874,-0.3585776388645172,4.568352222442627,-2.91703200340271
1777560306266738000,18.361738037109376,-1.007315993309021,5.265959739685059,-2.621373414993286
1777560306285268000,18.38026806640625,-1.1001675128936768,2.7809619903564453,-1.7808235883712769
1777560306303797800,18.3987978515625,-0.20463970303535461,-0.5054906010627747,-1.1730130910873413
1777560306322327800,18.417327880859375,0.22846342623233795,-0.49999281764030457,-1.669646143913269
1777560306340857900,18.43585791015625,0.8643736839294434,2.0693044662475586,-1.6934698820114136
1777560306359387600,18.4543876953125,1.4422518014907837,2.9770495891571045,-1.4869976043701172
1777560306377917700,18.472917724609374,1.3347395658493042,2.891528367996216,-1.5041017532348633
1777560306396447700,18.49144775390625,0.9169080257415771,2.296546220779419,-1.603672742843628
1777560306414977500,18.5099775390625,0.37751442193984985,1.349705696105957,-1.5242602825164795
1777560306433507600,18.528507568359377,-0.018325943499803543,0.5702422857284546,-1.114980936050415
1777560306452037600,18.54703759765625,-0.15638138353824615,0.6429351568222046,-0.9964731931686401
1777560306470567400,18.5655673828125,-0.031154103577136993,1.211039423942566,-0.994029700756073
1777560306498362400,18.5933623046875,0.10506874322891235,2.061974048614502,-0.7295252680778503
1777560306516892400,18.611892333984375,0.046425722539424896,1.8524473905563354,-0.7234166264533997
1777560306535422200,18.630422119140626,-0.21197007596492767,0.8750637769699097,-0.8956804871559143
1777560306553952300,18.6489521484375,-0.35796675086021423,0.3344484567642212,-1.0557270050048828
1777560306572482300,18.667482421875,-0.37812530994415283,0.5342012643814087,-1.014188289642334
1777560306591012000,18.68601220703125,-0.36774060130119324,0.766940712928772,-0.9170607328414917
1777560306609542100,18.704542236328123,-0.32620179653167725,0.7944296598434448,-0.9066760540008545
1777560306628072200,18.723072265625,-0.2510654330253601,0.6459894776344299,-0.9036217331886292
1777560306646602200,18.741602294921876,-0.268169641494751,0.41325002908706665,-0.6800451874732971
1777560306665132000,18.760132080078126,-0.2938259541988373,0.3552178740501404,-0.40149086713790894
1777560306683662000,18.778662109375,-0.24373504519462585,0.5586358308792114,-0.35873034596443176
1777560306702192000,18.797192138671875,-0.14294235408306122,0.7889318466186523,-0.304974228143692
1777560306720722000,18.815721923828125,-0.13194678723812103,0.7553343176841736,-0.2964221239089966
1777560306739252000,18.834251953125,-0.14110976457595825,0.5329795479774475,-0.35995206236839294
1777560306757782000,18.852781982421874,-0.17837251722812653,0.20861032605171204,-0.21517711877822876
1777560306776311800,18.871311767578124,-0.13011419773101807,0.15179990231990814,0.0010690133785828948
1777560306794841900,18.889841796875,-0.05436696484684944,0.035124726593494415,0.2283107042312622
1777560306813372000,18.908371826171877,0.007330377586185932,-0.3992001414299011,0.6559160351753235
1777560306831901700,18.926901611328127,0.14599667489528656,-0.9495893120765686,1.1177297830581665
1777560306850431700,18.945431640625,0.26450446248054504,-1.5128066539764404,1.624747633934021
1777560306868961800,18.9639619140625,0.39278605580329895,-1.9495749473571777,2.2930335998535156
1777560306887491600,18.98249169921875,0.370184063911438,-2.033874273300171,2.861137866973877
1777560306906021600,19.001021728515624,0.27488914132118225,-1.8555017709732056,3.057225465774536
1777560306924551700,19.0195517578125,0.05192350596189499,-1.6203187704086304,3.0224061012268066
1777560306943081500,19.03808154296875,-0.24740023910999298,-1.1707223653793335,2.6583309173583984
1777560306961611500,19.056611572265624,-0.4471530318260193,-0.7706059217453003,2.327242136001587
1777560306980141600,19.0751416015625,-0.5094612240791321,-0.45967575907707214,2.310137987136841
1777560306998671600,19.093671630859376,-0.5277871489524841,-0.8274163603782654,2.436586856842041
1777560307017201400,19.112201416015626,-0.5393936038017273,-1.379027247428894,2.296698808670044
1777560307035731500,19.1307314453125,-0.5919279456138611,-1.2776236534118652,1.9821034669876099
1777560307054261500,19.149261474609375,-0.49480047821998596,-1.0528254508972168,1.898414969444275
1777560307072791300,19.167791259765625,-0.18203771114349365,-0.9385937452316284,1.9106323719024658
1777560307091321300,19.1863212890625,0.21868959069252014,-1.194546103477478,1.8220568895339966
1777560307109851400,19.204851318359374,0.4838049113750458,-1.7009530067443848,1.7304271459579468
1777560307128381200,19.223381103515624,0.6884446144104004,-2.2287402153015137,1.6021455526351929
1777560307146911200,19.2419111328125,0.8014546036720276,-2.598924160003662,1.4549272060394287
1777560307165441300,19.260441162109377,0.7666352987289429,-2.2611160278320312,1.0517563819885254
1777560307183971000,19.27897119140625,0.7061597108840942,-1.4382811784744263,0.5349648594856262
1777560307202501000,19.297501220703126,0.6542361974716187,-0.7412844300270081,0.1311832070350647
1777560307221031200,19.31603125,0.5705476999282837,-0.42302384972572327,-0.162031888961792
1777560307239561000,19.33456103515625,0.545502245426178,-0.42913252115249634,-0.5138899683952332
1777560307258091000,19.353091064453125,0.5387827157974243,-0.383928507566452,-1.0099122524261475
1777560307276621000,19.37162109375,0.5589412450790405,-0.1701258420944214,-1.427743673324585
1777560307295150800,19.39015087890625,0.5253437161445618,0.11331541836261749,-1.6006184816360474
1777560307313681000,19.408680908203124,0.4563159942626953,0.34727662801742554,-1.4540108442306519
1777560307332211000,19.4272109375,0.31031930446624756,-0.08949168771505356,-0.9188933372497559
1777560307350741000,19.445740966796876,-0.06475166976451874,-0.8622356653213501,0.19349141418933868
1777560307369270800,19.464270751953126,0.001221729558892548,-1.3374884128570557,1.4628684520721436
1777560307387800800,19.48280078125,0.44409868121147156,-1.352149248123169,1.3406955003738403
1777560307406331000,19.501330810546875,0.5216785073280334,-1.2360849380493164,1.455538034439087
1777560307424860700,19.519860595703125,0.24373504519462585,-1.617875337600708,1.333975911140442
1777560307443390700,19.538390625,0.17043127119541168,-1.573282241821289,0.3254382014274597
1777560307461920800,19.556920654296874,-0.010384701192378998,-0.6753110289573669,-0.771064043045044
1777560307480450600,19.575450439453125,-0.5674933791160583,-0.011300998739898205,-0.6824886798858643
1777560307498980600,19.593980712890627,-1.1136064529418945,0.1591302752494812,-0.2286161482334137
1777560307517510700,19.6125107421875,-0.5980366468429565,0.9324851036071777,-0.6647735834121704
1777560307536040400,19.63104052734375,0.33597561717033386,1.7803653478622437,-1.1058179140090942
1777560307554570500,19.649570556640626,0.49480047821998596,1.1682789325714111,-1.1357502937316895
1777560307573100500,19.6681005859375,0.3384190797805786,0.7730493545532227,-1.6898046731948853
1777560307591630300,19.68663037109375,-0.06352993845939636,2.7198753356933594,-2.512028694152832
1777560307610160400,19.705160400390625,-0.5540543794631958,4.350884437561035,-2.4717116355895996
1777560307628690400,19.7236904296875,-0.7098248600959778,3.2433865070343018,-1.8333579301834106
1777560307647220200,19.74222021484375,-0.38667741417884827,1.3093886375427246,-1.3251184225082397
1777560307665750300,19.760750244140624,0.24495677649974823,0.2770271897315979,-1.2829687595367432
1777560307684280300,19.7792802734375,0.618806004524231,1.2873975038528442,-1.7918190956115723
1777560307702810400,19.797810302734376,1.0983349084854126,2.6337435245513916,-1.7319543361663818
1777560307721340200,19.816340087890627,1.3158026933670044,3.263545036315918,-1.4497348070144653
1777560307739870200,19.8348701171875,1.0946696996688843,3.1511459350585938,-1.5010474920272827
1777560307758400300,19.853400146484375,0.5778780579566956,2.1022911071777344,-1.6030619144439697
1777560307776930000,19.871929931640626,0.08124501258134842,0.7260127663612366,-1.3507747650146484
1777560307795460000,19.890460205078124,-0.22846342623233795,0.026572618633508682,-1.2316560745239258
1777560307813990100,19.908990234375,-0.20647229254245758,0.3289506733417511,-1.2658644914627075
1777560307832520000,19.92752001953125,-0.14294235408306122,1.0735948085784912,-1.0056360960006714
1777560307851050000,19.946050048828123,0.025045456364750862,1.739437460899353,-0.74540776014328
1777560307869580000,19.964580078125,0.031154103577136993,1.7540981769561768,-0.7790052890777588
1777560307888109800,19.98310986328125,-0.21746785938739777,0.804814338684082,-0.8590285778045654
1777560307906640000,20.001639892578126,-0.35613417625427246,0.14263692498207092,-0.8901826739311218
1777560307925170000,20.020169921875,-0.4324922561645508,0.06261363625526428,-0.8712459206581116
1777560307943699700,20.03869970703125,-0.47586366534233093,0.3436114490032196,-0.8425352573394775
1777560307962229800,20.057229736328125,-0.3640754222869873,0.6490437984466553,-0.8242093324661255
1777560307980759800,20.075759765625,-0.24251331388950348,0.6826413869857788,-0.7881683111190796
1777560307999289600,20.09428955078125,-0.2461785078048706,0.3759872615337372,-0.6586649417877197
1777560308017819600,20.112819580078124,-0.3170388340950012,0.035124726593494415,-0.4130973219871521
1777560308036349700,20.131349609375,-0.2834412455558777,0.3179551064968109,-0.29825472831726074
1777560308054879700,20.149879638671877,-0.13500112295150757,0.7809906005859375,-0.2444986253976822
1777560308073409500,20.168409423828123,-0.017104214057326317,1.0143409967422485,-0.3685041666030884
1777560308091939600,20.186939697265625,-0.023823726922273636,0.5867356061935425,-0.5444332361221313
1777560308110469600,20.2054697265625,-0.0769689604640007,0.22937972843647003,-0.42103853821754456
1777560308128999400,20.22399951171875,-0.11484257876873016,0.30573782324790955,-0.15958842635154724
1777560308147529500,20.242529541015625,-0.11484257876873016,0.2788597643375397,0.04932733252644539
1777560308166059500,20.2610595703125,-0.0513126403093338,-0.02412915788590908,0.4243983030319214
1777560308184589300,20.27958935546875,0.0665842592716217,-0.537255585193634,0.855057954788208
1777560308203119400,20.298119384765624,0.2461785078048706,-1.0296125411987305,1.1953096389770508
1777560308221649400,20.3166494140625,0.4221075773239136,-1.5598431825637817,1.5825979709625244
1777560308240179200,20.33517919921875,0.46608981490135193,-1.9013166427612305,2.216064691543579
1777560308258709200,20.353709228515626,0.3591884970664978,-1.8646647930145264,2.732856273651123
1777560308277239300,20.3722392578125,0.24434591829776764,-1.9764529466629028,2.9442155361175537
1777560308295769000,20.39076904296875,-0.003665188793092966,-1.755930781364441,2.909396171569824
1777560308314299100,20.409299072265625,-0.18325942754745483,-1.099861979484558,2.551429510116577
1777560308332829200,20.4278291015625,-0.24434591829776764,-0.5525271892547607,2.364504814147949
1777560308351359000,20.44635888671875,-0.37690356373786926,-0.5586358308792114,2.4384195804595947
1777560308369889000,20.464888916015624,-0.38301220536231995,-0.9447023868560791,2.434143543243408
1777560308388419000,20.483419189453127,-0.3402516841888428,-1.6062688827514648,1.958890676498413
1777560308406948900,20.501948974609373,-0.5094612240791321,-1.9074252843856812,1.4982986450195312
1777560308425479000,20.52047900390625,-0.5687150955200195,-1.352149248123169,1.5306744575500488
1777560308444009000,20.539009033203126,-0.14294235408306122,-0.7522799968719482,1.7658573389053345
1777560308462539000,20.5575390625,0.347582072019577,-0.8365793228149414,1.7817398309707642
1777560308481068800,20.57606884765625,0.5784889459609985,-1.5922189950942993,1.7799072265625
1777560308499598800,20.594598876953125,0.6236929297447205,-2.1890339851379395,1.8299981355667114
1777560308518129000,20.61312890625,0.7086031436920166,-2.693608283996582,1.603978157043457
1777560308536658700,20.63165869140625,0.748920202255249,-2.584263563156128,1.0315978527069092
1777560308555188700,20.650188720703124,0.7293725609779358,-1.8884884119033813,0.47143489122390747
1777560308573718800,20.66871875,0.6010909676551819,-1.2843432426452637,0.03894263133406639
1777560308592248600,20.68724853515625,0.5009090900421143,-0.906828761100769,-0.38011062145233154
1777560308610778600,20.705778564453126,0.5045742988586426,-0.5690205693244934,-0.8529199361801147
1777560308629308700,20.72430859375,0.5106829404830933,-0.08338304609060287,-1.348331332206726
1777560308647838500,20.74283837890625,0.5125155448913574,0.3698786199092865,-1.7386739253997803
1777560308666368500,20.761368408203126,0.5131264328956604,0.8097012639045715,-1.944535255432129
1777560308684898600,20.779898681640624,0.24923282861709595,0.8762855529785156,-1.6042835712432861
1777560308703428400,20.798428466796874,-0.3970620930194855,0.1798996776342392,-0.20540328323841095
1777560308721958400,20.81695849609375,-0.33658650517463684,-0.4364628791809082,2.336405038833618
1777560308740488400,20.835488525390623,0.20402882993221283,-1.5751148462295532,1.8690935373306274
1777560308759018200,20.854018310546873,0.3390299379825592,-2.5805983543395996,2.0523529052734375
1777560308777548300,20.87254833984375,-0.018325943499803543,-3.081507444381714,2.1384849548339844
1777560308796078300,20.891078369140626,0.09834922850131989,-2.512181520462036,1.0401500463485718
1777560308814608400,20.9096083984375,0.34086254239082336,-1.5054762363433838,-0.4894554018974304
1777560308833138200,20.92813818359375,0.29626941680908203,-0.44501498341560364,-0.8486438989639282
1777560308851668200,20.946668212890625,-0.3298669755458832,0.5201513767242432,-0.8633046746253967
1777560308870198300,20.9651982421875,-0.6933315396308899,2.642906427383423,-1.4216350317001343
1777560308888728000,20.98372802734375,0.370184063911438,2.5860960483551025,-0.6580541133880615
1777560308907258000,21.002258056640624,0.6737838387489319,0.5879573225975037,-0.44180795550346375
1777560308925788200,21.0207880859375,0.3274235129356384,-1.4633265733718872,-0.8437569737434387
1777560308944318000,21.03931787109375,-0.20219624042510986,1.1200206279754639,-2.3623669147491455
1777560308962848000,21.057847900390627,-0.5302306413650513,5.1578369140625,-3.416719436645508
1777560308981378000,21.0763779296875,-0.7757982611656189,5.295281410217285,-2.7062838077545166
1777560308999907800,21.094907958984376,-0.6976075768470764,2.7711880207061768,-1.4381283521652222
1777560309018438000,21.11343798828125,-0.02932151034474373,0.035735588520765305,-0.9463822841644287
1777560309036968000,21.131968017578124,0.33658650517463684,-0.17318016290664673,-1.9255985021591187
1777560309055497700,21.150497802734375,1.0231984853744507,1.7919718027114868,-2.0660974979400635
1777560309074027800,21.16902783203125,1.4636319875717163,2.7626359462738037,-1.8168646097183228
1777560309092557800,21.187557861328123,1.3377938270568848,2.6141958236694336,-1.7942625284194946
1777560309111087600,21.206087646484374,0.8753692507743835,1.7064508199691772,-1.7484476566314697
1777560309129617700,21.22461767578125,0.23823726177215576,0.2813032269477844,-1.4967714548110962
1777560309148147700,21.243147705078126,-0.2730565667152405,-0.6130027770996094,-1.1717913150787354
1777560309166677800,21.261677734375,-0.401949018239975,-0.22388194501399994,-1.0978766679763794
1777560309185207600,21.28020751953125,-0.23823726177215576,0.7846558094024658,-0.9989166259765625
1777560309203737600,21.298737548828125,-0.08918625861406326,1.9062035083770752,-0.7625119686126709
1777560309222267600,21.317267578125,-0.01588248461484909,1.999055027961731,-0.6562215089797974
1777560309240797400,21.33579736328125,-0.31581708788871765,0.601396381855011,-0.9537126421928406
1777560309259327500,21.354327392578124,-0.42271843552589417,-0.34727662801742554,-1.1699587106704712
1777560309277857500,21.372857421875,-0.37629270553588867,0.05711585655808449,-1.014188289642334
1777560309296387300,21.39138720703125,-0.235793799161911,0.795040488243103,-0.8810197114944458
1777560309314917400,21.40991748046875,-0.11117739230394363,0.9013310074806213,-0.7783944606781006
1777560309333447400,21.428447509765626,-0.08796452730894089,0.2813032269477844,-0.7301361560821533
1777560309351977200,21.446977294921876,-0.18753549456596375,-0.21410810947418213,-0.6910407543182373
1777560309370507300,21.46550732421875,-0.2938259541988373,0.08093958348035812,-0.4552469849586487
1777560309389037300,21.484037353515625,-0.25534147024154663,0.7168498039245605,-0.337350070476532
1777560309407567000,21.502567138671875,-0.13255766034126282,0.8011491298675537,-0.3935496211051941
1777560309426097200,21.52109716796875,-0.04764745384454727,0.23426663875579834,-0.3825540542602539
1777560309444627200,21.539627197265624,-0.02932151034474373,-0.05283980444073677,-0.16997312009334564
1777560309463157000,21.558156982421874,0.04153880476951599,0.1279761642217636,0.12202023714780807
1777560309481687000,21.57668701171875,0.10567960888147354,0.11698060482740402,0.5294670462608337
1777560309500217000,21.595217041015626,0.19364413619041443,-0.35705047845840454,0.9259182810783386
1777560309518747100,21.6137470703125,0.20830489695072174,-1.0021237134933472,1.31870436668396
1777560309537277000,21.63227685546875,0.29504770040512085,-1.5225805044174194,1.8336633443832397
1777560309555807000,21.650806884765625,0.28466299176216125,-1.9092578887939453,2.5715880393981934
1777560309574337000,21.6693369140625,0.2101374864578247,-1.774256706237793,3.0022475719451904
1777560309592866800,21.68786669921875,0.10384701192378998,-1.472489595413208,3.13175106048584
1777560309611396900,21.70639697265625,-0.09651663154363632,-1.165224552154541,2.883129119873047
1777560309629927000,21.724927001953127,-0.3799578845500946,-0.8335250020027161,2.570366382598877
1777560309648457000,21.74345703125,-0.62857985496521,-0.8158099055290222,2.4799582958221436
1777560309666986800,21.76198681640625,-0.637742817401886,-0.6417134404182434,2.5434882640838623
1777560309685516800,21.780516845703126,-0.6395754218101501,-0.16523891687393188,2.618013620376587
1777560309704046800,21.799046875,-0.6230821013450623,-0.2202167510986328,2.425591230392456
1777560309722576600,21.81757666015625,-0.5992583632469177,-0.8231402635574341,1.9821034669876099
1777560309741106700,21.836106689453125,-0.40805765986442566,-0.9837977290153503,1.929569125175476
1777560309759636700,21.85463671875,-0.031154103577136993,-0.9031635522842407,2.1030547618865967
1777560309778166800,21.873166748046874,0.17104214429855347,-1.184772253036499,2.0975568294525146
1777560309796696600,21.891696533203124,0.21502439677715302,-1.653916358947754,1.9845468997955322
1777560309815226600,21.9102265625,0.3543015718460083,-2.1969752311706543,1.7444771528244019
1777560309833756700,21.928756591796876,0.5045742988586426,-2.336252450942993,1.3046544790267944
1777560309852286700,21.94728662109375,0.5845975875854492,-1.9080361127853394,0.6412553191184998
1777560309870816500,21.96581640625,0.6701186895370483,-1.1890482902526855,-0.08261945843696594
1777560309889346600,21.9843466796875,0.7092140316963196,-0.5244274139404297,-0.7466294765472412
1777560309907876600,22.002876708984374,0.7263182401657104,-0.047952886670827866,-1.2286018133163452
1777560309926406400,22.021406494140624,0.7440332770347595,0.20189081132411957,-1.6342159509658813
1777560309944936400,22.0399365234375,0.8106175661087036,0.2880227565765381,-1.9585851430892944
1777560309963466500,22.058466552734377,0.861319363117218,0.3381136655807495,-1.9500330686569214
1777560309981996300,22.076996337890623,0.6462949514389038,0.5232056975364685,-1.188895583152771
1777560310000526300,22.0955263671875,-0.04214967042207718,0.4987711012363434,0.41095927357673645
1777560310019056400,22.114056396484376,-0.28466299176216125,-0.06505709886550903,1.9912664890289307
1777560310037586200,22.132586181640626,0.015271619893610477,-1.7663154602050781,1.3724604845046997
1777560310056116200,22.1511162109375,0.1905898153781891,-2.3460261821746826,1.6229150295257568
1777560310074646300,22.169646240234375,0.09285144507884979,-2.7223188877105713,1.7023273706436157
1777560310093176300,22.18817626953125,0.22724169492721558,-2.148106098175049,0.7383828163146973
1777560310111706000,22.2067060546875,0.35185810923576355,-1.0399973392486572,-0.5059487819671631
1777560310130236200,22.225236083984374,0.33719736337661743,0.09621120244264603,-1.2017236948013306
1777560310148766200,22.24376611328125,-0.17348559200763702,0.7626646757125854,-0.6000219583511353
1777560310167296300,22.262296142578126,-0.8765909671783447,0.5769617557525635,-0.6617192625999451
1777560310185826000,22.280825927734377,-0.26939135789871216,1.4358376264572144,-0.8315396904945374
1777560310204356000,22.299356201171875,0.49480047821998596,1.7205007076263428,-0.7417425513267517
1777560310222886100,22.31788623046875,0.5778780579566956,0.5390881896018982,-0.6501128673553467
1777560310241416200,22.336416259765624,0.3689623177051544,0.10965022444725037,-1.557857871055603
1777560310259946000,22.354946044921874,-0.013439024798572063,3.682598352432251,-3.1167848110198975
1777560310278476000,22.37347607421875,-0.45509424805641174,5.79619026184082,-3.3128724098205566
1777560310297006000,22.392006103515627,-0.7709113359451294,3.9690937995910645,-2.3764166831970215
1777560310315536000,22.410535888671873,-0.6688969135284424,1.3564252853393555,-1.144302487373352
1777560310334066000,22.42906591796875,0.14538581669330597,0.07299833744764328,-1.0483967065811157
1777560310352596000,22.447595947265626,0.7183769941329956,1.3008365631103516,-1.9604177474975586
1777560310371125800,22.466125732421876,1.3836086988449097,3.0692901611328125,-1.8400774002075195
1777560310389655800,22.48465576171875,1.5705333948135376,3.4358088970184326,-1.820529818534851
1777560310408185900,22.503185791015625,1.137430191040039,2.6019785404205322,-2.030667304992676
1777560310426716000,22.5217158203125,0.44959646463394165,0.9856303334236145,-1.5822924375534058
1777560310445245700,22.54024560546875,-0.19853104650974274,-0.4462367296218872,-1.0655008554458618
1777560310463775700,22.558775634765624,-0.47525280714035034,-0.5006036758422852,-1.0282381772994995
1777560310482305800,22.577305908203126,-0.2608392536640167,0.7357866168022156,-1.1094831228256226
1777560310500835800,22.5958359375,-0.11178825795650482,1.8377866744995117,-0.9402735829353333
1777560310519366000,22.614365966796875,-0.12278381735086441,2.2256858348846436,-0.6232348084449768
1777560310537895700,22.632895751953125,-0.235793799161911,1.5372412204742432,-0.7973312735557556
1777560310556425700,22.65142578125,-0.39889469742774963,0.20433427393436432,-1.1840087175369263
1777560310574955800,22.669955810546874,-0.5088503360748291,-0.06566796451807022,-1.2066106796264648
1777560310593485600,22.688485595703124,-0.5241219997406006,0.5549706816673279,-1.0080796480178833
1777560310612015600,22.707015625,-0.37690356373786926,1.036942958831787,-0.9060651659965515
1777560310630545700,22.725545654296877,-0.2107483446598053,0.8408553600311279,-0.8199332356452942
1777560310649075500,22.744075439453123,-0.13194678723812103,0.14019346237182617,-0.7008146047592163
1777560310667605500,22.76260546875,-0.1533270627260208,-0.13469567894935608,-0.5285507440567017
1777560310686135600,22.781135498046876,-0.10934479534626007,0.3698786199092865,-0.3013090491294861
1777560310704665600,22.79966552734375,-0.007941242307424545,0.9049961566925049,-0.2390008419752121
1777560310723195600,22.818195556640624,0.046425722539424896,0.8200859427452087,-0.32452189922332764
1777560310741725400,22.836725341796875,-0.006108647678047419,0.20311254262924194,-0.2237292230129242
1777560310760255500,22.85525537109375,-0.01893680728971958,0.09560033679008484,0.01695149764418602
1777560310778785500,22.87378564453125,0.08307760953903198,0.30512696504592896,0.2759581506252289
1777560310797315300,22.8923154296875,0.09957095980644226,-0.14141519367694855,0.6265945434570312
1777560310815845400,22.910845458984376,0.17653992772102356,-0.8335250020027161,0.9039271473884583
1777560310834375400,22.92937548828125,0.318871408700943,-1.2428044080734253,1.2973240613937378
1777560310852905500,22.947905517578125,0.3695732057094574,-1.755930781364441,2.011425018310547
1777560310871435300,22.966435302734375,0.37690356373786926,-1.8903210163116455,2.8507533073425293
1777560310889965300,22.98496533203125,0.3555232882499695,-1.7883065938949585,3.2948520183563232
1777560310908495400,23.003495361328124,0.31031930446624756,-1.5225805044174194,3.1836745738983154
1777560310927025200,23.022025146484374,0.003665188793092966,-1.2861758470535278,2.8312056064605713
1777560310945555200,23.04055517578125,-0.36712974309921265,-0.9398154616355896,2.5447099208831787
1777560310964085200,23.059085205078127,-0.46608981490135193,-0.804814338684082,2.459188938140869
1777560310982615300,23.077615234375,-0.5424479246139526,-0.41263917088508606,2.5770857334136963
1777560311001145300,23.096145263671875,-0.5070177912712097,-0.8872811198234558,2.467130184173584
1777560311019675100,23.114675048828126,-0.5577195286750793,-1.2250893115997314,2.139706611633301
1777560311038205200,23.133205078125,-0.6829468011856079,-0.7932079434394836,2.1775801181793213
1777560311056735200,23.1517353515625,-0.5534434914588928,-0.4944950342178345,2.229503631591797
1777560311075265000,23.17026513671875,-0.1386663019657135,-0.8994984030723572,1.9778274297714233
1777560311093795000,23.188795166015623,0.3035998046398163,-1.6453642845153809,1.8446589708328247
1777560311112325000,23.2073251953125,0.4379900395870209,-2.0497567653656006,1.98515784740448
1777560311130855200,23.225855224609376,0.4831940531730652,-2.649015188217163,1.8587088584899902
1777560311149385200,23.24438525390625,0.5186241865158081,-2.4602580070495605,1.335808515548706
1777560311167915000,23.2629150390625,0.5626064538955688,-1.5964951515197754,0.6296488642692566
1777560311186445000,23.281445068359375,0.5852084755897522,-0.9532544612884521,-0.14859285950660706
1777560311204975000,23.29997509765625,0.5442805290222168,-0.4114174246788025,-0.7380773425102234
1777560311223505200,23.318505126953124,0.5772672295570374,-0.02412915788590908,-1.190117359161377
1777560311242035000,23.337034912109374,0.6914989352226257,0.09071341902017593,-1.6360485553741455
1777560311260565000,23.35556494140625,0.8057306408882141,0.06627883017063141,-1.954309105873108
1777560311279095000,23.374094970703126,0.778241753578186,0.4682278633117676,-1.7936517000198364
1777560311297624800,23.392624755859377,0.5283980369567871,0.732121467590332,-1.0160208940505981
1777560311316155000,23.41115478515625,-0.11178825795650482,0.2153298407793045,-0.0746782198548317
1777560311334685000,23.429684814453125,-0.3481929302215576,-0.8011491298675537,1.0957386493682861
1777560311353215000,23.448215087890624,0.10995566099882126,-2.4553709030151367,1.0499238967895508
