time,seconds_elapsed,z,y,x
1777560288274046700,0.369046630859375,-3.2437500953674316,12.05625057220459,-7.687500476837158
1777560288284046600,0.379046630859375,-1.4625000953674316,11.100000381469727,-7.350000381469727
1777560288294046700,0.389046630859375,-1.725000023841858,11.68125057220459,-8.49375057220459
1777560288314046700,0.409046630859375,-1.125,9.862500190734863,-13.387500762939453
1777560288354046700,0.449046630859375,-2.90625,11.381250381469727,-11.49375057220459
1777560288364046600,0.459046630859375,-1.9687501192092896,9.9375,-18
1777560288374046700,0.469046630859375,2.7562501430511475,11.25,-14.906250953674316
1777560288384046600,0.479046630859375,0.3187500238418579,11.40000057220459,-14.68125057220459
1777560288394046700,0.489046630859375,-3.5062501430511475,10.40625,-14.756250381469727
1777560288404046600,0.499046630859375,0.13125000894069672,9.018750190734863,-17.381250381469727
1777560288414046700,0.509046630859375,2.625,11.49375057220459,-15.71250057220459
1777560288424046600,0.519046630859375,-1.0125000476837158,10.331250190734863,-9.206250190734863
1777560288434046700,0.529046630859375,-3.562500238418579,12.018750190734863,-6.262500286102295
1777560288444046600,0.539046630859375,-2.6625001430511475,11.268750190734863,-7.987500190734863
1777560288454046700,0.549046630859375,-3.750000238418579,10.668750762939453,-7.800000190734863
1777560288464046600,0.559046630859375,-4.462500095367432,12.562500953674316,-6
1777560288474046700,0.569046630859375,-2.231250047683716,10.293750762939453,-8.606250762939453
1777560288484046600,0.579046630859375,-3.6000001430511475,10.068750381469727,-8.475000381469727
1777560288494046700,0.589046630859375,-1.3125,11.25,-7.181250095367432
1777560288504046600,0.599046630859375,-0.5062500238418579,11.981250762939453,-8.193750381469727
1777560288514046700,0.609046630859375,-3.9750001430511475,12.750000953674316,-7.256250381469727
1777560288524046600,0.619046630859375,-3.562500238418579,11.30625057220459,-8.512500762939453
1777560288534046700,0.629046630859375,-3.450000047683716,10.78125,-7.068750381469727
1777560288544046600,0.639046630859375,-1.2750000953674316,12.262500762939453,-6.281250476837158
1777560288554046700,0.649046630859375,-1.2937500476837158,10.481250762939453,-9.862500190734863
1777560288564046600,0.659046630859375,-3.4312500953674316,11.0625,-7.725000381469727
1777560288574046700,0.669046630859375,-2.8500001430511475,10.950000762939453,-6.768750190734863
1777560288584046600,0.679046630859375,-5.400000095367432,11.4375,-7.743750095367432
1777560288594046700,0.689046630859375,-2.0625,10.55625057220459,-9.412500381469727
1777560288604046600,0.699046630859375,-2.25,9.975000381469727,-8.25
1777560288614046700,0.709046630859375,-2.6625001430511475,10.83750057220459,-9.206250190734863
1777560288624046600,0.719046630859375,-3.4125001430511475,10.200000762939453,-10.987500190734863
1777560288634046700,0.729046630859375,-3.281250238418579,11.325000762939453,-6.693750381469727
1777560288644046600,0.739046630859375,-3.450000047683716,10.36875057220459,-8.137500762939453
1777560288654046700,0.749046630859375,-3.7125000953674316,11.96250057220459,-7.556250095367432
1777560288664046600,0.759046630859375,-3.562500238418579,11.30625057220459,-8.512500762939453
1777560288674046700,0.769046630859375,-4.181250095367432,11.8125,-6.862500190734863
1777560288684046600,0.779046630859375,-1.8562500476837158,11.512500762939453,-10.5
1777560288694046700,0.789046630859375,-5.325000286102295,10.106250762939453,-5.737500190734863
1777560288704046600,0.799046630859375,-2.53125,9.5625,-10.293750762939453
1777560288714046700,0.809046630859375,-4.050000190734863,10.425000190734863,-8.68125057220459
1777560288724046600,0.819046630859375,-2.0062501430511475,11.30625057220459,-11.100000381469727
1777560288734046700,0.829046630859375,-1.9312500953674316,9.918750762939453,-8.68125057220459
1777560288744046600,0.839046630859375,-3.4125001430511475,11.662500381469727,-7.893750190734863
1777560288754046700,0.849046630859375,-3.6000001430511475,9.918750762939453,-9.487500190734863
1777560288764046600,0.859046630859375,-3.6000001430511475,9.918750762939453,-9.487500190734863
1777560288774046700,0.869046630859375,-4.181250095367432,11.8125,-6.862500190734863
1777560288784046600,0.879046630859375,-4.068750381469727,11.15625,-5.287500381469727
1777560288794046700,0.889046630859375,-4.5,10.106250762939453,-9.99375057220459
1777560288804046600,0.899046630859375,-2.9625000953674316,11.193750381469727,-8.418750762939453
1777560288814046700,0.909046630859375,-7.218750476837158,11.40000057220459,-7.143750190734863
1777560288824046600,0.919046630859375,-5.681250095367432,11.568750381469727,-8.550000190734863
1777560288834046700,0.929046630859375,-3.731250047683716,11.11875057220459,-7.275000095367432
1777560288844046600,0.939046630859375,-4.96875,10.21875,-9.262500762939453
1777560288854046700,0.949046630859375,-5.081250190734863,10.96875,-9.262500762939453
1777560288864046600,0.959046630859375,-3.4312500953674316,10.55625057220459,-8.53125
1777560288874046700,0.969046630859375,-4.068750381469727,9.112500190734863,-10.762500762939453
1777560288884046600,0.979046630859375,-1.1437500715255737,10.40625,-9.600000381469727
1777560288894046700,0.989046630859375,-2.1937501430511475,11.53125,-8.662500381469727
1777560288904046600,0.999046630859375,-2.1750001907348633,11.325000762939453,-10.106250762939453
1777560288914046700,1.009046630859375,-4.5,10.27500057220459,-8.831250190734863
1777560288924046600,1.019046630859375,-2.53125,10.706250190734863,-8.381250381469727
1777560288934046700,1.029046630859375,-2.9625000953674316,11.700000762939453,-7.612500190734863
1777560288944046600,1.039046630859375,-1.912500023841858,10.350000381469727,-10.012500762939453
1777560288954046700,1.049046630859375,-3.468750238418579,9.168750762939453,-9.487500190734863
1777560288964046600,1.059046630859375,-3.262500047683716,10.950000762939453,-9.300000190734863
1777560288974046700,1.069046630859375,-3.450000047683716,9.675000190734863,-10.387500762939453
1777560288984046600,1.079046630859375,-0.5625,9.487500190734863,-10.78125
1777560288994046700,1.089046630859375,-2.0812501907348633,10.443750381469727,-8.4375
1777560289004046600,1.099046630859375,-1.8937500715255737,10.83750057220459,-9.225000381469727
1777560289014046700,1.109046630859375,-3.281250238418579,10.55625057220459,-9.375
1777560289024046600,1.119046630859375,-3.4312500953674316,10.950000762939453,-8.456250190734863
1777560289034046700,1.129046630859375,-3.281250238418579,10.40625,-8.700000762939453
1777560289044046600,1.139046630859375,-2.8687500953674316,9.975000381469727,-7.387500286102295
1777560289054046700,1.149046630859375,-2.700000047683716,10.875,-6.375000476837158
1777560289064046600,1.159046630859375,-3.6187500953674316,10.6875,-6.806250095367432
1777560289074046700,1.169046630859375,-1.3687500953674316,9.581250190734863,-7.500000476837158
1777560289084046600,1.179046630859375,-3.4125001430511475,11.21250057220459,-8.40000057220459
1777560289094046700,1.189046630859375,-2.25,10.08750057220459,-7.518750190734863
1777560289104046600,1.199046630859375,-1.7625000476837158,11.325000762939453,-6.731250286102295
1777560289114046700,1.209046630859375,-1.9687501192092896,9.28125,-8.8125
1777560289124046600,1.219046630859375,-3.6187500953674316,10.6875,-6.806250095367432
1777560289134046700,1.229046630859375,-2.512500047683716,10.59375,-9.112500190734863
1777560289144046600,1.239046630859375,-2.8500001430511475,10.800000190734863,-6.093750476837158
1777560289154046700,1.249046630859375,-0.5250000357627869,12.318750381469727,-5.868750095367432
1777560289164046600,1.259046630859375,0.5250000357627869,10.59375,-9.1875
1777560289174046700,1.269046630859375,-0.5437500476837158,11.362500190734863,-6.468750476837158
1777560289184046600,1.279046630859375,-0.4312500059604645,10.668750762939453,-6.037500381469727
1777560289194046700,1.289046630859375,-0.4312500059604645,10.668750762939453,-6.037500381469727
1777560289204046600,1.299046630859375,-0.30000001192092896,9.693750381469727,-6.806250095367432
1777560289214046700,1.309046630859375,0.6375000476837158,10.106250762939453,-7.312500476837158
1777560289224046600,1.319046630859375,0.45000001788139343,9.393750190734863,-7.162500381469727
1777560289234046700,1.329046630859375,-0.28125,9.300000190734863,-9.412500381469727
1777560289244046600,1.339046630859375,-1.2000000476837158,9.975000381469727,-6.581250190734863
1777560289254046700,1.349046630859375,-0.22500000894069672,11.512500762939453,-7.162500381469727
1777560289264046600,1.359046630859375,1.4250000715255737,11.081250190734863,-7.425000190734863
1777560289274046700,1.369046630859375,0.03750000149011612,11.02500057220459,-5.287500381469727
1777560289284046600,1.379046630859375,0.65625,10.856250762939453,-6.468750476837158
1777560289294046700,1.389046630859375,-0.7125000357627869,10.293750762939453,-8.643750190734863
1777560289304046600,1.399046630859375,-1.1812500953674316,10.5,-7.181250095367432
1777560289314046700,1.409046630859375,-1.5,9.9375,-6.862500190734863
1777560289324046600,1.419046630859375,0.03750000149011612,10.762500762939453,-7.162500381469727
1777560289334046700,1.429046630859375,-1.4250000715255737,11.831250190734863,-8.34375
1777560289344046600,1.439046630859375,-0.45000001788139343,9.862500190734863,-7.331250190734863
1777560289354046700,1.449046630859375,-0.75,9.975000381469727,-6.600000381469727
1777560289364046600,1.459046630859375,0.05625000223517418,11.137500762939453,-7.106250286102295
1777560289374046700,1.469046630859375,1.4250000715255737,10.068750381469727,-10.162500381469727
1777560289384046600,1.479046630859375,0.01875000074505806,10.106250762939453,-7.293750286102295
1777560289394046700,1.489046630859375,1.7062500715255737,9.84375,-8.231250762939453
1777560289404046600,1.499046630859375,-1.162500023841858,10.762500762939453,-7.143750190734863
1777560289414046700,1.509046630859375,-1.5,10.18125057220459,-6.806250095367432
1777560289424046600,1.519046630859375,-0.28125,10.387500762939453,-6.243750095367432
1777560289434046700,1.529046630859375,0.28125,9.956250190734863,-4.087500095367432
1777560289444046600,1.539046630859375,1.21875,10.237500190734863,-5.606250286102295
1777560289454046700,1.549046630859375,0.6187500357627869,10.18125057220459,-6.881250381469727
1777560289464046600,1.559046630859375,0.6187500357627869,10.068750381469727,-5.90625
1777560289474046700,1.569046630859375,0.5250000357627869,11.175000190734863,-7.668750286102295
1777560289484046600,1.579046630859375,-0.30000001192092896,9.52500057220459,-7.968750476837158
1777560289494046700,1.589046630859375,-1.2375000715255737,8.831250190734863,-7.500000476837158
1777560289504046600,1.599046630859375,-1.03125,10.725000381469727,-6.581250190734863
1777560289514046700,1.609046630859375,0.05625000223517418,10.612500190734863,-8.193750381469727
1777560289524046600,1.619046630859375,1.7062500715255737,10.050000190734863,-8.625
1777560289534046700,1.629046630859375,1.8375000953674316,9.356250762939453,-8.193750381469727
1777560289544046600,1.639046630859375,-0.7125000357627869,10.256250381469727,-8.943750381469727
1777560289554046700,1.649046630859375,1.725000023841858,10.950000762939453,-6.618750095367432
1777560289564046600,1.659046630859375,1.21875,9.637500762939453,-7.125000476837158
1777560289574046700,1.669046630859375,0.16875000298023224,9.90000057220459,-7.893750190734863
1777560289584046600,1.679046630859375,-0.768750011920929,9.225000381469727,-7.443750381469727
1777560289594046700,1.689046630859375,-0.26250001788139343,10.706250190734863,-6.600000381469727
1777560289604046600,1.699046630859375,-0.5625,10.668750762939453,-6.881250381469727
1777560289614046700,1.709046630859375,0.6000000238418579,9.168750762939453,-7.762500286102295
1777560289624046600,1.719046630859375,0,10.425000190734863,-5.118750095367432
1777560289634046700,1.729046630859375,0,10.425000190734863,-5.118750095367432
1777560289644046600,1.739046630859375,-0.9937500357627869,10.65000057220459,-8.71875
1777560289654046700,1.749046630859375,0.9187500476837158,9.506250381469727,-7.987500190734863
1777560289664046600,1.759046630859375,2.137500047683716,9.412500381469727,-7.762500286102295
1777560289674046700,1.769046630859375,0.9937500357627869,10.96875,-9.131250381469727
1777560289684046600,1.779046630859375,0.6375000476837158,9.71250057220459,-8.381250381469727
1777560289694046700,1.789046630859375,-0.4312500059604645,10.668750762939453,-6.037500381469727
1777560289704046600,1.799046630859375,0.48750001192092896,9.693750381469727,-9.356250762939453
1777560289714046700,1.809046630859375,-0.375,10.668750762939453,-10.27500057220459
1777560289724046600,1.819046630859375,-0.4125000238418579,10.725000381469727,-7.443750381469727
1777560289734046700,1.829046630859375,-1.3125,10.706250190734863,-8.418750762939453
1777560289744046600,1.839046630859375,-0.75,9.43125057220459,-7.687500476837158
1777560289754046700,1.849046630859375,2.5500001907348633,11.606250762939453,-10.74375057220459
1777560289764046600,1.859046630859375,1.2937500476837158,10.012500762939453,-11.4375
1777560289774046700,1.869046630859375,0.5437500476837158,10.36875057220459,-10.65000057220459
1777560289784046600,1.879046630859375,-1.7812501192092896,9.84375,-9.975000381469727
1777560289794046700,1.889046630859375,1.7812501192092896,10.856250762939453,-11.568750381469727
1777560289804046600,1.899046630859375,0.20625001192092896,10.331250190734863,-9.225000381469727
1777560289814046700,1.909046630859375,1.40625,9.600000381469727,-9.112500190734863
1777560289824046600,1.919046630859375,-2.0812501907348633,9.450000762939453,-11.02500057220459
1777560289834046700,1.929046630859375,1.443750023841858,8.737500190734863,-15.075000762939453
1777560289844046600,1.939046630859375,-3.3000001907348633,8.90625,-12.24375057220459
1777560289854046700,1.949046630859375,-0.7312500476837158,9.543750762939453,-9.506250381469727
1777560289864046600,1.959046630859375,-2.043750047683716,10.03125,-11.34375
1777560289874046700,1.969046630859375,1.350000023841858,10.012500762939453,-15.675000190734863
1777560289884046600,1.979046630859375,-0.7312500476837158,8.475000381469727,-12.52500057220459
1777560289894046700,1.989046630859375,-2.5500001907348633,8.8125,-11.137500762939453
1777560289904046600,1.999046630859375,-2.512500047683716,10.143750190734863,-10.612500190734863
1777560289914046700,2.009046630859375,-1.4625000953674316,8.21250057220459,-14.40000057220459
1777560289924046600,2.019046630859375,-2.4937500953674316,10.875,-9.768750190734863
1777560289934046700,2.029046630859375,-2.4750001430511475,10.875,-11.456250190734863
1777560289944046600,2.039046630859375,-2.6437501907348633,9.675000190734863,-12.956250190734863
1777560289954046700,2.049046630859375,-0.5437500476837158,8.68125057220459,-13.762500762939453
1777560289964046600,2.059046630859375,-1.1437500715255737,9.018750190734863,-13.125000953674316
1777560289974046700,2.069046630859375,-1.1062500476837158,10.293750762939453,-12.881250381469727
1777560289984046600,2.079046630859375,-2.5500001907348633,8.643750190734863,-12.300000190734863
1777560289994046700,2.089046630859375,-2.90625,10.350000381469727,-14.231250762939453
1777560290004046600,2.099046630859375,-2.7562501430511475,10.987500190734863,-13.256250381469727
1777560290014046700,2.109046630859375,-2.4750001430511475,9.862500190734863,-14.193750381469727
1777560290024046600,2.119046630859375,-3.3375000953674316,11.53125,-12.99375057220459
1777560290034046700,2.129046630859375,-5.325000286102295,10.96875,-13.481250762939453
1777560290044046600,2.139046630859375,-1.40625,9.600000381469727,-15.112500190734863
1777560290054046700,2.149046630859375,-2.7750000953674316,10.425000190734863,-12.956250190734863
1777560290064046600,2.159046630859375,-2.7750000953674316,10.425000190734863,-12.956250190734863
1777560290074046700,2.169046630859375,-2.5875000953674316,10.668750762939453,-14.58750057220459
1777560290084046600,2.179046630859375,-4.875,10.3125,-14.606250762939453
1777560290094046700,2.189046630859375,-3.3937501907348633,9.393750190734863,-14.812500953674316
1777560290104046600,2.199046630859375,-3.262500047683716,9.393750190734863,-13.125000953674316
1777560290114046700,2.209046630859375,-2.5875000953674316,10.143750190734863,-15.693750381469727
1777560290124046600,2.219046630859375,-4.331250190734863,8.86875057220459,-15.037500381469727
1777560290134046700,2.229046630859375,-1.9500000476837158,10.78125,-16.42500114440918
1777560290144046600,2.239046630859375,-3.5062501430511475,10.893750190734863,-13.968750953674316
1777560290154046700,2.249046630859375,-2.606250047683716,9.881250381469727,-15.731250762939453
1777560290164046600,2.259046630859375,-2.71875,10.575000762939453,-16.162500381469727
1777560290174046700,2.269046630859375,-0.581250011920929,10.55625057220459,-17.0625
1777560290184046600,2.279046630859375,-3.9750001430511475,9.99375057220459,-15.825000762939453
1777560290194046700,2.289046630859375,-4.068750381469727,11.325000762939453,-16.125
1777560290204046600,2.299046630859375,-4.275000095367432,9.61875057220459,-15.881250381469727
1777560290214046700,2.309046630859375,-2.606250047683716,9.300000190734863,-17.26875114440918
1777560290224046600,2.319046630859375,-4.03125,9.33750057220459,-13.537500381469727
1777560290234046700,2.329046630859375,-3.637500047683716,11.287500381469727,-14.737500190734863
1777560290244046600,2.339046630859375,-1.3312500715255737,11.30625057220459,-16.200000762939453
1777560290254046700,2.349046630859375,-2.5687501430511475,10.612500190734863,-16.725000381469727
1777560290264046600,2.359046630859375,-2.9250001907348633,9.71250057220459,-14.343750953674316
1777560290274046700,2.369046630859375,-3.656250238418579,9.1875,-17.962501525878906
1777560290284046600,2.379046630859375,-3.5062501430511475,10.293750762939453,-15.487500190734863
1777560290294046700,2.389046630859375,-1.8562500476837158,8.475000381469727,-18.5625
1777560290304046600,2.399046630859375,-2.4375,9.99375057220459,-15.862500190734863
1777560290314046700,2.409046630859375,-3.656250238418579,9.825000762939453,-16.14375114440918
1777560290324046600,2.419046630859375,-3.656250238418579,9.581250190734863,-17.887500762939453
1777560290334046700,2.429046630859375,-3.937500238418579,10.800000190734863,-16.368751525878906
1777560290344046600,2.439046630859375,-2.90625,9.33750057220459,-16.96875
1777560290354046700,2.449046630859375,-2.1187500953674316,10.350000381469727,-16.78125
1777560290364046600,2.459046630859375,-3.3375000953674316,9.881250381469727,-17.55000114440918
1777560290374046700,2.469046630859375,-5.043750286102295,9.52500057220459,-16.59375
1777560290384046600,2.479046630859375,-3.3187501430511475,10.143750190734863,-18.20625114440918
1777560290394046700,2.489046630859375,-3.2062501907348633,9.450000762939453,-17.08125114440918
1777560290404046600,2.499046630859375,-2.4000000953674316,10.3125,-17.92500114440918
1777560290414046700,2.509046630859375,-2.7375001907348633,9.05625057220459,-19.70625114440918
1777560290424046600,2.519046630859375,-1.2937500476837158,11.21250057220459,-19.462501525878906
1777560290434046700,2.529046630859375,-2.4562501907348633,8.231250762939453,-19.443750381469727
1777560290444046600,2.539046630859375,-3.187500238418579,9.9375,-17.962501525878906
1777560290454046700,2.549046630859375,-3.168750047683716,9.80625057220459,-18.84375
1777560290464046600,2.559046630859375,-4.087500095367432,9.84375,-17.83125114440918
1777560290474046700,2.569046630859375,-2.418750047683716,10.575000762939453,-16.181251525878906
1777560290484046600,2.579046630859375,-4.6875,10.912500381469727,-15.61875057220459
1777560290494046700,2.589046630859375,-2.8500001430511475,10.950000762939453,-16.931251525878906
1777560290504046600,2.599046630859375,-2.8500001430511475,10.950000762939453,-16.931251525878906
1777560290514046700,2.609046630859375,-3.468750238418579,10.36875057220459,-17.587501525878906
1777560290524046600,2.619046630859375,-4.050000190734863,11.71875,-16.05000114440918
1777560290534046700,2.629046630859375,-2.8312501907348633,11.15625,-17.325000762939453
1777560290544046600,2.639046630859375,-3.1312501430511475,11.606250762939453,-17.64375114440918
1777560290554046700,2.649046630859375,-3.168750047683716,10.725000381469727,-16.837501525878906
1777560290564046600,2.659046630859375,-5.568750381469727,11.175000190734863,-17.25
1777560290574046700,2.669046630859375,-2.5500001907348633,10.256250381469727,-19.200000762939453
1777560290584046600,2.679046630859375,-3.281250238418579,11.643750190734863,-16.51875114440918
1777560290594046700,2.689046630859375,-3.656250238418579,9.731250762939453,-16.875
1777560290604046600,2.699046630859375,-5.118750095367432,11.756250381469727,-15.731250762939453
1777560290614046700,2.709046630859375,-7.293750286102295,10.818750381469727,-14.58750057220459
1777560290634046700,2.729046630859375,-4.068750381469727,11.86875057220459,-15.037500381469727
1777560290644046600,2.739046630859375,-3.3375000953674316,9.9375,-17.118751525878906
1777560290654046700,2.749046630859375,-2.3625001907348633,11.96250057220459,-16.89375114440918
1777560290664046600,2.759046630859375,-2.8687500953674316,10.256250381469727,-17.493751525878906
1777560290674046700,2.769046630859375,-4.03125,11.90625,-16.443750381469727
1777560290684046600,2.779046630859375,-4.050000190734863,11.96250057220459,-16.012500762939453
1777560290694046700,2.789046630859375,-4.368750095367432,12.187500953674316,-14.550000190734863
1777560290704046600,2.799046630859375,-2.4000000953674316,11.68125057220459,-14.550000190734863
1777560290714046700,2.809046630859375,-1.631250023841858,11.362500190734863,-16.743751525878906
1777560290724046600,2.819046630859375,-3.9750001430511475,13.781250953674316,-16.368751525878906
1777560290734046700,2.829046630859375,-2.0250000953674316,12.975000381469727,-15.862500190734863
1777560290744046600,2.839046630859375,-3.6000001430511475,11.8125,-15.33750057220459
1777560290754046700,2.849046630859375,-1.162500023841858,11.25,-17.493751525878906
1777560290764046600,2.859046630859375,-2.512500047683716,12.33750057220459,-15.975000381469727
1777560290774046700,2.869046630859375,-2.8125,11.850000381469727,-16.762500762939453
1777560290784046600,2.879046630859375,-3.937500238418579,10.950000762939453,-15.356250762939453
1777560290794046700,2.889046630859375,-1.7437500953674316,12.375000953674316,-15.71250057220459
1777560290804046600,2.899046630859375,-3.825000047683716,13.08750057220459,-17.775001525878906
1777560290814046700,2.909046630859375,-3.5812501907348633,12.506250381469727,-14.925000190734863
1777560290824046600,2.919046630859375,-4.78125,12.300000190734863,-16.350000381469727
1777560290834046700,2.929046630859375,-2.0812501907348633,11.21250057220459,-16.912500381469727
1777560290844046600,2.939046630859375,-3.1125001907348633,12.862500190734863,-15.018750190734863
1777560290854046700,2.949046630859375,-2.8500001430511475,11.362500190734863,-15.862500190734863
1777560290864046600,2.959046630859375,-1.912500023841858,11.700000762939453,-16.950000762939453
1777560290874046700,2.969046630859375,-2.325000047683716,13.237500190734863,-16.650001525878906
1777560290884046600,2.979046630859375,-3.1125001907348633,12.825000762939453,-15.300000190734863
1777560290894046700,2.989046630859375,-2.0625,12.843750953674316,-14.193750381469727
1777560290904046600,2.999046630859375,-3.843750238418579,13.893750190734863,-14.793750762939453
1777560290914046700,3.009046630859375,-4.331250190734863,13.200000762939453,-14.343750953674316
1777560290924046600,3.019046630859375,-1.8750001192092896,13.08750057220459,-15.99375057220459
1777560290934046700,3.029046630859375,-1.8750001192092896,13.08750057220459,-15.99375057220459
1777560290944046600,3.039046630859375,-5.118750095367432,11.86875057220459,-15.000000953674316
1777560290954046700,3.049046630859375,-2.4000000953674316,11.21250057220459,-16.05000114440918
1777560290964046600,3.059046630859375,-1.9312500953674316,11.100000381469727,-16.78125
1777560290974046700,3.069046630859375,-3.562500238418579,12.543750762939453,-16.33125114440918
1777560290984046600,3.079046630859375,-1.8750001192092896,13.443750381469727,-15.206250190734863
1777560290994046700,3.089046630859375,-3.2250001430511475,13.518750190734863,-16.443750381469727
1777560291004046600,3.099046630859375,-2.625,13.83750057220459,-15.112500190734863
1777560291014046700,3.109046630859375,-3.2062501907348633,13.575000762939453,-17.83125114440918
1777560291024046600,3.119046630859375,-1.9687501192092896,14.30625057220459,-17.025001525878906
1777560291034046700,3.129046630859375,-3.5250000953674316,12.975000381469727,-17.662500381469727
1777560291044046600,3.139046630859375,-0.7875000238418579,12.80625057220459,-17.90625
1777560291054046700,3.149046630859375,-1.1062500476837158,13.012500762939453,-16.443750381469727
1777560291064046600,3.159046630859375,-3.9937500953674316,13.74375057220459,-14.96250057220459
1777560291074046700,3.169046630859375,-2.0062501430511475,14.418750762939453,-14.606250762939453
1777560291084046600,3.179046630859375,-1.7625000476837158,11.793750762939453,-17.231250762939453
1777560291094046700,3.189046630859375,-2.8125,11.68125057220459,-17.92500114440918
1777560291104046600,3.199046630859375,-4.631250381469727,12.300000190734863,-17.193750381469727
1777560291114046700,3.209046630859375,-5.0625,12.937500953674316,-16.21875
1777560291124046600,3.219046630859375,-4.200000286102295,15.131250381469727,-18.225000381469727
1777560291134046700,3.229046630859375,-4.012500286102295,12.393750190734863,-17.34375
1777560291144046600,3.239046630859375,-2.0062501430511475,12.562500953674316,-18.76875114440918
1777560291154046700,3.249046630859375,-1.537500023841858,13.55625057220459,-17.043750762939453
1777560291164046600,3.259046630859375,-3.0375001430511475,13.55625057220459,-18.84375
1777560291174046700,3.269046630859375,-1.818750023841858,13.293750762939453,-18.918750762939453
1777560291184046600,3.279046630859375,-3.825000047683716,12.71250057220459,-18.543750762939453
1777560291194046700,3.289046630859375,-2.7375001907348633,12.393750190734863,-21.600000381469727
1777560291204046600,3.299046630859375,-2.5875000953674316,13.293750762939453,-18.900001525878906
1777560291214046700,3.309046630859375,-3.9562501907348633,12.450000762939453,-21.28125
1777560291224046600,3.319046630859375,-1.9500000476837158,12.562500953674316,-23.006250381469727
1777560291234046700,3.329046630859375,-4.668750286102295,13.256250381469727,-22.51875114440918
1777560291244046600,3.339046630859375,-3.450000047683716,13.425000190734863,-21.39375114440918
1777560291254046700,3.349046630859375,-2.5500001907348633,11.96250057220459,-25.500001907348633
1777560291264046600,3.359046630859375,-3.7687501907348633,13.83750057220459,-19.462501525878906
1777560291274046700,3.369046630859375,-5.4375,13.950000762939453,-19.537500381469727
1777560291284046600,3.379046630859375,-5.90625,12.956250190734863,-21.28125
1777560291294046700,3.389046630859375,-4.256250381469727,11.943750381469727,-23.0625
1777560291304046600,3.399046630859375,-5.568750381469727,13.481250762939453,-21.881250381469727
1777560291314046700,3.409046630859375,-6.525000095367432,12.356250762939453,-21.9375
1777560291324046600,3.419046630859375,-4.893750190734863,12.168750762939453,-19.762500762939453
1777560291334046700,3.429046630859375,-7.181250095367432,11.287500381469727,-21.5625
1777560291344046600,3.439046630859375,-7.162500381469727,11.606250762939453,-21.918750762939453
1777560291354046700,3.449046630859375,-6.375000476837158,12.562500953674316,-21.337501525878906
1777560291364046600,3.459046630859375,-6.375000476837158,12.562500953674316,-21.337501525878906
1777560291374046700,3.469046630859375,-6.543750286102295,12.52500057220459,-20.775001525878906
1777560291384046600,3.479046630859375,-7.743750095367432,13.068750381469727,-19.650001525878906
1777560291394046700,3.489046630859375,-5.0625,10.706250190734863,-22.98750114440918
1777560291404046600,3.499046630859375,-8.043750762939453,12.225000381469727,-22.912500381469727
1777560291414046700,3.509046630859375,-6.525000095367432,12.356250762939453,-21.9375
1777560291424046600,3.519046630859375,-6.975000381469727,11.887500762939453,-23.418750762939453
1777560291434046700,3.529046630859375,-6.975000381469727,12.037500381469727,-24.093751907348633
1777560291444046600,3.539046630859375,-8.925000190734863,12.80625057220459,-24.037500381469727
1777560291454046700,3.549046630859375,-6.187500476837158,12.787500381469727,-23.26875114440918
1777560291464046600,3.559046630859375,-5.006250381469727,11.887500762939453,-23.475000381469727
1777560291474046700,3.569046630859375,-7.425000190734863,11.887500762939453,-24.262500762939453
1777560291484046600,3.579046630859375,-7.087500095367432,12.825000762939453,-23.8125
1777560291494046700,3.589046630859375,-6.431250095367432,14.606250762939453,-23.625
1777560291504046600,3.599046630859375,-7.668750286102295,13.818750381469727,-23.043750762939453
1777560291514046700,3.609046630859375,-6.281250476837158,13.500000953674316,-26.100000381469727
1777560291524046600,3.619046630859375,-5.550000190734863,12.468750953674316,-26.306251525878906
1777560291534046700,3.629046630859375,-3.4125001430511475,12.075000762939453,-28.14375114440918
1777560291544046600,3.639046630859375,-3.0375001430511475,13.950000762939453,-28.068750381469727
1777560291554046700,3.649046630859375,-3.5812501907348633,14.700000762939453,-30.600000381469727
1777560291564046600,3.659046630859375,-4.875,14.006250381469727,-27.731250762939453
1777560291574046700,3.669046630859375,-3.6187500953674316,15.187500953674316,-27.262500762939453
1777560291584046600,3.679046630859375,-2.0625,14.625000953674316,-31.068750381469727
1777560291594046700,3.689046630859375,-2.15625,12.131250381469727,-31.125001907348633
1777560291604046600,3.699046630859375,-2.0625,13.631250381469727,-33.67500305175781
1777560291614046700,3.709046630859375,-3.731250047683716,14.700000762939453,-31.443750381469727
1777560291624046600,3.719046630859375,-0.8812500238418579,12.543750762939453,-34.33125305175781
1777560291634046700,3.729046630859375,-0.26250001788139343,13.687500953674316,-32.4375
1777560291644046600,3.739046630859375,-1.5562500953674316,11.325000762939453,-33.28125
1777560291654046700,3.749046630859375,2.53125,13.012500762939453,-37.85625076293945
1777560291664046600,3.759046630859375,0.5625,11.96250057220459,-41.681251525878906
1777560291674046700,3.769046630859375,2.3062500953674316,14.062500953674316,-40.89375305175781
1777560291684046600,3.779046630859375,1.5562500953674316,11.100000381469727,-39.03750228881836
1777560291694046700,3.789046630859375,3.9000000953674316,12.15000057220459,-40.3125
1777560291704046600,3.799046630859375,-0.6937500238418579,12.750000953674316,-36.26250076293945
1777560291714046700,3.809046630859375,-0.7125000357627869,13.125000953674316,-33.65625
1777560291724046600,3.819046630859375,-0.675000011920929,14.362500190734863,-33.69375228881836
1777560291734046700,3.829046630859375,1.818750023841858,15.206250190734863,-35.587501525878906
1777560291744046600,3.839046630859375,0.16875000298023224,12.225000381469727,-34.70625305175781
1777560291754046700,3.849046630859375,1.4812500476837158,15.15000057220459,-33.46875
1777560291764046600,3.859046630859375,-0.7312500476837158,14.362500190734863,-29.475000381469727
1777560291774046700,3.869046630859375,-0.05625000223517418,14.943750381469727,-33.1875
1777560291784046600,3.879046630859375,-2.7375001907348633,16.59375,-32.10000228881836
1777560291794046700,3.889046630859375,0.03750000149011612,17.08125114440918,-33.056251525878906
1777560291804046600,3.899046630859375,0.03750000149011612,17.08125114440918,-33.056251525878906
1777560291814046700,3.909046630859375,1.21875,17.025001525878906,-30.843751907348633
1777560291824046600,3.919046630859375,-3.6187500953674316,15.656250953674316,-25.762500762939453
1777560291834046700,3.929046630859375,-4.462500095367432,16.950000762939453,-27.187501907348633
1777560291844046600,3.939046630859375,-2.9437501430511475,17.043750762939453,-26.493751525878906
1777560291854046700,3.949046630859375,-4.012500286102295,17.118751525878906,-26.025001525878906
1777560291864046600,3.959046630859375,-1.9687501192092896,17.45625114440918,-30.543750762939453
1777560291874046700,3.969046630859375,-3.9937500953674316,16.80000114440918,-28.218751907348633
1777560291884046600,3.979046630859375,-3.7125000953674316,16.200000762939453,-28.05000114440918
1777560291894046700,3.989046630859375,-3.6187500953674316,18.86250114440918,-28.537500381469727
1777560291904046600,3.999046630859375,-3.9562501907348633,18.975000381469727,-26.100000381469727
1777560291914046700,4.009046630859375,-2.3062500953674316,17.943750381469727,-27.187501907348633
1777560291924046600,4.019046630859375,-3.6750001907348633,17.700000762939453,-28.05000114440918
1777560291934046700,4.029046630859375,-6.075000286102295,19.162500381469727,-25.725000381469727
1777560291944046600,4.039046630859375,-4.3125,16.631250381469727,-27.67500114440918
1777560291954046700,4.049046630859375,-4.331250190734863,17.53125,-23.962501525878906
1777560291964046600,4.059046630859375,-4.631250381469727,16.725000381469727,-26.943750381469727
1777560291974046700,4.069046630859375,-3.5062501430511475,18.75,-25.875001907348633
1777560291984046600,4.079046630859375,-3.825000047683716,18.506250381469727,-25.912500381469727
1777560291994046700,4.089046630859375,-3.0562500953674316,18.506250381469727,-25.931251525878906
1777560292004046600,4.099046630859375,-3,19.668750762939453,-26.418750762939453
1777560292014046700,4.109046630859375,-1.537500023841858,18.84375,-25.200000762939453
1777560292024046600,4.119046630859375,-2.887500047683716,19.387500762939453,-24.918750762939453
1777560292034046700,4.129046630859375,-2.700000047683716,19.70625114440918,-26.137500762939453
1777560292044046600,4.139046630859375,-3.0187501907348633,20.25,-24.187501907348633
1777560292054046700,4.149046630859375,-3.825000047683716,19.5,-23.325000762939453
1777560292064046600,4.159046630859375,-4.21875,20.08125114440918,-25.312501907348633
1777560292074046700,4.169046630859375,-3.0187501907348633,20.400001525878906,-23.17500114440918
1777560292084046600,4.179046630859375,-3.937500238418579,20.193750381469727,-23.756250381469727
1777560292094046700,4.189046630859375,-2.700000047683716,21.037500381469727,-23.0625
1777560292104046600,4.199046630859375,-2.700000047683716,20.08125114440918,-25.368751525878906
1777560292114046700,4.209046630859375,-2.3062500953674316,18.95625114440918,-24.450000762939453
1777560292124046600,4.219046630859375,-2.34375,20.681251525878906,-27.225000381469727
1777560292134046700,4.229046630859375,-3.7687501907348633,21.150001525878906,-22.3125
1777560292144046600,4.239046630859375,-2.3062500953674316,19.96875,-21.86250114440918
1777560292154046700,4.249046630859375,-3.7687501907348633,21.037500381469727,-23.025001525878906
1777560292164046600,4.259046630859375,-3.4312500953674316,20.681251525878906,-25.500001907348633
1777560292174046700,4.269046630859375,-2.887500047683716,20.418750762939453,-22.181251525878906
1777560292184046600,4.279046630859375,-3.9000000953674316,21.318750381469727,-22.837501525878906
1777560292194046700,4.289046630859375,-1.3312500715255737,20.231250762939453,-25.931251525878906
1777560292204046600,4.299046630859375,0.20625001192092896,21.450000762939453,-23.625
1777560292214046700,4.309046630859375,-5.175000190734863,19.256250381469727,-24.187501907348633
1777560292224046600,4.319046630859375,-1.5187500715255737,20.55000114440918,-22.05000114440918
1777560292234046700,4.329046630859375,-2.6812500953674316,20.83125114440918,-24.506250381469727
1777560292244046600,4.339046630859375,-2.6812500953674316,20.83125114440918,-24.506250381469727
1777560292254046700,4.349046630859375,-3.187500238418579,19.875,-24.11250114440918
1777560292264046600,4.359046630859375,-3,21.037500381469727,-23.043750762939453
1777560292274046700,4.369046630859375,-2.8125,21.20625114440918,-25.275001525878906
1777560292284046600,4.379046630859375,-1.5187500715255737,19.162500381469727,-25.556251525878906
1777560292294046700,4.389046630859375,-2.0625,21.243751525878906,-25.012500762939453
1777560292304046600,4.399046630859375,-3.1500000953674316,21.431251525878906,-21.975000381469727
1777560292314046700,4.409046630859375,-0.13125000894069672,20.606250762939453,-23.34375
1777560292324046600,4.419046630859375,-0.862500011920929,21.262500762939453,-23.212501525878906
1777560292334046700,4.429046630859375,-2.71875,20.17500114440918,-24.637500762939453
1777560292344046600,4.439046630859375,-1.3125,21.056251525878906,-24.656251907348633
1777560292354046700,4.449046630859375,0.39375001192092896,21.618751525878906,-25.856250762939453
1777560292364046600,4.459046630859375,-1.6125000715255737,21.5625,-22.856250762939453
1777560292374046700,4.469046630859375,-0.862500011920929,20.662500381469727,-24.731250762939453
1777560292384046600,4.479046630859375,-0.5250000357627869,22.05000114440918,-23.775001525878906
1777560292394046700,4.489046630859375,-2.1937501430511475,21.900001525878906,-23.887500762939453
1777560292404046600,4.499046630859375,0.05625000223517418,20.34375,-26.08125114440918
1777560292414046700,4.509046630859375,-2.231250047683716,20.71875,-25.256250381469727
1777560292424046600,4.519046630859375,-0.48750001192092896,21.450000762939453,-27.843751907348633
1777560292434046700,4.529046630859375,0.862500011920929,21.618751525878906,-25.875001907348633
1777560292444046600,4.539046630859375,-1.5562500953674316,22.05000114440918,-26.287500381469727
1777560292454046700,4.549046630859375,-1.1062500476837158,22.368751525878906,-24.95625114440918
1777560292464046600,4.559046630859375,0.39375001192092896,20.756250381469727,-27.431251525878906
1777560292474046700,4.569046630859375,-1.8750001192092896,21.693750381469727,-25.350000381469727
1777560292484046600,4.579046630859375,-0.75,23.34375,-26.062501907348633
1777560292494046700,4.589046630859375,-1.8562500476837158,22.70625114440918,-24.468751907348633
1777560292504046600,4.599046630859375,-2.2125000953674316,21.525001525878906,-23.962501525878906
1777560292514046700,4.609046630859375,-3.731250047683716,22.068750381469727,-22.837501525878906
1777560292524046600,4.619046630859375,-2.6812500953674316,21.168750762939453,-24.731250762939453
1777560292534046700,4.629046630859375,-4.293750286102295,22.61250114440918,-24.262500762939453
1777560292544046600,4.639046630859375,-2.606250047683716,22.537500381469727,-25.593751907348633
1777560292554046700,4.649046630859375,-5.081250190734863,21.900001525878906,-24.806251525878906
1777560292564046600,4.659046630859375,-5.850000381469727,22.012500762939453,-24.056251525878906
1777560292574046700,4.669046630859375,-4.087500095367432,23.887500762939453,-24.881250381469727
1777560292584046600,4.679046630859375,-3.7875001430511475,23.606250762939453,-25.931251525878906
1777560292594046700,4.689046630859375,-4.575000286102295,23.625,-24.075000762939453
1777560292604046600,4.699046630859375,-5.831250190734863,21.86250114440918,-25.068750381469727
1777560292614046700,4.709046630859375,-4.725000381469727,23.45625114440918,-23.53125
1777560292624046600,4.719046630859375,-6.881250381469727,22.51875114440918,-24.918750762939453
1777560292634046700,4.729046630859375,-6.768750190734863,21.9375,-23.775001525878906
1777560292644046600,4.739046630859375,-7.631250381469727,23.006250381469727,-24.11250114440918
1777560292654046700,4.749046630859375,-7.368750095367432,22.03125,-24.01875114440918
1777560292664046600,4.759046630859375,-9.318750381469727,21.46875,-27.037500381469727
1777560292674046700,4.769046630859375,-9.318750381469727,21.46875,-27.037500381469727
1777560292684046600,4.779046630859375,-6.300000190734863,22.125,-24.168750762939453
1777560292694046700,4.789046630859375,-8.11875057220459,21.918750762939453,-24.731250762939453
1777560292704046600,4.799046630859375,-6.881250381469727,22.14375114440918,-25.70625114440918
1777560292714046700,4.809046630859375,-6.618750095367432,20.025001525878906,-27.525001525878906
1777560292724046600,4.819046630859375,-7.650000095367432,21.806251525878906,-25.462501525878906
1777560292734046700,4.829046630859375,-8.11875057220459,21.918750762939453,-24.731250762939453
1777560292744046600,4.839046630859375,-9.018750190734863,21.67500114440918,-25.593751907348633
1777560292754046700,4.849046630859375,-8.231250762939453,22.668750762939453,-24.712501525878906
1777560292764046600,4.859046630859375,-8.418750762939453,22.40625,-23.92500114440918
1777560292774046700,4.869046630859375,-7.781250476837158,23.15625,-23.92500114440918
1777560292784046600,4.879046630859375,-7.800000190734863,21.918750762939453,-25.575000762939453
1777560292794046700,4.889046630859375,-7.593750476837158,22.89375114440918,-26.662500381469727
1777560292804046600,4.899046630859375,-6.581250190734863,21.243751525878906,-27.712501525878906
1777560292814046700,4.909046630859375,-6.862500190734863,22.89375114440918,-24.86250114440918
1777560292824046600,4.919046630859375,-7.725000381469727,24.30000114440918,-24.712501525878906
1777560292834046700,4.929046630859375,-9.262500762939453,23.0625,-26.306251525878906
1777560292844046600,4.939046630859375,-6.693750381469727,23.306251525878906,-24.637500762939453
1777560292854046700,4.949046630859375,-6.543750286102295,23.043750762939453,-25.537500381469727
1777560292864046600,4.959046630859375,-6.806250095367432,24.11250114440918,-25.05000114440918
1777560292874046700,4.969046630859375,-8.362500190734863,23.90625,-23.90625
1777560292884046600,4.979046630859375,-5.456250190734863,23.325000762939453,-27.075000762939453
1777560292894046700,4.989046630859375,-4.443750381469727,22.181251525878906,-26.325000762939453
1777560292904046600,4.999046630859375,-7.575000286102295,24.11250114440918,-25.031251907348633
1777560292914046700,5.009046630859375,-6.618750095367432,24.618751525878906,-26.793750762939453
1777560292924046600,5.019046630859375,-5.756250381469727,23.71875,-25.14375114440918
1777560292934046700,5.029046630859375,-7.425000190734863,23.850000381469727,-25.218751907348633
1777560292944046600,5.039046630859375,-6.693750381469727,23.36250114440918,-24.20625114440918
1777560292954046700,5.049046630859375,-8.02500057220459,23.981250762939453,-26.025001525878906
1777560292964046600,5.059046630859375,-5.212500095367432,25.61250114440918,-27.618751525878906
1777560292974046700,5.069046630859375,-4.087500095367432,24.318750381469727,-24.525001525878906
1777560292984046600,5.079046630859375,-6.862500190734863,23.006250381469727,-24.131250381469727
1777560292994046700,5.089046630859375,-6.037500381469727,24.712501525878906,-25.23750114440918
1777560293004046600,5.099046630859375,-5.981250286102295,25.031251907348633,-27.30000114440918
1777560293014046700,5.109046630859375,-6.825000286102295,22.51875114440918,-29.156251907348633
1777560293024046600,5.119046630859375,-7.668750286102295,24.881250381469727,-26.718751907348633
1777560293034046700,5.129046630859375,-6.150000095367432,24.637500762939453,-28.350000381469727
1777560293044046600,5.139046630859375,-3.9937500953674316,24.187501907348633,-31.312501907348633
1777560293054046700,5.149046630859375,-6.018750190734863,24.01875114440918,-27.48750114440918
1777560293064046600,5.159046630859375,-6.618750095367432,24.656251907348633,-26.493751525878906
1777560293074046700,5.169046630859375,-6.656250476837158,24.58125114440918,-24.39375114440918
1777560293084046600,5.179046630859375,-5.0625,25.98750114440918,-25.856250762939453
1777560293094046700,5.189046630859375,-5.71875,24.900001525878906,-25.631250381469727
1777560293104046600,5.199046630859375,-5.71875,24.900001525878906,-25.631250381469727
1777560293114046700,5.209046630859375,-8.456250190734863,25.350000381469727,-23.493751525878906
1777560293124046600,5.219046630859375,-8.456250190734863,25.350000381469727,-23.493751525878906
1777560293134046700,5.229046630859375,-6.581250190734863,26.043750762939453,-25.537500381469727
1777560293144046600,5.239046630859375,-5.306250095367432,24.750001907348633,-22.42500114440918
1777560293154046700,5.249046630859375,-7.743750095367432,24.056251525878906,-23.756250381469727
1777560293164046600,5.259046630859375,-7.406250476837158,25.33125114440918,-23.53125
1777560293174046700,5.269046630859375,-4.181250095367432,25.443750381469727,-24.431251525878906
1777560293184046600,5.279046630859375,-6.937500476837158,25.818750381469727,-22.743751525878906
1777560293194046700,5.289046630859375,-5.418750286102295,25.218751907348633,-24.30000114440918
1777560293204046600,5.299046630859375,-5.306250095367432,25.181251525878906,-22.068750381469727
1777560293214046700,5.309046630859375,-3.5250000953674316,27.825000762939453,-21.75
1777560293224046600,5.319046630859375,-4.631250381469727,27.30000114440918,-21.11250114440918
1777560293234046700,5.329046630859375,-5.831250190734863,27.20625114440918,-21.806251525878906
1777560293244046600,5.339046630859375,-4.143750190734863,28.162500381469727,-20.400001525878906
1777560293254046700,5.349046630859375,-2.4937500953674316,27.356250762939453,-20.73750114440918
1777560293264046600,5.359046630859375,-3.750000238418579,25.650001525878906,-23.006250381469727
1777560293274046700,5.369046630859375,0.07500000298023224,27.225000381469727,-20.681251525878906
1777560293284046600,5.379046630859375,-2.5500001907348633,26.437501907348633,-20.193750381469727
1777560293294046700,5.389046630859375,-2.71875,26.137500762939453,-19.6875
1777560293304046600,5.399046630859375,-2.606250047683716,28.537500381469727,-20.36250114440918
1777560293314046700,5.409046630859375,-2.6812500953674316,27.918750762939453,-17.64375114440918
1777560293324046600,5.419046630859375,-0.35625001788139343,28.837501525878906,-18.243751525878906
1777560293334046700,5.429046630859375,-1.8750001192092896,28.42500114440918,-18.5625
1777560293344046600,5.439046630859375,1.3125,28.593751907348633,-18.20625114440918
1777560293354046700,5.449046630859375,-1.4250000715255737,29.418750762939453,-15.99375057220459
1777560293364046600,5.459046630859375,-1.3875000476837158,30.337501525878906,-16.51875114440918
1777560293374046700,5.469046630859375,0.15000000596046448,30.468751907348633,-17.25
1777560293384046600,5.479046630859375,-1.1437500715255737,28.725000381469727,-16.40625
1777560293394046700,5.489046630859375,-0.9375000596046448,29.793750762939453,-16.78125
1777560293404046600,5.499046630859375,0.9937500357627869,28.443750381469727,-17.512500762939453
1777560293414046700,5.509046630859375,2.0812501907348633,28.537500381469727,-18.506250381469727
1777560293434046700,5.529046630859375,0.6000000238418579,27.806251525878906,-23.55000114440918
1777560293444046600,5.539046630859375,2.9250001907348633,29.681251525878906,-21.84375
1777560293454046700,5.549046630859375,1.9875000715255737,29.231250762939453,-21.48750114440918
1777560293464046600,5.559046630859375,2.793750047683716,26.231250762939453,-21.506250381469727
1777560293474046700,5.569046630859375,5.100000381469727,29.118751525878906,-26.531251907348633
1777560293484046600,5.579046630859375,2.6625001430511475,28.387500762939453,-17.006250381469727
1777560293494046700,5.589046630859375,1.2750000953674316,29.08125114440918,-14.850000381469727
1777560293504046600,5.599046630859375,1.8937500715255737,28.500001907348633,-16.256250381469727
1777560293514046700,5.609046630859375,2.043750047683716,29.625001907348633,-13.65000057220459
1777560293524046600,5.619046630859375,-0.24375000596046448,28.275001525878906,-16.106250762939453
1777560293534046700,5.629046630859375,-0.24375000596046448,28.275001525878906,-16.106250762939453
1777560293544046600,5.639046630859375,1.7437500953674316,28.89375114440918,-16.03125
1777560293554046700,5.649046630859375,5.25,28.481250762939453,-18.037500381469727
1777560293564046600,5.659046630859375,3.0187501907348633,29.92500114440918,-16.725000381469727
1777560293574046700,5.669046630859375,3,29.73750114440918,-16.33125114440918
1777560293584046600,5.679046630859375,3.3000001907348633,29.868751525878906,-16.162500381469727
1777560293594046700,5.689046630859375,5.212500095367432,27.131250381469727,-18.712501525878906
1777560293604046600,5.699046630859375,5.606250286102295,29.64375114440918,-17.681251525878906
1777560293614046700,5.709046630859375,5.268750190734863,28.968751907348633,-17.25
1777560293624046600,5.719046630859375,5.081250190734863,28.80000114440918,-15.018750190734863
1777560293634046700,5.729046630859375,7.237500190734863,28.89375114440918,-17.73750114440918
1777560293644046600,5.739046630859375,4.443750381469727,27.843751907348633,-16.443750381469727
1777560293654046700,5.749046630859375,4.78125,28.837501525878906,-16.40625
1777560293664046600,5.759046630859375,4.518750190734863,30.075000762939453,-15.600000381469727
1777560293674046700,5.769046630859375,7.068750381469727,27.337501525878906,-20.700000762939453
1777560293684046600,5.779046630859375,6.037500381469727,29.606250762939453,-17.137500762939453
1777560293694046700,5.789046630859375,5.100000381469727,28.875001907348633,-16.125
1777560293704046600,5.799046630859375,5.850000381469727,28.837501525878906,-16.443750381469727
1777560293714046700,5.809046630859375,4.912500381469727,27.731250762939453,-17.193750381469727
1777560293724046600,5.819046630859375,4.293750286102295,27.093751907348633,-18.131250381469727
1777560293734046700,5.829046630859375,7.181250095367432,27.225000381469727,-18.056251525878906
1777560293744046600,5.839046630859375,4.931250095367432,28.743751525878906,-16.293750762939453
1777560293754046700,5.849046630859375,4.462500095367432,27.881250381469727,-17.850000381469727
1777560293764046600,5.859046630859375,8.100000381469727,27.825000762939453,-17.400001525878906
1777560293774046700,5.869046630859375,7.218750476837158,28.350000381469727,-17.118751525878906
1777560293784046600,5.879046630859375,7.406250476837158,29.250001907348633,-17.8125
1777560293794046700,5.889046630859375,7.218750476837158,28.725000381469727,-16.350000381469727
1777560293804046600,5.899046630859375,6.431250095367432,27.187501907348633,-18.318750381469727
1777560293814046700,5.909046630859375,5.700000286102295,28.368751525878906,-17.08125114440918
1777560293824046600,5.919046630859375,6.450000286102295,27.731250762939453,-18.918750762939453
1777560293834046700,5.929046630859375,5.137500286102295,29.156251907348633,-18.46875
1777560293844046600,5.939046630859375,3.6000001430511475,30.412500381469727,-14.250000953674316
1777560293854046700,5.949046630859375,4.162500381469727,28.650001525878906,-15.15000057220459
1777560293864046600,5.959046630859375,4.293750286102295,27.20625114440918,-17.418750762939453
1777560293874046700,5.969046630859375,2.6625001430511475,29.775001525878906,-13.500000953674316
1777560293884046600,5.979046630859375,0.8062500357627869,28.181251525878906,-15.862500190734863
1777560293894046700,5.989046630859375,1.3875000476837158,28.537500381469727,-13.406250953674316
1777560293904046600,5.999046630859375,-1.443750023841858,30.225000381469727,-13.012500762939453
1777560293914046700,6.009046630859375,0.39375001192092896,30.431251525878906,-13.312500953674316
1777560293924046600,6.019046630859375,-0.5437500476837158,29.793750762939453,-12.562500953674316
1777560293934046700,6.029046630859375,-0.28125,28.350000381469727,-13.818750381469727
1777560293944046600,6.039046630859375,-1.03125,28.256250381469727,-14.531250953674316
1777560293954046700,6.049046630859375,-2.137500047683716,27.825000762939453,-13.162500381469727
1777560293964046600,6.059046630859375,-2.8125,29.64375114440918,-13.500000953674316
1777560293974046700,6.069046630859375,-2.8125,29.64375114440918,-13.500000953674316
1777560293984046600,6.079046630859375,-5.137500286102295,28.856250762939453,-12.187500953674316
1777560293994046700,6.089046630859375,-5.418750286102295,29.025001525878906,-13.55625057220459
1777560294004046600,6.099046630859375,-4.575000286102295,27.787500381469727,-12.693750381469727
1777560294014046700,6.109046630859375,-5.100000381469727,29.662500381469727,-13.443750381469727
1777560294024046600,6.119046630859375,-6.506250381469727,28.593751907348633,-13.200000762939453
1777560294034046700,6.129046630859375,-6.262500286102295,27.318750381469727,-12.450000762939453
1777560294044046600,6.139046630859375,-8.8125,27.543750762939453,-14.30625057220459
1777560294054046700,6.149046630859375,-6.487500190734863,28.650001525878906,-15.300000190734863
1777560294064046600,6.159046630859375,-9.131250381469727,27.76875114440918,-12.862500190734863
1777560294074046700,6.169046630859375,-7.650000095367432,25.98750114440918,-13.93125057220459
1777560294084046600,6.179046630859375,-9.637500762939453,26.700000762939453,-11.625
1777560294094046700,6.189046630859375,-9.84375,28.556251525878906,-13.387500762939453
1777560294104046600,6.199046630859375,-11.25,27.39375114440918,-13.725000381469727
1777560294114046700,6.209046630859375,-11.58750057220459,26.756250381469727,-13.83750057220459
1777560294124046600,6.219046630859375,-12.33750057220459,27.150001525878906,-13.74375057220459
1777560294134046700,6.229046630859375,-11.362500190734863,28.462501525878906,-14.081250190734863
1777560294144046600,6.239046630859375,-10.631250381469727,27.01875114440918,-15.506250381469727
1777560294154046700,6.249046630859375,-10.537500381469727,25.51875114440918,-16.350000381469727
1777560294164046600,6.259046630859375,-11.756250381469727,25.837501525878906,-14.981250762939453
1777560294174046700,6.269046630859375,-11.381250381469727,26.868751525878906,-16.5
1777560294184046600,6.279046630859375,-12.15000057220459,26.981250762939453,-15.750000953674316
1777560294194046700,6.289046630859375,-11.268750190734863,27.037500381469727,-14.49375057220459
1777560294204046600,6.299046630859375,-11.268750190734863,27.131250381469727,-13.762500762939453
1777560294214046700,6.309046630859375,-10.987500190734863,25.33125114440918,-16.80000114440918
1777560294224046600,6.319046630859375,-10.912500381469727,27.450000762939453,-16.818750381469727
1777560294234046700,6.329046630859375,-10.03125,26.64375114440918,-17.137500762939453
1777560294244046600,6.339046630859375,-11.381250381469727,27.76875114440918,-14.625000953674316
1777560294254046700,6.349046630859375,-10.012500762939453,27.39375114440918,-16.293750762939453
1777560294264046600,6.359046630859375,-9.862500190734863,27.39375114440918,-15.450000762939453
1777560294274046700,6.369046630859375,-9.5625,26.531251907348633,-17.025001525878906
1777560294284046600,6.379046630859375,-10.93125057220459,27.562501907348633,-14.250000953674316
1777560294294046700,6.389046630859375,-9.28125,26.887500762939453,-15.412500381469727
1777560294304046600,6.399046630859375,-10.93125057220459,27.825000762939453,-14.21250057220459
1777560294314046700,6.409046630859375,-9.862500190734863,27.86250114440918,-13.950000762939453
1777560294324046600,6.419046630859375,-10.762500762939453,28.668750762939453,-13.481250762939453
1777560294334046700,6.429046630859375,-10.818750381469727,25.725000381469727,-16.59375
1777560294344046600,6.439046630859375,-11.25,26.156251907348633,-17.90625
1777560294354046700,6.449046630859375,-10.912500381469727,27.187501907348633,-16.875
1777560294364046600,6.459046630859375,-10.631250381469727,26.493751525878906,-17.287500381469727
1777560294374046700,6.469046630859375,-9.881250381469727,25.687501907348633,-18.600000381469727
1777560294384046600,6.479046630859375,-11.700000762939453,25.950000762939453,-18.48750114440918
1777560294394046700,6.489046630859375,-12.80625057220459,25.312501907348633,-17.73750114440918
1777560294404046600,6.499046630859375,-12.80625057220459,25.312501907348633,-17.73750114440918
1777560294414046700,6.509046630859375,-11.456250190734863,25.537500381469727,-15.33750057220459
1777560294424046600,6.519046630859375,-11.737500190734863,25.481250762939453,-17.45625114440918
1777560294434046700,6.529046630859375,-12.131250381469727,26.587501525878906,-18.356250762939453
1777560294444046600,6.539046630859375,-13.800000190734863,27.67500114440918,-16.14375114440918
1777560294454046700,6.549046630859375,-10.950000762939453,25.856250762939453,-17.400001525878906
1777560294464046600,6.559046630859375,-13.575000762939453,25.481250762939453,-16.556251525878906
1777560294474046700,6.569046630859375,-12.43125057220459,26.981250762939453,-18.28125
1777560294484046600,6.579046630859375,-12.43125057220459,27.037500381469727,-17.850000381469727
1777560294494046700,6.589046630859375,-11.53125,27.506250381469727,-15.52500057220459
1777560294504046600,6.599046630859375,-13.537500381469727,26.287500381469727,-17.118751525878906
1777560294514046700,6.609046630859375,-12.768750190734863,26.812501907348633,-16.05000114440918
1777560294524046600,6.619046630859375,-13.987500190734863,26.981250762939453,-15.693750381469727
1777560294534046700,6.629046630859375,-13.068750381469727,26.700000762939453,-16.762500762939453
1777560294544046600,6.639046630859375,-14.250000953674316,27.712501525878906,-15.825000762939453
1777560294554046700,6.649046630859375,-13.031250953674316,27.30000114440918,-16.931251525878906
1777560294564046600,6.659046630859375,-12,27.131250381469727,-15.581250190734863
1777560294574046700,6.669046630859375,-10.40625,28.968751907348633,-15.693750381469727
1777560294584046600,6.679046630859375,-12.693750381469727,29.718751907348633,-13.237500190734863
1777560294594046700,6.689046630859375,-10.27500057220459,28.98750114440918,-14.700000762939453
1777560294604046600,6.699046630859375,-10.40625,29.793750762939453,-14.418750762939453
1777560294614046700,6.709046630859375,-9.975000381469727,29.943750381469727,-11.568750381469727
1777560294624046600,6.719046630859375,-9.975000381469727,29.212501525878906,-14.11875057220459
1777560294634046700,6.729046630859375,-6.168750286102295,29.681251525878906,-13.425000190734863
1777560294644046600,6.739046630859375,-8.418750762939453,29.662500381469727,-15.187500953674316
1777560294654046700,6.749046630859375,-6.468750476837158,29.83125114440918,-13.237500190734863
1777560294664046600,6.759046630859375,-6.600000381469727,30.356250762939453,-12.99375057220459
1777560294674046700,6.769046630859375,-6.037500381469727,28.762500762939453,-14.58750057220459
1777560294684046600,6.779046630859375,-5.981250286102295,30.000001907348633,-14.625000953674316
1777560294694046700,6.789046630859375,-6.487500190734863,29.775001525878906,-11.831250190734863
1777560294704046600,6.799046630859375,-5.681250095367432,30.39375114440918,-13.575000762939453
1777560294714046700,6.809046630859375,-4.518750190734863,29.906251907348633,-10.875
1777560294724046600,6.819046630859375,-5.381250381469727,31.631250381469727,-10.237500190734863
1777560294734046700,6.829046630859375,-1.7625000476837158,29.850000381469727,-12.093750953674316
1777560294744046600,6.839046630859375,-4.443750381469727,31.200000762939453,-12.318750381469727
1777560294754046700,6.849046630859375,-2.793750047683716,31.350000381469727,-10.36875057220459
1777560294764046600,6.859046630859375,-2.793750047683716,30.693750381469727,-12.318750381469727
1777560294774046700,6.869046630859375,-1.818750023841858,32.51250076293945,-11.86875057220459
1777560294784046600,6.879046630859375,-2.7750000953674316,31.89375114440918,-10.96875
1777560294794046700,6.889046630859375,-2.0250000953674316,31.256250381469727,-11.100000381469727
1777560294804046600,6.899046630859375,-3.2437500953674316,31.61250114440918,-10.293750762939453
1777560294814046700,6.909046630859375,-0.6187500357627869,32.60625076293945,-11.175000190734863
1777560294824046600,6.919046630859375,-2.15625,31.875001907348633,-11.981250762939453
1777560294834046700,6.929046630859375,-2.15625,31.875001907348633,-11.981250762939453
1777560294844046600,6.939046630859375,-0.6937500238418579,30.787500381469727,-10.800000190734863
1777560294854046700,6.949046630859375,-1.1437500715255737,30.543750762939453,-10.83750057220459
1777560294864046600,6.959046630859375,-1.9875000715255737,32.45625305175781,-11.30625057220459
1777560294874046700,6.969046630859375,-1.4250000715255737,30.975000381469727,-12.168750762939453
1777560294884046600,6.979046630859375,0.30000001192092896,32.868751525878906,-10.143750190734863
1777560294894046700,6.989046630859375,-0.26250001788139343,33.525001525878906,-11.700000762939453
1777560294904046600,6.999046630859375,-0.16875000298023224,33.09375,-8.68125057220459
1777560294914046700,7.009046630859375,-1.21875,32.775001525878906,-10.83750057220459
1777560294924046600,7.019046630859375,0.4125000238418579,31.162500381469727,-12.450000762939453
1777560294934046700,7.029046630859375,-1.2000000476837158,33.056251525878906,-11.49375057220459
1777560294944046600,7.039046630859375,1.9500000476837158,31.650001525878906,-11.700000762939453
1777560294954046700,7.049046630859375,-0.28125,32.73750305175781,-12.843750953674316
1777560294964046600,7.059046630859375,-0.30000001192092896,32.45625305175781,-12.187500953674316
1777560294974046700,7.069046630859375,0.13125000894069672,31.818750381469727,-12.318750381469727
1777560294984046600,7.079046630859375,1.21875,33.150001525878906,-9.99375057220459
1777560294994046700,7.089046630859375,1.1437500715255737,34.85625076293945,-11.90625
1777560295004046600,7.099046630859375,0.65625,33.76875305175781,-12.52500057220459
1777560295014046700,7.109046630859375,-1.8562500476837158,31.61250114440918,-12.037500381469727
1777560295024046600,7.119046630859375,1.5187500715255737,31.631250381469727,-13.518750190734863
1777560295034046700,7.129046630859375,0.48750001192092896,32.66250228881836,-13.312500953674316
1777560295044046600,7.139046630859375,0.65625,33.46875,-12.862500190734863
1777560295054046700,7.149046630859375,2.8312501907348633,33.41250228881836,-16.762500762939453
1777560295064046600,7.159046630859375,1.125,34.125,-12.768750190734863
1777560295074046700,7.169046630859375,2.0250000953674316,32.60625076293945,-15.468750953674316
1777560295084046600,7.179046630859375,0.65625,31.89375114440918,-16.837501525878906
1777560295094046700,7.189046630859375,3.750000238418579,31.537500381469727,-21.9375
1777560295104046600,7.199046630859375,4.200000286102295,31.98750114440918,-20.4375
1777560295114046700,7.209046630859375,2.700000047683716,35.212501525878906,-13.725000381469727
1777560295124046600,7.219046630859375,2.34375,33.09375,-14.68125057220459
1777560295134046700,7.229046630859375,-0.4125000238418579,33,-13.65000057220459
1777560295144046600,7.239046630859375,-0.20625001192092896,34.48125076293945,-13.65000057220459
1777560295154046700,7.249046630859375,-2.6625001430511475,33.41250228881836,-15.05625057220459
1777560295164046600,7.259046630859375,-4.068750381469727,32.47500228881836,-14.625000953674316
1777560295174046700,7.269046630859375,-5.8125,34.3125,-14.943750381469727
1777560295184046600,7.279046630859375,-4.481250286102295,34.44375228881836,-12.262500762939453
1777560295194046700,7.289046630859375,-6.450000286102295,33.9375,-14.156250953674316
1777560295204046600,7.299046630859375,-6.618750095367432,33.88125228881836,-13.593750953674316
1777560295214046700,7.309046630859375,-7.968750476837158,33.78750228881836,-15.131250381469727
1777560295224046600,7.319046630859375,-8.568750381469727,34.10625076293945,-13.781250953674316
1777560295234046700,7.329046630859375,-9.71250057220459,32.34375,-13.08750057220459
1777560295244046600,7.339046630859375,-12.131250381469727,32.73750305175781,-13.800000190734863
1777560295254046700,7.349046630859375,-11.25,30.281251907348633,-16.96875
1777560295264046600,7.359046630859375,-12.750000953674316,31.743751525878906,-15.52500057220459
1777560295274046700,7.369046630859375,-12.750000953674316,31.743751525878906,-15.52500057220459
1777560295284046600,7.379046630859375,-12.300000190734863,30.993751525878906,-16.387500762939453
1777560295294046700,7.389046630859375,-13.36875057220459,31.61250114440918,-14.68125057220459
1777560295304046600,7.399046630859375,-14.606250762939453,30.67500114440918,-16.106250762939453
1777560295314046700,7.409046630859375,-13.74375057220459,29.700000762939453,-15.037500381469727
1777560295324046600,7.419046630859375,-15.15000057220459,28.106250762939453,-16.575000762939453
1777560295334046700,7.429046630859375,-15.075000762939453,29.887500762939453,-17.231250762939453
1777560295344046600,7.439046630859375,-16.462501525878906,28.443750381469727,-19.443750381469727
1777560295354046700,7.449046630859375,-17.8125,29.793750762939453,-17.043750762939453
1777560295364046600,7.459046630859375,-17.55000114440918,27.95625114440918,-18.525001525878906
1777560295374046700,7.469046630859375,-19.818750381469727,28.668750762939453,-17.90625
1777560295384046600,7.479046630859375,-16.481250762939453,27.843751907348633,-19.275001525878906
1777560295394046700,7.489046630859375,-18.28125,29.400001525878906,-17.100000381469727
1777560295404046600,7.499046630859375,-18.918750762939453,27.806251525878906,-18.65625
1777560295414046700,7.509046630859375,-18.30000114440918,27.39375114440918,-20.73750114440918
1777560295424046600,7.519046630859375,-17.8125,27.712501525878906,-22.80000114440918
1777560295434046700,7.529046630859375,-18.618751525878906,27.918750762939453,-18.787500381469727
1777560295444046600,7.539046630859375,-21.337501525878906,26.756250381469727,-22.462501525878906
1777560295454046700,7.549046630859375,-20.100000381469727,27.937501907348633,-21.28125
1777560295464046600,7.559046630859375,-20.756250381469727,25.443750381469727,-24.712501525878906
1777560295474046700,7.569046630859375,-18.881250381469727,27.76875114440918,-21.48750114440918
1777560295484046600,7.579046630859375,-19.668750762939453,27.037500381469727,-22.3125
1777560295494046700,7.589046630859375,-22.106250762939453,26.92500114440918,-21.431251525878906
1777560295504046600,7.599046630859375,-19.96875,26.118751525878906,-24.318750381469727
1777560295514046700,7.609046630859375,-19.368751525878906,26.756250381469727,-22.51875114440918
1777560295524046600,7.619046630859375,-18.881250381469727,27.562501907348633,-22.931251525878906
1777560295534046700,7.629046630859375,-19.05000114440918,27.075000762939453,-22.89375114440918
1777560295544046600,7.639046630859375,-19.14375114440918,27.993751525878906,-24.262500762939453
1777560295554046700,7.649046630859375,-17.756250381469727,28.837501525878906,-23.568750381469727
1777560295564046600,7.659046630859375,-19.70625114440918,29.606250762939453,-22.668750762939453
1777560295574046700,7.669046630859375,-18.9375,29.793750762939453,-23.08125114440918
1777560295584046600,7.679046630859375,-18.225000381469727,29.043750762939453,-22.106250762939453
1777560295594046700,7.689046630859375,-17.55000114440918,29.850000381469727,-24.375001907348633
1777560295604046600,7.699046630859375,-16.462501525878906,31.293750762939453,-23.006250381469727
1777560295614046700,7.709046630859375,-16.350000381469727,30.150001525878906,-23.08125114440918
1777560295624046600,7.719046630859375,-16.6875,29.231250762939453,-22.537500381469727
1777560295634046700,7.729046630859375,-16.537500381469727,29.08125114440918,-22.70625114440918
1777560295644046600,7.739046630859375,-17.756250381469727,28.875001907348633,-23.287500381469727
1777560295654046700,7.749046630859375,-17.306251525878906,28.668750762939453,-23.90625
1777560295664046600,7.759046630859375,-16.650001525878906,30.056251525878906,-23.793750762939453
1777560295674046700,7.769046630859375,-18.337501525878906,29.568750381469727,-23.700000762939453
1777560295684046600,7.779046630859375,-18.28125,29.681251525878906,-27.20625114440918
1777560295694046700,7.789046630859375,-17.287500381469727,27.95625114440918,-26.156251907348633
1777560295704046600,7.799046630859375,-17.287500381469727,27.95625114440918,-26.156251907348633
1777560295714046700,7.809046630859375,-17.25,29.100000381469727,-26.92500114440918
1777560295724046600,7.819046630859375,-17.700000762939453,29.193750381469727,-27.168750762939453
1777560295734046700,7.829046630859375,-17.53125,30.000001907348633,-25.05000114440918
1777560295744046600,7.839046630859375,-17.73750114440918,29.418750762939453,-23.887500762939453
1777560295754046700,7.849046630859375,-19.21875,29.812501907348633,-25.462501525878906
1777560295764046600,7.859046630859375,-19.106250762939453,32.212501525878906,-26.137500762939453
1777560295774046700,7.869046630859375,-16.59375,30.637500762939453,-25.80000114440918
1777560295784046600,7.879046630859375,-18.431251525878906,30.95625114440918,-23.568750381469727
1777560295794046700,7.889046630859375,-18.225000381469727,32.36250305175781,-24.150001525878906
1777560295804046600,7.899046630859375,-16.856250762939453,30.993751525878906,-27.562501907348633
1777560295814046700,7.909046630859375,-18.86250114440918,31.031251907348633,-25.668750762939453
1777560295824046600,7.919046630859375,-15.112500190734863,30.000001907348633,-24.131250381469727
1777560295834046700,7.929046630859375,-18.431251525878906,31.443750381469727,-22.78125
1777560295844046600,7.939046630859375,-17.137500762939453,33.26250076293945,-24.01875114440918
1777560295854046700,7.949046630859375,-15.731250762939453,34.89375305175781,-22.181251525878906
1777560295864046600,7.959046630859375,-16.668750762939453,34.3125,-21
1777560295874046700,7.969046630859375,-17.4375,34.85625076293945,-19.89375114440918
1777560295884046600,7.979046630859375,-13.443750381469727,34.837501525878906,-22.537500381469727
1777560295894046700,7.989046630859375,-14.362500190734863,35.32500076293945,-20.868751525878906
1777560295904046600,7.999046630859375,-14.381250381469727,34.95000076293945,-20.943750381469727
1777560295914046700,8.009046630859375,-13.36875057220459,33.45000076293945,-20.981250762939453
1777560295924046600,8.019046630859375,-11.287500381469727,35.85000228881836,-21.5625
1777560295934046700,8.029046630859375,-14.381250381469727,34.72500228881836,-20.700000762939453
1777560295944046600,8.039046630859374,-12.656250953674316,36.375,-20.568750381469727
1777560295954046700,8.049046630859374,-11.137500762939453,36.431251525878906,-20.17500114440918
1777560295964046600,8.059046630859376,-9.15000057220459,37.10625076293945,-18.825000762939453
1777560295974046700,8.069046630859376,-10.425000190734863,36.30000305175781,-16.6875
1777560295984046600,8.079046630859375,-10.125,36.9375,-14.887500762939453
1777560295994046700,8.089046630859375,-8.081250190734863,37.78125,-17.606250762939453
1777560296004046600,8.099046630859375,-6.450000286102295,37.51875305175781,-16.012500762939453
1777560296014046700,8.109046630859375,-7.143750190734863,38.23125076293945,-17.962501525878906
1777560296024046600,8.119046630859375,-4.875,38.587501525878906,-17.25
1777560296034046700,8.129046630859374,-8.081250190734863,38.118751525878906,-17.118751525878906
1777560296044046600,8.139046630859376,-7.575000286102295,39.993751525878906,-16.21875
1777560296054046700,8.149046630859376,-7.181250095367432,38.212501525878906,-15.562500953674316
1777560296064046600,8.159046630859375,-6.225000381469727,39.525001525878906,-15.90000057220459
1777560296074046700,8.169046630859375,-7.612500190734863,38.85000228881836,-15.43125057220459
1777560296084046600,8.179046630859375,-4.987500190734863,39.806251525878906,-16.59375
1777560296094046700,8.189046630859375,-2.4937500953674316,41.025001525878906,-17.55000114440918
1777560296104046600,8.199046630859375,-5.756250381469727,39.31875228881836,-17.381250381469727
1777560296114046700,8.209046630859374,-4.237500190734863,40.368751525878906,-14.381250381469727
1777560296124046600,8.219046630859374,-3.8062500953674316,39.46875,-15.412500381469727
1777560296134046700,8.229046630859376,-3.8062500953674316,39.46875,-15.412500381469727
1777560296144046600,8.239046630859375,-3.7875001430511475,39.31875228881836,-16.443750381469727
1777560296154046700,8.249046630859375,-3.7875001430511475,39.31875228881836,-16.443750381469727
1777560296164046600,8.259046630859375,-3,40.5,-15.24375057220459
1777560296174046700,8.269046630859375,-3.2437500953674316,41.88750076293945,-15.956250190734863
1777560296184046600,8.279046630859375,-1.725000023841858,40.42500305175781,-19.950000762939453
1777560296194046700,8.289046630859374,-2.3625001907348633,41.025001525878906,-16.70625114440918
1777560296204046600,8.299046630859374,-3.168750047683716,40.14375305175781,-15.862500190734863
1777560296214046700,8.309046630859376,-1.4625000953674316,40.42500305175781,-17.418750762939453
1777560296224046600,8.319046630859376,0.8062500357627869,39.41250228881836,-18.375
1777560296234046700,8.329046630859375,-2.3625001907348633,40.6875,-16.5
1777560296244046600,8.339046630859375,-0.581250011920929,40.14375305175781,-15.937500953674316
1777560296254046700,8.349046630859375,-1.0125000476837158,40.63125228881836,-15.975000381469727
1777560296264046600,8.359046630859375,-1.6500000953674316,39.88125228881836,-15.956250190734863
1777560296274046700,8.369046630859375,-0.9750000238418579,41.75625228881836,-15.05625057220459
1777560296284046600,8.379046630859374,-2.1000001430511475,40.20000076293945,-15.468750953674316
1777560296294046700,8.389046630859376,-0.11250000447034836,39.993751525878906,-16.96875
1777560296304046600,8.399046630859376,1.5750000476837158,39.48750305175781,-19.51875114440918
1777560296314046700,8.409046630859375,-0.1875,41.66250228881836,-17.493751525878906
1777560296324046600,8.419046630859375,0.5625,40.72500228881836,-19.537500381469727
1777560296334046700,8.429046630859375,2.1750001907348633,40.76250076293945,-15.90000057220459
1777560296344046600,8.439046630859375,2.25,41.36250305175781,-18.600000381469727
1777560296354046700,8.449046630859375,-0.48750001192092896,41.64375305175781,-18.48750114440918
1777560296364046600,8.459046630859374,0.26250001788139343,40.89375305175781,-19.350000381469727
1777560296374046700,8.469046630859374,0.5437500476837158,41.60625076293945,-16.125
1777560296384046600,8.479046630859376,-0.6187500357627869,41.775001525878906,-19.293750762939453
1777560296394046700,8.489046630859375,-1.40625,40.57500076293945,-20.64375114440918
1777560296404046600,8.499046630859375,-0.7875000238418579,41.0625,-20.700000762939453
1777560296414046700,8.509046630859375,-1.2937500476837158,41.0625,-16.462501525878906
1777560296424046600,8.519046630859375,-4.875,42.50625228881836,-16.78125
1777560296434046700,8.529046630859375,-3.656250238418579,41.98125076293945,-19.61250114440918
1777560296444046600,8.539046630859374,-6.731250286102295,43.181251525878906,-13.93125057220459
1777560296454046700,8.549046630859374,-8.700000762939453,42.45000076293945,-15.562500953674316
1777560296464046600,8.559046630859376,-8.287500381469727,41.17500305175781,-16.668750762939453
1777560296474046700,8.569046630859376,-7.200000286102295,41.10000228881836,-17.981250762939453
1777560296484046600,8.579046630859375,-9.318750381469727,41.38125228881836,-17.73750114440918
1777560296494046700,8.589046630859375,-8.568750381469727,41.587501525878906,-16.293750762939453
1777560296504046600,8.599046630859375,-10.08750057220459,41.8125,-16.5
1777560296514046700,8.609046630859375,-11.643750190734863,40.125,-17.90625
1777560296524046600,8.619046630859375,-13.481250762939453,39.806251525878906,-17.493751525878906
1777560296534046700,8.629046630859374,-13.818750381469727,39.28125,-16.03125
1777560296544046600,8.639046630859376,-14.925000190734863,37.29375076293945,-18.506250381469727
1777560296554046700,8.649046630859376,-17.15625,39.9375,-15.825000762939453
1777560296564046600,8.659046630859375,-17.15625,39.9375,-15.825000762939453
1777560296574046700,8.669046630859375,-19.3125,38.71875,-16.556251525878906
1777560296584046600,8.679046630859375,-17.15625,39.01875305175781,-17.83125114440918
1777560296594046700,8.689046630859375,-17.962501525878906,37.25625228881836,-18.86250114440918
1777560296604046600,8.699046630859375,-20.043750762939453,38.85000228881836,-18.20625114440918
1777560296614046700,8.709046630859374,-19.5,36.46875,-19.950000762939453
1777560296624046600,8.719046630859374,-17.0625,37.6875,-17.53125
1777560296634046700,8.729046630859376,-21.1875,36.58125305175781,-18.337501525878906
1777560296644046600,8.739046630859375,-22.931251525878906,34.81875228881836,-18.48750114440918
1777560296654046700,8.749046630859375,-21.337501525878906,36.58125305175781,-19.181251525878906
1777560296664046600,8.759046630859375,-22.59375,35.36250305175781,-19.087501525878906
1777560296674046700,8.769046630859375,-22.443750381469727,34.837501525878906,-20.043750762939453
1777560296684046600,8.779046630859375,-22.631250381469727,33.86250305175781,-20.793750762939453
1777560296694046700,8.789046630859374,-22.762500762939453,34.40625,-20.55000114440918
1777560296704046600,8.799046630859374,-25.33125114440918,33.900001525878906,-22.256250381469727
1777560296714046700,8.809046630859376,-25.80000114440918,33.5625,-22.03125
1777560296724046600,8.819046630859376,-23.700000762939453,32.71875,-22.668750762939453
1777560296734046700,8.829046630859375,-25.14375114440918,35.75625228881836,-20.64375114440918
1777560296744046600,8.839046630859375,-24.412500381469727,35.212501525878906,-20.0625
1777560296754046700,8.849046630859375,-25.89375114440918,36.30000305175781,-19.537500381469727
1777560296764046600,8.859046630859375,-24.262500762939453,34.6875,-21.150001525878906
1777560296774046700,8.869046630859375,-23.006250381469727,35.53125,-21.30000114440918
1777560296784046600,8.879046630859374,-22.51875114440918,36.76875305175781,-20.512500762939453
1777560296794046700,8.889046630859376,-21.75,37.125,-19.762500762939453
1777560296804046600,8.899046630859376,-21.600000381469727,36.48750305175781,-21.58125114440918
1777560296814046700,8.909046630859375,-20.325000762939453,38.36250305175781,-21.543750762939453
1777560296824046600,8.919046630859375,-19.575000762939453,38.60625076293945,-19.818750381469727
1777560296834046700,8.929046630859375,-18.975000381469727,38.08125305175781,-20.08125114440918
1777560296844046600,8.939046630859375,-19.96875,40.05000305175781,-20.25
1777560296854046700,8.949046630859375,-19.70625114440918,38.56875228881836,-20.962501525878906
1777560296864046600,8.959046630859374,-20.756250381469727,39.03750228881836,-21.11250114440918
1777560296874046700,8.969046630859374,-20.868751525878906,40.76250076293945,-18.825000762939453
1777560296884046600,8.979046630859376,-19.537500381469727,39,-21.450000762939453
1777560296894046700,8.989046630859375,-22.012500762939453,38.41875076293945,-19.51875114440918
1777560296904046600,8.999046630859375,-21.262500762939453,38.08125305175781,-20.025001525878906
1777560296914046700,9.009046630859375,-22.931251525878906,36.88125228881836,-23.17500114440918
1777560296924046600,9.019046630859375,-22.03125,37.087501525878906,-22.59375
1777560296934046700,9.029046630859375,-22.80000114440918,35.73750305175781,-25.087501525878906
1777560296944046600,9.039046630859374,-25.181251525878906,37.48125076293945,-23.418750762939453
1777560296954046700,9.049046630859374,-24.76875114440918,36.65625,-23.025001525878906
1777560296964046600,9.059046630859376,-21.01875114440918,39.375,-23.17500114440918
1777560296974046700,9.069046630859376,-20.756250381469727,37.125,-25.725000381469727
1777560296984046600,9.079046630859375,-21.84375,37.78125,-23.025001525878906
1777560296994046700,9.089046630859375,-22.462501525878906,37.29375076293945,-22.96875
1777560297004046600,9.099046630859375,-22.462501525878906,37.29375076293945,-22.96875
1777560297014046700,9.109046630859375,-24.95625114440918,40.61250305175781,-21.5625
1777560297024046600,9.119046630859375,-22.443750381469727,38.41875076293945,-22.05000114440918
1777560297034046700,9.129046630859374,-22.443750381469727,38.41875076293945,-22.05000114440918
1777560297044046600,9.139046630859376,-23.962501525878906,38.79375076293945,-21.225000381469727
1777560297054046700,9.149046630859376,-22.40625,39.16875076293945,-22.89375114440918
1777560297064046600,9.159046630859375,-21.881250381469727,40.875,-22.293750762939453
1777560297074046700,9.169046630859375,-20.868751525878906,40.01250076293945,-21.356250762939453
1777560297084046600,9.179046630859375,-21.75,40.931251525878906,-21.01875114440918
1777560297094046700,9.189046630859375,-19.89375114440918,41.45625305175781,-21.67500114440918
1777560297104046600,9.199046630859375,-19.59375,42.07500076293945,-20.006250381469727
1777560297114046700,9.209046630859374,-19.40625,43.743751525878906,-18.84375
1777560297124046600,9.219046630859374,-19.275001525878906,42.82500076293945,-19.162500381469727
1777560297134046700,9.229046630859376,-17.71875,44.19375228881836,-18.243751525878906
1777560297144046600,9.239046630859375,-15.637500762939453,42.69375228881836,-19.14375114440918
1777560297154046700,9.249046630859375,-15.318750381469727,44.04375076293945,-16.631250381469727
1777560297164046600,9.259046630859375,-15.637500762939453,43.3125,-17.475000381469727
1777560297174046700,9.269046630859375,-16.012500762939453,44.88750076293945,-19.42500114440918
1777560297184046600,9.279046630859375,-15.881250381469727,44.04375076293945,-19.3125
1777560297194046700,9.289046630859374,-13.293750762939453,44.66250228881836,-18.412500381469727
1777560297204046600,9.299046630859374,-12.375000953674316,45.30000305175781,-17.475000381469727
1777560297214046700,9.309046630859376,-12.956250190734863,47.0625,-14.718750953674316
1777560297224046600,9.319046630859376,-12.52500057220459,46.6875,-13.106250762939453
1777560297234046700,9.329046630859375,-12.862500190734863,46.95000076293945,-10.36875057220459
1777560297244046600,9.339046630859375,-11.456250190734863,48.54375076293945,-8.831250190734863
1777560297254046700,9.349046630859375,-9.80625057220459,47.08125305175781,-11.11875057220459
1777560297264046600,9.359046630859375,-10.143750190734863,46.650001525878906,-9.787500381469727
1777560297274046700,9.369046630859375,-9.787500381469727,47.26875305175781,-12.506250381469727
1777560297284046600,9.379046630859374,-6.712500095367432,48.243751525878906,-11.700000762939453
1777560297294046700,9.389046630859376,-8.100000381469727,48.31875228881836,-10.36875057220459
1777560297304046600,9.399046630859376,-6.581250190734863,47.775001525878906,-12.356250762939453
1777560297314046700,9.409046630859375,-6.600000381469727,48.45000076293945,-9.393750190734863
1777560297324046600,9.419046630859375,-7.781250476837158,48.91875076293945,-9.693750381469727
1777560297334046700,9.429046630859375,-7.781250476837158,49.275001525878906,-8.925000190734863
1777560297344046600,9.439046630859375,-5.34375,48.618751525878906,-10.818750381469727
1777560297354046700,9.449046630859375,-5.362500190734863,48.093753814697266,-11.90625
1777560297364046600,9.459046630859374,-4.256250381469727,48.187503814697266,-13.74375057220459
1777560297374046700,9.469046630859374,-3.4875001907348633,48.03750228881836,-14.77500057220459
1777560297384046600,9.479046630859376,-2.1000001430511475,49.125003814697266,-14.193750381469727
1777560297394046700,9.489046630859375,-3.3187501430511475,49.406253814697266,-12.262500762939453
1777560297404046600,9.499046630859375,-2.8312501907348633,49.76250076293945,-14.043750762939453
1777560297414046700,9.509046630859375,-2.1000001430511475,48.97500228881836,-13.518750190734863
1777560297424046600,9.519046630859375,-2.0812501907348633,49.81875228881836,-13.631250381469727
1777560297434046700,9.529046630859375,-2.0812501907348633,49.81875228881836,-13.631250381469727
1777560297444046600,9.539046630859374,-2.6625001430511475,51.281253814697266,-11.362500190734863
1777560297454046700,9.549046630859374,-0.581250011920929,50.23125076293945,-10.762500762939453
1777560297464046600,9.559046630859376,-2.53125,50.56875228881836,-11.081250190734863
1777560297474046700,9.569046630859376,-2.0812501907348633,50.41875076293945,-12.112500190734863
1777560297484046600,9.579046630859375,-2.1000001430511475,50.13750076293945,-11.456250190734863
1777560297494046700,9.589046630859375,1.0125000476837158,51.50625228881836,-13.106250762939453
1777560297504046600,9.599046630859375,-1.443750023841858,51.093753814697266,-12.562500953674316
1777560297514046700,9.609046630859375,-1.8000000715255737,48.91875076293945,-13.818750381469727
1777560297524046600,9.619046630859375,-3.262500047683716,51.468753814697266,-10.893750190734863
1777560297534046700,9.629046630859374,-0.9937500357627869,51.45000076293945,-10.950000762939453
1777560297544046600,9.639046630859376,-2.0625,51.20625305175781,-10.96875
1777560297554046700,9.649046630859376,-1.03125,49.66875076293945,-12.975000381469727
1777560297564046600,9.659046630859375,-0.6937500238418579,50.10000228881836,-13.481250762939453
1777560297574046700,9.669046630859375,0.5250000357627869,51.150001525878906,-11.325000762939453
1777560297584046600,9.679046630859375,-0.4312500059604645,49.76250076293945,-11.418750762939453
1777560297594046700,9.689046630859375,0.5250000357627869,50.493751525878906,-13.293750762939453
1777560297604046600,9.699046630859375,1.21875,52.89375305175781,-12.99375057220459
1777560297614046700,9.709046630859374,2.1187500953674316,52.05000305175781,-13.74375057220459
1777560297624046600,9.719046630859374,0.4312500059604645,51.41250228881836,-14.662500381469727
1777560297634046700,9.729046630859376,-2.4937500953674316,50.962501525878906,-12.693750381469727
1777560297644046600,9.739046630859375,-0.16875000298023224,51.20625305175781,-15.24375057220459
1777560297654046700,9.749046630859375,-0.675000011920929,50.625003814697266,-14.081250190734863
1777560297664046600,9.759046630859375,-1.2375000715255737,51.20625305175781,-15.225000381469727
1777560297674046700,9.769046630859375,-3.356250047683716,51.281253814697266,-15.581250190734863
1777560297684046600,9.779046630859375,-2.6812500953674316,50.212501525878906,-12.693750381469727
1777560297694046700,9.789046630859374,-3.4125001430511475,51.76875305175781,-10.537500381469727
1777560297704046600,9.799046630859374,-6.600000381469727,51.337501525878906,-11.8125
1777560297714046700,9.809046630859376,-7.218750476837158,50.38125228881836,-13.237500190734863
1777560297734046700,9.829046630859375,-10.481250762939453,48.63750076293945,-13.350000381469727
1777560297744046600,9.839046630859375,-13.200000762939453,49.687503814697266,-12.093750953674316
1777560297754046700,9.849046630859375,-13.068750381469727,48.35625076293945,-13.612500190734863
1777560297764046600,9.859046630859375,-14.700000762939453,49.743751525878906,-13.443750381469727
1777560297774046700,9.869046630859375,-16.443750381469727,47.94375228881836,-12.206250190734863
1777560297784046600,9.879046630859374,-18.337501525878906,46.14375305175781,-12.637500762939453
1777560297794046700,9.889046630859376,-18,46.38750076293945,-14.287500381469727
1777560297804046600,9.899046630859376,-19.931251525878906,47.75625228881836,-13.55625057220459
1777560297814046700,9.909046630859375,-21.056251525878906,46.20000076293945,-13.106250762939453
1777560297824046600,9.919046630859375,-20.90625,45.41250228881836,-15.956250190734863
1777560297834046700,9.929046630859375,-24.037500381469727,43.5,-13.687500953674316
1777560297844046600,9.939046630859375,-23.850000381469727,43.76250076293945,-15.33750057220459
1777560297854046700,9.949046630859375,-24.918750762939453,43.23750305175781,-16.40625
1777560297864046600,9.959046630859374,-24.037500381469727,42.91875076293945,-15.918750762939453
1777560297874046700,9.969046630859374,-24.037500381469727,42.91875076293945,-15.918750762939453
1777560297884046600,9.979046630859376,-24.881250381469727,39.712501525878906,-18.337501525878906
1777560297894046700,9.989046630859375,-27.750001907348633,40.72500228881836,-16.51875114440918
1777560297904046600,9.999046630859375,-28.687501907348633,39.46875,-18.28125
1777560297914046700,10.009046630859375,-28.687501907348633,39.46875,-18.28125
1777560297924046600,10.019046630859375,-28.70625114440918,39.1875,-17.64375114440918
1777560297934046700,10.029046630859375,-31.443750381469727,39.11250305175781,-17.4375
1777560297944046600,10.039046630859374,-29.45625114440918,37.70625305175781,-21.84375
1777560297954046700,10.049046630859374,-31.500001907348633,36.97500228881836,-19.256250381469727
1777560297964046600,10.059046630859376,-31.968751907348633,35.70000076293945,-21.1875
1777560297974046700,10.069046630859376,-31.818750381469727,35.962501525878906,-21
1777560297984046600,10.079046630859375,-33.01875305175781,36.48750305175781,-20.006250381469727
1777560297994046700,10.089046630859375,-32.55000305175781,36.54375076293945,-21.28125
1777560298004046600,10.099046630859375,-32.868751525878906,35.38125228881836,-22.481250762939453
1777560298014046700,10.109046630859375,-32.25,36.76875305175781,-20.681251525878906
1777560298024046600,10.119046630859375,-31.068750381469727,34.63125228881836,-23.381250381469727
1777560298034046700,10.129046630859374,-33.09375,34.51875305175781,-20.662500381469727
1777560298044046600,10.139046630859376,-30.750001907348633,35.118751525878906,-23.4375
1777560298054046700,10.149046630859376,-31.068750381469727,35.212501525878906,-21.86250114440918
1777560298064046600,10.159046630859375,-29.493751525878906,36.28125,-23.118751525878906
1777560298074046700,10.169046630859375,-28.89375114440918,36.63750076293945,-21.506250381469727
1777560298084046600,10.179046630859375,-28.875001907348633,37.35000228881836,-20.943750381469727
1777560298094046700,10.189046630859375,-29.156251907348633,37.38750076293945,-22.350000381469727
1777560298104046600,10.199046630859375,-28.087501525878906,37.875,-21.58125114440918
1777560298114046700,10.209046630859374,-29.568750381469727,40.21875,-18.262500762939453
1777560298124046600,10.219046630859374,-26.625001907348633,40.01250076293945,-23.17500114440918
1777560298134046700,10.229046630859376,-28.162500381469727,40.95000076293945,-18.450000762939453
1777560298144046600,10.239046630859375,-25.481250762939453,39.35625076293945,-19.950000762939453
1777560298154046700,10.249046630859375,-28.33125114440918,39.41250228881836,-21.28125
1777560298164046600,10.259046630859375,-27.750001907348633,38.66250228881836,-22.14375114440918
1777560298174046700,10.269046630859375,-27.468751907348633,38.868751525878906,-19.856250762939453
1777560298184046600,10.279046630859375,-27.187501907348633,38.118751525878906,-20.700000762939453
1777560298194046700,10.289046630859374,-28.668750762939453,37.743751525878906,-23.26875114440918
1777560298204046600,10.299046630859374,-29.606250762939453,37.875,-21.525001525878906
1777560298214046700,10.309046630859376,-29.006250381469727,37.10625076293945,-23.381250381469727
1777560298224046600,10.319046630859376,-28.087501525878906,36.26250076293945,-25.837501525878906
1777560298234046700,10.329046630859375,-28.406251907348633,36.95625305175781,-23.568750381469727
1777560298244046600,10.339046630859375,-29.625001907348633,36.28125,-23.962501525878906
1777560298254046700,10.349046630859375,-28.031251907348633,34.61250305175781,-23.475000381469727
1777560298264046600,10.359046630859375,-25.575000762939453,37.70625305175781,-27.881250381469727
1777560298274046700,10.369046630859375,-29.025001525878906,36,-25.012500762939453
1777560298284046600,10.379046630859374,-29.17500114440918,36.11250305175781,-25.125001907348633
1777560298294046700,10.389046630859376,-31.012500762939453,35.38125228881836,-25.087501525878906
1777560298304046600,10.399046630859376,-31.012500762939453,35.38125228881836,-25.087501525878906
1777560298314046700,10.409046630859375,-29.137500762939453,36.63750076293945,-25.725000381469727
1777560298324046600,10.419046630859375,-28.106250762939453,36.150001525878906,-24.86250114440918
1777560298334046700,10.429046630859375,-28.875001907348633,36.431251525878906,-22.950000762939453
1777560298344046600,10.439046630859375,-28.42500114440918,35.88750076293945,-24.056251525878906
1777560298354046700,10.449046630859375,-24.693750381469727,37.3125,-27.131250381469727
1777560298364046600,10.459046630859374,-27.543750762939453,34.70625305175781,-25.293750762939453
1777560298374046700,10.469046630859374,-24.76875114440918,36.50625228881836,-24.037500381469727
1777560298384046600,10.479046630859376,-26.287500381469727,37.125,-22.481250762939453
1777560298394046700,10.489046630859375,-22.61250114440918,38.47500228881836,-20.756250381469727
1777560298404046600,10.499046630859375,-25.068750381469727,39.13125228881836,-17.17500114440918
1777560298414046700,10.509046630859375,-22.875,40.23750305175781,-19.012500762939453
1777560298424046600,10.519046630859375,-22.387500762939453,41.51250076293945,-17.92500114440918
1777560298434046700,10.529046630859375,-21.506250381469727,40.98750305175781,-16.350000381469727
1777560298444046600,10.539046630859374,-19.668750762939453,41.17500305175781,-17.64375114440918
1777560298454046700,10.549046630859374,-21.48750114440918,41.73750305175781,-15.506250381469727
1777560298464046600,10.559046630859376,-19.98750114440918,40.98750305175781,-16.387500762939453
1777560298474046700,10.569046630859376,-19.443750381469727,43.89375305175781,-15.15000057220459
1777560298484046600,10.579046630859375,-17.793750762939453,42.45000076293945,-17.4375
1777560298494046700,10.589046630859375,-16.912500381469727,41.79375076293945,-16.743751525878906
1777560298504046600,10.599046630859375,-17.962501525878906,43.5,-13.575000762939453
1777560298514046700,10.609046630859375,-18.600000381469727,43.125,-12.768750190734863
1777560298524046600,10.619046630859375,-15.99375057220459,43.85625076293945,-12
1777560298534046700,10.629046630859374,-16.181251525878906,43.38750076293945,-10.106250762939453
1777560298544046600,10.639046630859376,-14.21250057220459,43.81875228881836,-9.65625
1777560298554046700,10.649046630859376,-12.356250762939453,44.92500305175781,-8.081250190734863
1777560298564046600,10.659046630859375,-12.937500953674316,45.243751525878906,-9.28125
1777560298574046700,10.669046630859375,-11.8125,43.6875,-7.068750381469727
1777560298584046600,10.679046630859375,-12.375000953674316,44.212501525878906,-8.643750190734863
1777560298594046700,10.689046630859375,-11.643750190734863,44.23125076293945,-6.825000286102295
1777560298604046600,10.699046630859375,-12.975000381469727,44.118751525878906,-10.200000762939453
1777560298614046700,10.709046630859374,-11.137500762939453,45.50625228881836,-6.600000381469727
1777560298624046600,10.719046630859374,-10.293750762939453,43.837501525878906,-6.093750476837158
1777560298634046700,10.729046630859376,-9.15000057220459,45.28125,-8.943750381469727
1777560298644046600,10.739046630859375,-9.787500381469727,44.94375228881836,-7.856250286102295
1777560298654046700,10.749046630859375,-9.393750190734863,43.743751525878906,-5.850000381469727
1777560298664046600,10.759046630859375,-8.34375,43.29375076293945,-6.393750190734863
1777560298674046700,10.769046630859375,-8.756250381469727,44.32500076293945,-7.031250476837158
1777560298684046600,10.779046630859375,-7.687500476837158,44.34375,-6.768750190734863
1777560298694046700,10.789046630859374,-8.456250190734863,44.56875228881836,-5.287500381469727
1777560298704046600,10.799046630859374,-8.325000762939453,44.10000228881836,-5.100000381469727
1777560298714046700,10.809046630859376,-5.568750381469727,43.63125228881836,-8.231250762939453
1777560298724046600,10.819046630859376,-4.800000190734863,43.38750076293945,-9.99375057220459
1777560298734046700,10.829046630859375,-4.800000190734863,43.38750076293945,-9.99375057220459
1777560298744046600,10.839046630859375,-5.25,45,-5.71875
1777560298754046700,10.849046630859375,-5.981250286102295,45.84375,-5.962500095367432
1777560298764046600,10.859046630859375,-4.631250381469727,45.337501525878906,-5.943750381469727
1777560298774046700,10.869046630859375,-4.912500381469727,44.55000305175781,-9.61875057220459
1777560298784046600,10.879046630859374,-4.03125,44.00625228881836,-8.193750381469727
1777560298794046700,10.889046630859376,-1.9312500953674316,45.48750305175781,-13.481250762939453
1777560298804046600,10.899046630859376,-3.5250000953674316,44.55000305175781,-11.34375
1777560298814046700,10.909046630859375,-1.2937500476837158,43.20000076293945,-10.256250381469727
1777560298824046600,10.919046630859375,-3.3000001907348633,44.70000076293945,-5.118750095367432
1777560298834046700,10.929046630859375,-2.1750001907348633,45.39375305175781,-7.275000095367432
1777560298844046600,10.939046630859375,-3.562500238418579,44.4375,-7.837500095367432
1777560298854046700,10.949046630859375,-3.937500238418579,43.01250076293945,-7.406250476837158
1777560298864046600,10.959046630859374,-1.4625000953674316,43.66875076293945,-7.912500381469727
1777560298874046700,10.969046630859374,-2.1000001430511475,43.14375305175781,-8.137500762939453
1777560298884046600,10.979046630859376,-4.837500095367432,44.118751525878906,-4.912500381469727
1777560298904046600,10.999046630859375,-3.5812501907348633,43.63125228881836,-9.131250381469727
1777560298914046700,11.009046630859375,-3.937500238418579,43.10625076293945,-6.675000190734863
1777560298924046600,11.019046630859375,-2.25,43.14375305175781,-7.275000095367432
1777560298934046700,11.029046630859375,-1.443750023841858,43.14375305175781,-11.53125
1777560298944046600,11.039046630859374,-0.7312500476837158,42.07500076293945,-10.350000381469727
1777560298954046700,11.049046630859374,-2.4375,41.98125076293945,-7.631250381469727
1777560298964046600,11.059046630859376,-0.3187500238418579,42.28125,-7.218750476837158
1777560298974046700,11.069046630859376,0.20625001192092896,43.462501525878906,-8.550000190734863
1777560298984046600,11.079046630859375,-2.4000000953674316,43.14375305175781,-8.11875057220459
1777560298994046700,11.089046630859375,-3.075000047683716,42.150001525878906,-5.606250286102295
1777560299004046600,11.099046630859375,-3.8812501430511475,41.75625228881836,-3.9750001430511475
1777560299014046700,11.109046630859375,-3.825000047683716,42.900001525878906,-4.743750095367432
1777560299024046600,11.119046630859375,-2.15625,42.1875,-6.187500476837158
1777560299034046700,11.129046630859374,-4.293750286102295,41.83125305175781,-6.918750286102295
1777560299044046600,11.139046630859376,-5.34375,42.09375,-5.981250286102295
1777560299054046700,11.149046630859376,-6.937500476837158,40.78125,-4.78125
1777560299064046600,11.159046630859375,-9.375,40.087501525878906,-6.112500190734863
1777560299074046700,11.169046630859375,-9.543750762939453,40.21875,-4.40625
1777560299084046600,11.179046630859375,-12.862500190734863,41.0625,-4.575000286102295
1777560299094046700,11.189046630859375,-12.80625057220459,37.80000305175781,-6.468750476837158
1777560299104046600,11.199046630859375,-14.456250190734863,38.306251525878906,-6.468750476837158
1777560299114046700,11.209046630859374,-14.30625057220459,38.55000305175781,-5.568750381469727
1777560299124046600,11.219046630859374,-14.475000381469727,38.32500076293945,-4.631250381469727
1777560299134046700,11.229046630859376,-15.731250762939453,37.087501525878906,-4.556250095367432
1777560299144046600,11.239046630859375,-15.600000381469727,35.00625228881836,-8.625
1777560299154046700,11.249046630859375,-14.96250057220459,36.76875305175781,-6.750000476837158
1777560299164046600,11.259046630859375,-18.1875,35.71875,-6.300000190734863
1777560299174046700,11.269046630859375,-18.806251525878906,35.08125305175781,-7.256250381469727
1777560299184046600,11.279046630859375,-18.806251525878906,35.08125305175781,-7.256250381469727
1777560299194046700,11.289046630859374,-17.775001525878906,34.368751525878906,-6.993750095367432
1777560299204046600,11.299046630859374,-20.64375114440918,35.23125076293945,-6.187500476837158
1777560299214046700,11.309046630859376,-19.725000381469727,35.23125076293945,-7.050000190734863
1777560299224046600,11.319046630859376,-20.36250114440918,34.29375076293945,-6.656250476837158
1777560299234046700,11.329046630859375,-20.0625,33.67500305175781,-9.1875
1777560299244046600,11.339046630859375,-19.931251525878906,32.83125305175781,-9.90000057220459
1777560299254046700,11.349046630859375,-23.26875114440918,33.86250305175781,-7.087500095367432
1777560299264046600,11.359046630859375,-22.14375114440918,31.443750381469727,-7.425000190734863
1777560299274046700,11.369046630859375,-22.98750114440918,31.837501525878906,-10.725000381469727
1777560299284046600,11.379046630859374,-24.075000762939453,32.15625,-8.512500762939453
1777560299294046700,11.389046630859376,-22.875,31.125001907348633,-9.581250190734863
1777560299304046600,11.399046630859376,-24.731250762939453,30.20625114440918,-9.99375057220459
1777560299314046700,11.409046630859375,-25.462501525878906,29.793750762939453,-12.881250381469727
1777560299324046600,11.419046630859375,-24.39375114440918,30.525001525878906,-12.05625057220459
1777560299334046700,11.429046630859375,-23.850000381469727,29.45625114440918,-10.03125
1777560299344046600,11.439046630859375,-25.950000762939453,29.193750381469727,-12.693750381469727
1777560299354046700,11.449046630859375,-26.325000762939453,27.262500762939453,-13.050000190734863
1777560299364046600,11.459046630859374,-25.312501907348633,29.943750381469727,-12.71250057220459
1777560299374046700,11.469046630859374,-26.062501907348633,29.475000381469727,-14.193750381469727
1777560299384046600,11.479046630859376,-26.08125114440918,30.093751907348633,-11.68125057220459
1777560299394046700,11.489046630859375,-26.193750381469727,30.731250762939453,-12.393750190734863
1777560299404046600,11.499046630859375,-25.631250381469727,29.343751907348633,-12.543750762939453
1777560299414046700,11.509046630859375,-23.8125,30.281251907348633,-10.293750762939453
1777560299424046600,11.519046630859375,-23.64375114440918,30.356250762939453,-10.706250190734863
1777560299434046700,11.529046630859375,-24.806251525878906,31.218751907348633,-12.487500190734863
1777560299454046700,11.549046630859374,-23.006250381469727,31.668750762939453,-9.33750057220459
1777560299464046600,11.559046630859376,-23.73750114440918,32.0625,-10.950000762939453
1777560299474046700,11.569046630859376,-22.78125,32.625,-12.131250381469727
1777560299484046600,11.579046630859375,-24.11250114440918,30.356250762939453,-9.84375
1777560299494046700,11.589046630859375,-25.293750762939453,31.575000762939453,-10.012500762939453
1777560299504046600,11.599046630859375,-23.92500114440918,30.825000762939453,-11.737500190734863
1777560299514046700,11.609046630859375,-23.137500762939453,31.312501907348633,-12.656250953674316
1777560299524046600,11.619046630859375,-21.543750762939453,28.51875114440918,-13.800000190734863
1777560299534046700,11.629046630859374,-24.131250381469727,28.575000762939453,-13.425000190734863
1777560299544046600,11.639046630859376,-24.11250114440918,29.775001525878906,-12.075000762939453
1777560299554046700,11.649046630859376,-23.381250381469727,27.731250762939453,-15.018750190734863
1777560299564046600,11.659046630859375,-25.33125114440918,28.818750381469727,-14.343750953674316
1777560299574046700,11.669046630859375,-26.212501525878906,30.468751907348633,-12.450000762939453
1777560299584046600,11.679046630859375,-27.468751907348633,29.26875114440918,-12.225000381469727
1777560299594046700,11.689046630859375,-26.118751525878906,28.181251525878906,-14.437500953674316
1777560299604046600,11.699046630859375,-26.118751525878906,28.181251525878906,-14.437500953674316
1777560299614046700,11.709046630859374,-24.86250114440918,28.762500762939453,-14.793750762939453
1777560299624046600,11.719046630859374,-24.618751525878906,27.750001907348633,-13.143750190734863
1777560299634046700,11.729046630859376,-23.868751525878906,26.887500762939453,-14.756250381469727
1777560299644046600,11.739046630859375,-26.418750762939453,28.200000762939453,-14.437500953674316
1777560299654046700,11.749046630859375,-26.718751907348633,28.275001525878906,-14.68125057220459
1777560299664046600,11.759046630859375,-24.168750762939453,28.05000114440918,-12.825000762939453
1777560299674046700,11.769046630859375,-25.968751907348633,29.475000381469727,-10.818750381469727
1777560299684046600,11.779046630859375,-25.950000762939453,29.718751907348633,-10.762500762939453
1777560299694046700,11.789046630859374,-25.218751907348633,28.125001907348633,-13.200000762939453
1777560299704046600,11.799046630859374,-24.39375114440918,30.150001525878906,-12.131250381469727
1777560299714046700,11.809046630859376,-23.962501525878906,29.606250762939453,-11.550000190734863
1777560299724046600,11.819046630859376,-23.381250381469727,29.17500114440918,-11.925000190734863
1777560299734046700,11.829046630859375,-23.325000762939453,30.825000762939453,-10.912500381469727
1777560299744046600,11.839046630859375,-24.506250381469727,32.32500076293945,-9.1875
1777560299754046700,11.849046630859375,-24.712501525878906,30.843751907348633,-9.881250381469727
1777560299764046600,11.859046630859375,-23.306251525878906,32.118751525878906,-8.831250190734863
1777560299774046700,11.869046630859375,-20.71875,32.45625305175781,-8.11875057220459
1777560299784046600,11.879046630859374,-18.412500381469727,33.03750228881836,-8.49375057220459
1777560299794046700,11.889046630859376,-19.818750381469727,32.88750076293945,-6.093750476837158
1777560299804046600,11.899046630859376,-16.725000381469727,33.88125228881836,-7.818750381469727
1777560299814046700,11.909046630859375,-16.14375114440918,33.993751525878906,-6.112500190734863
1777560299824046600,11.919046630859375,-15.131250381469727,32.55000305175781,-5.71875
1777560299834046700,11.929046630859375,-15.206250190734863,33.82500076293945,-8.15625
1777560299844046600,11.939046630859375,-16.106250762939453,33.993751525878906,-8.662500381469727
1777560299854046700,11.949046630859375,-12.656250953674316,32.94375228881836,-8.100000381469727
1777560299864046600,11.959046630859374,-15.187500953674316,35.10000228881836,-6.206250190734863
1777560299874046700,11.969046630859374,-12.018750190734863,34.76250076293945,-5.100000381469727
1777560299884046600,11.979046630859376,-12.15000057220459,35.71875,-3.637500047683716
1777560299894046700,11.989046630859375,-12,36.056251525878906,-3.0187501907348633
1777560299904046600,11.999046630859375,-10.631250381469727,36.73125076293945,-0.9375000596046448
1777560299914046700,12.009046630859375,-8.831250190734863,36.13125228881836,-0.8250000476837158
1777560299924046600,12.019046630859375,-9.46875,36.22500228881836,0.768750011920929
1777560299934046700,12.029046630859375,-8.21250057220459,36.1875,-2.1000001430511475
1777560299944046600,12.039046630859374,-8.34375,36.1875,-2.9437501430511475
1777560299954046700,12.049046630859374,-9.61875057220459,36.150001525878906,1.03125
1777560299964046600,12.059046630859376,-9.9375,35.75625228881836,0.9750000238418579
1777560299974046700,12.069046630859376,-8.231250762939453,35.71875,-1.0500000715255737
1777560299984046600,12.079046630859375,-7.293750286102295,35.90625,-2.325000047683716
1777560299994046700,12.089046630859375,-6.525000095367432,36.54375076293945,-2.2125000953674316
1777560300004046600,12.099046630859375,-2.887500047683716,36.41250228881836,-2.1937501430511475
1777560300014046700,12.109046630859375,-4.368750095367432,37.556251525878906,-1.2375000715255737
1777560300024046600,12.119046630859375,-2.7562501430511475,36.03750228881836,-1.2750000953674316
1777560300034046700,12.129046630859374,-2.7562501430511475,36.03750228881836,-1.2750000953674316
1777560300044046600,12.139046630859376,-1.6500000953674316,37.42500305175781,-0.3375000059604645
1777560300054046700,12.149046630859376,-3.187500238418579,36.73125076293945,-0.862500011920929
1777560300064046600,12.159046630859375,-3.187500238418579,37.275001525878906,0.375
1777560300074046700,12.169046630859375,-3.3375000953674316,37.368751525878906,0.11250000447034836
1777560300084046600,12.179046630859375,-3.937500238418579,37.21875,-0.03750000149011612
1777560300094046700,12.189046630859375,-2.71875,36.58125305175781,-1.8937500715255737
1777560300104046600,12.199046630859375,-1.8000000715255737,37.21875,-0.9375000596046448
1777560300114046700,12.209046630859374,1.0875000953674316,37.23750305175781,-1.5750000476837158
1777560300124046600,12.219046630859374,-0.9000000357627869,36.618751525878906,-1.6500000953674316
1777560300134046700,12.229046630859376,-1.1437500715255737,38.0625,-2.7750000953674316
1777560300144046600,12.239046630859375,-1.9500000476837158,37.21875,-1.7812501192092896
1777560300154046700,12.249046630859375,-2.4000000953674316,37.70625305175781,-0.9750000238418579
1777560300164046600,12.259046630859375,-0.4125000238418579,36.97500228881836,-3.4312500953674316
1777560300174046700,12.269046630859375,0.6187500357627869,36.60000228881836,-1.6875001192092896
1777560300184046600,12.279046630859375,-1.3312500715255737,37.05000305175781,-2.1187500953674316
1777560300194046700,12.289046630859374,0.3375000059604645,37.06875228881836,-2.71875
1777560300204046600,12.299046630859374,-0.11250000447034836,36.82500076293945,-2.7562501430511475
1777560300214046700,12.309046630859376,0.6937500238418579,37.98750305175781,-3.262500047683716
1777560300224046600,12.319046630859376,0.20625001192092896,36.150001525878906,-6.562500476837158
1777560300234046700,12.329046630859375,1.912500023841858,38.25,-3.2437500953674316
1777560300244046600,12.339046630859375,2.0625,37.087501525878906,-6
1777560300254046700,12.349046630859375,0.20625001192092896,37.51875305175781,-3.0562500953674316
1777560300264046600,12.359046630859375,3,37.40625,-7.237500190734863
1777560300274046700,12.369046630859375,1.8375000953674316,35.962501525878906,-4.387500286102295
1777560300284046600,12.379046630859374,0.9187500476837158,36.39375305175781,-2.3062500953674316
1777560300294046700,12.389046630859376,-0.09375,36.65625,-5.606250286102295
1777560300304046600,12.399046630859376,0.4125000238418579,38.64375305175781,-3.1312501430511475
1777560300314046700,12.409046630859375,0.9375000596046448,36.01875305175781,-4.762500286102295
1777560300324046600,12.419046630859375,-0.581250011920929,36.07500076293945,-4.443750381469727
1777560300334046700,12.429046630859375,-1.0500000715255737,36.243751525878906,-3.262500047683716
1777560300344046600,12.439046630859375,-4.256250381469727,36.337501525878906,-1.8937500715255737
1777560300354046700,12.449046630859375,-2.5687501430511475,36.95625305175781,-0.9750000238418579
1777560300364046600,12.459046630859374,-7.162500381469727,35.962501525878906,-1.03125
1777560300374046700,12.469046630859374,-6.862500190734863,34.72500228881836,-4.387500286102295
1777560300384046600,12.479046630859376,-6.825000286102295,36.431251525878906,-2.9250001907348633
1777560300394046700,12.489046630859375,-8.362500190734863,34.48125076293945,-6.093750476837158
1777560300404046600,12.499046630859375,-8.943750381469727,36.337501525878906,-2.7562501430511475
1777560300414046700,12.509046630859375,-12.787500381469727,35.64375305175781,-1.6500000953674316
1777560300424046600,12.519046630859375,-11.30625057220459,34.125,-3.3937501907348633
1777560300434046700,12.529046630859375,-10.668750762939453,34.91250228881836,-3.1125001907348633
1777560300444046600,12.539046630859374,-12.637500762939453,34.875,-3.5062501430511475
1777560300454046700,12.549046630859374,-13.425000190734863,33.69375228881836,-4.6875
1777560300464046600,12.559046630859376,-13.425000190734863,33.69375228881836,-4.6875
1777560300474046700,12.569046630859376,-15.000000953674316,33.13125228881836,-2.6437501907348633
1777560300484046600,12.579046630859375,-13.725000381469727,33.60000228881836,-5.418750286102295
1777560300494046700,12.589046630859375,-15.093750953674316,34.35000228881836,-3.6750001907348633
1777560300504046600,12.599046630859375,-16.70625114440918,31.05000114440918,-4.96875
1777560300514046700,12.609046630859375,-14.68125057220459,31.743751525878906,-7.012500286102295
1777560300524046600,12.619046630859375,-15.131250381469727,31.593751907348633,-8.006250381469727
1777560300534046700,12.629046630859374,-17.943750381469727,29.45625114440918,-8.21250057220459
1777560300544046600,12.639046630859376,-18.95625114440918,30.975000381469727,-8.02500057220459
1777560300554046700,12.649046630859376,-19.387500762939453,31.781251907348633,-7.725000381469727
1777560300564046600,12.659046630859375,-18.318750381469727,30.693750381469727,-10.78125
1777560300574046700,12.669046630859375,-21.58125114440918,29.962501525878906,-8.15625
1777560300584046600,12.679046630859375,-19.875,30.750001907348633,-7.912500381469727
1777560300594046700,12.689046630859375,-19.875,29.681251525878906,-10.93125057220459
1777560300604046600,12.699046630859375,-21.375,29.381250381469727,-13.068750381469727
1777560300614046700,12.709046630859374,-19.743751525878906,28.837501525878906,-11.662500381469727
1777560300624046600,12.719046630859374,-24.825000762939453,27.150001525878906,-11.287500381469727
1777560300634046700,12.729046630859376,-22.05000114440918,28.14375114440918,-12.15000057220459
1777560300644046600,12.739046630859375,-25.23750114440918,28.012500762939453,-12.24375057220459
1777560300664046600,12.759046630859375,-24.150001525878906,27.900001525878906,-13.83750057220459
1777560300674046700,12.769046630859375,-24.431251525878906,29.137500762939453,-13.031250953674316
1777560300684046600,12.779046630859375,-21.30000114440918,26.92500114440918,-14.531250953674316
1777560300694046700,12.789046630859374,-22.481250762939453,27.937501907348633,-14.437500953674316
1777560300704046600,12.799046630859374,-22.256250381469727,26.212501525878906,-13.36875057220459
1777560300714046700,12.809046630859376,-23.287500381469727,26.756250381469727,-13.950000762939453
1777560300724046600,12.819046630859376,-22.743751525878906,28.912500381469727,-13.687500953674316
1777560300734046700,12.829046630859375,-21.262500762939453,27.918750762939453,-13.631250381469727
1777560300744046600,12.839046630859375,-20.850000381469727,27.39375114440918,-13.031250953674316
1777560300754046700,12.849046630859375,-19.106250762939453,28.23750114440918,-14.906250953674316
1777560300764046600,12.859046630859375,-17.850000381469727,29.83125114440918,-14.21250057220459
1777560300774046700,12.869046630859375,-16.818750381469727,28.125001907348633,-15.693750381469727
1777560300784046600,12.879046630859374,-18.09375,32.34375,-11.456250190734863
1777560300794046700,12.889046630859376,-16.96875,29.887500762939453,-11.25
1777560300804046600,12.899046630859376,-20.943750381469727,29.475000381469727,-10.668750762939453
1777560300814046700,12.909046630859375,-18.46875,30.750001907348633,-11.325000762939453
1777560300824046600,12.919046630859375,-20.493751525878906,28.781251907348633,-12.075000762939453
1777560300834046700,12.929046630859375,-21.28125,27.843751907348633,-12.52500057220459
1777560300844046600,12.939046630859375,-23.0625,30.01875114440918,-10.36875057220459
1777560300854046700,12.949046630859375,-23.850000381469727,28.42500114440918,-12.768750190734863
1777560300864046600,12.959046630859374,-22.78125,29.437501907348633,-10.050000190734863
1777560300874046700,12.969046630859374,-21.30000114440918,27.093751907348633,-13.36875057220459
1777560300884046600,12.979046630859376,-22.5,27.843751907348633,-13.331250190734863
1777560300894046700,12.989046630859375,-22.012500762939453,27.67500114440918,-15.356250762939453
1777560300904046600,12.999046630859375,-22.012500762939453,27.67500114440918,-15.356250762939453
1777560300914046700,13.009046630859375,-24.600000381469727,27.431251525878906,-15.33750057220459
1777560300924046600,13.019046630859375,-24.918750762939453,27.95625114440918,-13.537500381469727
1777560300934046700,13.029046630859375,-22.125,29.700000762939453,-13.406250953674316
1777560300944046600,13.039046630859374,-23.662500381469727,29.606250762939453,-11.550000190734863
1777560300954046700,13.049046630859374,-22.012500762939453,29.118751525878906,-12.262500762939453
1777560300964046600,13.059046630859376,-23.90625,31.068750381469727,-12.675000190734863
1777560300974046700,13.069046630859376,-22.42500114440918,31.087501525878906,-9.90000057220459
1777560300984046600,13.079046630859375,-21.881250381469727,32.15625,-12.80625057220459
1777560300994046700,13.089046630859375,-22.368751525878906,29.437501907348633,-7.518750190734863
1777560301004046600,13.099046630859375,-21.993751525878906,30.825000762939453,-9.112500190734863
1777560301014046700,13.109046630859375,-20.681251525878906,31.368751525878906,-13.987500190734863
1777560301024046600,13.119046630859375,-22.125,30.76875114440918,-10.387500762939453
1777560301034046700,13.129046630859374,-20.850000381469727,30.881250381469727,-13.93125057220459
1777560301044046600,13.139046630859376,-18.262500762939453,31.012500762939453,-14.68125057220459
1777560301054046700,13.149046630859376,-19.818750381469727,32.34375,-8.02500057220459
1777560301064046600,13.159046630859375,-18.618751525878906,32.17500305175781,-6.675000190734863
1777560301074046700,13.169046630859375,-19.05000114440918,32.775001525878906,-6.843750476837158
1777560301084046600,13.179046630859375,-16.837501525878906,35.8125,-4.762500286102295
1777560301094046700,13.189046630859375,-15.24375057220459,33.39375305175781,-6.825000286102295
1777560301104046600,13.199046630859375,-15.80625057220459,35.493751525878906,-4.425000190734863
1777560301114046700,13.209046630859374,-14.11875057220459,33.60000228881836,-9.637500762939453
1777560301124046600,13.219046630859374,-13.350000381469727,33.806251525878906,-10.74375057220459
1777560301134046700,13.229046630859376,-11.362500190734863,34.16250228881836,-10.03125
1777560301144046600,13.239046630859375,-12.843750953674316,36.69375228881836,-5.550000190734863
1777560301154046700,13.249046630859375,-13.65000057220459,35.83125305175781,-5.400000095367432
1777560301164046600,13.259046630859375,-10.443750381469727,34.96875,-7.912500381469727
1777560301174046700,13.269046630859375,-8.925000190734863,36.82500076293945,-3.656250238418579
1777560301184046600,13.279046630859375,-7.462500095367432,35.493751525878906,-2.53125
1777560301194046700,13.289046630859374,-8.418750762939453,34.42500305175781,-2.137500047683716
1777560301204046600,13.299046630859374,-8.981250762939453,35.8125,-2.15625
1777560301214046700,13.309046630859376,-6.862500190734863,36.07500076293945,-1.162500023841858
1777560301224046600,13.319046630859376,-6.600000381469727,35.85000228881836,1.6125000715255737
1777560301234046700,13.329046630859375,-8.71875,35.118751525878906,-0.8812500238418579
1777560301244046600,13.339046630859375,-7.162500381469727,36,-0.75
1777560301254046700,13.349046630859375,-6.356250286102295,38.19375228881836,1.4812500476837158
1777560301264046600,13.359046630859375,-4.96875,37.10625076293945,-2.5687501430511475
1777560301274046700,13.369046630859375,-5.587500095367432,36.95625305175781,-2.71875
1777560301284046600,13.379046630859374,-4.556250095367432,36.58125305175781,-1.8375000953674316
1777560301294046700,13.389046630859376,-4.368750095367432,38.681251525878906,2.231250047683716
1777560301304046600,13.399046630859376,-3.3375000953674316,37.06875228881836,-0.22500000894069672
1777560301314046700,13.409046630859375,-3.375000238418579,35.83125305175781,-0.16875000298023224
1777560301324046600,13.419046630859375,-1.9875000715255737,36.9375,0.5625
1777560301334046700,13.429046630859375,-1.9875000715255737,36.9375,0.5625
1777560301344046600,13.439046630859375,-1.3687500953674316,36.712501525878906,-0.05625000223517418
1777560301354046700,13.449046630859375,-4.106250286102295,36.525001525878906,-1.443750023841858
1777560301364046600,13.459046630859374,-1.7625000476837158,38.493751525878906,-0.6937500238418579
1777560301374046700,13.469046630859374,1.2750000953674316,38.26875305175781,-0.5437500476837158
1777560301384046600,13.479046630859376,1.068750023841858,37.20000076293945,-0.16875000298023224
1777560301394046700,13.489046630859375,1.5,36.76875305175781,0.30000001192092896
1777560301404046600,13.499046630859375,-1.162500023841858,38.34375,-0.8812500238418579
1777560301414046700,13.509046630859375,2.0062501430511475,36.16875076293945,-3.7875001430511475
1777560301424046600,13.519046630859375,0.6937500238418579,38.868751525878906,-1.537500023841858
1777560301434046700,13.529046630859375,0.956250011920929,38.36250305175781,0.1875
1777560301444046600,13.539046630859374,1.350000023841858,35.13750076293945,-3.1125001907348633
