time,seconds_elapsed,z,y,x
1777560288314046700,0.409046630859375,-48.750003814697266,73.2750015258789,94.3125
1777560288354046700,0.449046630859375,-50.55000305175781,74.79375457763672,96.20625305175781
1777560288364046600,0.459046630859375,-49.593753814697266,73.35000610351562,89.70000457763672
1777560288374046700,0.469046630859375,-44.88750076293945,74.66250610351562,92.79375457763672
1777560288384046600,0.479046630859375,-47.306251525878906,74.83125305175781,93.01875305175781
1777560288394046700,0.489046630859375,-51.150001525878906,73.81875610351562,92.94375610351562
1777560288404046600,0.499046630859375,-47.51250076293945,72.4312515258789,90.31875610351562
1777560288414046700,0.509046630859375,-45.01875305175781,74.92500305175781,91.98750305175781
1777560288424046600,0.519046630859375,-48.63750076293945,73.76250457763672,98.4937515258789
1777560288434046700,0.529046630859375,-51.20625305175781,75.4312515258789,101.43750762939453
1777560288444046600,0.539046630859375,-50.306251525878906,74.6812515258789,99.7125015258789
1777560288454046700,0.549046630859375,-51.39375305175781,74.10000610351562,99.9000015258789
1777560288464046600,0.559046630859375,-52.10625076293945,75.97500610351562,101.70000457763672
1777560288474046700,0.569046630859375,-49.875003814697266,73.72500610351562,99.09375762939453
1777560288484046600,0.579046630859375,-51.243751525878906,73.5,99.22500610351562
1777560288494046700,0.589046630859375,-48.937503814697266,74.6812515258789,100.51875305175781
1777560288504046600,0.599046630859375,-48.150001525878906,75.39375305175781,99.50625610351562
1777560288514046700,0.609046630859375,-51.618751525878906,76.16250610351562,100.44375610351562
1777560288524046600,0.619046630859375,-51.20625305175781,74.73750305175781,99.18750762939453
1777560288534046700,0.629046630859375,-51.093753814697266,74.19375610351562,100.63125610351562
1777560288544046600,0.639046630859375,-48.91875076293945,75.67500305175781,101.41875457763672
1777560288554046700,0.649046630859375,-48.937503814697266,73.91250610351562,97.8375015258789
1777560288564046600,0.659046630859375,-51.07500076293945,74.47500610351562,99.97500610351562
1777560288574046700,0.669046630859375,-50.47500228881836,74.36250305175781,100.9312515258789
1777560288584046600,0.679046630859375,-53.025001525878906,74.85000610351562,99.95625305175781
1777560288594046700,0.689046630859375,-49.70625305175781,73.96875,98.28750610351562
1777560288604046600,0.699046630859375,-49.89375305175781,73.40625,99.45000457763672
1777560288614046700,0.709046630859375,-50.306251525878906,74.25,98.4937515258789
1777560288624046600,0.719046630859375,-51.056251525878906,73.63125610351562,96.7125015258789
1777560288634046700,0.729046630859375,-50.92500305175781,74.75625610351562,101.00625610351562
1777560288644046600,0.739046630859375,-51.093753814697266,73.80000305175781,99.56250762939453
1777560288654046700,0.749046630859375,-51.337501525878906,75.375,100.14375305175781
1777560288664046600,0.759046630859375,-51.20625305175781,74.73750305175781,99.18750762939453
1777560288674046700,0.769046630859375,-51.82500076293945,75.22500610351562,100.8375015258789
1777560288684046600,0.779046630859375,-49.500003814697266,74.94375610351562,97.20000457763672
1777560288694046700,0.789046630859375,-52.95000076293945,73.51875305175781,101.9625015258789
1777560288704046600,0.799046630859375,-50.17500305175781,72.97500610351562,97.40625762939453
1777560288714046700,0.809046630859375,-51.69375228881836,73.8375015258789,99.01875305175781
1777560288724046600,0.819046630859375,-49.650001525878906,74.73750305175781,96.60000610351562
1777560288734046700,0.829046630859375,-49.57500076293945,73.33125305175781,99.01875305175781
1777560288744046600,0.839046630859375,-51.056251525878906,75.07500457763672,99.8062515258789
1777560288754046700,0.849046630859375,-51.243751525878906,73.35000610351562,98.2125015258789
1777560288764046600,0.859046630859375,-51.243751525878906,73.35000610351562,98.2125015258789
1777560288774046700,0.869046630859375,-51.82500076293945,75.22500610351562,100.8375015258789
1777560288784046600,0.879046630859375,-51.712501525878906,74.5875015258789,102.41250610351562
1777560288794046700,0.889046630859375,-52.14375305175781,73.51875305175781,97.70625305175781
1777560288804046600,0.899046630859375,-50.60625076293945,74.625,99.28125762939453
1777560288814046700,0.909046630859375,-54.86250305175781,74.8125,100.5562515258789
1777560288824046600,0.919046630859375,-53.32500076293945,74.98125457763672,99.1500015258789
1777560288834046700,0.929046630859375,-51.375003814697266,74.53125,100.42500305175781
1777560288844046600,0.939046630859375,-52.593753814697266,73.63125610351562,98.43750762939453
1777560288854046700,0.949046630859375,-52.72500228881836,74.38125610351562,98.43750762939453
1777560288864046600,0.959046630859375,-51.07500076293945,73.98750305175781,99.16875457763672
1777560288874046700,0.969046630859375,-51.712501525878906,72.54375457763672,96.93750762939453
1777560288884046600,0.979046630859375,-48.78750228881836,73.81875610351562,98.10000610351562
1777560288894046700,0.989046630859375,-49.81875228881836,74.9625015258789,99.03750610351562
1777560288904046600,0.999046630859375,-49.81875228881836,74.75625610351562,97.59375762939453
1777560288914046700,1.009046630859375,-52.14375305175781,73.6875,98.8687515258789
1777560288924046600,1.019046630859375,-50.156253814697266,74.13750457763672,99.31875610351562
1777560288934046700,1.029046630859375,-50.587501525878906,75.11250305175781,100.0875015258789
1777560288944046600,1.039046630859375,-49.53750228881836,73.76250457763672,97.68750762939453
1777560288954046700,1.049046630859375,-51.11250305175781,72.60000610351562,98.2125015258789
1777560288964046600,1.059046630859375,-50.906253814697266,74.36250305175781,98.4000015258789
1777560288974046700,1.069046630859375,-51.093753814697266,73.0875015258789,97.31250762939453
1777560288984046600,1.079046630859375,-48.20625305175781,72.9000015258789,96.91875457763672
1777560288994046700,1.089046630859375,-49.72500228881836,73.875,99.26250457763672
1777560289004046600,1.099046630859375,-49.53750228881836,74.25,98.47500610351562
1777560289014046700,1.109046630859375,-50.906253814697266,73.98750305175781,98.32500457763672
1777560289024046600,1.119046630859375,-51.056251525878906,74.36250305175781,99.2437515258789
1777560289034046700,1.129046630859375,-50.92500305175781,73.8375015258789,99.00000762939453
1777560289044046600,1.139046630859375,-50.51250076293945,73.40625,100.31250762939453
1777560289054046700,1.149046630859375,-50.343753814697266,74.3062515258789,101.32500457763672
1777560289064046600,1.159046630859375,-51.243751525878906,74.1187515258789,100.89375305175781
1777560289074046700,1.169046630859375,-48.993751525878906,73.01250457763672,100.20000457763672
1777560289084046600,1.179046630859375,-51.056251525878906,74.625,99.30000305175781
1777560289094046700,1.189046630859375,-49.89375305175781,73.5,100.1812515258789
1777560289104046600,1.199046630859375,-49.406253814697266,74.73750305175781,100.96875762939453
1777560289114046700,1.209046630859375,-49.593753814697266,72.69375610351562,98.88750457763672
1777560289124046600,1.219046630859375,-51.243751525878906,74.1187515258789,100.89375305175781
1777560289134046700,1.229046630859375,-50.156253814697266,74.0250015258789,98.5875015258789
1777560289144046600,1.239046630859375,-50.493751525878906,74.2125015258789,101.60625457763672
1777560289154046700,1.249046630859375,-48.16875076293945,75.73125457763672,101.83125305175781
1777560289164046600,1.259046630859375,-47.118751525878906,74.00625610351562,98.51250457763672
1777560289174046700,1.269046630859375,-48.187503814697266,74.7750015258789,101.23125457763672
1777560289184046600,1.279046630859375,-48.07500076293945,74.10000610351562,101.66250610351562
1777560289194046700,1.289046630859375,-48.07500076293945,74.10000610351562,101.66250610351562
1777560289204046600,1.299046630859375,-47.94375228881836,73.10625457763672,100.89375305175781
1777560289214046700,1.309046630859375,-47.00625228881836,73.53750610351562,100.38750457763672
1777560289224046600,1.319046630859375,-47.19375228881836,72.8062515258789,100.53750610351562
1777560289234046700,1.329046630859375,-47.92500305175781,72.73125457763672,98.28750610351562
1777560289244046600,1.339046630859375,-48.843753814697266,73.38750457763672,101.1187515258789
1777560289254046700,1.349046630859375,-47.868751525878906,74.92500305175781,100.53750610351562
1777560289264046600,1.359046630859375,-46.21875,74.51250457763672,100.2750015258789
1777560289274046700,1.369046630859375,-47.60625076293945,74.45625305175781,102.41250610351562
1777560289284046600,1.379046630859375,-46.98750305175781,74.26875305175781,101.23125457763672
1777560289294046700,1.389046630859375,-48.35625076293945,73.70625305175781,99.0562515258789
1777560289304046600,1.399046630859375,-48.82500076293945,73.9312515258789,100.51875305175781
1777560289314046700,1.409046630859375,-49.14375305175781,73.35000610351562,100.8375015258789
1777560289324046600,1.419046630859375,-47.587501525878906,74.17500305175781,100.53750610351562
1777560289334046700,1.429046630859375,-49.05000305175781,75.26250457763672,99.35625457763672
1777560289344046600,1.439046630859375,-48.07500076293945,73.2750015258789,100.3687515258789
1777560289354046700,1.449046630859375,-48.39375305175781,73.38750457763672,101.10000610351562
1777560289364046600,1.459046630859375,-47.587501525878906,74.56875610351562,100.59375762939453
1777560289374046700,1.469046630859375,-46.21875,73.48125457763672,97.53750610351562
1777560289384046600,1.479046630859375,-47.625,73.53750610351562,100.40625762939453
1777560289394046700,1.489046630859375,-45.9375,73.2750015258789,99.46875762939453
1777560289404046600,1.499046630859375,-48.806251525878906,74.17500305175781,100.5562515258789
1777560289414046700,1.509046630859375,-49.14375305175781,73.61250305175781,100.89375305175781
1777560289424046600,1.519046630859375,-47.92500305175781,73.81875610351562,101.45625305175781
1777560289434046700,1.529046630859375,-47.36250305175781,73.38750457763672,103.61250305175781
1777560289444046600,1.539046630859375,-46.42500305175781,73.6500015258789,102.09375762939453
1777560289454046700,1.549046630859375,-47.00625228881836,73.59375,100.81875610351562
1777560289464046600,1.559046630859375,-47.025001525878906,73.48125457763672,101.79375457763672
1777560289474046700,1.569046630859375,-47.118751525878906,74.60625457763672,100.03125762939453
1777560289484046600,1.579046630859375,-47.92500305175781,72.9375,99.73125457763672
1777560289494046700,1.589046630859375,-48.88125228881836,72.26250457763672,100.20000457763672
1777560289504046600,1.599046630859375,-48.67500305175781,74.13750457763672,101.1187515258789
1777560289514046700,1.609046630859375,-47.587501525878906,74.0250015258789,99.50625610351562
1777560289524046600,1.619046630859375,-45.9375,73.4625015258789,99.07500457763672
1777560289534046700,1.629046630859375,-45.806251525878906,72.76875305175781,99.50625610351562
1777560289544046600,1.639046630859375,-48.35625076293945,73.66875457763672,98.75625610351562
1777560289554046700,1.649046630859375,-45.91875076293945,74.38125610351562,101.08125305175781
1777560289564046600,1.659046630859375,-46.42500305175781,73.05000305175781,100.57500457763672
1777560289574046700,1.669046630859375,-47.45625305175781,73.3125,99.8062515258789
1777560289584046600,1.679046630859375,-48.41250228881836,72.63750457763672,100.25625610351562
1777560289594046700,1.689046630859375,-47.90625,74.13750457763672,101.10000610351562
1777560289604046600,1.699046630859375,-48.20625305175781,74.10000610351562,100.81875610351562
1777560289614046700,1.709046630859375,-47.04375076293945,72.60000610351562,99.93750762939453
1777560289624046600,1.719046630859375,-47.64375305175781,73.85625457763672,102.58125305175781
1777560289634046700,1.729046630859375,-47.64375305175781,73.85625457763672,102.58125305175781
1777560289644046600,1.739046630859375,-48.63750076293945,74.08125305175781,98.98125457763672
1777560289654046700,1.749046630859375,-46.72500228881836,72.9375,99.7125015258789
1777560289664046600,1.759046630859375,-45.50625228881836,72.84375,99.93750762939453
1777560289674046700,1.769046630859375,-46.650001525878906,74.38125610351562,98.56875610351562
1777560289684046600,1.779046630859375,-47.00625228881836,73.125,99.31875610351562
1777560289694046700,1.789046630859375,-48.07500076293945,74.10000610351562,101.66250610351562
1777560289704046600,1.799046630859375,-47.15625,73.10625457763672,98.34375762939453
1777560289714046700,1.809046630859375,-48.01875305175781,74.10000610351562,97.42500305175781
1777560289724046600,1.819046630859375,-48.056251525878906,74.13750457763672,100.25625610351562
1777560289734046700,1.829046630859375,-48.95625305175781,74.1187515258789,99.28125762939453
1777560289744046600,1.839046630859375,-48.39375305175781,72.86250305175781,100.01250457763672
1777560289754046700,1.849046630859375,-45.07500076293945,75.01875305175781,96.95625305175781
1777560289764046600,1.859046630859375,-46.35000228881836,73.42500305175781,96.26250457763672
1777560289774046700,1.869046630859375,-47.10000228881836,73.80000305175781,97.05000305175781
1777560289784046600,1.879046630859375,-49.406253814697266,73.2750015258789,97.72500610351562
1777560289794046700,1.889046630859375,-45.86250305175781,74.28750610351562,96.13125610351562
1777560289804046600,1.899046630859375,-47.4375,73.7437515258789,98.47500610351562
1777560289814046700,1.909046630859375,-46.23750305175781,73.01250457763672,98.5875015258789
1777560289824046600,1.919046630859375,-49.72500228881836,72.86250305175781,96.67500305175781
1777560289834046700,1.929046630859375,-46.20000076293945,72.1500015258789,92.625
1777560289844046600,1.939046630859375,-50.94375228881836,72.31875610351562,95.45625305175781
1777560289854046700,1.949046630859375,-48.375003814697266,72.97500610351562,98.19375610351562
1777560289864046600,1.959046630859375,-49.687503814697266,73.44375610351562,96.35625457763672
1777560289874046700,1.969046630859375,-46.29375076293945,73.42500305175781,92.0250015258789
1777560289884046600,1.979046630859375,-48.35625076293945,71.90625,95.17500305175781
1777560289894046700,1.989046630859375,-50.19375228881836,72.22500610351562,96.56250762939453
1777560289904046600,1.999046630859375,-50.156253814697266,73.5562515258789,97.0875015258789
1777560289914046700,2.009046630859375,-49.10625076293945,71.625,93.30000305175781
1777560289924046600,2.019046630859375,-50.13750076293945,74.3062515258789,97.9312515258789
1777560289934046700,2.029046630859375,-50.118751525878906,74.3062515258789,96.2437515258789
1777560289944046600,2.039046630859375,-50.28750228881836,73.0875015258789,94.7437515258789
1777560289954046700,2.049046630859375,-48.187503814697266,72.09375,93.9375
1777560289964046600,2.059046630859375,-48.78750228881836,72.4312515258789,94.57500457763672
1777560289974046700,2.069046630859375,-48.750003814697266,73.72500610351562,94.81875610351562
1777560289984046600,2.079046630859375,-50.19375228881836,72.0562515258789,95.4000015258789
1777560289994046700,2.089046630859375,-50.55000305175781,73.78125,93.46875
1777560290004046600,2.099046630859375,-50.38125228881836,74.41875457763672,94.44375610351562
1777560290014046700,2.109046630859375,-50.118751525878906,73.2750015258789,93.50625610351562
1777560290024046600,2.119046630859375,-50.98125076293945,74.94375610351562,94.70625305175781
1777560290034046700,2.129046630859375,-52.968753814697266,74.38125610351562,94.21875
1777560290044046600,2.139046630859375,-49.05000305175781,73.01250457763672,92.5875015258789
1777560290054046700,2.149046630859375,-50.41875076293945,73.8375015258789,94.7437515258789
1777560290064046600,2.159046630859375,-50.41875076293945,73.8375015258789,94.7437515258789
1777560290074046700,2.169046630859375,-50.23125076293945,74.10000610351562,93.11250305175781
1777560290084046600,2.179046630859375,-52.51875305175781,73.72500610351562,93.09375
1777560290094046700,2.189046630859375,-51.03750228881836,72.82500457763672,92.88750457763672
1777560290104046600,2.199046630859375,-50.906253814697266,72.8062515258789,94.57500457763672
1777560290114046700,2.209046630859375,-50.23125076293945,73.5562515258789,92.00625610351562
1777560290124046600,2.219046630859375,-51.95625305175781,72.28125,92.66250610351562
1777560290134046700,2.229046630859375,-49.593753814697266,74.19375610351562,91.2750015258789
1777560290144046600,2.239046630859375,-51.150001525878906,74.3062515258789,93.73125457763672
1777560290154046700,2.249046630859375,-50.250003814697266,73.3125,91.96875
1777560290164046600,2.259046630859375,-50.36250305175781,73.98750305175781,91.53750610351562
1777560290174046700,2.269046630859375,-48.22500228881836,73.98750305175781,90.63750457763672
1777560290184046600,2.279046630859375,-51.60000228881836,73.42500305175781,91.875
1777560290194046700,2.289046630859375,-51.712501525878906,74.75625610351562,91.57500457763672
1777560290204046600,2.299046630859375,-51.91875076293945,73.03125,91.81875610351562
1777560290214046700,2.309046630859375,-50.250003814697266,72.7125015258789,90.4312515258789
1777560290224046600,2.319046630859375,-51.656253814697266,72.75,94.16250610351562
1777560290234046700,2.329046630859375,-51.26250076293945,74.70000457763672,92.9625015258789
1777560290244046600,2.339046630859375,-48.97500228881836,74.73750305175781,91.5
1777560290254046700,2.349046630859375,-50.212501525878906,74.04375457763672,90.97500610351562
1777560290264046600,2.359046630859375,-50.56875228881836,73.14375305175781,93.35625457763672
1777560290274046700,2.369046630859375,-51.30000305175781,72.6187515258789,89.73750305175781
1777560290284046600,2.379046630859375,-51.150001525878906,73.72500610351562,92.2125015258789
1777560290294046700,2.389046630859375,-49.500003814697266,71.88750457763672,89.13750457763672
1777560290304046600,2.399046630859375,-50.08125305175781,73.40625,91.8375015258789
1777560290314046700,2.409046630859375,-51.30000305175781,73.25625610351562,91.5562515258789
1777560290324046600,2.419046630859375,-51.281253814697266,72.9937515258789,89.8125
1777560290334046700,2.429046630859375,-51.562503814697266,74.2125015258789,91.33125305175781
1777560290344046600,2.439046630859375,-50.55000305175781,72.75,90.73125457763672
1777560290354046700,2.449046630859375,-49.76250076293945,73.78125,90.91875457763672
1777560290364046600,2.459046630859375,-50.98125076293945,73.29375457763672,90.1500015258789
1777560290374046700,2.469046630859375,-52.66875076293945,72.9375,91.10625457763672
1777560290384046600,2.479046630859375,-50.962501525878906,73.57500457763672,89.4937515258789
1777560290394046700,2.489046630859375,-50.85000228881836,72.86250305175781,90.6187515258789
1777560290404046600,2.499046630859375,-50.04375076293945,73.7437515258789,89.7750015258789
1777560290414046700,2.509046630859375,-50.36250305175781,72.48750305175781,87.9937515258789
1777560290424046600,2.519046630859375,-48.91875076293945,74.625,88.23750305175781
1777560290434046700,2.529046630859375,-50.10000228881836,71.64375305175781,88.25625610351562
1777560290444046600,2.539046630859375,-50.812503814697266,73.35000610351562,89.73750305175781
1777560290454046700,2.549046630859375,-50.812503814697266,73.23750305175781,88.85625457763672
1777560290464046600,2.559046630859375,-51.73125076293945,73.25625610351562,89.8687515258789
1777560290474046700,2.569046630859375,-50.062503814697266,73.98750305175781,91.51875305175781
1777560290484046600,2.579046630859375,-52.33125305175781,74.32500457763672,92.08125305175781
1777560290494046700,2.589046630859375,-50.493751525878906,74.38125610351562,90.76875305175781
1777560290504046600,2.599046630859375,-50.493751525878906,74.38125610351562,90.76875305175781
1777560290514046700,2.609046630859375,-51.11250305175781,73.78125,90.11250305175781
1777560290524046600,2.619046630859375,-51.69375228881836,75.13125610351562,91.6500015258789
1777560290534046700,2.629046630859375,-50.47500228881836,74.56875610351562,90.375
1777560290544046600,2.639046630859375,-50.75625228881836,75.01875305175781,90.0562515258789
1777560290554046700,2.649046630859375,-50.812503814697266,74.13750457763672,90.86250305175781
1777560290564046600,2.659046630859375,-53.212501525878906,74.5875015258789,90.45000457763672
1777560290574046700,2.669046630859375,-50.17500305175781,73.66875457763672,88.5
1777560290584046600,2.679046630859375,-50.92500305175781,75.0562515258789,91.1812515258789
1777560290594046700,2.689046630859375,-51.30000305175781,73.14375305175781,90.82500457763672
1777560290604046600,2.699046630859375,-52.76250076293945,75.1875,91.96875
1777560290614046700,2.709046630859375,-54.937503814697266,74.23125457763672,93.11250305175781
1777560290634046700,2.729046630859375,-51.69375228881836,75.28125,92.66250610351562
1777560290644046600,2.739046630859375,-50.98125076293945,73.35000610351562,90.58125305175781
1777560290654046700,2.749046630859375,-50.00625228881836,75.375,90.8062515258789
1777560290664046600,2.759046630859375,-50.51250076293945,73.66875457763672,90.20625305175781
1777560290674046700,2.769046630859375,-51.67500305175781,75.31875610351562,91.25625610351562
1777560290684046600,2.779046630859375,-51.67500305175781,75.39375305175781,91.6875
1777560290694046700,2.789046630859375,-51.993751525878906,75.60000610351562,93.1500015258789
1777560290704046600,2.799046630859375,-50.04375076293945,75.09375,93.1500015258789
1777560290714046700,2.809046630859375,-49.25625228881836,74.7750015258789,90.95625305175781
1777560290724046600,2.819046630859375,-51.618751525878906,77.2125015258789,91.33125305175781
1777560290734046700,2.829046630859375,-49.66875076293945,76.40625,91.8375015258789
1777560290744046600,2.839046630859375,-51.243751525878906,75.2437515258789,92.36250305175781
1777560290754046700,2.849046630859375,-48.806251525878906,74.66250610351562,90.20625305175781
1777560290764046600,2.859046630859375,-50.156253814697266,75.76875305175781,91.72500610351562
1777560290774046700,2.869046630859375,-50.45625305175781,75.28125,90.9375
1777560290784046600,2.879046630859375,-51.58125305175781,74.36250305175781,92.34375
1777560290794046700,2.889046630859375,-49.38750076293945,75.8062515258789,91.98750305175781
1777560290804046600,2.899046630859375,-51.468753814697266,76.5,89.92500305175781
1777560290814046700,2.909046630859375,-51.22500228881836,75.91875457763672,92.7750015258789
1777560290824046600,2.919046630859375,-52.42500305175781,75.7125015258789,91.35000610351562
1777560290834046700,2.929046630859375,-49.72500228881836,74.625,90.78750610351562
1777560290844046600,2.939046630859375,-50.75625228881836,76.2750015258789,92.6812515258789
1777560290854046700,2.949046630859375,-50.493751525878906,74.7750015258789,91.8375015258789
1777560290864046600,2.959046630859375,-49.556251525878906,75.11250305175781,90.75
1777560290874046700,2.969046630859375,-49.95000076293945,76.66875457763672,91.05000305175781
1777560290884046600,2.979046630859375,-50.75625228881836,76.23750305175781,92.4000015258789
1777560290894046700,2.989046630859375,-49.70625305175781,76.2750015258789,93.50625610351562
1777560290904046600,2.999046630859375,-51.468753814697266,77.3062515258789,92.90625
1777560290914046700,3.009046630859375,-51.95625305175781,76.63125610351562,93.35625457763672
1777560290924046600,3.019046630859375,-49.51875305175781,76.5,91.70625305175781
1777560290934046700,3.029046630859375,-49.51875305175781,76.5,91.70625305175781
1777560290944046600,3.039046630859375,-52.76250076293945,75.28125,92.70000457763672
1777560290954046700,3.049046630859375,-50.04375076293945,74.625,91.6500015258789
1777560290964046600,3.059046630859375,-49.57500076293945,74.53125,90.91875457763672
1777560290974046700,3.069046630859375,-51.20625305175781,75.95625305175781,91.3687515258789
1777560290984046600,3.079046630859375,-49.51875305175781,76.875,92.4937515258789
1777560290994046700,3.089046630859375,-50.868751525878906,76.95000457763672,91.25625610351562
1777560291004046600,3.099046630859375,-50.250003814697266,77.26875305175781,92.5875015258789
1777560291014046700,3.109046630859375,-50.83125305175781,76.98750305175781,89.8687515258789
1777560291024046600,3.119046630859375,-49.61250305175781,77.73750305175781,90.67500305175781
1777560291034046700,3.129046630859375,-51.16875076293945,76.38750457763672,90.03750610351562
1777560291044046600,3.139046630859375,-48.431251525878906,76.21875,89.79375457763672
1777560291054046700,3.149046630859375,-48.750003814697266,76.44375610351562,91.25625610351562
1777560291064046600,3.159046630859375,-51.63750076293945,77.15625,92.73750305175781
1777560291074046700,3.169046630859375,-49.63125228881836,77.83125305175781,93.09375
1777560291084046600,3.179046630859375,-49.38750076293945,75.20625305175781,90.46875
1777560291094046700,3.189046630859375,-50.45625305175781,75.11250305175781,89.7750015258789
1777560291104046600,3.199046630859375,-52.25625228881836,75.7125015258789,90.50625610351562
1777560291114046700,3.209046630859375,-52.70625305175781,76.35000610351562,91.48125457763672
1777560291124046600,3.219046630859375,-51.843753814697266,78.5625,89.47500610351562
1777560291134046700,3.229046630859375,-51.656253814697266,75.82500457763672,90.35625457763672
1777560291144046600,3.239046630859375,-49.650001525878906,75.97500610351562,88.9312515258789
1777560291154046700,3.249046630859375,-49.181251525878906,76.98750305175781,90.65625
1777560291164046600,3.259046630859375,-50.681251525878906,76.96875,88.85625457763672
1777560291174046700,3.269046630859375,-49.462501525878906,76.70625305175781,88.78125
1777560291184046600,3.279046630859375,-51.468753814697266,76.14375305175781,89.15625
1777560291194046700,3.289046630859375,-50.38125228881836,75.82500457763672,86.10000610351562
1777560291204046600,3.299046630859375,-50.23125076293945,76.70625305175781,88.80000305175781
1777560291214046700,3.309046630859375,-51.60000228881836,75.86250305175781,86.41875457763672
1777560291224046600,3.319046630859375,-49.593753814697266,75.9937515258789,84.69375610351562
1777560291234046700,3.329046630859375,-52.312503814697266,76.6875,85.1812515258789
1777560291244046600,3.339046630859375,-51.093753814697266,76.85625457763672,86.3062515258789
1777560291254046700,3.349046630859375,-50.19375228881836,75.375,82.20000457763672
1777560291264046600,3.359046630859375,-51.41250228881836,77.25,88.23750305175781
1777560291274046700,3.369046630859375,-53.08125305175781,77.36250305175781,88.16250610351562
1777560291284046600,3.379046630859375,-53.55000305175781,76.3687515258789,86.41875457763672
1777560291294046700,3.389046630859375,-51.88125228881836,75.35625457763672,84.63750457763672
1777560291304046600,3.399046630859375,-53.212501525878906,76.91250610351562,85.81875610351562
1777560291314046700,3.409046630859375,-54.16875076293945,75.76875305175781,85.76250457763672
1777560291324046600,3.419046630859375,-52.53750228881836,75.60000610351562,87.9375
1777560291334046700,3.429046630859375,-54.82500076293945,74.71875,86.13750457763672
1777560291344046600,3.439046630859375,-54.806251525878906,75.03750610351562,85.78125
1777560291354046700,3.449046630859375,-54.01875305175781,75.9937515258789,86.36250305175781
1777560291364046600,3.459046630859375,-54.01875305175781,75.9937515258789,86.36250305175781
1777560291374046700,3.469046630859375,-54.187503814697266,75.9375,86.92500305175781
1777560291384046600,3.479046630859375,-55.38750076293945,76.48125457763672,88.05000305175781
1777560291394046700,3.489046630859375,-52.687503814697266,74.1187515258789,84.7125015258789
1777560291404046600,3.499046630859375,-55.687503814697266,75.63750457763672,84.78750610351562
1777560291414046700,3.509046630859375,-54.16875076293945,75.76875305175781,85.76250457763672
1777560291424046600,3.519046630859375,-54.618751525878906,75.31875610351562,84.28125
1777560291434046700,3.529046630859375,-54.60000228881836,75.46875,83.60625457763672
1777560291444046600,3.539046630859375,-56.55000305175781,76.21875,83.66250610351562
1777560291454046700,3.549046630859375,-53.83125305175781,76.20000457763672,84.4312515258789
1777560291464046600,3.559046630859375,-52.650001525878906,75.30000305175781,84.22500610351562
1777560291474046700,3.569046630859375,-55.06875228881836,75.31875610351562,83.4375
1777560291484046600,3.579046630859375,-54.73125076293945,76.25625610351562,83.88750457763672
1777560291494046700,3.589046630859375,-54.056251525878906,78.01875305175781,84.07500457763672
1777560291504046600,3.599046630859375,-55.312503814697266,77.23125457763672,84.65625
1777560291514046700,3.609046630859375,-53.92500305175781,76.91250610351562,81.60000610351562
1777560291524046600,3.619046630859375,-53.19375228881836,75.88125610351562,81.39375305175781
1777560291534046700,3.629046630859375,-51.056251525878906,75.48750305175781,79.5562515258789
1777560291544046600,3.639046630859375,-50.681251525878906,77.36250305175781,79.63125610351562
1777560291554046700,3.649046630859375,-51.22500228881836,78.13125610351562,77.10000610351562
1777560291564046600,3.659046630859375,-52.51875305175781,77.41875457763672,79.96875
1777560291574046700,3.669046630859375,-51.26250076293945,78.6187515258789,80.4375
1777560291584046600,3.679046630859375,-49.70625305175781,78.0562515258789,76.63125610351562
1777560291594046700,3.689046630859375,-49.80000305175781,75.54375457763672,76.57500457763672
1777560291604046600,3.699046630859375,-49.70625305175781,77.04375457763672,74.0250015258789
1777560291614046700,3.709046630859375,-51.375003814697266,78.13125610351562,76.25625610351562
1777560291624046600,3.719046630859375,-48.525001525878906,75.95625305175781,73.3687515258789
1777560291644046600,3.739046630859375,-49.181251525878906,74.73750305175781,74.41875457763672
1777560291654046700,3.749046630859375,-45.11250305175781,76.42500305175781,69.84375
1777560291664046600,3.759046630859375,-47.08125305175781,75.375,66.01875305175781
1777560291674046700,3.769046630859375,-45.337501525878906,77.4937515258789,66.8062515258789
1777560291684046600,3.779046630859375,-46.06875228881836,74.51250457763672,68.66250610351562
1777560291694046700,3.789046630859375,-43.743751525878906,75.58125305175781,67.38750457763672
1777560291704046600,3.799046630859375,-48.337501525878906,76.16250610351562,71.4375
1777560291714046700,3.809046630859375,-48.35625076293945,76.5562515258789,74.04375457763672
1777560291724046600,3.819046630859375,-48.31875228881836,77.79375457763672,74.00625610351562
1777560291734046700,3.829046630859375,-45.82500076293945,78.63750457763672,72.11250305175781
1777560291744046600,3.839046630859375,-47.45625305175781,75.65625,72.9937515258789
1777560291754046700,3.849046630859375,-46.16250228881836,78.5625,74.23125457763672
1777560291764046600,3.859046630859375,-48.375003814697266,77.7750015258789,78.22500610351562
1777560291774046700,3.869046630859375,-47.681251525878906,78.35625457763672,74.51250457763672
1777560291784046600,3.879046630859375,-50.38125228881836,80.0250015258789,75.60000610351562
1777560291794046700,3.889046630859375,-47.60625076293945,80.4937515258789,74.64375305175781
1777560291804046600,3.899046630859375,-47.60625076293945,80.4937515258789,74.64375305175781
1777560291814046700,3.909046630859375,-46.42500305175781,80.4375,76.85625457763672
1777560291824046600,3.919046630859375,-51.26250076293945,79.06875610351562,81.9375
1777560291834046700,3.929046630859375,-52.10625076293945,80.36250305175781,80.51250457763672
1777560291844046600,3.939046630859375,-50.587501525878906,80.45625305175781,81.20625305175781
1777560291854046700,3.949046630859375,-51.656253814697266,80.53125,81.67500305175781
1777560291864046600,3.959046630859375,-49.61250305175781,80.8687515258789,77.15625
1777560291874046700,3.969046630859375,-51.63750076293945,80.2125015258789,79.48125457763672
1777560291884046600,3.979046630859375,-51.35625076293945,79.61250305175781,79.6500015258789
1777560291894046700,3.989046630859375,-51.26250076293945,82.29375457763672,79.16250610351562
1777560291904046600,3.999046630859375,-51.58125305175781,82.38750457763672,81.60000610351562
1777560291914046700,4.009046630859375,-49.95000076293945,81.35625457763672,80.51250457763672
1777560291924046600,4.019046630859375,-51.30000305175781,81.11250305175781,79.6500015258789
1777560291934046700,4.029046630859375,-53.718753814697266,82.57500457763672,81.97500610351562
1777560291944046600,4.039046630859375,-51.95625305175781,80.04375457763672,80.0250015258789
1777560291954046700,4.049046630859375,-51.97500228881836,80.9625015258789,83.73750305175781
1777560291964046600,4.059046630859375,-52.275001525878906,80.15625,80.75625610351562
1777560291974046700,4.069046630859375,-51.150001525878906,82.1812515258789,81.82500457763672
1777560291984046600,4.079046630859375,-51.45000076293945,81.91875457763672,81.78750610351562
1777560291994046700,4.089046630859375,-50.70000076293945,81.91875457763672,81.76875305175781
1777560292004046600,4.099046630859375,-50.64375305175781,83.10000610351562,81.28125
1777560292014046700,4.109046630859375,-49.181251525878906,82.2750015258789,82.5
1777560292024046600,4.119046630859375,-50.531253814697266,82.81875610351562,82.78125
1777560292034046700,4.129046630859375,-50.343753814697266,83.13750457763672,81.5625
1777560292044046600,4.139046630859375,-50.66250228881836,83.66250610351562,83.51250457763672
1777560292054046700,4.149046630859375,-51.45000076293945,82.91250610351562,84.375
1777560292064046600,4.159046630859375,-51.86250305175781,83.51250457763672,82.38750457763672
1777560292074046700,4.169046630859375,-50.66250228881836,83.8125,84.5250015258789
1777560292084046600,4.179046630859375,-51.58125305175781,83.60625457763672,83.94375610351562
1777560292094046700,4.189046630859375,-50.343753814697266,84.45000457763672,84.63750457763672
1777560292104046600,4.199046630859375,-50.343753814697266,83.4937515258789,82.33125305175781
1777560292114046700,4.209046630859375,-49.95000076293945,82.38750457763672,83.25
1777560292124046600,4.219046630859375,-49.98750305175781,84.09375,80.47500610351562
1777560292134046700,4.229046630859375,-51.41250228881836,84.5625,85.38750457763672
1777560292144046600,4.239046630859375,-49.931251525878906,83.38125610351562,85.8375015258789
1777560292154046700,4.249046630859375,-51.41250228881836,84.46875,84.67500305175781
1777560292164046600,4.259046630859375,-51.07500076293945,84.09375,82.20000457763672
1777560292174046700,4.269046630859375,-50.531253814697266,83.83125305175781,85.51875305175781
1777560292184046600,4.279046630859375,-51.54375076293945,84.73125457763672,84.86250305175781
1777560292194046700,4.289046630859375,-48.95625305175781,83.66250610351562,81.76875305175781
1777560292204046600,4.299046630859375,-47.4375,84.86250305175781,84.07500457763672
1777560292214046700,4.309046630859375,-52.81875228881836,82.66875457763672,83.51250457763672
1777560292224046600,4.319046630859375,-49.16250228881836,83.98125457763672,85.6500015258789
1777560292234046700,4.329046630859375,-50.32500076293945,84.2437515258789,83.19375610351562
1777560292244046600,4.339046630859375,-50.32500076293945,84.2437515258789,83.19375610351562
1777560292254046700,4.349046630859375,-50.83125305175781,83.3062515258789,83.5875015258789
1777560292264046600,4.359046630859375,-50.64375305175781,84.45000457763672,84.65625
1777560292274046700,4.369046630859375,-50.45625305175781,84.63750457763672,82.42500305175781
1777560292284046600,4.379046630859375,-49.16250228881836,82.59375,82.14375305175781
1777560292294046700,4.389046630859375,-49.70625305175781,84.67500305175781,82.6875
1777560292304046600,4.399046630859375,-50.79375076293945,84.86250305175781,85.72500610351562
1777560292314046700,4.409046630859375,-47.775001525878906,84.03750610351562,84.35625457763672
1777560292324046600,4.419046630859375,-48.50625228881836,84.67500305175781,84.48750305175781
1777560292334046700,4.429046630859375,-50.343753814697266,83.60625457763672,83.0625
1777560292344046600,4.439046630859375,-48.95625305175781,84.46875,83.04375457763672
1777560292354046700,4.449046630859375,-47.23125076293945,85.03125,81.84375
1777560292364046600,4.459046630859375,-49.25625228881836,84.97500610351562,84.84375
1777560292374046700,4.469046630859375,-48.50625228881836,84.07500457763672,82.96875
1777560292384046600,4.479046630859375,-48.16875076293945,85.4625015258789,83.92500305175781
1777560292394046700,4.489046630859375,-49.837501525878906,85.33125305175781,83.8125
1777560292404046600,4.499046630859375,-47.587501525878906,83.75625610351562,81.6187515258789
1777560292414046700,4.509046630859375,-49.875003814697266,84.13125610351562,82.44375610351562
1777560292424046600,4.519046630859375,-48.13125228881836,84.88125610351562,79.85625457763672
1777560292434046700,4.529046630859375,-46.78125,85.03125,81.82500457763672
1777560292444046600,4.539046630859375,-49.20000076293945,85.48125457763672,81.41250610351562
1777560292454046700,4.549046630859375,-48.750003814697266,85.80000305175781,82.7437515258789
1777560292464046600,4.559046630859375,-47.25,84.1875,80.26875305175781
1777560292474046700,4.569046630859375,-49.51875305175781,85.10625457763672,82.35000610351562
1777560292484046600,4.579046630859375,-48.39375305175781,86.75625610351562,81.63750457763672
1777560292494046700,4.589046630859375,-49.500003814697266,86.1187515258789,83.23125457763672
1777560292504046600,4.599046630859375,-49.85625076293945,84.9375,83.73750305175781
1777560292514046700,4.609046630859375,-51.375003814697266,85.48125457763672,84.86250305175781
1777560292524046600,4.619046630859375,-50.306251525878906,84.58125305175781,82.96875
1777560292534046700,4.629046630859375,-51.937503814697266,86.0250015258789,83.4375
1777560292544046600,4.639046630859375,-50.250003814697266,85.95000457763672,82.10625457763672
1777560292554046700,4.649046630859375,-52.70625305175781,85.33125305175781,82.89375305175781
1777560292564046600,4.659046630859375,-53.47500228881836,85.44375610351562,83.64375305175781
1777560292574046700,4.669046630859375,-51.73125076293945,87.30000305175781,82.81875610351562
1777560292584046600,4.679046630859375,-51.41250228881836,87.03750610351562,81.76875305175781
1777560292594046700,4.689046630859375,-52.20000076293945,87.0562515258789,83.625
1777560292604046600,4.699046630859375,-53.47500228881836,85.29375457763672,82.63125610351562
1777560292614046700,4.709046630859375,-52.368751525878906,86.88750457763672,84.16875457763672
1777560292624046600,4.719046630859375,-54.50625228881836,85.9312515258789,82.78125
1777560292634046700,4.729046630859375,-54.39375305175781,85.35000610351562,83.92500305175781
1777560292644046600,4.739046630859375,-55.275001525878906,86.4375,83.5875015258789
1777560292654046700,4.749046630859375,-54.993751525878906,85.44375610351562,83.6812515258789
1777560292664046600,4.759046630859375,-56.962501525878906,84.88125610351562,80.66250610351562
1777560292674046700,4.769046630859375,-56.962501525878906,84.88125610351562,80.66250610351562
1777560292684046600,4.779046630859375,-53.92500305175781,85.53750610351562,83.53125
1777560292694046700,4.789046630859375,-55.76250076293945,85.35000610351562,82.96875
1777560292704046600,4.799046630859375,-54.525001525878906,85.57500457763672,81.9937515258789
1777560292714046700,4.809046630859375,-54.26250076293945,83.4375,80.17500305175781
1777560292724046600,4.819046630859375,-55.29375076293945,85.23750305175781,82.23750305175781
1777560292734046700,4.829046630859375,-55.76250076293945,85.35000610351562,82.96875
1777560292744046600,4.839046630859375,-56.66250228881836,85.0875015258789,82.10625457763672
1777560292754046700,4.849046630859375,-55.875003814697266,86.10000610351562,82.98750305175781
1777560292764046600,4.859046630859375,-56.04375076293945,85.8375015258789,83.7750015258789
1777560292774046700,4.869046630859375,-55.42500305175781,86.5875015258789,83.7750015258789
1777560292784046600,4.879046630859375,-55.44375228881836,85.35000610351562,82.125
1777560292794046700,4.889046630859375,-55.23750305175781,86.3062515258789,81.03750610351562
1777560292804046600,4.899046630859375,-54.22500228881836,84.65625,79.98750305175781
1777560292814046700,4.909046630859375,-54.50625228881836,86.32500457763672,82.8375015258789
1777560292824046600,4.919046630859375,-55.368751525878906,87.7125015258789,82.98750305175781
1777560292834046700,4.929046630859375,-56.906253814697266,86.4937515258789,81.39375305175781
1777560292844046600,4.939046630859375,-54.337501525878906,86.71875,83.0625
1777560292854046700,4.949046630859375,-54.187503814697266,86.47500610351562,82.16250610351562
1777560292864046600,4.959046630859375,-54.45000076293945,87.54375457763672,82.6500015258789
1777560292874046700,4.969046630859375,-56.00625228881836,87.3375015258789,83.79375457763672
1777560292884046600,4.979046630859375,-53.08125305175781,86.73750305175781,80.625
1777560292894046700,4.989046630859375,-52.06875228881836,85.59375,81.375
1777560292904046600,4.999046630859375,-55.218753814697266,87.54375457763672,82.66875457763672
1777560292914046700,5.009046630859375,-54.26250076293945,88.03125,80.90625
1777560292924046600,5.019046630859375,-53.400001525878906,87.1500015258789,82.5562515258789
1777560292934046700,5.029046630859375,-55.06875228881836,87.26250457763672,82.48125457763672
1777560292944046600,5.039046630859375,-54.337501525878906,86.79375457763672,83.4937515258789
1777560292954046700,5.049046630859375,-55.66875076293945,87.39375305175781,81.67500305175781
1777560292964046600,5.059046630859375,-52.837501525878906,89.0250015258789,80.08125305175781
1777560292974046700,5.069046630859375,-51.712501525878906,87.73125457763672,83.17500305175781
1777560292984046600,5.079046630859375,-54.50625228881836,86.41875457763672,83.56875610351562
1777560292994046700,5.089046630859375,-53.66250228881836,88.125,82.4625015258789
1777560293004046600,5.099046630859375,-53.625003814697266,88.4625015258789,80.4000015258789
1777560293014046700,5.109046630859375,-54.45000076293945,85.95000457763672,78.54375457763672
1777560293024046600,5.119046630859375,-55.312503814697266,88.29375457763672,80.98125457763672
1777560293034046700,5.129046630859375,-53.775001525878906,88.05000305175781,79.35000610351562
1777560293044046600,5.139046630859375,-51.63750076293945,87.6187515258789,76.38750457763672
1777560293054046700,5.149046630859375,-53.66250228881836,87.4312515258789,80.2125015258789
1777560293064046600,5.159046630859375,-54.26250076293945,88.06875610351562,81.20625305175781
1777560293074046700,5.169046630859375,-54.30000305175781,88.01250457763672,83.3062515258789
1777560293084046600,5.179046630859375,-52.70625305175781,89.4000015258789,81.84375
1777560293094046700,5.189046630859375,-53.36250305175781,88.33125305175781,82.06875610351562
1777560293104046600,5.199046630859375,-53.36250305175781,88.33125305175781,82.06875610351562
1777560293114046700,5.209046630859375,-56.10000228881836,88.76250457763672,84.20625305175781
1777560293124046600,5.219046630859375,-56.10000228881836,88.76250457763672,84.20625305175781
1777560293134046700,5.229046630859375,-54.22500228881836,89.45625305175781,82.16250610351562
1777560293144046600,5.239046630859375,-52.95000076293945,88.16250610351562,85.2750015258789
1777560293154046700,5.249046630859375,-55.38750076293945,87.46875,83.94375610351562
1777560293164046600,5.259046630859375,-55.031253814697266,88.76250457763672,84.16875457763672
1777560293174046700,5.269046630859375,-51.82500076293945,88.875,83.26875305175781
1777560293184046600,5.279046630859375,-54.58125305175781,89.25,84.95625305175781
1777560293194046700,5.289046630859375,-53.062503814697266,88.63125610351562,83.4000015258789
1777560293204046600,5.299046630859375,-52.931251525878906,88.59375,85.63125610351562
1777560293214046700,5.309046630859375,-51.16875076293945,91.25625610351562,85.95000457763672
1777560293224046600,5.319046630859375,-52.25625228881836,90.73125457763672,86.5875015258789
1777560293234046700,5.329046630859375,-53.47500228881836,90.6187515258789,85.89375305175781
1777560293244046600,5.339046630859375,-51.78750228881836,91.57500457763672,87.30000305175781
1777560293254046700,5.349046630859375,-50.13750076293945,90.76875305175781,86.9625015258789
1777560293264046600,5.359046630859375,-51.39375305175781,89.08125305175781,84.69375610351562
1777560293274046700,5.369046630859375,-47.56875228881836,90.65625,87.01875305175781
1777560293284046600,5.379046630859375,-50.17500305175781,89.85000610351562,87.50625610351562
1777560293294046700,5.389046630859375,-50.343753814697266,89.55000305175781,88.01250457763672
1777560293304046600,5.399046630859375,-50.250003814697266,91.95000457763672,87.3375015258789
1777560293314046700,5.409046630859375,-50.306251525878906,91.35000610351562,90.0562515258789
1777560293324046600,5.419046630859375,-48,92.25,89.45625305175781
1777560293334046700,5.429046630859375,-49.51875305175781,91.8375015258789,89.13750457763672
1777560293344046600,5.439046630859375,-46.33125305175781,92.00625610351562,89.4937515258789
1777560293354046700,5.449046630859375,-49.06875228881836,92.83125305175781,91.70625305175781
1777560293364046600,5.459046630859375,-49.031253814697266,93.75,91.1812515258789
1777560293374046700,5.469046630859375,-47.493751525878906,93.9000015258789,90.45000457763672
1777560293384046600,5.479046630859375,-48.78750228881836,92.15625,91.29375457763672
1777560293394046700,5.489046630859375,-48.58125305175781,93.22500610351562,90.91875457763672
1777560293404046600,5.499046630859375,-46.650001525878906,91.85625457763672,90.1875
1777560293414046700,5.509046630859375,-45.5625,91.96875,89.19375610351562
1777560293434046700,5.529046630859375,-47.04375076293945,91.23750305175781,84.1500015258789
1777560293444046600,5.539046630859375,-44.71875,93.09375,85.85625457763672
1777560293454046700,5.549046630859375,-45.65625,92.64375305175781,86.2125015258789
1777560293464046600,5.559046630859375,-44.85000228881836,89.66250610351562,86.19375610351562
1777560293474046700,5.569046630859375,-42.54375076293945,92.53125,81.16875457763672
1777560293484046600,5.579046630859375,-44.98125076293945,91.80000305175781,90.69375610351562
1777560293494046700,5.589046630859375,-46.35000228881836,92.4937515258789,92.85000610351562
1777560293504046600,5.599046630859375,-45.75,91.91250610351562,91.44375610351562
1777560293514046700,5.609046630859375,-45.60000228881836,93.03750610351562,94.05000305175781
1777560293524046600,5.619046630859375,-47.88750076293945,91.6875,91.59375
1777560293534046700,5.629046630859375,-47.88750076293945,91.6875,91.59375
1777560293544046600,5.639046630859375,-45.900001525878906,92.32500457763672,91.66875457763672
1777560293554046700,5.649046630859375,-42.39375305175781,91.89375305175781,89.66250610351562
1777560293564046600,5.659046630859375,-44.625,93.3375015258789,90.97500610351562
1777560293574046700,5.669046630859375,-44.64375305175781,93.1500015258789,91.3687515258789
1777560293584046600,5.679046630859375,-44.34375,93.30000305175781,91.53750610351562
1777560293594046700,5.689046630859375,-42.431251525878906,90.5625,88.98750305175781
1777560293604046600,5.699046630859375,-42.03750228881836,93.07500457763672,90.01875305175781
1777560293614046700,5.709046630859375,-42.375,92.38125610351562,90.45000457763672
1777560293624046600,5.719046630859375,-42.5625,92.2125015258789,92.6812515258789
1777560293634046700,5.729046630859375,-40.40625,92.3062515258789,89.9625015258789
1777560293644046600,5.739046630859375,-43.181251525878906,91.25625610351562,91.25625610351562
1777560293654046700,5.749046630859375,-42.84375,92.26875305175781,91.29375457763672
1777560293664046600,5.759046630859375,-43.125,93.50625610351562,92.10000610351562
1777560293674046700,5.769046630859375,-40.57500076293945,90.76875305175781,87
1777560293684046600,5.779046630859375,-41.587501525878906,93.01875305175781,90.5625
1777560293694046700,5.789046630859375,-42.54375076293945,92.3062515258789,91.57500457763672
1777560293704046600,5.799046630859375,-41.79375076293945,92.25,91.25625610351562
1777560293714046700,5.809046630859375,-42.73125076293945,91.14375305175781,90.50625610351562
1777560293724046600,5.819046630859375,-43.35000228881836,90.5250015258789,89.56875610351562
1777560293734046700,5.829046630859375,-40.462501525878906,90.65625,89.64375305175781
1777560293744046600,5.839046630859375,-42.712501525878906,92.15625,91.40625
1777560293754046700,5.849046630859375,-43.16250228881836,91.3125,89.85000610351562
1777560293764046600,5.859046630859375,-39.525001525878906,91.23750305175781,90.30000305175781
1777560293774046700,5.869046630859375,-40.42500305175781,91.78125,90.58125305175781
1777560293784046600,5.879046630859375,-40.23750305175781,92.6812515258789,89.88750457763672
1777560293794046700,5.889046630859375,-40.42500305175781,92.13750457763672,91.35000610351562
1777560293804046600,5.899046630859375,-41.212501525878906,90.6187515258789,89.38125610351562
1777560293814046700,5.909046630859375,-41.94375228881836,91.78125,90.6187515258789
1777560293824046600,5.919046630859375,-41.19375228881836,91.14375305175781,88.78125
1777560293834046700,5.929046630859375,-42.50625228881836,92.5875015258789,89.23125457763672
1777560293844046600,5.939046630859375,-44.04375076293945,93.82500457763672,93.45000457763672
1777560293854046700,5.949046630859375,-43.48125076293945,92.08125305175781,92.55000305175781
1777560293864046600,5.959046630859375,-43.35000228881836,90.6187515258789,90.28125
1777560293874046700,5.969046630859375,-44.98125076293945,93.1875,94.20000457763672
1777560293884046600,5.979046630859375,-46.837501525878906,91.59375,91.8375015258789
1777560293894046700,5.989046630859375,-46.23750305175781,91.95000457763672,94.29375457763672
1777560293904046600,5.999046630859375,-49.06875228881836,93.63750457763672,94.6875
1777560293914046700,6.009046630859375,-47.25,93.84375,94.38750457763672
1777560293924046600,6.019046630859375,-48.187503814697266,93.20625305175781,95.13750457763672
1777560293934046700,6.029046630859375,-47.92500305175781,91.78125,93.88125610351562
1777560293944046600,6.039046630859375,-48.67500305175781,91.66875457763672,93.16875457763672
1777560293954046700,6.049046630859375,-49.76250076293945,91.25625610351562,94.53750610351562
1777560293964046600,6.059046630859375,-50.45625305175781,93.07500457763672,94.20000457763672
1777560293974046700,6.069046630859375,-50.45625305175781,93.07500457763672,94.20000457763672
1777560293984046600,6.079046630859375,-52.781253814697266,92.26875305175781,95.51250457763672
1777560293994046700,6.089046630859375,-53.062503814697266,92.45625305175781,94.14375305175781
1777560294004046600,6.099046630859375,-52.218753814697266,91.20000457763672,95.00625610351562
1777560294014046700,6.109046630859375,-52.743751525878906,93.09375,94.25625610351562
1777560294024046600,6.119046630859375,-54.150001525878906,92.00625610351562,94.5
1777560294034046700,6.129046630859375,-53.906253814697266,90.75,95.25
1777560294044046600,6.139046630859375,-56.45625305175781,90.97500610351562,93.39375305175781
1777560294054046700,6.149046630859375,-54.11250305175781,92.0625,92.4000015258789
1777560294064046600,6.159046630859375,-56.775001525878906,91.1812515258789,94.8375015258789
1777560294074046700,6.169046630859375,-55.29375076293945,89.4000015258789,93.76875305175781
1777560294084046600,6.179046630859375,-57.281253814697266,90.11250305175781,96.07500457763672
1777560294094046700,6.189046630859375,-57.48750305175781,91.98750305175781,94.3125
1777560294104046600,6.199046630859375,-58.89375305175781,90.8062515258789,93.97500610351562
1777560294114046700,6.209046630859375,-59.23125076293945,90.16875457763672,93.86250305175781
1777560294124046600,6.219046630859375,-59.962501525878906,90.5625,93.95625305175781
1777560294134046700,6.229046630859375,-59.00625228881836,91.89375305175781,93.6187515258789
1777560294144046600,6.239046630859375,-58.275001525878906,90.4312515258789,92.19375610351562
1777560294154046700,6.249046630859375,-58.16250228881836,88.9312515258789,91.35000610351562
1777560294164046600,6.259046630859375,-59.400001525878906,89.26875305175781,92.71875
1777560294174046700,6.269046630859375,-59.025001525878906,90.28125,91.20000457763672
1777560294184046600,6.279046630859375,-59.79375076293945,90.39375305175781,91.95000457763672
1777560294194046700,6.289046630859375,-58.89375305175781,90.45000457763672,93.20625305175781
1777560294204046600,6.299046630859375,-58.91250228881836,90.5625,93.9375
1777560294214046700,6.309046630859375,-58.63125228881836,88.7437515258789,90.9000015258789
1777560294224046600,6.319046630859375,-58.556251525878906,90.86250305175781,90.88125610351562
1777560294234046700,6.329046630859375,-57.656253814697266,90.0562515258789,90.5625
1777560294244046600,6.339046630859375,-59.025001525878906,91.1812515258789,93.07500457763672
1777560294254046700,6.349046630859375,-57.63750076293945,90.8062515258789,91.40625
1777560294264046600,6.359046630859375,-57.50625228881836,90.8062515258789,92.25
1777560294274046700,6.369046630859375,-57.20625305175781,89.9625015258789,90.67500305175781
1777560294284046600,6.379046630859375,-58.57500076293945,90.9937515258789,93.45000457763672
1777560294294046700,6.389046630859375,-56.92500305175781,90.31875610351562,92.28750610351562
1777560294304046600,6.399046630859375,-58.57500076293945,91.23750305175781,93.48750305175781
1777560294314046700,6.409046630859375,-57.50625228881836,91.2750015258789,93.75
1777560294324046600,6.419046630859375,-58.406253814697266,92.10000610351562,94.21875
1777560294334046700,6.429046630859375,-58.462501525878906,89.15625,91.10625457763672
1777560294344046600,6.439046630859375,-58.89375305175781,89.5875015258789,89.79375457763672
1777560294354046700,6.449046630859375,-58.556251525878906,90.60000610351562,90.82500457763672
1777560294364046600,6.459046630859375,-58.275001525878906,89.92500305175781,90.41250610351562
1777560294374046700,6.469046630859375,-57.525001525878906,89.10000610351562,89.10000610351562
1777560294384046600,6.479046630859375,-59.343753814697266,89.38125610351562,89.2125015258789
1777560294394046700,6.489046630859375,-60.431251525878906,88.7437515258789,89.9625015258789
1777560294404046600,6.499046630859375,-60.431251525878906,88.7437515258789,89.9625015258789
1777560294414046700,6.509046630859375,-59.10000228881836,88.96875,92.36250305175781
1777560294424046600,6.519046630859375,-59.38125228881836,88.89375305175781,90.2437515258789
1777560294434046700,6.529046630859375,-59.775001525878906,90.01875305175781,89.34375
1777560294444046600,6.539046630859375,-61.44375228881836,91.0875015258789,91.5562515258789
1777560294454046700,6.549046630859375,-58.593753814697266,89.28750610351562,90.30000305175781
1777560294464046600,6.559046630859375,-61.20000076293945,88.91250610351562,91.14375305175781
1777560294474046700,6.569046630859375,-60.056251525878906,90.39375305175781,89.41875457763672
1777560294484046600,6.579046630859375,-60.07500076293945,90.46875,89.85000610351562
1777560294494046700,6.589046630859375,-59.17500305175781,90.91875457763672,92.17500305175781
1777560294504046600,6.599046630859375,-61.16250228881836,89.70000457763672,90.58125305175781
1777560294514046700,6.609046630859375,-60.41250228881836,90.22500610351562,91.6500015258789
1777560294524046600,6.619046630859375,-61.61250305175781,90.41250610351562,92.00625610351562
1777560294534046700,6.629046630859375,-60.712501525878906,90.13125610351562,90.9375
1777560294544046600,6.639046630859375,-61.89375305175781,91.14375305175781,91.875
1777560294554046700,6.649046630859375,-60.67500305175781,90.73125457763672,90.76875305175781
1777560294564046600,6.659046630859375,-59.64375305175781,90.54375457763672,92.1187515258789
1777560294574046700,6.669046630859375,-58.05000305175781,92.4000015258789,92.00625610351562
1777560294584046600,6.679046630859375,-60.337501525878906,93.13125610351562,94.4625015258789
1777560294594046700,6.689046630859375,-57.91875076293945,92.41875457763672,93
1777560294604046600,6.699046630859375,-58.031253814697266,93.20625305175781,93.28125
1777560294614046700,6.709046630859375,-57.618751525878906,93.375,96.13125610351562
1777560294624046600,6.719046630859375,-57.618751525878906,92.625,93.58125305175781
1777560294634046700,6.729046630859375,-53.79375076293945,93.09375,94.2750015258789
1777560294644046600,6.739046630859375,-56.062503814697266,93.09375,92.51250457763672
1777560294654046700,6.749046630859375,-54.11250305175781,93.2437515258789,94.4625015258789
1777560294664046600,6.759046630859375,-54.243751525878906,93.78750610351562,94.70625305175781
1777560294674046700,6.769046630859375,-53.66250228881836,92.17500305175781,93.11250305175781
1777560294684046600,6.779046630859375,-53.625003814697266,93.41250610351562,93.07500457763672
1777560294694046700,6.789046630859375,-54.13125228881836,93.20625305175781,95.8687515258789
1777560294704046600,6.799046630859375,-53.32500076293945,93.82500457763672,94.125
1777560294714046700,6.809046630859375,-52.16250228881836,93.3375015258789,96.82500457763672
1777560294724046600,6.819046630859375,-53.00625228881836,95.04375457763672,97.4625015258789
1777560294734046700,6.829046630859375,-49.406253814697266,93.28125,95.60625457763672
1777560294744046600,6.839046630859375,-52.087501525878906,94.61250305175781,95.38125610351562
1777560294754046700,6.849046630859375,-50.437503814697266,94.78125,97.33125305175781
1777560294764046600,6.859046630859375,-50.437503814697266,94.125,95.38125610351562
1777560294774046700,6.869046630859375,-49.462501525878906,95.92500305175781,95.83125305175781
1777560294784046600,6.879046630859375,-50.41875076293945,95.3062515258789,96.73125457763672
1777560294794046700,6.889046630859375,-49.66875076293945,94.66875457763672,96.60000610351562
1777560294804046600,6.899046630859375,-50.88750076293945,95.04375457763672,97.40625762939453
1777560294814046700,6.909046630859375,-48.26250076293945,96.01875305175781,96.5250015258789
1777560294824046600,6.919046630859375,-49.80000305175781,95.28750610351562,95.71875
1777560294834046700,6.929046630859375,-49.80000305175781,95.28750610351562,95.71875
1777560294844046600,6.939046630859375,-48.31875228881836,94.21875,96.9000015258789
1777560294854046700,6.949046630859375,-48.78750228881836,93.95625305175781,96.86250305175781
1777560294864046600,6.959046630859375,-49.63125228881836,95.88750457763672,96.39375305175781
1777560294874046700,6.969046630859375,-49.06875228881836,94.38750457763672,95.53125
1777560294884046600,6.979046630859375,-47.34375,96.30000305175781,97.5562515258789
1777560294894046700,6.989046630859375,-47.90625,96.93750762939453,96
1777560294904046600,6.999046630859375,-47.8125,96.50625610351562,99.01875305175781
1777560294914046700,7.009046630859375,-48.86250305175781,96.20625305175781,96.86250305175781
1777560294924046600,7.019046630859375,-47.23125076293945,94.59375,95.25
1777560294934046700,7.029046630859375,-48.843753814697266,96.48750305175781,96.20625305175781
1777560294944046600,7.039046630859375,-45.69375228881836,95.08125305175781,96
1777560294954046700,7.049046630859375,-47.92500305175781,96.1500015258789,94.85625457763672
1777560294964046600,7.059046630859375,-47.94375228881836,95.8687515258789,95.51250457763672
1777560294974046700,7.069046630859375,-47.51250076293945,95.23125457763672,95.38125610351562
1777560294984046600,7.079046630859375,-46.42500305175781,96.56250762939453,97.70625305175781
1777560294994046700,7.089046630859375,-46.48125076293945,98.28750610351562,95.79375457763672
1777560295004046600,7.099046630859375,-46.96875,97.20000457763672,95.17500305175781
1777560295014046700,7.109046630859375,-49.500003814697266,95.0250015258789,95.66250610351562
1777560295024046600,7.119046630859375,-46.125,95.0625,94.1812515258789
1777560295034046700,7.129046630859375,-47.15625,96.09375762939453,94.38750457763672
1777560295044046600,7.139046630859375,-46.98750305175781,96.9000015258789,94.8375015258789
1777560295054046700,7.149046630859375,-44.8125,96.82500457763672,90.9375
1777560295064046600,7.159046630859375,-46.5,97.53750610351562,94.9312515258789
1777560295074046700,7.169046630859375,-45.618751525878906,96.01875305175781,92.23125457763672
1777560295084046600,7.179046630859375,-46.98750305175781,95.32500457763672,90.86250305175781
1777560295094046700,7.189046630859375,-43.89375305175781,94.95000457763672,85.76250457763672
1777560295104046600,7.199046630859375,-43.44375228881836,95.41875457763672,87.26250457763672
1777560295114046700,7.209046630859375,-44.92500305175781,98.64375305175781,93.97500610351562
1777560295124046600,7.219046630859375,-45.30000305175781,96.50625610351562,93.01875305175781
1777560295134046700,7.229046630859375,-48.056251525878906,96.41250610351562,94.05000305175781
1777560295144046600,7.239046630859375,-47.85000228881836,97.91250610351562,94.05000305175781
1777560295154046700,7.249046630859375,-50.306251525878906,96.84375762939453,92.64375305175781
1777560295164046600,7.259046630859375,-51.712501525878906,95.90625,93.07500457763672
1777560295174046700,7.269046630859375,-53.45625305175781,97.72500610351562,92.75625610351562
1777560295184046600,7.279046630859375,-52.125003814697266,97.87500762939453,95.4375
1777560295194046700,7.289046630859375,-54.093753814697266,97.35000610351562,93.54375457763672
1777560295204046600,7.299046630859375,-54.26250076293945,97.31250762939453,94.10625457763672
1777560295214046700,7.309046630859375,-55.61250305175781,97.20000457763672,92.56875610351562
1777560295224046600,7.319046630859375,-56.212501525878906,97.53750610351562,93.91875457763672
1777560295234046700,7.329046630859375,-57.35625076293945,95.75625610351562,94.61250305175781
1777560295244046600,7.339046630859375,-59.75625228881836,96.16875457763672,93.9000015258789
1777560295254046700,7.349046630859375,-58.89375305175781,93.7125015258789,90.73125457763672
1777560295264046600,7.359046630859375,-60.375003814697266,95.15625,92.17500305175781
1777560295274046700,7.369046630859375,-60.375003814697266,95.15625,92.17500305175781
1777560295284046600,7.379046630859375,-59.94375228881836,94.42500305175781,91.3125
1777560295294046700,7.389046630859375,-61.01250076293945,95.04375457763672,93.01875305175781
1777560295304046600,7.399046630859375,-62.23125076293945,94.0875015258789,91.59375
1777560295314046700,7.409046630859375,-61.368751525878906,93.11250305175781,92.66250610351562
1777560295324046600,7.419046630859375,-62.775001525878906,91.51875305175781,91.125
1777560295334046700,7.429046630859375,-62.70000076293945,93.30000305175781,90.46875
1777560295344046600,7.439046630859375,-64.10625457763672,91.85625457763672,88.25625610351562
1777560295354046700,7.449046630859375,-65.45625305175781,93.20625305175781,90.65625
1777560295364046600,7.459046630859375,-65.19375610351562,91.3687515258789,89.17500305175781
1777560295374046700,7.469046630859375,-67.4625015258789,92.10000610351562,89.79375457763672
1777560295384046600,7.479046630859375,-64.125,91.25625610351562,88.42500305175781
1777560295394046700,7.489046630859375,-65.92500305175781,92.83125305175781,90.60000610351562
1777560295404046600,7.499046630859375,-66.5625,91.23750305175781,89.04375457763672
1777560295414046700,7.509046630859375,-65.94375610351562,90.8062515258789,86.9625015258789
1777560295424046600,7.519046630859375,-65.45625305175781,91.125,84.9000015258789
1777560295434046700,7.529046630859375,-66.26250457763672,91.33125305175781,88.91250610351562
1777560295444046600,7.539046630859375,-68.98125457763672,90.1875,85.23750305175781
1777560295454046700,7.549046630859375,-67.7437515258789,91.35000610351562,86.41875457763672
1777560295464046600,7.559046630859375,-68.4000015258789,88.85625457763672,82.98750305175781
1777560295474046700,7.569046630859375,-66.5250015258789,91.20000457763672,86.2125015258789
1777560295484046600,7.579046630859375,-67.29375457763672,90.45000457763672,85.38750457763672
1777560295494046700,7.589046630859375,-69.75,90.3375015258789,86.26875305175781
1777560295504046600,7.599046630859375,-67.61250305175781,89.53125,83.38125610351562
1777560295514046700,7.609046630859375,-67.01250457763672,90.16875457763672,85.1812515258789
1777560295524046600,7.619046630859375,-66.50625610351562,90.97500610351562,84.76875305175781
1777560295534046700,7.629046630859375,-66.69375610351562,90.48750305175781,84.8062515258789
1777560295544046600,7.639046630859375,-66.78750610351562,91.40625,83.4375
1777560295554046700,7.649046630859375,-65.4000015258789,92.25,84.13125610351562
1777560295564046600,7.659046630859375,-67.35000610351562,93.01875305175781,85.03125
1777560295574046700,7.669046630859375,-66.58125305175781,93.20625305175781,84.6187515258789
1777560295584046600,7.679046630859375,-65.8687515258789,92.47500610351562,85.59375
1777560295594046700,7.689046630859375,-65.19375610351562,93.26250457763672,83.32500457763672
1777560295604046600,7.699046630859375,-64.0875015258789,94.70625305175781,84.69375610351562
1777560295614046700,7.709046630859375,-63.993751525878906,93.58125305175781,84.6187515258789
1777560295624046600,7.719046630859375,-64.33125305175781,92.66250610351562,85.16250610351562
1777560295634046700,7.729046630859375,-64.1812515258789,92.51250457763672,84.9937515258789
1777560295644046600,7.739046630859375,-65.4000015258789,92.3062515258789,84.41250610351562
1777560295654046700,7.749046630859375,-64.95000457763672,92.08125305175781,83.79375457763672
1777560295664046600,7.759046630859375,-64.2750015258789,93.46875,83.90625
1777560295674046700,7.769046630859375,-65.98125457763672,92.98125457763672,84
1777560295684046600,7.779046630859375,-65.92500305175781,93.09375,80.4937515258789
1777560295694046700,7.789046630859375,-64.9312515258789,91.38750457763672,81.54375457763672
1777560295704046600,7.799046630859375,-64.9312515258789,91.38750457763672,81.54375457763672
1777560295714046700,7.809046630859375,-64.875,92.51250457763672,80.7750015258789
1777560295724046600,7.819046630859375,-65.32500457763672,92.60625457763672,80.53125
1777560295734046700,7.829046630859375,-65.17500305175781,93.41250610351562,82.6500015258789
1777560295744046600,7.839046630859375,-65.36250305175781,92.83125305175781,83.8125
1777560295754046700,7.849046630859375,-66.84375,93.22500610351562,82.23750305175781
1777560295764046600,7.859046630859375,-66.75,95.625,81.5625
1777560295774046700,7.869046630859375,-64.23750305175781,94.05000305175781,81.9000015258789
1777560295784046600,7.879046630859375,-66.07500457763672,94.38750457763672,84.13125610351562
1777560295794046700,7.889046630859375,-65.8687515258789,95.79375457763672,83.55000305175781
1777560295804046600,7.899046630859375,-64.5,94.42500305175781,80.13750457763672
1777560295814046700,7.909046630859375,-66.50625610351562,94.44375610351562,82.03125
1777560295824046600,7.919046630859375,-62.75625228881836,93.41250610351562,83.56875610351562
1777560295834046700,7.929046630859375,-66.07500457763672,94.875,84.91875457763672
1777560295844046600,7.939046630859375,-64.76250457763672,96.67500305175781,83.6812515258789
1777560295854046700,7.949046630859375,-63.375003814697266,98.3062515258789,85.51875305175781
1777560295864046600,7.959046630859375,-64.3125,97.7437515258789,86.70000457763672
1777560295874046700,7.969046630859375,-65.08125305175781,98.26875305175781,87.8062515258789
1777560295884046600,7.979046630859375,-61.087501525878906,98.25000762939453,85.16250610351562
1777560295894046700,7.989046630859375,-62.00625228881836,98.75625610351562,86.83125305175781
1777560295904046600,7.999046630859375,-62.00625228881836,98.36250305175781,86.75625610351562
1777560295914046700,8.009046630859375,-61.01250076293945,96.86250305175781,86.71875
1777560295924046600,8.019046630859375,-58.931251525878906,99.26250457763672,86.13750457763672
1777560295934046700,8.029046630859375,-62.025001525878906,98.15625762939453,87
1777560295944046600,8.039046630859374,-60.30000305175781,99.78750610351562,87.13125610351562
1777560295954046700,8.049046630859374,-58.781253814697266,99.84375762939453,87.5250015258789
1777560295964046600,8.059046630859376,-56.79375076293945,100.53750610351562,88.875
1777560295974046700,8.069046630859376,-58.06875228881836,99.73125457763672,91.01250457763672
1777560295984046600,8.079046630859375,-57.76875305175781,100.3687515258789,92.8125
1777560295994046700,8.089046630859375,-55.72500228881836,101.2125015258789,90.09375
1777560296004046600,8.099046630859375,-54.093753814697266,100.95000457763672,91.6875
1777560296014046700,8.109046630859375,-54.78750228881836,101.66250610351562,89.73750305175781
1777560296024046600,8.119046630859375,-52.51875305175781,102.00000762939453,90.45000457763672
1777560296034046700,8.129046630859374,-55.72500228881836,101.53125762939453,90.58125305175781
1777560296044046600,8.139046630859376,-55.20000076293945,103.40625762939453,91.48125457763672
1777560296054046700,8.149046630859376,-54.82500076293945,101.62500762939453,92.13750457763672
1777560296064046600,8.159046630859375,-53.868751525878906,102.95625305175781,91.78125
1777560296074046700,8.169046630859375,-55.25625228881836,102.28125762939453,92.26875305175781
1777560296084046600,8.179046630859375,-52.63125228881836,103.21875762939453,91.10625457763672
1777560296094046700,8.189046630859375,-50.13750076293945,104.43750762939453,90.1500015258789
1777560296104046600,8.199046630859375,-53.400001525878906,102.73125457763672,90.31875610351562
1777560296114046700,8.209046630859374,-51.88125228881836,103.78125762939453,93.31875610351562
1777560296124046600,8.219046630859374,-51.431251525878906,102.9000015258789,92.28750610351562
1777560296134046700,8.229046630859376,-51.431251525878906,102.9000015258789,92.28750610351562
1777560296144046600,8.239046630859375,-51.431251525878906,102.75000762939453,91.25625610351562
1777560296154046700,8.249046630859375,-51.431251525878906,102.75000762939453,91.25625610351562
1777560296164046600,8.259046630859375,-50.64375305175781,103.91250610351562,92.45625305175781
1777560296174046700,8.269046630859375,-50.88750076293945,105.30000305175781,91.7437515258789
1777560296184046600,8.279046630859375,-49.368751525878906,103.85625457763672,87.75
1777560296194046700,8.289046630859374,-49.98750305175781,104.43750762939453,90.9937515258789
1777560296204046600,8.299046630859374,-50.79375076293945,103.57500457763672,91.8375015258789
1777560296214046700,8.309046630859376,-49.087501525878906,103.8375015258789,90.28125
1777560296224046600,8.319046630859376,-46.837501525878906,102.82500457763672,89.32500457763672
1777560296234046700,8.329046630859375,-50.00625228881836,104.10000610351562,91.20000457763672
1777560296244046600,8.339046630859375,-48.22500228881836,103.5562515258789,91.76250457763672
1777560296254046700,8.349046630859375,-48.656253814697266,104.04375457763672,91.72500610351562
1777560296264046600,8.359046630859375,-49.29375076293945,103.31250762939453,91.7437515258789
1777560296274046700,8.369046630859375,-48.618751525878906,105.18750762939453,92.64375305175781
1777560296284046600,8.379046630859374,-49.743751525878906,103.63125610351562,92.23125457763672
1777560296294046700,8.389046630859376,-47.75625228881836,103.40625762939453,90.73125457763672
1777560296304046600,8.399046630859376,-46.06875228881836,102.9000015258789,88.1812515258789
1777560296314046700,8.409046630859375,-47.83125305175781,105.07500457763672,90.20625305175781
1777560296324046600,8.419046630859375,-47.08125305175781,104.15625762939453,88.16250610351562
1777560296334046700,8.429046630859375,-45.45000076293945,104.17500305175781,91.80000305175781
1777560296344046600,8.439046630859375,-45.39375305175781,104.7750015258789,89.10000610351562
1777560296354046700,8.449046630859375,-48.13125228881836,105.0562515258789,89.2125015258789
1777560296364046600,8.459046630859374,-47.38125228881836,104.3062515258789,88.35000610351562
1777560296374046700,8.469046630859374,-47.10000228881836,105.01875305175781,91.57500457763672
1777560296384046600,8.479046630859376,-48.26250076293945,105.18750762939453,88.40625
1777560296394046700,8.489046630859375,-49.05000305175781,103.98750305175781,87.0562515258789
1777560296404046600,8.499046630859375,-48.41250228881836,104.47500610351562,87
1777560296414046700,8.509046630859375,-48.937503814697266,104.47500610351562,91.23750305175781
1777560296424046600,8.519046630859375,-52.51875305175781,105.93750762939453,90.91875457763672
1777560296434046700,8.529046630859375,-51.281253814697266,105.39375305175781,88.0875015258789
1777560296444046600,8.539046630859374,-54.35625076293945,106.61250305175781,93.76875305175781
1777560296454046700,8.549046630859374,-56.343753814697266,105.86250305175781,92.13750457763672
1777560296464046600,8.559046630859376,-55.91250228881836,104.5875015258789,91.03125
1777560296474046700,8.569046630859376,-54.843753814697266,104.51250457763672,89.71875
1777560296484046600,8.579046630859375,-56.962501525878906,104.81250762939453,89.9625015258789
1777560296494046700,8.589046630859375,-56.212501525878906,105.01875305175781,91.40625
1777560296504046600,8.599046630859375,-57.712501525878906,105.2437515258789,91.20000457763672
1777560296514046700,8.609046630859375,-59.28750228881836,103.53750610351562,89.79375457763672
1777560296524046600,8.619046630859375,-61.125003814697266,103.23750305175781,90.20625305175781
1777560296534046700,8.629046630859374,-61.462501525878906,102.69375610351562,91.66875457763672
1777560296544046600,8.639046630859376,-62.56875228881836,100.72500610351562,89.19375610351562
1777560296554046700,8.649046630859376,-64.78125,103.35000610351562,91.875
1777560296564046600,8.659046630859375,-64.78125,103.35000610351562,91.875
1777560296574046700,8.669046630859375,-66.95625305175781,102.13125610351562,91.14375305175781
1777560296584046600,8.679046630859375,-64.80000305175781,102.4312515258789,89.8687515258789
1777560296594046700,8.689046630859375,-65.60625457763672,100.66875457763672,88.8375015258789
1777560296604046600,8.699046630859375,-67.6875,102.26250457763672,89.4937515258789
1777560296614046700,8.709046630859374,-67.14375305175781,99.9000015258789,87.75
1777560296624046600,8.719046630859374,-64.6875,101.1187515258789,90.16875457763672
1777560296634046700,8.729046630859376,-68.83125305175781,100.01250457763672,89.36250305175781
1777560296644046600,8.739046630859375,-70.5562515258789,98.25000762939453,89.2125015258789
1777560296654046700,8.749046630859375,-68.9625015258789,100.01250457763672,88.51875305175781
1777560296664046600,8.759046630859375,-70.23750305175781,98.7750015258789,88.61250305175781
1777560296674046700,8.769046630859375,-70.0875015258789,98.26875305175781,87.65625
1777560296684046600,8.779046630859375,-70.25625610351562,97.2750015258789,86.90625
1777560296694046700,8.789046630859374,-70.40625,97.81875610351562,87.1500015258789
1777560296704046600,8.799046630859374,-72.97500610351562,97.33125305175781,85.44375610351562
1777560296714046700,8.809046630859376,-73.44375610351562,96.9937515258789,85.66875457763672
1777560296724046600,8.819046630859376,-71.34375,96.13125610351562,85.03125
1777560296734046700,8.829046630859375,-72.78750610351562,99.18750762939453,87.0562515258789
1777560296744046600,8.839046630859375,-72.0562515258789,98.64375305175781,87.63750457763672
1777560296754046700,8.849046630859375,-73.53750610351562,99.7125015258789,88.16250610351562
1777560296764046600,8.859046630859375,-71.90625,98.10000610351562,86.55000305175781
1777560296774046700,8.869046630859375,-70.6500015258789,98.9625015258789,86.4000015258789
1777560296784046600,8.879046630859374,-70.16250610351562,100.1812515258789,87.1875
1777560296794046700,8.889046630859376,-69.39375305175781,100.5562515258789,87.9375
1777560296804046600,8.899046630859376,-69.2437515258789,99.9000015258789,86.1187515258789
1777560296814046700,8.909046630859375,-67.96875,101.7750015258789,86.15625
1777560296824046600,8.919046630859375,-67.21875,102.03750610351562,87.88125610351562
1777560296834046700,8.929046630859375,-66.6187515258789,101.4937515258789,87.6187515258789
1777560296844046600,8.939046630859375,-67.61250305175781,103.4625015258789,87.45000457763672
1777560296854046700,8.949046630859375,-67.35000610351562,101.98125457763672,86.73750305175781
1777560296864046600,8.959046630859374,-68.4000015258789,102.46875762939453,86.5875015258789
1777560296874046700,8.969046630859374,-68.51250457763672,104.17500305175781,88.875
1777560296884046600,8.979046630859376,-67.1812515258789,102.41250610351562,86.25
1777560296894046700,8.989046630859375,-69.65625,101.83125305175781,88.1812515258789
1777560296904046600,8.999046630859375,-68.90625,101.51250457763672,87.67500305175781
1777560296914046700,9.009046630859375,-70.57500457763672,100.31250762939453,84.5250015258789
1777560296924046600,9.019046630859375,-69.65625,100.51875305175781,85.10625457763672
1777560296934046700,9.029046630859375,-70.44375610351562,99.1500015258789,82.61250305175781
1777560296944046600,9.039046630859374,-72.82500457763672,100.89375305175781,84.28125
1777560296954046700,9.049046630859374,-72.41250610351562,100.0875015258789,84.67500305175781
1777560296964046600,9.059046630859376,-68.66250610351562,102.78750610351562,84.5250015258789
1777560296974046700,9.069046630859376,-68.4000015258789,100.5562515258789,81.97500610351562
1777560296984046600,9.079046630859375,-69.48750305175781,101.19375610351562,84.67500305175781
1777560296994046700,9.089046630859375,-70.10625457763672,100.70625305175781,84.73125457763672
1777560297004046600,9.099046630859375,-70.10625457763672,100.70625305175781,84.73125457763672
1777560297014046700,9.109046630859375,-72.58125305175781,104.0250015258789,86.13750457763672
1777560297024046600,9.119046630859375,-70.0875015258789,101.83125305175781,85.6500015258789
1777560297034046700,9.129046630859374,-70.0875015258789,101.83125305175781,85.6500015258789
1777560297044046600,9.139046630859376,-71.5875015258789,102.20625305175781,86.47500610351562
1777560297054046700,9.149046630859376,-70.03125,102.58125305175781,84.8062515258789
1777560297064046600,9.159046630859375,-69.5250015258789,104.28750610351562,85.40625
1777560297074046700,9.169046630859375,-68.51250457763672,103.42500305175781,86.34375
1777560297084046600,9.179046630859375,-69.39375305175781,104.36250305175781,86.6812515258789
1777560297094046700,9.189046630859375,-67.53750610351562,104.8687515258789,86.0250015258789
1777560297104046600,9.199046630859375,-67.23750305175781,105.48750305175781,87.69375610351562
1777560297114046700,9.209046630859374,-67.03125,107.15625762939453,88.85625457763672
1777560297124046600,9.219046630859374,-66.91875457763672,106.23750305175781,88.53750610351562
1777560297134046700,9.229046630859376,-65.36250305175781,107.62500762939453,89.45625305175781
1777560297144046600,9.239046630859375,-63.281253814697266,106.10625457763672,88.5562515258789
1777560297154046700,9.249046630859375,-62.962501525878906,107.47500610351562,91.06875610351562
1777560297164046600,9.259046630859375,-63.281253814697266,106.72500610351562,90.22500610351562
1777560297174046700,9.269046630859375,-63.63750076293945,108.31875610351562,88.2750015258789
1777560297184046600,9.279046630859375,-63.525001525878906,107.45625305175781,88.38750457763672
1777560297194046700,9.289046630859374,-60.937503814697266,108.07500457763672,89.28750610351562
1777560297204046600,9.299046630859374,-60.01875305175781,108.7125015258789,90.22500610351562
1777560297214046700,9.309046630859376,-60.60000228881836,110.4937515258789,92.98125457763672
1777560297224046600,9.319046630859376,-60.16875076293945,110.10000610351562,94.59375
1777560297234046700,9.329046630859375,-60.50625228881836,110.38125610351562,97.33125305175781
1777560297244046600,9.339046630859375,-59.10000228881836,111.97500610351562,98.8687515258789
1777560297254046700,9.349046630859375,-57.45000076293945,110.51250457763672,96.58125305175781
1777560297264046600,9.359046630859375,-57.78750228881836,110.08125305175781,97.91250610351562
1777560297274046700,9.369046630859375,-57.431251525878906,110.6812515258789,95.19375610351562
1777560297284046600,9.379046630859374,-54.35625076293945,111.65625762939453,96
1777560297294046700,9.389046630859376,-55.743751525878906,111.73125457763672,97.33125305175781
1777560297304046600,9.399046630859376,-54.20625305175781,111.18750762939453,95.34375
1777560297314046700,9.409046630859375,-54.22500228881836,111.88125610351562,98.3062515258789
1777560297324046600,9.419046630859375,-55.42500305175781,112.33125305175781,98.00625610351562
1777560297334046700,9.429046630859375,-55.42500305175781,112.68750762939453,98.7750015258789
1777560297344046600,9.439046630859375,-52.98750305175781,112.03125762939453,96.88125610351562
1777560297354046700,9.449046630859375,-52.98750305175781,111.50625610351562,95.79375457763672
1777560297364046600,9.459046630859374,-51.900001525878906,111.6187515258789,93.95625305175781
1777560297374046700,9.469046630859374,-51.13125228881836,111.45000457763672,92.92500305175781
1777560297384046600,9.479046630859376,-49.72500228881836,112.53750610351562,93.50625610351562
1777560297394046700,9.489046630859375,-50.962501525878906,112.81875610351562,95.4375
1777560297404046600,9.499046630859375,-50.47500228881836,113.17500305175781,93.65625
1777560297414046700,9.509046630859375,-49.743751525878906,112.38750457763672,94.1812515258789
1777560297424046600,9.519046630859375,-49.70625305175781,113.25000762939453,94.06875610351562
1777560297434046700,9.529046630859375,-49.70625305175781,113.25000762939453,94.06875610351562
1777560297444046600,9.539046630859374,-50.306251525878906,114.69375610351562,96.3375015258789
1777560297454046700,9.549046630859374,-48.22500228881836,113.66250610351562,96.93750762939453
1777560297464046600,9.559046630859376,-50.17500305175781,113.98125457763672,96.6187515258789
1777560297474046700,9.569046630859376,-49.70625305175781,113.83125305175781,95.5875015258789
1777560297484046600,9.579046630859375,-49.72500228881836,113.56875610351562,96.2437515258789
1777560297494046700,9.589046630859375,-46.61250305175781,114.93750762939453,94.59375
1777560297504046600,9.599046630859375,-49.06875228881836,114.5250015258789,95.13750457763672
1777560297514046700,9.609046630859375,-49.44375228881836,112.35000610351562,93.88125610351562
1777560297524046600,9.619046630859375,-50.906253814697266,114.9000015258789,96.8062515258789
1777560297534046700,9.629046630859374,-48.618751525878906,114.88125610351562,96.75000762939453
1777560297544046600,9.639046630859376,-49.70625305175781,114.6187515258789,96.73125457763672
1777560297554046700,9.649046630859376,-48.67500305175781,113.08125305175781,94.72500610351562
1777560297564046600,9.659046630859375,-48.337501525878906,113.51250457763672,94.21875
1777560297574046700,9.669046630859375,-47.118751525878906,114.56250762939453,96.37500762939453
1777560297584046600,9.679046630859375,-48.07500076293945,113.19375610351562,96.28125762939453
1777560297594046700,9.689046630859375,-47.118751525878906,113.90625762939453,94.40625
1777560297604046600,9.699046630859375,-46.42500305175781,116.32500457763672,94.70625305175781
1777560297614046700,9.709046630859374,-45.525001525878906,115.4625015258789,93.95625305175781
1777560297624046600,9.719046630859374,-47.212501525878906,114.82500457763672,93.03750610351562
1777560297634046700,9.729046630859376,-50.13750076293945,114.37500762939453,95.00625610351562
1777560297644046600,9.739046630859375,-47.8125,114.6187515258789,92.45625305175781
1777560297654046700,9.749046630859375,-48.31875228881836,114.0562515258789,93.6187515258789
1777560297664046600,9.759046630859375,-48.88125228881836,114.63750457763672,92.47500610351562
1777560297674046700,9.769046630859375,-51.000003814697266,114.7125015258789,92.1187515258789
1777560297684046600,9.779046630859375,-50.32500076293945,113.62500762939453,95.00625610351562
1777560297694046700,9.789046630859374,-51.056251525878906,115.1812515258789,97.16250610351562
1777560297704046600,9.799046630859374,-54.243751525878906,114.76875305175781,95.88750457763672
1777560297714046700,9.809046630859376,-54.86250305175781,113.81250762939453,94.4625015258789
1777560297734046700,9.829046630859375,-58.125003814697266,112.05000305175781,94.35000610351562
1777560297744046600,9.839046630859375,-60.843753814697266,113.1187515258789,95.60625457763672
1777560297754046700,9.849046630859375,-60.712501525878906,111.76875305175781,94.0875015258789
1777560297764046600,9.859046630859375,-62.32500076293945,113.17500305175781,94.25625610351562
1777560297774046700,9.869046630859375,-64.0875015258789,111.35625457763672,95.4937515258789
1777560297784046600,9.879046630859374,-65.98125457763672,109.5562515258789,95.0625
1777560297794046700,9.889046630859376,-65.64375305175781,109.81875610351562,93.41250610351562
1777560297804046600,9.899046630859376,-67.57500457763672,111.16875457763672,94.14375305175781
1777560297814046700,9.909046630859375,-68.70000457763672,109.61250305175781,94.59375
1777560297824046600,9.919046630859375,-68.53125,108.82500457763672,91.7437515258789
1777560297834046700,9.929046630859375,-71.6812515258789,106.91250610351562,94.01250457763672
1777560297844046600,9.939046630859375,-71.4937515258789,107.17500305175781,92.36250305175781
1777560297854046700,9.949046630859375,-72.5625,106.6500015258789,91.29375457763672
1777560297864046600,9.959046630859374,-71.66250610351562,106.35000610351562,91.78125
1777560297874046700,9.969046630859374,-71.66250610351562,106.35000610351562,91.78125
1777560297884046600,9.979046630859376,-72.50625610351562,103.12500762939453,89.36250305175781
1777560297894046700,9.989046630859375,-75.39375305175781,104.13750457763672,91.1812515258789
1777560297904046600,9.999046630859375,-76.33125305175781,102.9000015258789,89.41875457763672
1777560297914046700,10.009046630859375,-76.33125305175781,102.9000015258789,89.41875457763672
1777560297924046600,10.019046630859375,-76.35000610351562,102.6187515258789,90.0562515258789
1777560297934046700,10.029046630859375,-79.0875015258789,102.5250015258789,90.26250457763672
1777560297944046600,10.039046630859374,-77.10000610351562,101.13750457763672,85.85625457763672
1777560297954046700,10.049046630859374,-79.14375305175781,100.38750457763672,88.44375610351562
1777560297964046600,10.059046630859376,-79.61250305175781,99.11250305175781,86.51250457763672
1777560297974046700,10.069046630859376,-79.4625015258789,99.39375305175781,86.70000457763672
1777560297984046600,10.079046630859375,-80.66250610351562,99.91875457763672,87.69375610351562
1777560297994046700,10.089046630859375,-80.19375610351562,99.97500610351562,86.41875457763672
1777560298004046600,10.099046630859375,-80.51250457763672,98.79375457763672,85.21875
1777560298014046700,10.109046630859375,-79.875,100.1812515258789,87.01875305175781
1777560298024046600,10.119046630859375,-78.7125015258789,98.04375457763672,84.31875610351562
1777560298034046700,10.129046630859374,-80.71875,97.95000457763672,87.03750610351562
1777560298044046600,10.139046630859376,-78.39375305175781,98.53125762939453,84.26250457763672
1777560298054046700,10.149046630859376,-78.7125015258789,98.64375305175781,85.8375015258789
1777560298064046600,10.159046630859375,-77.13750457763672,99.69375610351562,84.58125305175781
1777560298074046700,10.169046630859375,-76.53750610351562,100.05000305175781,86.19375610351562
1777560298084046600,10.179046630859375,-76.51875305175781,100.76250457763672,86.75625610351562
1777560298094046700,10.189046630859375,-76.80000305175781,100.80000305175781,85.35000610351562
1777560298104046600,10.199046630859375,-75.73125457763672,101.28750610351562,86.1187515258789
1777560298114046700,10.209046630859374,-77.2125015258789,103.6500015258789,89.4375
1777560298124046600,10.219046630859374,-74.26875305175781,103.42500305175781,84.5250015258789
1777560298134046700,10.229046630859376,-75.8062515258789,104.36250305175781,89.25
1777560298144046600,10.239046630859375,-73.10625457763672,102.76875305175781,87.75
1777560298154046700,10.249046630859375,-75.97500610351562,102.82500457763672,86.41875457763672
1777560298164046600,10.259046630859375,-75.39375305175781,102.07500457763672,85.5562515258789
1777560298174046700,10.269046630859375,-75.11250305175781,102.30000305175781,87.84375
1777560298184046600,10.279046630859375,-74.8125,101.55000305175781,87
1777560298194046700,10.289046630859374,-76.3125,101.17500305175781,84.4312515258789
1777560298204046600,10.299046630859374,-77.25,101.3062515258789,86.17500305175781
1777560298214046700,10.309046630859376,-76.6500015258789,100.53750610351562,84.31875610351562
1777560298224046600,10.319046630859376,-75.73125457763672,99.67500305175781,81.86250305175781
1777560298234046700,10.329046630859375,-76.03125,100.38750457763672,84.13125610351562
1777560298244046600,10.339046630859375,-77.26875305175781,99.7125015258789,83.73750305175781
1777560298254046700,10.349046630859375,-75.67500305175781,98.0250015258789,84.22500610351562
1777560298264046600,10.359046630859375,-73.21875,101.1187515258789,79.81875610351562
1777560298274046700,10.369046630859375,-76.66875457763672,99.4312515258789,82.6875
1777560298284046600,10.379046630859374,-76.80000305175781,99.5250015258789,82.57500457763672
1777560298294046700,10.389046630859376,-78.65625,98.79375457763672,82.61250305175781
1777560298304046600,10.399046630859376,-78.65625,98.79375457763672,82.61250305175781
1777560298314046700,10.409046630859375,-76.78125,100.06875610351562,81.97500610351562
1777560298324046600,10.419046630859375,-75.75,99.56250762939453,82.8375015258789
1777560298334046700,10.429046630859375,-76.51875305175781,99.84375762939453,84.75
1777560298344046600,10.439046630859375,-76.06875610351562,99.31875610351562,83.64375305175781
1777560298354046700,10.449046630859375,-72.3375015258789,100.72500610351562,80.56875610351562
1777560298364046600,10.459046630859374,-75.1875,98.13750457763672,82.40625
1777560298374046700,10.469046630859374,-72.39375305175781,99.93750762939453,83.66250610351562
1777560298384046600,10.479046630859376,-73.91250610351562,100.53750610351562,85.21875
1777560298394046700,10.489046630859375,-70.23750305175781,101.90625762939453,86.94375610351562
1777560298404046600,10.499046630859375,-72.69375610351562,102.54375457763672,90.5250015258789
1777560298414046700,10.509046630859375,-70.51875305175781,103.6500015258789,88.6875
1777560298424046600,10.519046630859375,-70.01250457763672,104.92500305175781,89.7750015258789
1777560298434046700,10.529046630859375,-69.1500015258789,104.4000015258789,91.35000610351562
1777560298444046600,10.539046630859374,-67.29375457763672,104.5875015258789,90.0562515258789
1777560298454046700,10.549046630859374,-69.13125610351562,105.1500015258789,92.19375610351562
1777560298464046600,10.559046630859376,-67.63125610351562,104.4000015258789,91.3125
1777560298474046700,10.569046630859376,-67.0875015258789,107.32500457763672,92.55000305175781
1777560298484046600,10.579046630859375,-65.4375,105.86250305175781,90.26250457763672
1777560298494046700,10.589046630859375,-64.5562515258789,105.20625305175781,90.95625305175781
1777560298504046600,10.599046630859375,-65.60625457763672,106.9312515258789,94.125
1777560298514046700,10.609046630859375,-66.22500610351562,106.53750610351562,94.91250610351562
1777560298524046600,10.619046630859375,-63.63750076293945,107.26875305175781,95.70000457763672
1777560298534046700,10.629046630859374,-63.82500076293945,106.80000305175781,97.59375762939453
1777560298544046600,10.639046630859376,-61.837501525878906,107.23125457763672,98.04375457763672
1777560298554046700,10.649046630859376,-60.000003814697266,108.3375015258789,99.6187515258789
1777560298564046600,10.659046630859375,-60.58125305175781,108.65625762939453,98.41875457763672
1777560298574046700,10.669046630859375,-59.45625305175781,107.1187515258789,100.63125610351562
1777560298584046600,10.679046630859375,-60.01875305175781,107.62500762939453,99.0562515258789
1777560298594046700,10.689046630859375,-59.28750228881836,107.64375305175781,100.87500762939453
1777560298604046600,10.699046630859375,-60.618751525878906,107.53125762939453,97.50000762939453
1777560298614046700,10.709046630859374,-58.781253814697266,108.91875457763672,101.10000610351562
1777560298624046600,10.719046630859374,-57.937503814697266,107.25000762939453,101.60625457763672
1777560298634046700,10.729046630859376,-56.79375076293945,108.7125015258789,98.75625610351562
1777560298644046600,10.739046630859375,-57.41250228881836,108.35625457763672,99.84375762939453
1777560298654046700,10.749046630859375,-57.03750228881836,107.15625762939453,101.85000610351562
1777560298664046600,10.759046630859375,-55.98750305175781,106.70625305175781,101.3062515258789
1777560298674046700,10.769046630859375,-56.400001525878906,107.73750305175781,100.66875457763672
1777560298684046600,10.779046630859375,-55.33125305175781,107.7750015258789,100.9312515258789
1777560298694046700,10.789046630859374,-56.10000228881836,107.98125457763672,102.41250610351562
1777560298704046600,10.799046630859374,-55.968753814697266,107.51250457763672,102.60000610351562
1777560298714046700,10.809046630859376,-53.212501525878906,107.06250762939453,99.46875762939453
1777560298724046600,10.819046630859376,-52.42500305175781,106.80000305175781,97.70625305175781
1777560298734046700,10.829046630859375,-52.42500305175781,106.80000305175781,97.70625305175781
1777560298744046600,10.839046630859375,-52.89375305175781,108.41250610351562,101.98125457763672
1777560298754046700,10.849046630859375,-53.60625076293945,109.25625610351562,101.73750305175781
1777560298764046600,10.859046630859375,-52.275001525878906,108.75000762939453,101.75625610351562
1777560298774046700,10.869046630859375,-52.556251525878906,107.98125457763672,98.08125305175781
1777560298784046600,10.879046630859374,-51.67500305175781,107.43750762939453,99.50625610351562
1777560298794046700,10.889046630859376,-49.57500076293945,108.9000015258789,94.21875
1777560298804046600,10.899046630859376,-51.150001525878906,107.9625015258789,96.35625457763672
1777560298814046700,10.909046630859375,-48.937503814697266,106.63125610351562,97.44375610351562
1777560298824046600,10.919046630859375,-50.92500305175781,108.13125610351562,102.58125305175781
1777560298834046700,10.929046630859375,-49.81875228881836,108.8062515258789,100.42500305175781
1777560298844046600,10.939046630859375,-51.20625305175781,107.85000610351562,99.86250305175781
1777560298854046700,10.949046630859375,-51.562503814697266,106.42500305175781,100.29375457763672
1777560298864046600,10.959046630859374,-49.10625076293945,107.10000610351562,99.78750610351562
1777560298874046700,10.969046630859374,-49.72500228881836,106.57500457763672,99.56250762939453
1777560298884046600,10.979046630859376,-52.48125076293945,107.53125762939453,102.78750610351562
1777560298904046600,10.999046630859375,-51.22500228881836,107.04375457763672,98.56875610351562
1777560298914046700,11.009046630859375,-51.58125305175781,106.53750610351562,101.0250015258789
1777560298924046600,11.019046630859375,-49.89375305175781,106.57500457763672,100.42500305175781
1777560298934046700,11.029046630859375,-49.06875228881836,106.57500457763672,96.16875457763672
1777560298944046600,11.039046630859374,-48.375003814697266,105.48750305175781,97.35000610351562
1777560298954046700,11.049046630859374,-50.08125305175781,105.39375305175781,100.06875610351562
1777560298964046600,11.059046630859376,-47.962501525878906,105.69375610351562,100.48125457763672
1777560298974046700,11.069046630859376,-47.4375,106.87500762939453,99.1500015258789
1777560298984046600,11.079046630859375,-50.04375076293945,106.57500457763672,99.58125305175781
1777560298994046700,11.089046630859375,-50.718753814697266,105.56250762939453,102.09375762939453
1777560299004046600,11.099046630859375,-51.50625228881836,105.18750762939453,103.72500610351562
1777560299014046700,11.109046630859375,-51.468753814697266,106.31250762939453,102.95625305175781
1777560299024046600,11.119046630859375,-49.80000305175781,105.60000610351562,101.51250457763672
1777560299034046700,11.129046630859374,-51.91875076293945,105.2437515258789,100.78125762939453
1777560299044046600,11.139046630859376,-52.98750305175781,105.50625610351562,101.71875762939453
1777560299054046700,11.149046630859376,-54.58125305175781,104.19375610351562,102.91875457763672
1777560299064046600,11.159046630859375,-57.01875305175781,103.50000762939453,101.5875015258789
1777560299074046700,11.169046630859375,-57.187503814697266,103.63125610351562,103.29375457763672
1777560299084046600,11.179046630859375,-60.48750305175781,104.4937515258789,103.12500762939453
1777560299094046700,11.189046630859375,-60.431251525878906,101.2125015258789,101.23125457763672
1777560299104046600,11.199046630859375,-62.10000228881836,101.71875762939453,101.23125457763672
1777560299114046700,11.209046630859374,-61.95000076293945,101.98125457763672,102.13125610351562
1777560299124046600,11.219046630859374,-62.118751525878906,101.73750305175781,103.06875610351562
1777560299134046700,11.229046630859376,-63.375003814697266,100.50000762939453,103.14375305175781
1777560299144046600,11.239046630859375,-63.243751525878906,98.41875457763672,99.07500457763672
1777560299154046700,11.249046630859375,-62.60625076293945,100.1812515258789,100.95000457763672
1777560299164046600,11.259046630859375,-65.83125305175781,99.13125610351562,101.4000015258789
1777560299174046700,11.269046630859375,-66.45000457763672,98.4937515258789,100.44375610351562
1777560299184046600,11.279046630859375,-66.45000457763672,98.4937515258789,100.44375610351562
1777560299194046700,11.289046630859374,-65.41875457763672,97.78125762939453,100.70625305175781
1777560299204046600,11.299046630859374,-68.28750610351562,98.66250610351562,101.51250457763672
1777560299214046700,11.309046630859376,-67.3687515258789,98.66250610351562,100.6500015258789
1777560299224046600,11.319046630859376,-68.00625610351562,97.72500610351562,101.04375457763672
1777560299234046700,11.329046630859375,-67.6875,97.10625457763672,98.51250457763672
1777560299244046600,11.339046630859375,-67.5562515258789,96.2437515258789,97.80000305175781
1777560299254046700,11.349046630859375,-70.91250610351562,97.29375457763672,100.61250305175781
1777560299264046600,11.359046630859375,-69.76875305175781,94.875,100.2750015258789
1777560299274046700,11.369046630859375,-70.63125610351562,95.26875305175781,96.97500610351562
1777560299284046600,11.379046630859374,-71.71875,95.5875015258789,99.18750762939453
1777560299294046700,11.389046630859376,-70.51875305175781,94.5562515258789,98.1187515258789
1777560299304046600,11.399046630859376,-72.375,93.6187515258789,97.70625305175781
1777560299314046700,11.409046630859375,-73.10625457763672,93.20625305175781,94.81875610351562
1777560299324046600,11.419046630859375,-72.01875305175781,93.95625305175781,95.64375305175781
1777560299334046700,11.429046630859375,-71.4937515258789,92.8687515258789,97.66875457763672
1777560299344046600,11.439046630859375,-73.59375,92.60625457763672,95.00625610351562
1777560299354046700,11.449046630859375,-73.95000457763672,90.69375610351562,94.6500015258789
1777560299364046600,11.459046630859374,-72.95625305175781,93.35625457763672,94.98750305175781
1777560299374046700,11.469046630859374,-73.70625305175781,92.88750457763672,93.50625610351562
1777560299384046600,11.479046630859376,-73.72500610351562,93.50625610351562,96.01875305175781
1777560299394046700,11.489046630859375,-73.8375015258789,94.14375305175781,95.3062515258789
1777560299404046600,11.499046630859375,-73.2750015258789,92.75625610351562,95.15625
1777560299414046700,11.509046630859375,-71.45625305175781,93.7125015258789,97.40625762939453
1777560299424046600,11.519046630859375,-71.28750610351562,93.76875305175781,96.9937515258789
1777560299434046700,11.529046630859375,-72.45000457763672,94.63125610351562,95.2125015258789
1777560299454046700,11.549046630859374,-70.6500015258789,95.08125305175781,98.36250305175781
1777560299464046600,11.559046630859376,-71.38125610351562,95.47500610351562,96.75000762939453
1777560299474046700,11.569046630859376,-70.42500305175781,96.0562515258789,95.56875610351562
1777560299484046600,11.579046630859375,-71.75625610351562,93.76875305175781,97.85625457763672
1777560299494046700,11.589046630859375,-72.9375,94.98750305175781,97.68750762939453
1777560299504046600,11.599046630859375,-71.56875610351562,94.23750305175781,95.9625015258789
1777560299514046700,11.609046630859375,-70.78125,94.72500610351562,95.04375457763672
1777560299524046600,11.619046630859375,-69.1875,91.95000457763672,93.9000015258789
1777560299534046700,11.629046630859374,-71.7750015258789,92.00625610351562,94.2750015258789
1777560299544046600,11.639046630859376,-71.75625610351562,93.20625305175781,95.625
1777560299554046700,11.649046630859376,-71.0250015258789,91.14375305175781,92.6812515258789
1777560299564046600,11.659046630859375,-72.97500610351562,92.25,93.35625457763672
1777560299574046700,11.669046630859375,-73.8375015258789,93.9000015258789,95.25
1777560299584046600,11.679046630859375,-75.11250305175781,92.6812515258789,95.47500610351562
1777560299594046700,11.689046630859375,-73.7437515258789,91.61250305175781,93.26250457763672
1777560299604046600,11.699046630859375,-73.7437515258789,91.61250305175781,93.26250457763672
1777560299614046700,11.709046630859374,-72.50625610351562,92.17500305175781,92.90625
1777560299624046600,11.719046630859374,-72.26250457763672,91.1812515258789,94.5562515258789
1777560299634046700,11.729046630859376,-71.51250457763672,90.31875610351562,92.94375610351562
1777560299644046600,11.739046630859375,-74.0625,91.61250305175781,93.26250457763672
1777560299654046700,11.749046630859375,-74.34375,91.70625305175781,93.01875305175781
1777560299664046600,11.759046630859375,-71.8125,91.4625015258789,94.875
1777560299674046700,11.769046630859375,-73.59375,92.88750457763672,96.88125610351562
1777560299684046600,11.779046630859375,-73.59375,93.1500015258789,96.93750762939453
1777560299694046700,11.789046630859374,-72.86250305175781,91.53750610351562,94.5
1777560299704046600,11.799046630859374,-72.03750610351562,93.5625,95.56875610351562
1777560299714046700,11.809046630859376,-71.60625457763672,93.01875305175781,96.1500015258789
1777560299724046600,11.819046630859376,-71.00625610351562,92.5875015258789,95.7750015258789
1777560299734046700,11.829046630859375,-70.96875,94.23750305175781,96.78750610351562
1777560299744046600,11.839046630859375,-72.1500015258789,95.73750305175781,98.51250457763672
1777560299754046700,11.849046630859375,-72.35625457763672,94.2750015258789,97.81875610351562
1777560299764046600,11.859046630859375,-70.95000457763672,95.53125,98.8687515258789
1777560299774046700,11.869046630859375,-68.36250305175781,95.88750457763672,99.58125305175781
1777560299784046600,11.879046630859374,-66.0562515258789,96.45000457763672,99.20625305175781
1777560299794046700,11.889046630859376,-67.4625015258789,96.30000305175781,101.60625457763672
1777560299804046600,11.899046630859376,-64.3687515258789,97.29375457763672,99.88125610351562
1777560299814046700,11.909046630859375,-63.76875305175781,97.40625762939453,101.5875015258789
1777560299824046600,11.919046630859375,-62.775001525878906,95.98125457763672,101.98125457763672
1777560299834046700,11.929046630859375,-62.85000228881836,97.23750305175781,99.54375457763672
1777560299844046600,11.939046630859375,-63.73125076293945,97.42500305175781,99.03750610351562
1777560299854046700,11.949046630859375,-60.281253814697266,96.37500762939453,99.60000610351562
1777560299864046600,11.959046630859374,-62.812503814697266,98.51250457763672,101.4937515258789
1777560299874046700,11.969046630859374,-59.66250228881836,98.17500305175781,102.60000610351562
1777560299884046600,11.979046630859376,-59.79375076293945,99.13125610351562,104.06250762939453
1777560299894046700,11.989046630859375,-59.64375305175781,99.48750305175781,104.6812515258789
1777560299904046600,11.999046630859375,-58.275001525878906,100.14375305175781,106.76250457763672
1777560299914046700,12.009046630859375,-56.47500228881836,99.54375457763672,106.87500762939453
1777560299924046600,12.019046630859375,-57.093753814697266,99.65625762939453,108.46875762939453
1777560299934046700,12.029046630859375,-55.85625076293945,99.60000610351562,105.60000610351562
1777560299944046600,12.039046630859374,-55.98750305175781,99.60000610351562,104.75625610351562
1777560299954046700,12.049046630859374,-57.26250076293945,99.56250762939453,108.73125457763672
1777560299964046600,12.059046630859376,-57.58125305175781,99.18750762939453,108.67500305175781
1777560299974046700,12.069046630859376,-55.875003814697266,99.13125610351562,106.6500015258789
1777560299984046600,12.079046630859375,-54.937503814697266,99.31875610351562,105.37500762939453
1777560299994046700,12.089046630859375,-54.16875076293945,99.95625305175781,105.48750305175781
1777560300004046600,12.099046630859375,-50.51250076293945,99.82500457763672,105.50625610351562
1777560300014046700,12.109046630859375,-52.01250076293945,100.96875762939453,106.4625015258789
1777560300024046600,12.119046630859375,-50.400001525878906,99.46875762939453,106.42500305175781
1777560300034046700,12.129046630859374,-50.400001525878906,99.46875762939453,106.42500305175781
1777560300044046600,12.139046630859376,-49.29375076293945,100.8375015258789,107.36250305175781
1777560300054046700,12.149046630859376,-50.83125305175781,100.14375305175781,106.8375015258789
1777560300064046600,12.159046630859375,-50.83125305175781,100.70625305175781,108.07500457763672
1777560300074046700,12.169046630859375,-50.962501525878906,100.80000305175781,107.81250762939453
1777560300084046600,12.179046630859375,-51.58125305175781,100.6500015258789,107.66250610351562
1777560300094046700,12.189046630859375,-50.36250305175781,99.9937515258789,105.8062515258789
1777560300104046600,12.199046630859375,-49.44375228881836,100.63125610351562,106.76250457763672
1777560300114046700,12.209046630859374,-46.53750228881836,100.66875457763672,106.12500762939453
1777560300124046600,12.219046630859374,-48.54375076293945,100.03125762939453,106.05000305175781
1777560300134046700,12.229046630859376,-48.76875305175781,101.4937515258789,104.92500305175781
1777560300144046600,12.239046630859375,-49.57500076293945,100.63125610351562,105.91875457763672
1777560300154046700,12.249046630859375,-50.025001525878906,101.13750457763672,106.72500610351562
1777560300164046600,12.259046630859375,-48.056251525878906,100.38750457763672,104.26875305175781
1777560300174046700,12.269046630859375,-47.025001525878906,100.03125762939453,106.01250457763672
1777560300184046600,12.279046630859375,-48.97500228881836,100.4625015258789,105.58125305175781
1777560300194046700,12.289046630859374,-47.28750228881836,100.50000762939453,104.98125457763672
1777560300204046600,12.299046630859374,-47.75625228881836,100.23750305175781,104.94375610351562
1777560300214046700,12.309046630859376,-46.95000076293945,101.41875457763672,104.43750762939453
1777560300224046600,12.319046630859376,-47.4375,99.56250762939453,101.13750457763672
1777560300234046700,12.329046630859375,-45.73125076293945,101.66250610351562,104.45625305175781
1777560300244046600,12.339046630859375,-45.58125305175781,100.51875305175781,101.70000457763672
1777560300254046700,12.349046630859375,-47.41875076293945,100.95000457763672,104.64375305175781
1777560300264046600,12.359046630859375,-44.64375305175781,100.8375015258789,100.4625015258789
1777560300274046700,12.369046630859375,-45.78750228881836,99.37500762939453,103.31250762939453
1777560300284046600,12.379046630859374,-46.72500228881836,99.8062515258789,105.39375305175781
1777560300294046700,12.389046630859376,-47.71875,100.06875610351562,102.09375762939453
1777560300304046600,12.399046630859376,-47.23125076293945,102.0562515258789,104.56875610351562
1777560300314046700,12.409046630859375,-46.70625305175781,99.45000457763672,102.93750762939453
1777560300324046600,12.419046630859375,-48.22500228881836,99.50625610351562,103.25625610351562
1777560300334046700,12.429046630859375,-48.69375228881836,99.67500305175781,104.43750762939453
1777560300344046600,12.439046630859375,-51.900001525878906,99.75000762939453,105.8062515258789
1777560300354046700,12.449046630859375,-50.212501525878906,100.38750457763672,106.72500610351562
1777560300364046600,12.459046630859374,-54.806251525878906,99.37500762939453,106.66875457763672
1777560300374046700,12.469046630859374,-54.50625228881836,98.15625762939453,103.31250762939453
1777560300384046600,12.479046630859376,-54.45000076293945,99.86250305175781,104.7750015258789
1777560300394046700,12.489046630859375,-56.00625228881836,97.89375305175781,101.60625457763672
1777560300404046600,12.499046630859375,-56.587501525878906,99.76875305175781,104.94375610351562
1777560300414046700,12.509046630859375,-60.431251525878906,99.0562515258789,106.05000305175781
1777560300424046600,12.519046630859375,-58.95000076293945,97.5562515258789,104.3062515258789
1777560300434046700,12.529046630859375,-58.312503814697266,98.34375762939453,104.5875015258789
1777560300444046600,12.539046630859374,-60.281253814697266,98.28750610351562,104.19375610351562
1777560300454046700,12.549046630859374,-61.06875228881836,97.12500762939453,103.01250457763672
1777560300464046600,12.559046630859376,-61.06875228881836,97.12500762939453,103.01250457763672
1777560300474046700,12.569046630859376,-62.64375305175781,96.54375457763672,105.0562515258789
1777560300484046600,12.579046630859375,-61.368751525878906,97.01250457763672,102.28125762939453
1777560300494046700,12.589046630859375,-62.73750305175781,97.76250457763672,104.0250015258789
1777560300504046600,12.599046630859375,-64.35000610351562,94.4625015258789,102.73125457763672
1777560300514046700,12.609046630859375,-62.32500076293945,95.15625,100.68750762939453
1777560300524046600,12.619046630859375,-62.775001525878906,95.0250015258789,99.69375610351562
1777560300534046700,12.629046630859374,-65.5875015258789,92.8687515258789,99.48750305175781
1777560300544046600,12.639046630859376,-66.60000610351562,94.40625,99.67500305175781
1777560300554046700,12.649046630859376,-67.03125,95.19375610351562,99.97500610351562
1777560300564046600,12.659046630859375,-65.9625015258789,94.125,96.91875457763672
1777560300574046700,12.669046630859375,-69.20625305175781,93.39375305175781,99.54375457763672
1777560300584046600,12.679046630859375,-67.51875305175781,94.16250610351562,99.78750610351562
1777560300594046700,12.689046630859375,-67.51875305175781,93.11250305175781,96.76875305175781
1777560300604046600,12.699046630859375,-69.01875305175781,92.79375457763672,94.63125610351562
1777560300614046700,12.709046630859374,-67.38750457763672,92.25,96.03750610351562
1777560300624046600,12.719046630859374,-72.46875,90.58125305175781,96.41250610351562
1777560300634046700,12.729046630859376,-69.67500305175781,91.5562515258789,95.55000305175781
1777560300644046600,12.739046630859375,-72.88125610351562,91.42500305175781,95.45625305175781
1777560300664046600,12.759046630859375,-71.79375457763672,91.3125,93.86250305175781
1777560300674046700,12.769046630859375,-72.0562515258789,92.56875610351562,94.66875457763672
1777560300684046600,12.779046630859375,-68.92500305175781,90.3375015258789,93.16875457763672
1777560300694046700,12.789046630859374,-70.10625457763672,91.35000610351562,93.26250457763672
1777560300704046600,12.799046630859374,-69.88125610351562,89.64375305175781,94.33125305175781
1777560300714046700,12.809046630859376,-70.9312515258789,90.1875,93.75
1777560300724046600,12.819046630859376,-70.38750457763672,92.34375,94.01250457763672
1777560300734046700,12.829046630859375,-68.90625,91.35000610351562,94.06875610351562
1777560300744046600,12.839046630859375,-68.47500610351562,90.8062515258789,94.66875457763672
1777560300754046700,12.849046630859375,-66.75,91.6500015258789,92.79375457763672
1777560300764046600,12.859046630859375,-65.4937515258789,93.2437515258789,93.48750305175781
1777560300774046700,12.869046630859375,-64.4625015258789,91.53750610351562,92.00625610351562
1777560300784046600,12.879046630859374,-65.73750305175781,95.7750015258789,96.2437515258789
1777560300794046700,12.889046630859376,-64.61250305175781,93.30000305175781,96.45000457763672
1777560300804046600,12.899046630859376,-68.5875015258789,92.90625,97.03125762939453
1777560300814046700,12.909046630859375,-66.09375,94.16250610351562,96.37500762939453
1777560300824046600,12.919046630859375,-68.13750457763672,92.19375610351562,95.625
1777560300834046700,12.929046630859375,-68.92500305175781,91.25625610351562,95.17500305175781
1777560300844046600,12.939046630859375,-70.70625305175781,93.45000457763672,97.33125305175781
1777560300854046700,12.949046630859375,-71.4937515258789,91.85625457763672,94.9312515258789
1777560300864046600,12.959046630859374,-70.42500305175781,92.8687515258789,97.6500015258789
1777560300874046700,12.969046630859374,-68.94375610351562,90.50625610351562,94.33125305175781
1777560300884046600,12.979046630859376,-70.125,91.2750015258789,94.3687515258789
1777560300894046700,12.989046630859375,-69.65625,91.0875015258789,92.34375
1777560300904046600,12.999046630859375,-69.65625,91.0875015258789,92.34375
1777560300914046700,13.009046630859375,-72.2437515258789,90.86250305175781,92.36250305175781
1777560300924046600,13.019046630859375,-72.5625,91.3687515258789,94.16250610351562
1777560300934046700,13.029046630859375,-69.75,93.13125610351562,94.29375457763672
1777560300944046600,13.039046630859374,-71.3062515258789,93.01875305175781,96.1500015258789
1777560300954046700,13.049046630859374,-69.63750457763672,92.55000305175781,95.4375
1777560300964046600,13.059046630859376,-71.55000305175781,94.48125457763672,95.0250015258789
1777560300974046700,13.069046630859376,-70.06875610351562,94.5,97.80000305175781
1777560300984046600,13.079046630859375,-69.5250015258789,95.5875015258789,94.89375305175781
1777560300994046700,13.089046630859375,-69.9937515258789,92.8687515258789,100.1812515258789
1777560301004046600,13.099046630859375,-69.6187515258789,94.25625610351562,98.5875015258789
1777560301014046700,13.109046630859375,-68.32500457763672,94.78125,93.7125015258789
1777560301024046600,13.119046630859375,-69.76875305175781,94.1812515258789,97.31250762939453
1777560301034046700,13.129046630859374,-68.4937515258789,94.29375457763672,93.76875305175781
1777560301044046600,13.139046630859376,-65.88750457763672,94.42500305175781,93.01875305175781
1777560301054046700,13.149046630859376,-67.4625015258789,95.7750015258789,99.67500305175781
1777560301064046600,13.159046630859375,-66.26250457763672,95.5875015258789,101.0250015258789
1777560301074046700,13.169046630859375,-66.69375610351562,96.18750762939453,100.85625457763672
1777560301084046600,13.179046630859375,-64.48125457763672,99.22500610351562,102.93750762939453
1777560301094046700,13.189046630859375,-62.868751525878906,96.8062515258789,100.87500762939453
1777560301104046600,13.199046630859375,-63.431251525878906,98.90625762939453,103.2750015258789
1777560301114046700,13.209046630859374,-61.76250076293945,97.03125762939453,98.06250762939453
1777560301124046600,13.219046630859374,-60.97500228881836,97.23750305175781,96.95625305175781
1777560301134046700,13.229046630859376,-59.00625228881836,97.59375762939453,97.66875457763672
1777560301144046600,13.239046630859375,-60.48750305175781,100.10625457763672,102.1500015258789
1777560301154046700,13.249046630859375,-61.29375076293945,99.26250457763672,102.30000305175781
1777560301164046600,13.259046630859375,-58.087501525878906,98.38125610351562,99.78750610351562
1777560301174046700,13.269046630859375,-56.56875228881836,100.25625610351562,104.04375457763672
1777560301184046600,13.279046630859375,-55.10625076293945,98.92500305175781,105.16875457763672
1777560301194046700,13.289046630859374,-56.062503814697266,97.85625457763672,105.56250762939453
1777560301204046600,13.299046630859374,-56.625003814697266,99.22500610351562,105.54375457763672
1777560301214046700,13.309046630859376,-54.48750305175781,99.48750305175781,106.53750610351562
1777560301224046600,13.319046630859376,-54.243751525878906,99.26250457763672,109.31250762939453
1777560301234046700,13.329046630859375,-56.36250305175781,98.53125762939453,106.81875610351562
1777560301244046600,13.339046630859375,-54.806251525878906,99.4312515258789,106.95000457763672
1777560301254046700,13.349046630859375,-54.000003814697266,101.62500762939453,109.1812515258789
1777560301264046600,13.359046630859375,-52.61250305175781,100.51875305175781,105.13125610351562
1777560301274046700,13.369046630859375,-53.23125076293945,100.38750457763672,104.98125457763672
1777560301284046600,13.379046630859374,-52.181251525878906,100.01250457763672,105.86250305175781
1777560301294046700,13.389046630859376,-52.01250076293945,102.09375762939453,109.9312515258789
1777560301304046600,13.399046630859376,-50.98125076293945,100.50000762939453,107.47500610351562
1777560301314046700,13.409046630859375,-51.01875305175781,99.2437515258789,107.53125762939453
1777560301324046600,13.419046630859375,-49.63125228881836,100.35000610351562,108.26250457763672
1777560301334046700,13.429046630859375,-49.63125228881836,100.35000610351562,108.26250457763672
1777560301344046600,13.439046630859375,-49.01250076293945,100.14375305175781,107.64375305175781
1777560301354046700,13.449046630859375,-51.750003814697266,99.93750762939453,106.25625610351562
1777560301364046600,13.459046630859374,-49.406253814697266,101.90625762939453,107.00625610351562
1777560301374046700,13.469046630859374,-46.368751525878906,101.6812515258789,107.15625762939453
1777560301384046600,13.479046630859376,-46.57500076293945,100.61250305175781,107.53125762939453
1777560301394046700,13.489046630859375,-46.125,100.1812515258789,108.00000762939453
1777560301404046600,13.499046630859375,-48.78750228881836,101.75625610351562,106.81875610351562
1777560301414046700,13.509046630859375,-45.63750076293945,99.58125305175781,103.91250610351562
1777560301424046600,13.519046630859375,-46.95000076293945,102.28125762939453,106.16250610351562
1777560301434046700,13.529046630859375,-46.6875,101.79375457763672,107.88750457763672
1777560301444046600,13.539046630859374,-46.29375076293945,98.56875610351562,104.5875015258789
1777560301454046700,13.549046630859374,-47.47500228881836,99.8062515258789,105.41250610351562
1777560301464046600,13.559046630859376,-46.6875,101.3062515258789,107.10000610351562
1777560301474046700,13.569046630859376,-47.118751525878906,102.4312515258789,108.01875305175781
1777560301484046600,13.579046630859375,-48.16875076293945,101.38125610351562,105.03750610351562
1777560301494046700,13.589046630859375,-46.98750305175781,100.5562515258789,105.41250610351562
1777560301504046600,13.599046630859375,-44.88750076293945,100.14375305175781,105.13125610351562
1777560301514046700,13.609046630859375,-45.75,102.00000762939453,106.78125762939453
1777560301524046600,13.619046630859375,-44.51250076293945,102.46875762939453,106.5562515258789
1777560301534046700,13.629046630859374,-44.56875228881836,100.98750305175781,106.68750762939453
1777560301544046600,13.639046630859376,-47.306251525878906,100.29375457763672,105.37500762939453
1777560301554046700,13.649046630859376,-45.63750076293945,101.04375457763672,107.0250015258789
1777560301564046600,13.659046630859375,-42.712501525878906,99.18750762939453,100.3687515258789
1777560301574046700,13.669046630859375,-46.06875228881836,99.97500610351562,102.30000305175781
1777560301584046600,13.679046630859375,-46.10625076293945,97.66875457763672,99.3375015258789
1777560301594046700,13.689046630859375,-46.23750305175781,98.56875610351562,100.35000610351562
1777560301604046600,13.699046630859375,-48.618751525878906,99.45000457763672,98.60625457763672
1777560301614046700,13.709046630859374,-47.118751525878906,98.28750610351562,96.65625762939453
1777560301624046600,13.719046630859374,-48.95625305175781,98.66250610351562,99.16875457763672
1777560301634046700,13.729046630859376,-53.41875076293945,99.69375610351562,105.41250610351562
1777560301644046600,13.739046630859375,-54.525001525878906,97.81875610351562,103.66875457763672
1777560301654046700,13.749046630859375,-54.22500228881836,98.53125762939453,105.91875457763672
1777560301664046600,13.759046630859375,-56.79375076293945,98.75625610351562,105.75000762939453
1777560301674046700,13.769046630859375,-57.150001525878906,96.56250762939453,104.34375762939453
1777560301684046600,13.779046630859375,-59.118751525878906,96.50625610351562,103.12500762939453
