time,seconds_elapsed,z,y,x
1777560288293791000,0.388791015625,2.691925525665283,-8.982656478881836,1.5840486288070679
1777560288312320800,0.40732080078125,2.400001049041748,-8.764909744262695,1.801795482635498
1777560288349380600,0.444380615234375,2.3569302558898926,-8.776873588562012,1.643869161605835
1777560288367910700,0.46291064453125,2.5363919734954834,-9.166903495788574,1.490728497505188
1777560288386440400,0.4814404296875,2.7828526496887207,-9.614361763000488,1.2418749332427979
1777560288404970500,0.499970458984375,3.1202406883239746,-9.8871431350708,0.6221339106559753
1777560288423500300,0.518500244140625,3.294916868209839,-9.920642852783203,0.019142581149935722
1777560288442030300,0.5370302734375,3.0963125228881836,-9.848857879638672,-0.3038884699344635
1777560288460560100,0.55556005859375,2.651247501373291,-9.645467758178711,-0.1459621787071228
1777560288479090200,0.574090087890625,2.3473589420318604,-9.482755661010742,0.08135596662759781
1777560288497620000,0.592619873046875,1.7754744291305542,-9.291330337524414,0.49292147159576416
1777560288516149800,0.611149658203125,1.8831514120101929,-8.9850492477417,0.9882357716560364
1777560288534679800,0.6296796875,2.4263222217559814,-8.571090698242188,1.399801254272461
1777560288553209900,0.6482099609375,2.5842485427856445,-8.078168869018555,1.7874385118484497
1777560288571739600,0.66673974609375,2.557927370071411,-7.9489569664001465,2.043470621109009
1777560288590269400,0.68526953125,2.581855535507202,-8.37966537475586,1.8161523342132568
1777560288608799500,0.703799560546875,2.5770699977874756,-9.253045082092285,1.6630117893218994
1777560288627329500,0.72232958984375,2.4430718421936035,-10.155138969421387,1.6031911373138428
1777560288645859300,0.740859375,2.572284460067749,-10.707880973815918,1.5601203441619873
1777560288664389400,0.759389404296875,3.074777126312256,-11.076375961303711,1.4333007335662842
1777560288682919200,0.777919189453125,3.407379388809204,-11.375478744506836,0.9978070259094238
1777560288701449000,0.796448974609375,3.507878065109253,-11.093125343322754,0.4737788736820221
1777560288719979000,0.81497900390625,3.5748770236968994,-9.882357597351074,0.3445664644241333
1777560288738509000,0.833509033203125,3.280559778213501,-8.202595710754395,0.6843472719192505
1777560288757038800,0.852038818359375,3.0173492431640625,-7.503891944885254,0.8374879360198975
1777560288775568600,0.870568603515625,1.9884356260299683,-7.846065521240234,1.1174482107162476
1777560288794098700,0.8890986328125,1.4261223077774048,-8.551948547363281,1.5960127115249634
1777560288812628500,0.90762841796875,2.0985054969787598,-9.487542152404785,1.9956140518188477
1777560288831158500,0.926158447265625,2.2229323387145996,-10.1216402053833,1.9621145725250244
1777560288849688300,0.944688232421875,1.7850457429885864,-10.028319358825684,2.3497519493103027
1777560288868218400,0.96321826171875,0.9595218896865845,-9.219545364379883,2.572284460067749
1777560288886748200,0.981748046875,0.6484549641609192,-8.63330364227295,3.1202406883239746
1777560288905278200,1.0002783203125,0.6484549641609192,-8.884550094604492,3.1274192333221436
1777560288923808000,1.01880810546875,-0.10049854964017868,-9.789037704467773,2.4287149906158447
1777560288942337800,1.037337890625,-1.184447169303894,-10.98305606842041,0.8566305041313171
1777560288960867800,1.055867919921875,-1.7826528549194336,-11.885149955749512,-0.26560330390930176
1777560288979398000,1.07439794921875,-1.100698471069336,-11.368300437927246,-1.7012969255447388
1777560288997927700,1.092927734375,-0.6340979933738708,-9.93260669708252,-2.1822543144226074
1777560289016457500,1.11145751953125,-0.22971096634864807,-9.19561767578125,-1.6510475873947144
1777560289034987500,1.129987548828125,-0.6340979933738708,-9.415757179260254,-0.19381862878799438
1777560289053517300,1.148517333984375,-0.09092725813388824,-9.726823806762695,1.495514154434204
1777560289072047400,1.16704736328125,-0.380458801984787,-9.982855796813965,2.2683959007263184
1777560289090577200,1.1855771484375,0.031106693670153618,-9.994820594787598,2.273181438446045
1777560289109107200,1.204107177734375,0.3445664644241333,-10.100104331970215,1.4021940231323242
1777560289127637000,1.222636962890625,-0.09810572862625122,-10.052248001098633,-0.009571290574967861
1777560289146167000,1.2411669921875,-0.8709874153137207,-9.255437850952148,-0.9547362327575684
1777560289164696800,1.25969677734375,-1.9334007501602173,-8.489734649658203,-1.5960127115249634
1777560289183227000,1.278226806640625,-2.3641088008880615,-8.61894702911377,-2.148754835128784
1777560289201756700,1.296756591796875,-1.1054840087890625,-9.114261627197266,-1.8759729862213135
1777560289220286500,1.315286376953125,0.4139583110809326,-9.686145782470703,-1.179661512374878
1777560289238816500,1.33381640625,0.06699903309345245,-10.037891387939453,-0.4833501875400543
1777560289257346300,1.35234619140625,-0.9523434042930603,-9.90149974822998,-0.08374879509210587
1777560289275876400,1.37087646484375,-1.4428720474243164,-9.686145782470703,-0.059820566326379776
1777560289294406100,1.38940625,-1.730010747909546,-9.437292098999023,-0.11246266216039658
1777560289312936200,1.407936279296875,-1.5840486288070679,-9.384650230407715,-0.15553347766399384
1777560289331466000,1.426466064453125,-1.3543375730514526,-9.753145217895508,0.2584248483181
1777560289349996000,1.44499609375,-1.0336993932724,-10.191031455993652,0.7393822073936462
1777560289368525800,1.46352587890625,-0.5312066078186035,-10.234102249145508,0.9762716293334961
1777560289387055600,1.4820556640625,-0.42352959513664246,-10.162318229675293,0.7752745151519775
1777560289405585700,1.500585693359375,-0.8805587291717529,-9.760323524475098,0.45224347710609436
1777560289424115500,1.519115478515625,-0.9332008361816406,-9.418149948120117,0.0526420995593071
1777560289442645500,1.5376455078125,-1.0648061037063599,-9.329615592956543,-0.36610186100006104
1777560289461175300,1.55617529296875,-1.7682958841323853,-9.68375301361084,-0.8901300430297852
1777560289479705000,1.574705078125,-2.029113531112671,-10.124032974243164,-1.0456634759902954
1777560289498235100,1.593235107421875,-1.7515461444854736,-10.147960662841797,-0.9786644577980042
1777560289516765000,1.611764892578125,-1.373480200767517,-10.078569412231445,-0.6101697683334351
1777560289535295000,1.630294921875,-1.5553346872329712,-9.966106414794922,-0.28235307335853577
1777560289553824800,1.64882470703125,-1.459621787071228,-9.67657470703125,-0.2512463629245758
1777560289572354800,1.667354736328125,-0.9930213689804077,-9.487542152404785,-0.7106683254241943
1777560289590884600,1.685884521484375,-0.7752745151519775,-9.66221809387207,-1.4093725681304932
1777560289609414700,1.70441455078125,-0.4713860750198364,-9.923035621643066,-1.3591232299804688
1777560289627944400,1.7229443359375,-0.5527420043945312,-10.545169830322266,-1.0289137363433838
1777560289646474200,1.74147412109375,-0.20817556977272034,-11.545369148254395,-0.6245267391204834
1777560289665004300,1.76000439453125,0.10289137065410614,-12.56710433959961,-0.5742774605751038
1777560289683534000,1.7785341796875,0.20338992774486542,-13.014562606811523,-0.760917603969574
1777560289702064000,1.797064208984375,0.5168496966362,-12.837493896484375,-1.337587833404541
1777560289720594000,1.815593994140625,0.6939185857772827,-11.956934928894043,-1.7060825824737549
1777560289739123700,1.834123779296875,0.2967100143432617,-10.217352867126465,-1.2969099283218384
1777560289757653800,1.85265380859375,0.380458801984787,-8.360522270202637,-0.02632104977965355
1777560289776183600,1.87118359375,0.6484549641609192,-7.685746192932129,1.129412293434143
1777560289794713600,1.889713623046875,1.466800332069397,-8.74337387084961,0.8183453679084778
1777560289813243600,1.90824365234375,0.5312066078186035,-10.243673324584961,-0.2919243574142456
1777560289831773400,1.9267734375,-1.2179467678070068,-12.734601974487305,-0.6652047038078308
1777560289850303200,1.94530322265625,-1.5170495510101318,-14.117653846740723,0.5647061467170715
1777560289868833300,1.963833251953125,-2.0243279933929443,-14.057832717895508,2.1367905139923096
1777560289887363000,1.982363037109375,-1.275374412536621,-12.425928115844727,2.251646041870117
1777560289905893000,2.00089306640625,-0.18903298676013947,-10.973484992980957,2.021935224533081
1777560289924423000,2.0194228515625,-0.11006984114646912,-10.214960098266602,2.203789710998535
1777560289942952700,2.03795263671875,-0.8925228714942932,-10.016355514526367,1.4261223077774048
1777560289961482800,2.056482666015625,0.22492532432079315,-10.370492935180664,-0.08853443711996078
1777560289980012500,2.075012451171875,1.0648061037063599,-10.482955932617188,-0.9044869542121887
1777560289998542600,2.09354248046875,-1.179661512374878,-9.540184020996094,-0.15553347766399384
1777560290017072400,2.112072265625,-1.6965112686157227,-8.094919204711914,0.8327022790908813
1777560290035602200,2.130602294921875,-1.4739787578582764,-6.943971157073975,1.5936198234558105
1777560290054132200,2.14913232421875,-0.9308080077171326,-6.546762943267822,1.667797327041626
1777560290072662300,2.167662353515625,0.09810572862625122,-6.733402729034424,1.7826528549194336
1777560290091192000,2.186192138671875,0.9906286001205444,-6.364908218383789,2.4646072387695312
1777560290109721900,2.204721923828125,1.373480200767517,-5.8959150314331055,3.074777126312256
1777560290128252000,2.223251953125,2.1918256282806396,-5.082355499267578,3.8261234760284424
1777560290146781700,2.24178173828125,2.368894338607788,-5.0943193435668945,2.943171739578247
1777560290165311700,2.260311767578125,2.4335005283355713,-5.438885688781738,2.021935224533081
1777560290183841500,2.278841552734375,2.2923240661621094,-6.082555294036865,1.734796404838562
1777560290202371300,2.297371337890625,2.9359934329986572,-7.03489875793457,1.8544375896453857
1777560290220901400,2.3159013671875,4.208974838256836,-7.977670669555664,2.3569302558898926
1777560290239431200,2.33443115234375,5.766702651977539,-9.80100154876709,2.007578134536743
1777560290257961200,2.352961181640625,7.759923934936523,-12.495320320129395,0.20817556977272034
1777560290276491000,2.371490966796875,10.00439167022705,-15.18006706237793,-1.8664016723632812
1777560290295020800,2.390020751953125,9.77707290649414,-15.538990020751953,-2.1535403728485107
1777560290313550800,2.40855078125,7.247859954833984,-12.229716300964355,-0.5024927258491516
1777560290332081000,2.427080810546875,4.833501815795898,-8.504091262817383,0.9427721500396729
1777560290350610700,2.445610595703125,3.524627685546875,-5.376672267913818,2.5746772289276123
1777560290369140500,2.464140380859375,3.022135019302368,-3.460021495819092,3.397808074951172
1777560290387670500,2.48267041015625,2.8833513259887695,-4.2831525802612305,3.548556089401245
1777560290406200300,2.501200439453125,3.5150563716888428,-8.15234661102295,4.816751956939697
1777560290424730400,2.51973046875,6.32662296295166,-13.533804893493652,5.745167255401611
1777560290443260200,2.53826025390625,7.869993686676025,-18.410377502441406,4.95074987411499
1777560290461790200,2.556790283203125,2.2923240661621094,-16.613367080688477,3.555734395980835
1777560290480320000,2.575320068359375,-2.115255117416382,-8.01356315612793,2.3545374870300293
1777560290498849800,2.593849853515625,-4.551148891448975,-2.9838497638702393,2.462214469909668
1777560290517379800,2.6123798828125,-2.510071039199829,-1.7156537771224976,5.491528034210205
1777560290535909600,2.63090966796875,-0.1579262912273407,-3.1800613403320312,4.639683246612549
1777560290554439700,2.649439697265625,-2.4981069564819336,-6.628118515014648,0.6891329288482666
1777560290572969500,2.667969482421875,-5.065605640411377,-12.80160140991211,-2.337787628173828
1777560290591499500,2.68649951171875,-2.9766714572906494,-17.570497512817383,-3.627519130706787
1777560290610029300,2.705029296875,-0.6652047038078308,-17.4412841796875,-5.357530117034912
1777560290628559400,2.723559326171875,1.6247265338897705,-12.447463035583496,-4.309473514556885
1777560290647089200,2.742089111328125,0.9882357716560364,-9.757930755615234,-1.947757601737976
1777560290665619000,2.760618896484375,-0.5407779216766357,-7.984848976135254,0.9834501147270203
1777560290684149000,2.77914892578125,-1.6151553392410278,-6.996613502502441,3.0269205570220947
1777560290702678800,2.7976787109375,-0.8446664214134216,-7.11146879196167,3.404986619949341
1777560290721208800,2.816208740234375,1.0839486122131348,-8.535198211669922,1.8041882514953613
1777560290739738600,2.834738525390625,0.6532405614852905,-10.066604614257812,-0.3326023519039154
1777560290758268700,2.8532685546875,-0.1698904037475586,-10.454241752624512,-1.5026925802230835
1777560290776798500,2.871798583984375,0.3158525824546814,-9.219545364379883,-1.5122638940811157
1777560290795328500,2.89032861328125,0.004785645287483931,-8.645268440246582,-1.4859428405761719
1777560290813858300,2.9088583984375,0.11724831163883209,-8.695517539978027,-0.9236295223236084
1777560290832388000,2.92738818359375,-0.7800601720809937,-8.85344409942627,-0.43549370765686035
1777560290850918100,2.945918212890625,-2.0003998279571533,-8.858229637145996,0.03349951654672623
1777560290869448000,2.964447998046875,-1.581655740737915,-8.889336585998535,0.24167509377002716
1777560290887978000,2.98297802734375,-0.5383850932121277,-9.489934921264648,0.2632105052471161
1777560290906507800,3.0015078125,0.37806597352027893,-10.052248001098633,0.040677983313798904
1777560290925037600,3.02003759765625,0.794417142868042,-10.49970531463623,0.12921242415905
1777560290943567600,3.038567626953125,-0.519242525100708,-10.676774978637695,-0.0023928226437419653
1777560290962097700,3.05709765625,-1.6510475873947144,-10.258030891418457,0.17706887423992157
1777560290980627500,3.07562744140625,-0.8685946464538574,-10.116853713989258,-0.3038884699344635
1777560290999157500,3.094157470703125,0.17946170270442963,-10.308279991149902,-0.7537391185760498
1777560291017687300,3.112687255859375,-0.6867401003837585,-11.289337158203125,-1.1413763761520386
1777560291036217000,3.131217041015625,-1.7012969255447388,-12.41396427154541,-0.9930213689804077
1777560291054747100,3.1497470703125,-0.46899324655532837,-12.686745643615723,-0.9571290612220764
1777560291073277000,3.16827685546875,1.2873386144638062,-12.461820602416992,-1.9860427379608154
1777560291091807000,3.186806884765625,0.9260223507881165,-11.693724632263184,-2.8498518466949463
1777560291110336800,3.205336669921875,0.6963114142417908,-12.059825897216797,-3.431307554244995
1777560291138131700,3.233131591796875,0.13878370821475983,-13.383056640625,-3.7328033447265625
1777560291156661500,3.25166162109375,0.07657032459974289,-12.569497108459473,-2.1774685382843018
1777560291175191600,3.270191650390625,0.5527420043945312,-10.710273742675781,0.5455635786056519
1777560291193721300,3.288721435546875,1.2035897970199585,-9.044869422912598,1.7443677186965942
1777560291212251400,3.30725146484375,-1.34476637840271,-8.69791030883789,1.8975083827972412
1777560291230781200,3.32578125,-2.3545374870300293,-10.092926025390625,2.9527430534362793
1777560291249311200,3.344311279296875,-1.459621787071228,-13.036097526550293,3.404986619949341
1777560291267841000,3.362841064453125,0.4139583110809326,-14.481362342834473,3.462414264678955
1777560291286370800,3.381370849609375,1.7419748306274414,-13.182060241699219,3.146561861038208
1777560291304900900,3.39990087890625,0.6699903607368469,-11.897113800048828,2.56510591506958
1777560291323431000,3.418430908203125,-2.1415762901306152,-10.760523796081543,1.674975872039795
1777560291341960700,3.436960693359375,-4.4961137771606445,-10.188638687133789,0.031106693670153618
1777560291360490500,3.455490478515625,-1.5146567821502686,-9.762716293334961,-1.7228323221206665
1777560291388285400,3.483285400390625,0.3086741268634796,-9.791430473327637,-2.203789710998535
1777560291406815500,3.5018154296875,-2.964707374572754,-8.994620323181152,-0.9260223507881165
1777560291425345300,3.52034521484375,-2.287538528442383,-7.262216567993164,0.8709874153137207
1777560291443875000,3.538875,-1.6223337650299072,-6.20219612121582,1.8472590446472168
1777560291462405000,3.557405029296875,-1.1318050622940063,-5.120640277862549,2.5746772289276123
1777560291480935000,3.575934814453125,-0.36610186100006104,-4.54636287689209,2.4191436767578125
1777560291499465000,3.59446484375,0.349352091550827,-4.326223373413086,2.2372891902923584
1777560291517994800,3.612994873046875,1.5074782371520996,-4.632504463195801,2.122433662414551
1777560291536524800,3.63152490234375,2.352144718170166,-4.642076015472412,1.9836499691009521
1777560291555054600,3.6500546875,2.4502503871917725,-4.275974273681641,1.8735800981521606
1777560291573584600,3.668584716796875,3.2757742404937744,-4.500899314880371,1.892722725868225
1777560291592114400,3.687114501953125,4.73300313949585,-5.752345561981201,1.9669002294540405
1777560291610644500,3.70564453125,6.599404811859131,-8.008777618408203,2.66560435295105
1777560291638439200,3.733439208984375,13.548161506652832,-16.101303100585938,2.0315065383911133
1777560291656969200,3.75196923828125,15.31885051727295,-25.0887451171875,-2.641676187515259
1777560291675499000,3.7704990234375,7.2430739402771,-21.901506423950195,-3.840480327606201
1777560291694029000,3.789029052734375,4.208974838256836,-10.667202949523926,-0.038285162299871445
1777560291712558800,3.807558837890625,2.6464617252349854,-3.232703447341919,1.7252250909805298
1777560291731089000,3.8260888671875,3.232703447341919,1.3351950645446777,2.7900311946868896
1777560291749618700,3.84461865234375,4.977071285247803,-1.852044701576233,4.043870449066162
1777560291768148700,3.863148681640625,6.419943332672119,-12.480962753295898,2.124826431274414
1777560291786678500,3.881678466796875,3.9840497970581055,-19.506290435791016,6.759724140167236
1777560291805208600,3.90020849609375,-7.03489875793457,-17.467605590820312,4.01754903793335
1777560291823738400,3.91873828125,-10.461421012878418,-6.814758777618408,6.853044033050537
1777560291842268400,3.937268310546875,-0.8207381963729858,-2.6488547325134277,9.516255378723145
1777560291860798200,3.955798095703125,1.7419748306274414,-1.3878371715545654,6.314659118652344
1777560291879328000,3.974327880859375,-2.4741785526275635,-2.4717857837677,2.768495798110962
1777560291897858000,3.992858154296875,-8.970691680908203,-7.590033531188965,0.6005984544754028
1777560291916388000,4.01138818359375,-6.728617191314697,-16.44826316833496,0.13639089465141296
1777560291934918000,4.02991796875,-2.7326035499572754,-24.16990089416504,-5.434100151062012
1777560291953447700,4.04844775390625,2.3401806354522705,-16.864614486694336,-7.616354465484619
1777560291971977700,4.066977783203125,3.9050865173339844,-11.016555786132812,-7.168896675109863
1777560291990507800,4.0855078125,0.5240281820297241,-7.216753005981445,-3.469592809677124
1777560292009037600,4.10403759765625,-2.0865414142608643,-5.764309883117676,0.8015955686569214
1777560292027567400,4.1225673828125,-2.3234307765960693,-5.8959150314331055,3.596412420272827
1777560292046097400,4.141097412109375,0.038285162299871445,-6.8243303298950195,4.565505504608154
1777560292064627200,4.159627197265625,1.5170495510101318,-9.020941734313965,2.675175666809082
1777560292083157200,4.1781572265625,1.1676974296569824,-10.454241752624512,-0.15553347766399384
1777560292101687300,4.196687255859375,0.8135597109794617,-9.736394882202148,-2.0554347038269043
1777560292120217000,4.215217041015625,-0.33499518036842346,-8.949156761169434,-2.5435705184936523
1777560292138747000,4.233746826171875,-2.3880369663238525,-8.0350980758667,-0.698704183101654
1777560292157277000,4.25227685546875,-2.7876384258270264,-7.542177200317383,2.0673987865448
1777560292175807000,4.270806884765625,-0.32303106784820557,-8.327022552490234,2.531606435775757
1777560292194336800,4.289336669921875,1.2729816436767578,-9.693324089050293,0.4426721930503845
1777560292212866600,4.307866455078125,-0.28953152894973755,-11.006983757019043,-2.2396819591522217
1777560292231396600,4.326396728515625,-1.7730815410614014,-11.667403221130371,-4.342973232269287
1777560292259191600,4.354191650390625,0.19142581522464752,-11.26062297821045,-4.893322467803955
1777560292277721300,4.372721435546875,1.3878371715545654,-11.176874160766602,-2.8354947566986084
1777560292296251400,4.39125146484375,0.46420758962631226,-10.834700584411621,-0.45942193269729614
1777560292314781200,4.40978125,-1.373480200767517,-10.882556915283203,0.607776939868927
1777560292333311200,4.428311279296875,-0.8949156403541565,-11.483156204223633,0.4713860750198364
1777560292351841000,4.446841064453125,0.607776939868927,-12.141181945800781,-0.18424734473228455
1777560292370370800,4.465370849609375,-0.46899324655532837,-12.454642295837402,-1.2705888748168945
1777560292388900900,4.48390087890625,-0.9092726111412048,-12.720245361328125,-2.493321180343628
1777560292407431000,4.502430908203125,-0.5359922647476196,-13.919049263000488,-3.3690943717956543
1777560292425960700,4.520960693359375,-0.14835500717163086,-14.435898780822754,-3.074777126312256
1777560292444490500,4.539490478515625,0.7178468108177185,-12.705887794494629,0.02632104977965355
1777560292463020500,4.5580205078125,2.0985054969787598,-10.138389587402344,2.8522446155548096
1777560292481550600,4.576550537109375,-1.1341979503631592,-9.437292098999023,2.9288148880004883
1777560292500080400,4.595080322265625,-3.4337005615234375,-10.226923942565918,3.510270833969116
1777560292518610200,4.613610107421875,-2.823530673980713,-12.366106986999512,3.586841106414795
1777560292537140200,4.63214013671875,-0.15314064919948578,-13.344772338867188,2.967100143432617
1777560292555670300,4.650670166015625,0.9810572862625122,-12.035898208618164,1.648654818534851
1777560292574200000,4.669199951171875,-0.43549370765686035,-11.155339241027832,0.5623133182525635
1777560292592729900,4.687729736328125,-1.1318050622940063,-10.631311416625977,0.275174617767334
1777560292611260000,4.706260009765625,-1.9142581224441528,-10.466206550598145,0.038285162299871445
1777560292629790000,4.7247900390625,-2.610569477081299,-9.846465110778809,-0.20578274130821228
1777560292648319700,4.74331982421875,-1.2849457263946533,-9.186046600341797,-0.47617170214653015
1777560292666849800,4.761849853515625,-1.34476637840271,-8.882157325744629,-0.8614161610603333
1777560292685379600,4.780379638671875,-1.8113667964935303,-8.901300430297852,0.11724831163883209
1777560292703909600,4.79890966796875,-1.8999011516571045,-8.468199729919434,1.4069796800613403
1777560292722439400,4.817439453125,-1.950150489807129,-7.618747234344482,2.517249345779419
1777560292740969500,4.835969482421875,-1.3710874319076538,-6.405586242675781,3.0628130435943604
1777560292759499300,4.854499267578125,-0.5455635786056519,-5.319244861602783,2.2636101245880127
1777560292778029300,4.873029296875,0.6699903607368469,-4.989035129547119,1.6510475873947144
1777560292796559000,4.89155908203125,1.8065811395645142,-4.989035129547119,1.9262222051620483
1777560292815089200,4.910089111328125,2.4741785526275635,-4.768895626068115,2.5220351219177246
1777560292833619000,4.928618896484375,2.5459632873535156,-4.500899314880371,2.3976082801818848
1777560292852149000,4.94714892578125,2.9718856811523438,-5.065605640411377,2.407179594039917
1777560292870679000,4.965678955078125,3.7902309894561768,-6.379265308380127,2.091326951980591
1777560292889208800,4.984208740234375,4.960321426391602,-7.714460372924805,2.187039852142334
1777560292907738600,5.002738525390625,6.5180487632751465,-9.17886734008789,2.974278450012207
1777560292926268700,5.0212685546875,10.49252700805664,-12.1866455078125,3.1968109607696533
1777560292944798700,5.039798828125,14.737394332885742,-19.30768585205078,0.08374879509210587
1777560292963328500,5.05832861328125,8.425128936767578,-22.14078712463379,-3.2039895057678223
1777560292981858600,5.076858642578125,5.773880958557129,-12.732209205627441,-0.7728816866874695
1777560293000388400,5.095388427734375,4.390829563140869,-3.6442689895629883,2.5603201389312744
1777560293018918400,5.11391845703125,2.589034080505371,1.1509476900100708,2.8283164501190186
1777560293037448200,5.1324482421875,1.6223337650299072,1.2203395366668701,3.8763725757598877
1777560293055978200,5.150978271484375,5.606383323669434,-6.087340831756592,6.233303070068359
1777560293074508000,5.169508056640625,7.424928665161133,-18.563518524169922,4.991427898406982
1777560293093038000,5.1880380859375,1.2299108505249023,-25.533809661865234,5.948556900024414
1777560293111568100,5.206568115234375,-8.499305725097656,-15.670595169067383,0.11485548317432404
1777560293130098000,5.225097900390625,-5.434100151062012,-4.642076015472412,4.409972190856934
1777560293148628000,5.2436279296875,0.04307080805301666,-0.5120640397071838,6.695117950439453
1777560293167157800,5.26215771484375,0.49292147159576416,-0.8135597109794617,4.95074987411499
1777560293185687800,5.280687744140625,-3.840480327606201,-3.1250264644622803,2.4502503871917725
1777560293204217600,5.299217529296875,-8.135597229003906,-8.188239097595215,1.277767300605774
1777560293222747600,5.31774755859375,-7.0923261642456055,-17.635103225708008,0.6245267391204834
1777560293241277400,5.33627734375,-1.978864312171936,-25.13420867919922,-3.5365917682647705
1777560293259807500,5.354807373046875,3.208775281906128,-16.015161514282227,-5.527420520782471
1777560293278337300,5.373337158203125,3.981656789779663,-10.712666511535645,-5.106283664703369
1777560293296867300,5.391867431640625,1.3256237506866455,-7.475177764892578,-2.00518536567688
1777560293315397400,5.4103974609375,-1.1054840087890625,-5.714060306549072,1.1748759746551514
1777560293333927200,5.42892724609375,-3.0580272674560547,-5.412564754486084,2.950350284576416
1777560293352457000,5.44745703125,-2.210968017578125,-6.372086524963379,3.2518460750579834
1777560293370987000,5.465987060546875,-0.5575276613235474,-9.011369705200195,2.2540390491485596
1777560293389517000,5.48451708984375,1.4979069232940674,-12.081361770629883,-0.09092725813388824
1777560293408046800,5.503046875,2.2157537937164307,-11.59561824798584,-1.8975083827972412
1777560293426577000,5.521576904296875,1.1868400573730469,-9.281759262084961,-2.273181438446045
1777560293445106700,5.540106689453125,-1.7587246894836426,-7.5637125968933105,-1.3088740110397339
1777560293463636700,5.55863671875,-4.113262176513672,-7.168896675109863,0.007178467698395252
1777560293482166500,5.57716650390625,-2.833101987838745,-7.747959613800049,0.31345975399017334
1777560293500696600,5.595696533203125,-0.41874396800994873,-8.803194046020508,-0.5575276613235474
1777560293519226600,5.6142265625,0.3278166949748993,-9.573683738708496,-1.3304094076156616
1777560293537756400,5.63275634765625,-0.3900300860404968,-9.908679008483887,-1.4428720474243164
1777560293556286200,5.6512861328125,-1.1868400573730469,-10.100104331970215,-0.8877372145652771
1777560293574816300,5.669816162109375,-1.0001999139785767,-10.078569412231445,-0.2560320198535919
1777560293593346300,5.68834619140625,-0.30149564146995544,-10.26042366027832,-0.39960137009620667
1777560293611876400,5.70687646484375,0.059820566326379776,-10.74855899810791,-1.1078768968582153
1777560293630406100,5.72540625,0.11006984114646912,-10.98305606842041,-1.5481562614440918
1777560293648936000,5.74393603515625,-1.2011969089508057,-10.77966594696045,-1.3304094076156616
1777560293667466000,5.762466064453125,-2.2707886695861816,-10.999805450439453,-0.5407779216766357
1777560293685996000,5.78099609375,-1.0552347898483276,-11.60519027709961,0.17228323221206665
1777560293704525800,5.79952587890625,1.1748759746551514,-12.275179862976074,-0.08374879509210587
1777560293723055900,5.818055908203125,0.9403793215751648,-12.095718383789062,-0.5934200286865234
1777560293741585700,5.836585693359375,-0.3158525824546814,-12.52881908416748,-2.4358935356140137
1777560293760115700,5.85511572265625,-1.1820544004440308,-13.342378616333008,-4.060619831085205
1777560293778645500,5.8736455078125,-0.8374879360198975,-13.971691131591797,-4.752145767211914
1777560293797175600,5.892175537109375,0.5551348328590393,-13.50030517578125,-2.8522446155548096
1777560293815705600,5.91070556640625,1.3567304611206055,-10.578668594360352,1.5481562614440918
1777560293834235400,5.9292353515625,1.7060825824737549,-8.975478172302246,2.7278177738189697
1777560293852765400,5.947765380859375,0.5599204897880554,-8.762516975402832,2.1032910346984863
1777560293871295200,5.966295166015625,-1.9764715433120728,-10.164710998535156,2.1750757694244385
1777560293889825300,5.9848251953125,-3.294916868209839,-12.564711570739746,2.6249263286590576
1777560293908355000,6.00335498046875,-1.5242279767990112,-13.682159423828125,2.744567632675171
1777560293926885000,6.021885009765625,0.16510476171970367,-12.674781799316406,1.7132610082626343
1777560293945415200,6.040415283203125,0.02632104977965355,-11.528619766235352,0.6747759580612183
1777560293963945000,6.058945068359375,-1.5194423198699951,-11.191231727600098,0.07896314561367035
1777560293982474800,6.077474853515625,-2.620140790939331,-10.784451484680176,-0.17946170270442963
1777560294001004800,6.0960048828125,0.5742774605751038,-9.877572059631348,0.04785645380616188
1777560294019534800,6.114534912109375,0.9619147181510925,-9.882357597351074,-0.2225325107574463
1777560294038065000,6.13306494140625,-1.2035897970199585,-9.760323524475098,-0.2560320198535919
1777560294056594700,6.1515947265625,-1.672582983970642,-9.20997428894043,0.4785645306110382
1777560294075124700,6.170124755859375,-1.9022940397262573,-8.049455642700195,1.5720844268798828
1777560294093654500,6.188654541015625,-2.6009981632232666,-6.829115867614746,2.390429735183716
1777560294112184600,6.2071845703125,-1.4141582250595093,-5.826523303985596,2.469393014907837
1777560294130714400,6.22571435546875,-0.5048855543136597,-5.410171985626221,2.0650060176849365
1777560294149244400,6.244244384765625,0.4426721930503845,-5.419743061065674,1.9405791759490967
1777560294167774500,6.2627744140625,0.8398807644844055,-5.450850009918213,2.3736801147460938
1777560294186304300,6.28130419921875,1.6223337650299072,-5.053641319274902,2.495713949203491
1777560294204834000,6.299833984375,2.2468605041503906,-4.139583110809326,2.2133610248565674
1777560294223364000,6.318364013671875,2.885744094848633,-3.996013879776001,2.1104695796966553
1777560294241894100,6.33689404296875,3.972085475921631,-4.974678039550781,1.8951154947280884
1777560294260424000,6.355423828125,5.764309883117676,-6.618547439575195,2.225325107574463
1777560294278954000,6.3739541015625,7.688138961791992,-9.305686950683594,2.857030153274536
1777560294297483800,6.39248388671875,10.308279991149902,-13.529019355773926,3.218346357345581
1777560294316013800,6.411013916015625,12.899706840515137,-20.03989028930664,0.11246266216039658
1777560294334543600,6.429543701171875,8.209774017333984,-20.85584259033203,-2.8905298709869385
1777560294353073700,6.44807373046875,5.986842155456543,-12.485748291015625,-0.10767702013254166
1777560294371603700,6.466603759765625,4.835894584655762,-4.780859470367432,2.383251428604126
1777560294390133500,6.485133544921875,3.9744784832000732,-0.16510476171970367,2.864208698272705
1777560294408663600,6.50366357421875,2.1439690589904785,0.8350951075553894,3.4576287269592285
1777560294427193600,6.522193603515625,4.972285270690918,-3.404986619949341,4.161118507385254
1777560294445723400,6.540723388671875,8.595019340515137,-11.729616165161133,4.677968502044678
1777560294464253400,6.55925341796875,7.403393268585205,-23.20559310913086,4.230510234832764
1777560294482783200,6.577783203125,3.5581271648406982,-24.148366928100586,4.644468784332275
1777560294501313300,6.596313232421875,-5.836094379425049,-10.676774978637695,0.6005984544754028
1777560294519843300,6.61484326171875,-8.307880401611328,-1.8352949619293213,3.1657042503356934
1777560294538373000,6.633373046875,-2.0817556381225586,0.9499505758285522,7.953742504119873
1777560294556903200,6.651903076171875,1.184447169303894,0.25363919138908386,7.384250640869141
1777560294575433000,6.670432861328125,-3.1178479194641113,-2.392822742462158,3.1680972576141357
1777560294593963000,6.688962890625,-8.535198211669922,-8.082955360412598,0.7800601720809937
1777560294612492800,6.707492919921875,-6.597012042999268,-18.862621307373047,-0.39960137009620667
1777560294631022800,6.72602294921875,-2.478964328765869,-26.715864181518555,-5.898307800292969
1777560294649553000,6.744552978515625,2.957528829574585,-16.9603271484375,-7.343572616577148
1777560294668082700,6.763082763671875,3.759124279022217,-10.671989440917969,-6.439085960388184
1777560294686612700,6.78161279296875,1.8113667964935303,-7.2430739402771,-2.335394859313965
1777560294705142500,6.800142578125,-1.196411371231079,-5.850451469421387,0.9595218896865845
1777560294723672600,6.818672607421875,-3.3930225372314453,-5.414957523345947,2.7565317153930664
1777560294742202400,6.837202392578125,-1.6175481081008911,-6.422336101531982,2.9240293502807617
1777560294760732400,6.855732421875,0.30149564146995544,-8.681160926818848,2.172683000564575
1777560294779262500,6.874262451171875,2.139183521270752,-10.636096954345703,0.6556333899497986
1777560294797792300,6.892792236328125,3.3786656856536865,-10.49970531463623,-0.9284151792526245
1777560294816322300,6.911322265625,0.8398807644844055,-8.927620887756348,-1.6342978477478027
1777560294834852000,6.92985205078125,-1.093519926071167,-8.312665939331055,-2.0027925968170166
1777560294853382100,6.948382080078125,-3.31884503364563,-7.793423175811768,-0.8470591902732849
1777560294871912000,6.966911865234375,-3.5820555686950684,-8.166703224182129,0.059820566326379776
1777560294890442000,6.98544189453125,-0.031106693670153618,-9.492327690124512,-0.040677983313798904
1777560294908972000,7.003971923828125,2.242074728012085,-10.956734657287598,-0.882951557636261
1777560294927501800,7.022501708984375,1.1078768968582153,-11.593225479125977,-1.2801600694656372
1777560294946031900,7.041031982421875,-1.0097711086273193,-11.251051902770996,-0.3086741268634796
1777560294964561700,7.059561767578125,-2.0099709033966064,-10.526026725769043,0.5670989751815796
1777560294983091700,7.078091796875,-0.9379864931106567,-10.068997383117676,0.4833501875400543
1777560295001621800,7.096621826171875,-0.1818545162677765,-10.052248001098633,-0.6771687865257263
1777560295020151600,7.115151611328125,-0.7465606927871704,-10.839486122131348,-1.3399807214736938
1777560295038681600,7.133681640625,-0.7465606927871704,-12.100503921508789,-0.6699903607368469
1777560295057211400,7.15221142578125,1.7754744291305542,-13.37587833404541,-0.5024927258491516
1777560295075741400,7.170741455078125,2.6177480220794678,-13.526626586914062,-1.4739787578582764
1777560295094271200,7.189271240234375,0.9332008361816406,-13.296915054321289,-3.1345977783203125
1777560295112801300,7.20780126953125,-0.20099709928035736,-14.103296279907227,-4.335794448852539
1777560295131331300,7.226331298828125,0.9451649188995361,-14.043476104736328,-4.429114818572998
1777560295149861000,7.244861083984375,0.6652047038078308,-12.32542896270752,-2.792423963546753
1777560295168391200,7.26339111328125,0.6628118753433228,-9.7005033493042,-0.47617170214653015
1777560295186921000,7.2819208984375,0.4953143000602722,-8.451449394226074,0.519242525100708
1777560295205451000,7.300450927734375,-1.1270195245742798,-9.726823806762695,1.5912270545959473
1777560295223980800,7.318980712890625,-3.3164522647857666,-12.811172485351562,3.342773199081421
1777560295242510800,7.3375107421875,-3.2350962162017822,-15.113067626953125,4.486542224884033
1777560295261041000,7.356041015625,-0.607776939868927,-14.897713661193848,3.2039895057678223
1777560295279570700,7.37457080078125,1.160519003868103,-13.222738265991211,1.7228323221206665
1777560295298100700,7.393100830078125,-1.6654045581817627,-11.834900856018066,-0.2512463629245758
1777560295316630500,7.411630615234375,-1.8185452222824097,-10.564311981201172,-0.8398807644844055
1777560295335160600,7.43016064453125,1.2346965074539185,-9.805787086486816,-0.9547362327575684
1777560295353690600,7.448690673828125,-2.344966173171997,-10.104889869689941,-1.8687944412231445
1777560295372220400,7.467220458984375,-3.3092737197875977,-9.332008361816406,-0.8422735929489136
1777560295390750500,7.48575048828125,-2.888136863708496,-7.944170951843262,0.6532405614852905
1777560295409280300,7.5042802734375,-2.847458839416504,-6.1328043937683105,1.94297194480896
1777560295427810300,7.522810302734375,-2.7876384258270264,-4.871787071228027,2.0865414142608643
1777560295446340000,7.541340087890625,-1.667797327041626,-4.046263217926025,2.304288148880005
1777560295464870100,7.5598701171875,-0.5910272002220154,-3.5341989994049072,2.1655044555664062
1777560295483400200,7.578400146484375,0.17228323221206665,-3.5772697925567627,2.1032910346984863
1777560295501930000,7.596929931640625,0.48813581466674805,-3.3882367610931396,2.478964328765869
1777560295520460000,7.6154599609375,1.3040883541107178,-3.3164522647857666,2.495713949203491
1777560295538989800,7.63398974609375,2.5387847423553467,-3.4504501819610596,2.1894326210021973
1777560295557520000,7.652519775390625,5.2737812995910645,-3.9601213932037354,2.438286304473877
1777560295576049700,7.671049560546875,9.121439933776855,-5.828916072845459,3.9146578311920166
1777560295594579700,7.689579833984375,11.782258987426758,-10.191031455993652,7.204789161682129
1777560295613109800,7.70810986328125,15.98166275024414,-21.461225509643555,4.759324073791504
1777560295631639600,7.7266396484375,9.169296264648438,-29.96292495727539,-3.7328033447265625
1777560295650169600,7.745169677734375,6.8482584953308105,-18.24527359008789,-4.402793884277344
1777560295668699400,7.763699462890625,5.113461971282959,-6.010770320892334,0.4307080805301666
1777560295687229400,7.7822294921875,5.675775527954102,-0.7441678643226624,1.3926228284835815
1777560295705759200,7.80075927734375,3.8524444103240967,-0.4450650215148926,4.871787071228027
1777560295724289300,7.819289306640625,6.3361945152282715,-9.145368576049805,5.699703693389893
1777560295742819300,7.8378193359375,2.311466693878174,-18.017953872680664,4.412364959716797
1777560295761349000,7.85634912109375,0.5862415432929993,-15.90269947052002,0.22492532432079315
1777560295779879200,7.874879150390625,-12.701102256774902,-6.692724704742432,0.5982056856155396
1777560295798409000,7.893408935546875,-2.3856441974639893,-3.211168050765991,8.157132148742676
1777560295816939000,7.91193896484375,2.2468605041503906,-2.5459632873535156,8.01356315612793
1777560295835469000,7.930468994140625,-1.00259268283844,-3.304488182067871,4.778466701507568
1777560295853998800,7.948998779296875,-7.420143127441406,-7.022934436798096,2.59621262550354
1777560295872529000,7.96752880859375,-7.451249599456787,-14.395220756530762,1.978864312171936
1777560295891058700,7.98605859375,-3.9361932277679443,-22.71027946472168,-2.557927370071411
1777560295909588700,8.004588623046875,-0.7393822073936462,-17.79302978515625,-7.489534854888916
1777560295928118500,8.023118408203125,3.8979079723358154,-12.729816436767578,-8.453842163085938
1777560295946648600,8.041648681640625,3.2470602989196777,-9.159725189208984,-5.338387489318848
1777560295965178600,8.0601787109375,0.13160525262355804,-6.927221775054932,-0.4259224236011505
1777560295983708400,8.07870849609375,-2.4909284114837646,-5.781059741973877,2.8522446155548096
1777560296002238500,8.097238525390624,-1.950150489807129,-5.615954875946045,4.560719966888428
1777560296020768300,8.115768310546875,0.397208571434021,-7.389036178588867,4.130012035369873
1777560296039298300,8.13429833984375,2.2779672145843506,-9.45882797241211,2.0195422172546387
1777560296057828000,8.152828125,1.4979069232940674,-9.78664493560791,-0.42831525206565857
1777560296076358100,8.171358154296875,0.29431718587875366,-8.958727836608887,-1.9884356260299683
1777560296094888200,8.18988818359375,-1.8089739084243774,-8.161917686462402,-2.2229323387145996
1777560296113418000,8.20841796875,-3.665804386138916,-7.501499176025391,-0.7824530005455017
1777560296131947800,8.22694775390625,-2.9072794914245605,-8.042277336120605,-0.3565305769443512
1777560296150477800,8.245477783203125,0.3900300860404968,-9.868000984191895,-1.0959128141403198
1777560296169007900,8.2640078125,1.892722725868225,-11.552547454833984,-2.2205393314361572
1777560296187538000,8.282537841796875,1.0360921621322632,-12.349357604980469,-2.531606435775757
1777560296206067700,8.301067626953126,-0.8901300430297852,-11.59561824798584,-1.2346965074539185
1777560296224597500,8.319597412109376,-0.8805587291717529,-10.533205032348633,0.47617170214653015
1777560296243127600,8.33812744140625,0.9212366938591003,-10.243673324584961,0.32542386651039124
1777560296261657600,8.35665771484375,0.9523434042930603,-10.715060234069824,-1.1222338676452637
1777560296280187400,8.3751875,-0.4378865361213684,-11.653046607971191,-1.7682958841323853
1777560296298717400,8.393717529296875,-0.9762716293334961,-12.902099609375,-1.28255295753479
1777560296317247200,8.412247314453126,-0.064606212079525,-13.935798645019531,-1.892722725868225
1777560296335777300,8.43077734375,0.6891329288482666,-13.74915885925293,-3.2446675300598145
1777560296354307000,8.44930712890625,0.42831525206565857,-13.495519638061523,-3.562912940979004
1777560296372837000,8.467837158203125,0.5934200286865234,-13.914263725280762,-2.9144580364227295
1777560296391367200,8.4863671875,0.3158525824546814,-13.081561088562012,-2.0865414142608643
1777560296409897000,8.50489697265625,1.3184453248977661,-10.884950637817383,-0.44027936458587646
1777560296428427000,8.523427001953126,1.2131611108779907,-8.793622970581055,1.0528420209884644
1777560296446956800,8.541956787109376,-1.6366907358169556,-9.181260108947754,2.2372891902923584
1777560296465486800,8.56048681640625,-3.170490026473999,-11.552547454833984,3.390629768371582
1777560296484016600,8.5790166015625,-2.7517459392547607,-14.024333953857422,4.158725738525391
1777560296502546700,8.597546630859375,-0.2273181527853012,-14.096117973327637,3.3643085956573486
1777560296521076500,8.616076416015625,1.550549030303955,-12.516855239868164,2.4765713214874268
1777560296539606500,8.6346064453125,1.3304094076156616,-11.801401138305664,1.2658032178878784
1777560296558136300,8.65313623046875,-2.572284460067749,-11.569297790527344,0.05503492057323456
1777560296576666400,8.671666259765624,-1.923829436302185,-10.356136322021484,-0.23688943684101105
1777560296595196400,8.690196533203125,-0.9858429431915283,-9.997213363647461,-1.7826528549194336
1777560296613726200,8.708726318359375,-1.8352949619293213,-9.934999465942383,-2.5052852630615234
1777560296632256300,8.72725634765625,-2.6153552532196045,-8.542376518249512,-0.7776673436164856
1777560296650786000,8.7457861328125,-2.5770699977874756,-6.364908218383789,0.7465606927871704
1777560296669316000,8.764316162109376,-2.4670002460479736,-4.78803825378418,1.5337992906570435
1777560296687846100,8.78284619140625,-2.0410776138305664,-3.900300979614258,2.132004976272583
1777560296706376000,8.8013759765625,-1.0408778190612793,-3.8883368968963623,2.3952155113220215
1777560296724905700,8.81990576171875,0,-3.689732551574707,2.328216314315796
1777560296743435800,8.838435791015625,1.2801600694656372,-2.8977081775665283,1.9166508913040161
1777560296761965800,8.8569658203125,1.8305093050003052,-2.864208698272705,1.7802600860595703
1777560296780495600,8.87549560546875,2.66560435295105,-3.3547372817993164,1.7395820617675781
1777560296799025700,8.894025634765624,4.668396949768066,-4.314259052276611,2.3641088008880615
1777560296817555500,8.912555419921874,8.317451477050781,-5.970092296600342,4.063013076782227
1777560296836085500,8.93108544921875,12.016755104064941,-10.061819076538086,6.790830612182617
1777560296854615300,8.949615234375,17.28096580505371,-21.690937042236328,4.460221290588379
1777560296873145300,8.968145263671875,10.095318794250488,-32.17628479003906,-5.556134223937988
1777560296891675100,8.986675048828126,5.934200286865234,-18.601802825927734,-5.182853698730469
1777560296910205200,9.005205078125,3.335594654083252,-5.733202934265137,-0.2847459018230438
1777560296928735000,9.02373486328125,2.7182464599609375,0.8685946464538574,0.46420758962631226
1777560296947265000,9.04226513671875,3.3571300506591797,3.902693748474121,2.194218397140503
1777560296965795000,9.060795166015625,5.9916276931762695,-3.1561331748962402,2.4813570976257324
1777560296984324900,9.079324951171875,5.441278457641602,-13.895120620727539,4.838287353515625
1777560297002854700,9.097854736328125,0.9212366938591003,-24.239294052124023,10.511670112609863
1777560297021384700,9.116384765625,-14.58186149597168,-18.72623062133789,3.326023578643799
1777560297039914800,9.134914794921874,-5.970092296600342,-7.659425258636475,5.477170944213867
1777560297058444500,9.153444580078125,0.9619147181510925,-2.218146562576294,6.309873104095459
1777560297076974600,9.171974609375,0.7752745151519775,-0.040677983313798904,4.666004180908203
1777560297095504400,9.19050439453125,-4.252045631408691,-2.0865414142608643,1.5672988891601562
1777560297114034400,9.209034423828125,-7.585247993469238,-7.977670669555664,0.40677985548973083
1777560297132564500,9.227564453125,-6.422336101531982,-22.002004623413086,-0.06699903309345245
1777560297151094300,9.24609423828125,-2.0865414142608643,-23.172094345092773,-4.034298896789551
1777560297169624000,9.2646240234375,5.304887771606445,-14.651252746582031,-6.111268997192383
1777560297188154000,9.283154052734375,4.058227062225342,-8.963513374328613,-5.072783946990967
1777560297206684200,9.30168408203125,0.8039883971214294,-6.034698486328125,-1.6366907358169556
1777560297225214000,9.3202138671875,-2.610569477081299,-4.66361141204834,1.612762451171875
1777560297243743700,9.33874365234375,-3.4002010822296143,-4.811966419219971,3.809373617172241
1777560297262273800,9.357273681640624,-2.203789710998535,-6.403193473815918,3.964907169342041
1777560297280803800,9.375803955078124,0.8039883971214294,-10.059426307678223,1.3950155973434448
1777560297299333600,9.394333740234375,1.5792629718780518,-11.820544242858887,-1.550549030303955
1777560297317863700,9.41286376953125,1.1988041400909424,-10.777273178100586,-3.1513473987579346
1777560297336393500,9.4313935546875,-0.2991028428077698,-8.530412673950195,-2.282752752304077
1777560297354923500,9.449923583984376,-2.6799614429473877,-7.41535758972168,0.17946170270442963
1777560297373453300,9.468453369140626,-1.430907964706421,-8.097311973571777,1.5696916580200195
1777560297391983400,9.4869833984375,1.3591232299804688,-9.164510726928711,1.3519448041915894
1777560297410513200,9.50551318359375,1.828116536140442,-10.542776107788086,-0.8925228714942932
1777560297429043200,9.524043212890625,-0.11724831163883209,-10.870593070983887,-2.2372891902923584
1777560297447573000,9.542572998046875,-1.5122638940811157,-10.521241188049316,-2.1056840419769287
1777560297466103000,9.56110302734375,-1.430907964706421,-10.482955932617188,-1.1820544004440308
1777560297484632800,9.5796328125,-0.8255237936973572,-10.784451484680176,-0.6125625967979431
1777560297503163000,9.598162841796874,-0.10767702013254166,-10.908878326416016,-0.7202396392822266
1777560297521692700,9.616692626953125,-0.08614161610603333,-10.695917129516602,-0.9882357716560364
1777560297540222700,9.63522265625,-0.8542376756668091,-10.796415328979492,-0.5623133182525635
1777560297558752500,9.65375244140625,-0.5407779216766357,-11.251051902770996,-0.07178468257188797
1777560297577282600,9.672282470703125,1.1629117727279663,-11.93779182434082,-0.6340979933738708
1777560297595812600,9.6908125,0.9667003750801086,-12.177074432373047,-1.672582983970642
1777560297614342400,9.70934228515625,0.6436693072319031,-12.516855239868164,-2.6081767082214355
1777560297632872200,9.7278720703125,-0.1052841991186142,-13.923834800720215,-3.704089403152466
1777560297651402200,9.74640234375,-0.17946170270442963,-14.756537437438965,-4.130012035369873
1777560297669932300,9.764932373046875,-1.1389836072921753,-13.36152172088623,-2.273181438446045
1777560297688462000,9.783462158203125,1.4859428405761719,-10.487741470336914,1.4069796800613403
1777560297706991900,9.801991943359376,1.0193424224853516,-8.980263710021973,2.675175666809082
1777560297725522000,9.82052197265625,-1.0552347898483276,-10.083354949951172,2.9359934329986572
1777560297744052000,9.839052001953124,-2.5770699977874756,-12.512069702148438,3.5126636028289795
1777560297762581800,9.857581787109375,-1.4811571836471558,-14.459827423095703,3.421736478805542
1777560297781111600,9.876111572265625,0.16031911969184875,-13.263416290283203,2.7732813358306885
1777560297799641600,9.8946416015625,0.4737788736820221,-11.167303085327148,1.9022940397262573
1777560297818171600,9.913171630859376,-2.8139593601226807,-11.042876243591309,-0.10767702013254166
1777560297836701400,9.931701416015626,-2.1343977451324463,-10.657631874084473,-0.7824530005455017
1777560297855231200,9.950231201171874,1.1820544004440308,-9.903892517089844,-0.7082754969596863
1777560297873761300,9.96876123046875,0.7728816866874695,-10.100104331970215,-2.1104695796966553
1777560297892291300,9.987291259765625,-2.720639228820801,-10.217352867126465,-2.0889341831207275
1777560297910821000,10.005821044921875,-2.5076780319213867,-9.075976371765137,-0.15314064919948578
1777560297929351000,10.024350830078125,-1.9645073413848877,-7.1856465339660645,1.672582983970642
1777560297947881000,10.042880859375,-2.407179594039917,-6.343372821807861,2.4526431560516357
1777560297966411000,10.061410888671874,-1.6893328428268433,-5.146961688995361,3.081955671310425
1777560297984940800,10.07994091796875,-0.004785645287483931,-4.278367042541504,2.612962245941162
1777560298003470600,10.098470703125,0.8925228714942932,-4.077369689941406,2.115255117416382
1777560298022000600,10.117000732421875,1.3208380937576294,-4.35254430770874,1.7826528549194336
1777560298040530700,10.13553076171875,1.6007983684539795,-4.417150497436523,1.8735800981521606
1777560298059060500,10.154060546875,1.6414763927459717,-4.2209391593933105,2.0793628692626953
1777560298077590300,10.17259033203125,2.4095723628997803,-4.096512317657471,2.4191436767578125
1777560298096120300,10.191120361328124,4.914857864379883,-4.634897232055664,2.770888566970825
1777560298114650400,10.209650390625,7.8077802658081055,-6.209374904632568,3.493520975112915
1777560298133180200,10.22818017578125,11.667403221130371,-10.217352867126465,4.7234320640563965
1777560298151710200,10.246710205078125,16.644474029541016,-21.245872497558594,1.007378339767456
1777560298170240000,10.265239990234376,8.819944381713867,-29.77389144897461,-6.3529438972473145
1777560298188770000,10.28377001953125,6.474977970123291,-16.601404190063477,-2.7972097396850586
1777560298207299800,10.3022998046875,3.7950167655944824,-5.127819061279297,2.3545374870300293
1777560298225830000,10.320829833984375,2.706282377243042,1.0289137363433838,3.19441819190979
1777560298244359700,10.339359619140625,3.211168050765991,2.825923442840576,6.130411624908447
1777560298262889500,10.357889404296875,3.620340585708618,-5.460421085357666,7.29810905456543
1777560298281419500,10.37641943359375,5.077569484710693,-17.37189292907715,8.707481384277344
1777560298299949600,10.394949462890626,-3.0245277881622314,-23.255844116210938,3.689732551574707
1777560298318479400,10.413479248046874,-8.185846328735352,-12.44985580444336,0.729810893535614
1777560298337009200,10.432009033203125,-1.2442678213119507,-4.965106964111328,5.245067119598389
1777560298355539200,10.450539306640625,0.3086741268634796,-3.4576287269592285,3.761517286300659
1777560298374069200,10.4690693359375,-1.4715858697891235,-3.2829527854919434,1.794616937637329
1777560298392599000,10.48759912109375,-5.352744102478027,-4.7712883949279785,1.373480200767517
1777560298411128800,10.50612890625,-7.743174076080322,-8.894122123718262,2.03629207611084
1777560298429659000,10.524658935546874,-5.082355499267578,-19.298114776611328,1.153340458869934
1777560298448189000,10.54318896484375,-1.7826528549194336,-20.81516456604004,-4.266402721405029
1777560298466718700,10.56171875,4.101297855377197,-14.306686401367188,-5.460421085357666
1777560298485248500,10.58024853515625,3.7184464931488037,-10.317851066589355,-4.029513359069824
1777560298503778600,10.598778564453125,0.9332008361816406,-7.57806921005249,-0.42831525206565857
1777560298522308400,10.617308349609376,-1.057627558708191,-6.120840549468994,1.9932212829589844
1777560298540838400,10.63583837890625,-2.337787628173828,-6.075376510620117,2.9048867225646973
1777560298559368200,10.6543681640625,-1.7060825824737549,-7.032505512237549,2.6177480220794678
1777560298577898200,10.672898193359375,-0.9379864931106567,-9.020941734313965,1.1629117727279663
1777560298596428000,10.691427978515625,1.184447169303894,-10.942378044128418,-1.0097711086273193
1777560298614958000,10.7099580078125,1.852044701576233,-10.559526443481445,-2.328216314315796
1777560298633488000,10.72848779296875,0.059820566326379776,-9.183652877807617,-2.3018953800201416
1777560298652018000,10.747017822265626,-3.9146578311920166,-7.716853141784668,-0.7226324677467346
1777560298670547700,10.765547607421874,-4.01754903793335,-7.348358154296875,-0.10049854964017868
1777560298689077800,10.784077880859375,-0.3158525824546814,-8.183453559875488,-0.8566305041313171
1777560298707607600,10.802607666015625,1.0767701864242554,-9.22433090209961,-1.7012969255447388
1777560298726137600,10.8211376953125,0.3684946894645691,-10.145567893981934,-2.0673987865448
1777560298744667400,10.83966748046875,-0.8183453679084778,-10.85145092010498,-1.4213366508483887
1777560298763197400,10.858197509765626,-0.9451649188995361,-10.782058715820312,-0.15553347766399384
1777560298781727200,10.876727294921874,0.11724831163883209,-10.449456214904785,0.7417750358581543
1777560298800257300,10.89525732421875,0.7178468108177185,-10.13599681854248,0.9332008361816406
1777560298818787000,10.913787109375,0.3397808074951172,-10.286744117736816,0.363709032535553
1777560298837316900,10.93231689453125,-0.5264210104942322,-10.38485050201416,-0.009571290574967861
1777560298855847000,10.950846923828125,-1.4069796800613403,-10.26760196685791,0.04307080805301666
1777560298874376700,10.969376708984376,-1.6319050788879395,-10.145567893981934,0.34695929288864136
1777560298892906800,10.98790673828125,-0.7369893789291382,-10.236495018005371,0.02871387079358101
1777560298911436500,11.0064365234375,1.1724830865859985,-11.258230209350586,-1.2490534782409668
1777560298929966600,11.024966552734375,1.6079767942428589,-12.64606761932373,-2.297109842300415
1777560298948496400,11.043496337890625,1.1102696657180786,-13.031311988830566,-2.943171739578247
1777560298967026400,11.0620263671875,0.38763725757598877,-13.272987365722656,-3.6538400650024414
1777560298985556200,11.08055615234375,-0.2919243574142456,-13.529019355773926,-4.309473514556885
1777560299004086300,11.099086181640626,-1.210768222808838,-12.394821166992188,-4.185046672821045
1777560299022616000,11.117615966796874,1.1102696657180786,-10.715060234069824,-1.9597218036651611
1777560299041146000,11.13614599609375,1.5625132322311401,-9.121439933776855,1.545763373374939
1777560299059676000,11.154676025390625,-0.14117653667926788,-10.540383338928223,2.4598217010498047
1777560299078205700,11.173205810546875,-1.7371892929077148,-13.450056076049805,3.476771354675293
1777560299096735700,11.19173583984375,-1.8951154947280884,-15.850057601928711,3.90987229347229
1777560299115265800,11.210265869140626,-0.8925228714942932,-15.531811714172363,3.13220477104187
1777560299133795600,11.228795654296874,-0.576670229434967,-13.076775550842285,2.342573404312134
1777560299152325400,11.247325439453125,-2.445464849472046,-11.236695289611816,0.8590233325958252
1777560299170855400,11.26585546875,-2.1678972244262695,-10.198209762573242,-0.35892340540885925
1777560299189385200,11.28438525390625,0.2991028428077698,-9.635896682739258,-1.0289137363433838
1777560299207915300,11.302915283203125,0.6364908218383789,-9.8871431350708,-2.746960401535034
1777560299226445000,11.321445068359376,-1.3663017749786377,-9.738788604736328,-2.579462766647339
1777560299244975000,11.33997509765625,-2.392822742462158,-8.346165657043457,-0.23449662327766418
1777560299263505000,11.3585048828125,-2.495713949203491,-6.530013084411621,1.3806586265563965
1777560299282035000,11.377034912109375,-3.043670415878296,-5.551348686218262,2.1607189178466797
1777560299300564700,11.395564697265625,-2.187039852142334,-5.053641319274902,2.737389087677002
1777560299319094800,11.4140947265625,-1.495514154434204,-4.627718925476074,2.6392834186553955
1777560299337624600,11.43262451171875,0.3900300860404968,-4.321437835693359,2.1894326210021973
1777560299356154400,11.451154296875,0.8422735929489136,-4.503292083740234,2.03629207611084
1777560299374684400,11.469684326171874,2.0961127281188965,-4.922036170959473,2.2851455211639404
1777560299393214500,11.48821435546875,2.7254250049591064,-5.146961688995361,2.421536445617676
1777560299411744300,11.506744140625,3.2207393646240234,-5.3312087059021,2.6249263286590576
1777560299430274000,11.525274169921875,5.266602516174316,-6.302694797515869,2.7732813358306885
1777560299448804000,11.54380419921875,7.41535758972168,-8.181060791015625,3.3020951747894287
1777560299467334000,11.562333984375,8.93958568572998,-11.172088623046875,3.7734813690185547
1777560299485864000,11.580864013671874,11.093125343322754,-15.340386390686035,2.699103832244873
1777560299504393700,11.599393798828125,11.255837440490723,-19.51825523376465,-1.0600204467773438
1777560299522923500,11.617923583984375,7.403393268585205,-18.793228149414062,-3.761517286300659
1777560299541453600,11.63645361328125,5.632704734802246,-11.229516983032227,-0.8159525394439697
1777560299559983600,11.654983642578125,4.333401679992676,-4.3549370765686035,2.1583259105682373
1777560299578513400,11.673513427734376,4.12761926651001,-0.4331009089946747,2.9240293502807617
1777560299597043200,11.692043212890624,2.9623143672943115,-0.5024927258491516,4.0797624588012695
1777560299615573200,11.7105732421875,4.338187217712402,-5.391029357910156,4.622933387756348
1777560299634103000,11.72910302734375,9.276973724365234,-12.772887229919434,5.7858452796936035
1777560299652633000,11.747633056640625,4.886143684387207,-20.295921325683594,5.498706340789795
1777560299671163000,11.766162841796875,1.069591760635376,-19.0588321685791,3.586841106414795
1777560299689692700,11.784692626953126,-6.723831653594971,-9.008976936340332,1.1748759746551514
1777560299708222700,11.80322265625,-4.553541660308838,-2.562713146209717,4.759324073791504
1777560299726752800,11.821752685546874,-1.5864413976669312,-1.129412293434143,6.008377552032471
1777560299745282600,11.840282470703125,-0.3756731450557709,-1.6845471858978271,4.328616142272949
1777560299763812600,11.8588125,-4.022335052490234,-3.9146578311920166,1.6271194219589233
1777560299782342400,11.87734228515625,-7.061219692230225,-9.858428955078125,-0.14835500717163086
1777560299800872200,11.8958720703125,-4.137190341949463,-21.18126678466797,-1.2801600694656372
1777560299819402200,11.91440234375,-1.5864413976669312,-22.9902400970459,-5.709274768829346
1777560299837932000,11.93293212890625,2.4574289321899414,-15.196816444396973,-6.726224422454834
1777560299856462000,11.951462158203125,4.120440483093262,-10.322636604309082,-3.9122650623321533
1777560299874991900,11.969991943359375,1.9932212829589844,-7.252645492553711,0.09810572862625122
1777560299893521700,11.988521728515625,-1.2059825658798218,-5.450850009918213,2.9718856811523438
1777560299912051700,12.0070517578125,-3.845266103744507,-4.922036170959473,4.3788652420043945
1777560299930581800,12.025581787109376,-1.9381862878799438,-6.57547664642334,3.2279176712036133
1777560299949111600,12.044111572265624,0.2105683982372284,-9.265008926391602,1.124626636505127
1777560299967641300,12.062641357421874,1.9357935190200806,-10.38485050201416,-0.7561319470405579
1777560299986171400,12.08117138671875,1.856830358505249,-9.681360244750977,-1.97407865524292
1777560300004701200,12.099701171875,-0.2967100143432617,-8.805587768554688,-2.2157537937164307
1777560300023231200,12.118231201171875,-3.0269205570220947,-7.76470947265625,-1.1988041400909424
1777560300041761000,12.136760986328126,-2.801995277404785,-7.657032489776611,-0.2991028428077698
1777560300060290800,12.155290771484376,0.1339980661869049,-8.884550094604492,-0.1746760457754135
1777560300078820900,12.17382080078125,2.108076810836792,-10.327422142028809,-0.9355936646461487
1777560300097350700,12.1923505859375,1.7682958841323853,-11.413763999938965,-1.6821542978286743
1777560300115880700,12.210880615234375,0.605384111404419,-11.514262199401855,-1.8759729862213135
1777560300134410500,12.229410400390625,-0.8255237936973572,-10.767702102661133,-0.9906286001205444
1777560300152940300,12.247940185546875,-2.155933141708374,-9.810572624206543,-0.15074782073497772
1777560300171470300,12.26647021484375,-2.043470621109009,-9.781859397888184,0
1777560300190001000,12.2850009765625,-0.2512463629245758,-10.15753173828125,0.44027936458587646
1777560300208530200,12.3035302734375,0.3900300860404968,-11.157732009887695,0.46420758962631226
1777560300227060000,12.32206005859375,0.21296121180057526,-13.052847862243652,-0.6173482537269592
1777560300245590000,12.340590087890625,1.0265209674835205,-14.297115325927734,-1.8855443000793457
1777560300264119800,12.359119873046875,2.2851455211639404,-13.844871520996094,-3.184846878051758
1777560300282649900,12.37764990234375,1.7730815410614014,-12.911670684814453,-4.108476638793945
1777560300301179600,12.3961796875,0.5383850932121277,-13.170095443725586,-4.347758769989014
1777560300319709400,12.41470947265625,-0.7082754969596863,-12.100503921508789,-3.053241729736328
1777560300338239500,12.433239501953125,0.15314064919948578,-10.980663299560547,-1.672582983970642
1777560300356769300,12.451769287109375,1.9956140518188477,-9.561718940734863,0.3684946894645691
1777560300375299300,12.47029931640625,-0.014356935396790504,-9.43489933013916,1.428515076637268
1777560300393829000,12.4888291015625,-2.7278177738189697,-11.461620330810547,2.9790642261505127
1777560300412359200,12.507359130859374,-2.8426733016967773,-14.998211860656738,4.840680122375488
1777560300430889000,12.525888916015624,-0.007178467698395252,-16.177873611450195,4.0079779624938965
1777560300449419000,12.5444189453125,2.3186452388763428,-14.246866226196289,2.1511476039886475
1777560300467948800,12.56294873046875,-0.5216353535652161,-12.198610305786133,-0.07178468257188797
1777560300486478800,12.581478759765625,-5.343173027038574,-11.052447319030762,-2.0482561588287354
1777560300505008600,12.600008544921875,-1.1653046607971191,-9.56650447845459,-1.4452649354934692
1777560300523538400,12.618538330078126,0.9595218896865845,-9.262616157531738,-1.7515461444854736
1777560300542068500,12.637068359375,-2.0410776138305664,-9.145368576049805,-1.6701902151107788
1777560300560598300,12.655598388671875,-3.5748770236968994,-7.95134973526001,-0.08853443711996078
1777560300579128300,12.67412841796875,-2.9551360607147217,-6.106483459472656,1.5601203441619873
1777560300597658000,12.692658203125,-2.2683959007263184,-5.2115678787231445,2.5220351219177246
1777560300616188000,12.71118798828125,-2.3258235454559326,-4.8813581466674805,3.1752755641937256
1777560300634718000,12.729718017578126,-0.9523434042930603,-4.615755081176758,3.249453067779541
1777560300662513000,12.757512939453125,0.4163511395454407,-4.118047714233398,2.4430718421936035
1777560300681042700,12.776042724609376,1.306481122970581,-3.8883368968963623,2.3186452388763428
1777560300699572500,12.794572509765626,2.400001049041748,-3.864408493041992,2.311466693878174
1777560300718102500,12.8131025390625,3.5198421478271484,-4.2281174659729,2.3473589420318604
1777560300736632300,12.83163232421875,4.711467742919922,-5.132604598999023,2.4263222217559814
1777560300755162400,12.850162353515625,7.032505512237549,-6.668796539306641,3.232703447341919
1777560300773692200,12.868692138671875,9.114261627197266,-9.772287368774414,4.249652862548828
1777560300792222200,12.88722216796875,14.258830070495605,-17.0201473236084,2.878565549850464
1777560300810752000,12.905751953125,13.914263725280762,-28.46023178100586,-3.6634113788604736
1777560300829282000,12.924281982421874,6.252445697784424,-21.968503952026367,-5.587240695953369
1777560300847811800,12.942811767578124,3.91705060005188,-8.755337715148926,-1.2801600694656372
1777560300866341600,12.961341552734375,3.0340991020202637,-0.7417750358581543,-0.12442677468061447
1777560300884871700,12.97987158203125,3.6323046684265137,2.861815929412842,0.1579262912273407
1777560300903401500,12.9984013671875,4.005585193634033,-0.6747759580612183,2.9168508052825928
1777560300921931500,13.016931640625,7.448856830596924,-10.224531173706055,4.295116424560547
1777560300940461300,13.03546142578125,4.036691665649414,-21.913469314575195,7.987242221832275
1777560300958991000,13.0539912109375,-0.6699903607368469,-24.61018180847168,5.087141036987305
1777560300977521200,13.072521240234375,-13.423734664916992,-10.380064964294434,4.034298896789551
1777560300996051200,13.09105126953125,-4.972285270690918,-2.6081767082214355,7.652246952056885
1777560301014581000,13.1095810546875,0.8039883971214294,0.3613162338733673,7.683353424072266
1777560301033111000,13.128111083984376,1.8496519327163696,1.3806586265563965,6.642475605010986
1777560301051640800,13.146640869140626,-3.5294134616851807,-1.950150489807129,3.4432718753814697
1777560301070170600,13.165170654296874,-8.709874153137207,-9.944570541381836,1.7563318014144897
1777560301088700700,13.18370068359375,-8.630910873413086,-27.13221549987793,-3.38105845451355
1777560301107230500,13.20223046875,-0.5599204897880554,-23.29412841796875,-8.85344409942627
1777560301125760500,13.220760498046875,7.1473612785339355,-13.914263725280762,-9.061619758605957
1777560301144290300,13.239290283203125,3.6370904445648193,-8.920442581176758,-6.2428741455078125
1777560301162820000,13.257820068359376,0.059820566326379776,-6.6113691329956055,-0.9116654396057129
1777560301181350100,13.27635009765625,-2.03629207611084,-5.410171985626221,3.0580272674560547
1777560301199880200,13.294880126953124,-2.7014968395233154,-5.2115678787231445,6.113661766052246
1777560301218410000,13.313409912109375,-0.8327022790908813,-7.003791809082031,5.5034918785095215
1777560301236939800,13.331939697265625,1.7467604875564575,-9.396614074707031,2.644068956375122
1777560301255469800,13.3504697265625,2.313859462738037,-10.588240623474121,-1.0648061037063599
1777560301273999600,13.36899951171875,1.34476637840271,-9.56650447845459,-2.8522446155548096
1777560301292529700,13.38752978515625,-2.1104695796966553,-8.154739379882812,-2.4191436767578125
1777560301311059500,13.4060595703125,-4.9435715675354,-6.98704195022583,-0.3326023519039154
1777560301329589200,13.42458935546875,-2.5770699977874756,-7.932207107543945,0.44745782017707825
1777560301348119300,13.443119384765625,2.0338993072509766,-9.645467758178711,-0.20099709928035736
1777560301366649300,13.4616494140625,2.146361827850342,-11.308480262756348,-1.6007983684539795
1777560301385179100,13.48017919921875,-0.13160525262355804,-12.17946720123291,-2.3234307765960693
1777560301403709000,13.498708984375,-1.2299108505249023,-11.973684310913086,-1.6510475873947144
1777560301422239000,13.517239013671874,-0.3278166949748993,-11.164910316467285,-0.8135597109794617
1777560301440768800,13.535768798828125,0.5623133182525635,-10.674382209777832,-0.6532405614852905
1777560301459298800,13.554298828125,0.28235307335853577,-11.248659133911133,-1.3639088869094849
1777560301477828600,13.57282861328125,-0.4163511395454407,-12.497713088989258,-1.5314065217971802
1777560301496358700,13.591358642578125,0.5264210104942322,-13.2897367477417,-1.3184453248977661
1777560301514888400,13.609888427734376,2.060220241546631,-13.600804328918457,-1.8664016723632812
1777560301533418500,13.62841845703125,2.007578134536743,-12.981062889099121,-2.2947168350219727
1777560301551948300,13.6469482421875,1.0552347898483276,-12.945170402526855,-3.136990547180176
1777560301570478300,13.665478271484375,0.6149554252624512,-12.815958023071289,-3.5294134616851807
1777560301589008100,13.684008056640625,0.6532405614852905,-11.787044525146484,-3.383451223373413
1777560301607538200,13.7025380859375,0.9786644577980042,-10.303494453430176,-1.8640087842941284
1777560301626068000,13.72106787109375,-2.060220241546631,-9.638289451599121,1.3351950645446777
1777560301644598000,13.739597900390624,-3.1992039680480957,-11.85165023803711,4.192225456237793
1777560301663127800,13.7581279296875,-1.954936146736145,-14.871393203735352,6.592226505279541
1777560301681657600,13.77665771484375,0.16510476171970367,-15.251851081848145,5.606383323669434
1777560301700187600,13.795187744140625,2.9958138465881348,-13.51705551147461,2.919243574142456
1777560301718717700,13.8137177734375,2.2396819591522217,-11.375478744506836,2.2851455211639404
1777560301737247500,13.83224755859375,-2.3976082801818848,-10.593026161193848,0.17946170270442963
1777560301755777300,13.85077734375,-3.500699520111084,-10.222138404846191,-1.3902299404144287
1777560301774307300,13.869307373046874,-1.179661512374878,-10.080962181091309,-2.5292134284973145
1777560301792837000,13.887837158203125,-1.0432707071304321,-9.956535339355469,-2.7086751461029053
1777560301811367200,13.9063671875,-3.005385160446167,-8.726624488830566,-0.7680960893630981
1777560301829897000,13.92489697265625,-3.462414264678955,-6.759724140167236,1.1653046607971191
1777560301848427000,13.943427001953125,-2.6536402702331543,-5.0703911781311035,2.0410776138305664
1777560301866956800,13.961956787109376,-2.352144718170166,-3.806980848312378,2.478964328765869
1777560301885486800,13.98048681640625,-1.2729816436767578,-2.9551360607147217,2.888136863708496
1777560301904016600,13.9990166015625,-0.2512463629245758,-2.5746772289276123,2.9527430534362793
1777560301922546700,14.017546630859375,0.1698904037475586,-2.65842604637146,2.6464617252349854
1777560301941076500,14.036076416015625,1.2729816436767578,-2.8522446155548096,1.9956140518188477
1777560301959606500,14.0546064453125,3.1130621433258057,-3.548556089401245,1.3663017749786377
1777560301978136300,14.07313623046875,5.9198431968688965,-4.9124650955200195,1.5912270545959473
1777560301996666000,14.091666015625,9.89432144165039,-7.611568927764893,3.7782669067382812
1777560302015196200,14.110196044921874,12.277572631835938,-12.531211853027344,7.355536937713623
1777560302033726200,14.128726318359375,15.73998737335205,-23.004596710205078,4.945964336395264
1777560302052256000,14.147256103515625,7.551748275756836,-27.096323013305664,-3.7806596755981445
1777560302070785800,14.165785888671875,5.857629776000977,-15.74716567993164,-4.603790760040283
1777560302089315800,14.18431591796875,4.402793884277344,-5.132604598999023,-0.3158525824546814
1777560302107846000,14.202845947265626,4.41475772857666,0.35413774847984314,1.093519926071167
1777560302126375700,14.221375732421874,4.402793884277344,2.416750907897949,3.761517286300659
1777560302144905700,14.23990576171875,4.491328239440918,-4.225724697113037,6.029912948608398
1777560302163435500,14.258435546875,4.395615100860596,-14.385649681091309,8.35573673248291
1777560302181965600,14.276965576171875,3.4241292476654053,-23.22234344482422,8.848658561706543
1777560302200495400,14.295495361328125,-9.394221305847168,-17.682958602905273,-0.8374879360198975
1777560302219025400,14.314025390625,-7.611568927764893,-5.974878311157227,3.486342668533325
1777560302237555200,14.33255517578125,-0.6173482537269592,-2.7900311946868896,4.615755081176758
1777560302256085200,14.351085205078125,0.31106695532798767,-1.6055840253829956,4.242474555969238
1777560302274615000,14.369614990234375,-2.0817556381225586,-2.342573404312134,3.3379876613616943
1777560302293145000,14.38814501953125,-6.374479293823242,-6.704689025878906,2.5220351219177246
1777560302311675000,14.4066748046875,-7.159325122833252,-16.429121017456055,0.8997012972831726
1777560302330205000,14.425204833984376,-2.4981069564819336,-24.97389030456543,-5.639883041381836
1777560302348734700,14.443734619140624,3.586841106414795,-16.62293815612793,-7.685746192932129
1777560302367264800,14.4622646484375,4.73300313949585,-10.595418930053711,-6.453442573547363
1777560302385794600,14.480794677734375,1.306481122970581,-7.2813591957092285,-2.3186452388763428
1777560302404324600,14.49932470703125,-1.852044701576233,-5.424529075622559,1.4979069232940674
1777560302422854400,14.5178544921875,-2.5124638080596924,-5.008177757263184,3.964907169342041
1777560302441384400,14.536384521484376,-0.7322037220001221,-6.32662296295166,4.261617183685303
1777560302459914200,14.554914306640624,1.2681959867477417,-8.877371788024902,2.5842485427856445
1777560302478444300,14.5734443359375,1.301695466041565,-10.762916564941406,-0.11246266216039658
1777560302496974000,14.59197412109375,1.062413215637207,-10.435099601745605,-2.2468605041503906
1777560302515504000,14.610504150390625,-0.05742774158716202,-9.293723106384277,-2.3880369663238525
1777560302534034000,14.629033935546875,-3.565305709838867,-7.704888820648193,-0.5527420043945312
1777560302552564000,14.64756396484375,-4.027120590209961,-7.57806921005249,0.8590233325958252
1777560302571094000,14.666093994140626,-0.2153540402650833,-8.566305160522461,0.8374879360198975
1777560302589623800,14.684623779296874,1.7419748306274414,-10.325029373168945,-0.3565305769443512
1777560302608153900,14.70315380859375,0.6340979933738708,-11.777473449707031,-1.3232308626174927
1777560302626683600,14.72168359375,-1.2945170402526855,-11.509476661682129,-1.3256237506866455
1777560302645213700,14.740213623046875,-1.5290136337280273,-10.817951202392578,-0.7322037220001221
1777560302663743500,14.758743408203125,-0.15553347766399384,-10.325029373168945,-0.5527420043945312
1777560302682273500,14.7772734375,1.031306505203247,-10.526026725769043,-1.124626636505127
1777560302700803300,14.79580322265625,1.0552347898483276,-10.973484992980957,-1.3519448041915894
1777560302719333400,14.81433349609375,-0.059820566326379776,-11.258230209350586,-0.7728816866874695
1777560302737863400,14.832863525390625,-0.49292147159576416,-11.420942306518555,-0.038285162299871445
1777560302756393200,14.851393310546875,0.5168496966362,-11.734402656555176,-0.5048855543136597
1777560302774923000,14.869923095703125,1.368694543838501,-11.741580963134766,-1.6151553392410278
1777560302793453000,14.888453125,0.4977070987224579,-12.019147872924805,-2.548356056213379
1777560302811983000,14.906983154296874,-0.7824530005455017,-13.660624504089355,-3.0173492431640625
1777560302830513000,14.925512939453125,-1.0863415002822876,-13.871192932128906,-2.500499725341797
1777560302849043000,14.94404296875,1.428515076637268,-12.966706275939941,-0.9547362327575684
1777560302867572700,14.96257275390625,1.0001999139785767,-10.901700019836426,1.4093725681304932
1777560302886102800,14.981102783203125,-1.337587833404541,-11.071590423583984,3.0340991020202637
1777560302904632600,14.999632568359376,-2.1918256282806396,-12.533604621887207,4.429114818572998
1777560302923162600,15.01816259765625,-1.4021940231323242,-13.837693214416504,4.481756687164307
1777560302941692700,15.036692626953124,-0.0526420995593071,-12.88774299621582,2.8977081775665283
1777560302960222500,15.055222412109375,0.3684946894645691,-11.162517547607422,1.5146567821502686
1777560302978752300,15.073752197265625,-1.3615161180496216,-10.317851066589355,0.4019941985607147
1777560302997282300,15.0922822265625,-3.806980848312378,-10.707880973815918,-1.1485549211502075
1777560303015812400,15.110812255859376,-0.6867401003837585,-10.054640769958496,-0.7010970115661621
1777560303034342100,15.129342041015626,0.15074782073497772,-9.846465110778809,-1.069591760635376
1777560303052872200,15.1478720703125,-0.6747759580612183,-9.437292098999023,-0.6149554252624512
1777560303071402000,15.166402099609375,-2.306680917739868,-8.93958568572998,0.7728816866874695
1777560303089932000,15.18493212890625,-2.713460922241211,-7.886743545532227,2.1415762901306152
1777560303108462000,15.203462158203125,-2.124826431274414,-6.620940208435059,3.122633457183838
1777560303126992000,15.221991943359376,-1.8424733877182007,-5.615954875946045,3.046063184738159
1777560303145522000,15.24052197265625,-0.7369893789291382,-5.058426856994629,2.2229323387145996
1777560303164051700,15.2590517578125,0.47617170214653015,-5.024927616119385,1.667797327041626
1777560303182581800,15.277581787109375,0.7561319470405579,-5.3455657958984375,1.8113667964935303
1777560303201111600,15.296111572265625,1.825723648071289,-5.737988471984863,1.978864312171936
1777560303219641600,15.3146416015625,1.9980069398880005,-5.288137912750244,1.947757601737976
1777560303238171600,15.333171630859376,2.1535403728485107,-4.6372904777526855,1.8807586431503296
1777560303256701400,15.351701416015626,4.015156269073486,-4.931607246398926,1.97407865524292
1777560303284496400,15.379496337890625,6.63051176071167,-6.996613502502441,2.816352367401123
1777560303303026400,15.3980263671875,8.614161491394043,-9.525827407836914,3.7184464931488037
1777560303321556200,15.41655615234375,11.767901420593262,-14.847464561462402,2.5842485427856445
1777560303340086300,15.435086181640624,11.105090141296387,-21.4396915435791,-1.057627558708191
1777560303358616000,15.453615966796875,7.704888820648193,-18.924835205078125,-2.3330020904541016
1777560303377146000,15.47214599609375,5.883950710296631,-9.839286804199219,1.3040883541107178
1777560303395676000,15.490676025390625,4.077369689941406,-4.089334011077881,3.4337005615234375
1777560303414206000,15.5092060546875,1.8687944412231445,-1.2610175609588623,4.692325115203857
1777560303432736000,15.527736083984376,2.2683959007263184,-2.124826431274414,7.310073375701904
1777560303451265800,15.546265869140624,3.462414264678955,-8.018348693847656,8.429914474487305
1777560303469795800,15.5647958984375,10.083354949951172,-18.865013122558594,7.558926582336426
1777560303497590800,15.5925908203125,0.37806597352027893,-19.506290435791016,-2.304288148880005
1777560303516120800,15.611120849609375,-6.8171515464782715,-5.637490272521973,-1.0767701864242554
1777560303534650600,15.629650634765625,-3.8763725757598877,-0.5144568681716919,3.014956474304199
1777560303553180400,15.648180419921875,-0.5000999569892883,0.2799602448940277,6.3529438972473145
1777560303571710500,15.66671044921875,-0.07178468257188797,-0.7417750358581543,5.7619171142578125
1777560303590240500,15.685240478515626,-4.493721008300781,-4.627718925476074,3.311666488647461
1777560303608770300,15.703770263671874,-8.087740898132324,-12.751352310180664,1.8305093050003052
1777560303627300400,15.72230029296875,-3.6299118995666504,-24.220149993896484,-2.981456995010376
1777560303655095300,15.75009521484375,3.2231321334838867,-16.644474029541016,-7.288537979125977
1777560303673625000,15.768625,3.627519130706787,-11.241480827331543,-5.450850009918213
1777560303692155100,15.787155029296875,1.2705888748168945,-7.752745151519775,-1.4572290182113647
1777560303710685200,15.805685302734375,-1.0145567655563354,-6.288337707519531,1.7778671979904175
1777560303729215000,15.824215087890625,-2.218146562576294,-5.960521221160889,3.7902309894561768
1777560303747745000,15.8427451171875,-1.6342978477478027,-6.642475605010986,3.8883368968963623
1777560303766274800,15.86127490234375,0.14356936514377594,-8.870193481445312,2.014756679534912
1777560303784804900,15.879804931640624,1.2945170402526855,-10.461421012878418,-0.16510476171970367
1777560303803334700,15.898334716796874,2.7804598808288574,-9.798608779907227,-1.3567304611206055
1777560303821864700,15.91686474609375,1.0648061037063599,-8.812766075134277,-1.8999011516571045
1777560303840394800,15.935394775390625,-1.6175481081008911,-8.080561637878418,-1.1868400573730469
1777560303858924500,15.953924560546875,-3.469592809677124,-8.200202941894531,-0.6867401003837585
1777560303877454600,15.97245458984375,-2.6225335597991943,-8.757730484008789,-0.3852444589138031
1777560303895984600,15.990984619140624,-0.4977070987224579,-9.53779125213623,-0.20099709928035736
1777560303914514400,16.009514404296876,0.7728816866874695,-10.243673324584961,-0.2727817893028259
1777560303933044500,16.02804443359375,0.8901300430297852,-10.803594589233398,-0.4091726839542389
1777560303951574300,16.04657421875,0.09571290761232376,-10.942378044128418,-0.4378865361213684
1777560303970104300,16.065104248046875,-0.5742774605751038,-10.71984577178955,-0.27756741642951965
1777560303988634400,16.08363427734375,-0.3613162338733673,-10.159924507141113,-0.4331009089946747
1777560304007164200,16.1021640625,0.3732803463935852,-10.009177207946777,-0.8374879360198975
1777560304025694200,16.120694091796874,0.8733802437782288,-10.607382774353027,-1.3304094076156616
1777560304044224000,16.13922412109375,-0.31106695532798767,-11.708081245422363,-1.588834285736084
1777560304062754000,16.157754150390623,-1.1389836072921753,-12.622138977050781,-1.5625132322311401
1777560304081284000,16.1762841796875,-0.20338992774486542,-12.839886665344238,-1.5194423198699951
1777560304099814000,16.19481396484375,1.222732424736023,-12.674781799316406,-1.9692929983139038
1777560304118344000,16.213343994140626,1.4428720474243164,-13.335200309753418,-2.861815929412842
1777560304136873700,16.231873779296876,0.3756731450557709,-14.196617126464844,-2.964707374572754
1777560304155403800,16.25040380859375,0.33738797903060913,-13.560126304626465,-2.289931297302246
1777560304173933800,16.268933837890625,1.8496519327163696,-11.248659133911133,-0.33020952343940735
1777560304192463600,16.287463623046875,1.8903298377990723,-8.901300430297852,1.007378339767456
1777560304210993700,16.30599365234375,-1.4524433612823486,-8.630910873413086,1.8783657550811768
1777560304229523500,16.3245234375,-2.864208698272705,-10.430314064025879,3.1680972576141357
1777560304248053500,16.343053466796874,-2.2995026111602783,-13.433306694030762,3.562912940979004
1777560304266583300,16.361583251953125,-0.17706887423992157,-14.189437866210938,3.28773832321167
1777560304285113300,16.38011328125,1.2083754539489746,-13.167702674865723,2.4598217010498047
1777560304303643400,16.398643310546873,1.0169496536254883,-12.043076515197754,1.8376877307891846
1777560304322173400,16.41717333984375,-1.6965112686157227,-11.760723114013672,0.5694918036460876
1777560304340703200,16.435703125,-2.100898265838623,-10.87298583984375,-0.24406790733337402
1777560304359233300,16.4542333984375,-0.20578274130821228,-9.91825008392334,-1.1868400573730469
1777560304377763300,16.472763427734375,-0.48574298620224,-9.748359680175781,-2.038684844970703
1777560304396293000,16.491293212890625,-2.7086751461029053,-9.176474571228027,-0.8398807644844055
1777560304414823200,16.5098232421875,-3.184846878051758,-7.448856830596924,0.8470591902732849
1777560304433353000,16.52835302734375,-1.9645073413848877,-5.816951751708984,1.978864312171936
1777560304451883000,16.546883056640624,-1.5912270545959473,-5.036891460418701,2.4358935356140137
1777560304470412800,16.565412841796874,-1.2418749332427979,-4.321437835693359,2.6009981632232666
1777560304488942800,16.58394287109375,0.1986042857170105,-4.046263217926025,2.4574289321899414
1777560304507473000,16.602472900390627,0.2273181527853012,-4.314259052276611,2.2205393314361572
1777560304526002700,16.621002685546873,1.0193424224853516,-4.59421968460083,2.282752752304077
1777560304544532700,16.63953271484375,2.0889341831207275,-4.321437835693359,2.4358935356140137
1777560304563062800,16.658062744140626,2.7326035499572754,-3.9744784832000732,2.4358935356140137
1777560304581592600,16.676592529296876,4.694717884063721,-4.778466701507568,2.8043880462646484
1777560304600122600,16.69512255859375,7.372286796569824,-6.896114826202393,4.053441524505615
1777560304618652400,16.71365234375,10.755738258361816,-11.392229080200195,6.161518096923828
1777560304637182500,16.732182373046875,16.237693786621094,-22.085752487182617,3.3020951747894287
1777560304655712500,16.75071240234375,7.910671710968018,-29.245079040527344,-5.429314613342285
1777560304674242300,16.7692421875,5.66620397567749,-17.436498641967773,-4.60857629776001
1777560304692772400,16.7877724609375,4.596612453460693,-5.520241737365723,0.31106695532798767
1777560304711302400,16.806302490234376,4.015156269073486,1.0049854516983032,0.47617170214653015
1777560304729832200,16.824832275390627,1.947757601737976,4.108476638793945,1.6630117893218994
1777560304748362200,16.8433623046875,1.9094724655151367,-0.698704183101654,4.242474555969238
1777560304766892300,16.861892333984375,4.278367042541504,-9.992427825927734,5.335994720458984
1777560304785422000,16.880422119140626,7.427321434020996,-20.717058181762695,7.22871732711792
1777560304803952000,16.8989521484375,2.3545374870300293,-27.14657211303711,3.7950167655944824
1777560304822482000,16.91748193359375,-9.889535903930664,-13.658231735229492,0.27038896083831787
1777560304841012000,16.936011962890625,-4.0319061279296875,-4.2281174659729,4.541577339172363
1777560304859541800,16.954541748046875,0.6317051649093628,-0.8327022790908813,5.469992637634277
1777560304878071800,16.97307177734375,0.9810572862625122,0.17946170270442963,5.613562107086182
1777560304896601900,16.991601806640624,-2.5076780319213867,-1.2993026971817017,4.024727821350098
1777560304915131600,17.010131591796874,-7.0923261642456055,-6.92482852935791,2.122433662414551
1777560304933661700,17.02866162109375,-8.257631301879883,-17.654245376586914,0.7226324677467346
1777560304952191700,17.047191650390626,-2.344966173171997,-24.55035972595215,-4.35254430770874
1777560304970721500,17.065721435546877,5.580062389373779,-17.070396423339844,-6.692724704742432
1777560304989251600,17.08425146484375,5.010570526123047,-11.229516983032227,-4.7473602294921875
1777560305007781600,17.10278173828125,0.9547362327575684,-7.491927623748779,-0.9762716293334961
1777560305026311400,17.1213115234375,-0.9475577473640442,-5.936593055725098,1.801795482635498
1777560305044841500,17.139841552734374,-2.2540390491485596,-5.548955917358398,3.074777126312256
1777560305063371500,17.15837158203125,-1.9764715433120728,-6.211767673492432,3.4169507026672363
1777560305081901300,17.1769013671875,-0.5120640397071838,-8.539983749389648,2.266003131866455
1777560305100431400,17.195431396484373,1.648654818534851,-10.786844253540039,0.5958128571510315
1777560305118961200,17.213961181640624,1.5290136337280273,-10.569097518920898,-0.9667003750801086
1777560305137491200,17.2324912109375,0.9355936646461487,-9.659825325012207,-2.548356056213379
1777560305156021200,17.251021240234376,-0.916451096534729,-8.374878883361816,-2.4287149906158447
1777560305174551000,17.269551025390626,-3.0891339778900146,-7.779066562652588,-1.490728497505188
1777560305193081000,17.2880810546875,-3.0077781677246094,-8.037490844726562,-0.5383850932121277
1777560305211611100,17.306611083984375,-0.45942193269729614,-8.863015174865723,-0.04307080805301666
1777560305230141000,17.325140869140625,0.7776673436164856,-10.116853713989258,-0.2392822653055191
1777560305248671000,17.3436708984375,0.7202396392822266,-10.841879844665527,-0.4570291340351105
1777560305267201000,17.362200927734374,-0.05503492057323456,-10.839486122131348,-0.39960137009620667
1777560305285730800,17.380730712890625,-0.727418065071106,-10.552348136901855,0.20817556977272034
1777560305304260900,17.3992607421875,-0.7250252366065979,-10.334601402282715,0.3086741268634796
1777560305322791000,17.417791015625,-0.5575276613235474,-10.289137840270996,-0.27756741642951965
1777560305341320700,17.43632080078125,-0.08853443711996078,-10.573883056640625,-0.8614161610603333
1777560305359850800,17.454850830078126,0.038285162299871445,-10.899307250976562,-1.1198409795761108
1777560305378380500,17.473380615234376,-0.7704889178276062,-11.138589859008789,-0.7752745151519775
1777560305396910600,17.49191064453125,-0.6867401003837585,-11.418549537658691,-0.3756731450557709
1777560305415440600,17.510440673828125,0.24406790733337402,-11.834900856018066,-1.0600204467773438
1777560305433970400,17.528970458984375,0.9427721500396729,-12.416357040405273,-2.761317253112793
1777560305452500500,17.54750048828125,0.9116654396057129,-12.591032981872559,-3.421736478805542
1777560305471030300,17.5660302734375,-0.46899324655532837,-13.514662742614746,-3.775874137878418
1777560305489560300,17.584560302734374,-0.05503492057323456,-14.017154693603516,-3.421736478805542
1777560305508090400,17.60309033203125,0.31824541091918945,-12.349357604980469,-1.1389836072921753
1777560305526620400,17.621620361328127,1.7419748306274414,-9.899106979370117,1.6055840253829956
1777560305545150200,17.640150146484373,1.648654818534851,-8.23848819732666,2.4047868251800537
1777560305563680300,17.65868017578125,-1.6271194219589233,-8.831908226013184,2.455035924911499
1777560305582210300,17.677210205078126,-3.0029923915863037,-11.155339241027832,2.9072794914245605
1777560305600740000,17.695739990234376,-2.7493531703948975,-13.85922908782959,3.4959139823913574
1777560305619270100,17.714270263671875,0.019142581149935722,-14.474184036254883,3.2231321334838867
1777560305637800200,17.73280029296875,1.246660590171814,-12.830314636230469,1.8903298377990723
1777560305656330000,17.751330078125,0.33020952343940735,-11.667403221130371,0.9188438653945923
1777560305674860000,17.769860107421874,-2.1822543144226074,-10.935199737548828,0.1818545162677765
1777560305693390000,17.78839013671875,-1.1988041400909424,-10.518848419189453,-0.4450650215148926
1777560305711919900,17.806919921875,1.210768222808838,-10.447063446044922,-1.919043779373169
1777560305730450000,17.825449951171876,-0.882951557636261,-10.712666511535645,-2.416750907897949
1777560305748980000,17.84397998046875,-2.794816732406616,-9.688538551330566,-0.7154539823532104
1777560305767509800,17.862509765625,-2.7876384258270264,-7.4847493171691895,0.6628118753433228
1777560305786039800,17.881039794921875,-2.550748825073242,-6.032305717468262,1.6223337650299072
1777560305804569600,17.899569580078126,-1.8903298377990723,-5.079962253570557,2.4813570976257324
1777560305823099600,17.918099609375,-1.3423734903335571,-4.01754903793335,2.8689942359924316
1777560305841629700,17.936629638671874,0.38285163044929504,-3.596412420272827,2.447857618331909
1777560305869424600,17.964424560546874,1.7180466651916504,-3.603590965270996,2.0889341831207275
1777560305887954700,17.98295458984375,2.517249345779419,-3.675375461578369,2.117648124694824
1777560305906484500,18.001484375,2.854637384414673,-3.8500516414642334,2.1056840419769287
1777560305925014500,18.0200146484375,4.254438877105713,-4.529613494873047,2.321038007736206
1777560305943544600,18.038544677734375,6.147161483764648,-6.214160442352295,2.981456995010376
1777560305962074400,18.057074462890625,8.212167739868164,-8.855836868286133,5.003392219543457
1777560305980604400,18.0756044921875,13.765908241271973,-15.084354400634766,6.008377552032471
1777560305999134500,18.094134521484374,13.062418937683105,-26.991039276123047,-0.7250252366065979
1777560306017664300,18.112664306640625,6.362515449523926,-24.684358596801758,-5.764309883117676
1777560306036194300,18.1311943359375,4.924428939819336,-10.76530933380127,-0.8015955686569214
1777560306054724400,18.149724365234373,2.9790642261505127,-2.2301106452941895,2.306680917739868
1777560306073254100,18.168254150390624,2.280359983444214,2.1200408935546875,3.084348440170288
1777560306091784200,18.1867841796875,2.2636101245880127,2.043470621109009,4.051048755645752
1777560306119579100,18.2145791015625,6.5491557121276855,-9.731609344482422,3.675375461578369
1777560306138109000,18.23310888671875,5.974878311157227,-20.001604080200195,7.197610378265381
1777560306156639000,18.251638916015626,1.28255295753479,-24.88774871826172,5.144568920135498
1777560306175169000,18.2701689453125,-7.922635555267334,-13.050455093383789,0.23688943684101105
1777560306193698800,18.28869873046875,-4.3070807456970215,-3.7878382205963135,4.137190341949463
1777560306212228900,18.307228759765625,0.4139583110809326,-0.8709874153137207,5.776273727416992
1777560306230759000,18.325759033203123,0.849452018737793,-0.3732803463935852,5.97727108001709
1777560306249289000,18.3442890625,-3.046063184738159,-2.258824586868286,3.78544545173645
1777560306267818800,18.36281884765625,-7.549355506896973,-8.475378036499023,1.9764715433120728
1777560306286348800,18.381348876953126,-8.200202941894531,-20.877378463745117,-0.14356936514377594
1777560306304878800,18.39987890625,-3.589233875274658,-22.12643051147461,-5.185246467590332
1777560306323408600,18.41840869140625,4.500899314880371,-14.892928123474121,-7.118647575378418
1777560306341938700,18.436938720703125,4.828716278076172,-10.356136322021484,-4.677968502044678
1777560306360468700,18.45546875,0.8183453679084778,-7.750352382659912,-0.24885354936122894
1777560306378998500,18.47399853515625,-1.373480200767517,-6.427121639251709,2.6775684356689453
1777560306397528600,18.492528564453124,-2.2061824798583984,-6.226124286651611,3.651447296142578
1777560306416058600,18.51105859375,-1.2275179624557495,-7.16650390625,2.792423963546753
1777560306434588400,18.52958837890625,0.4905286431312561,-9.073583602905273,1.1222338676452637
1777560306453118500,18.548118408203123,1.459621787071228,-10.84427261352539,-0.5455635786056519
1777560306471648500,18.5666484375,1.5409778356552124,-10.62413215637207,-1.9669002294540405
1777560306499443500,18.594443359375,-0.5647061467170715,-8.858229637145996,-1.8233308792114258
1777560306517973500,18.612973388671875,-3.3619158267974854,-7.884350776672363,-0.34217363595962524
1777560306536503300,18.63150341796875,-3.4337005615234375,-7.767102241516113,0.19381862878799438
1777560306555033300,18.650033447265624,-0.638883650302887,-8.257631301879883,-0.07657032459974289
1777560306573563400,18.6685634765625,0.6580262184143066,-9.276973724365234,-0.6915257573127747
1777560306592093200,18.68709326171875,0.035892341285943985,-10.234102249145508,-0.9451649188995361
1777560306610623200,18.705623291015623,-0.4307080805301666,-10.84427261352539,-0.7417750358581543
1777560306629153300,18.7241533203125,-0.2225325107574463,-10.638489723205566,0.02632104977965355
1777560306647683000,18.74268310546875,-0.19381862878799438,-10.353743553161621,0.1698904037475586
1777560306666213000,18.761213134765626,-0.31106695532798767,-10.04267692565918,-0.5120640397071838
1777560306684743200,18.7797431640625,0.11964113265275955,-10.210174560546875,-1.0265209674835205
1777560306703273000,18.79827294921875,-0.3517449200153351,-10.430314064025879,-0.6269195079803467
1777560306721803000,18.816802978515625,-1.0097711086273193,-10.786844253540039,-0.019142581149935722
1777560306740333000,18.8353330078125,-0.8374879360198975,-11.22233772277832,-0.2991028428077698
1777560306758862800,18.85386279296875,0.5551348328590393,-11.966506004333496,-1.2897313833236694
1777560306777393000,18.872392822265624,0.8159525394439697,-12.483355522155762,-2.6799614429473877
1777560306795923000,18.8909228515625,0.9092726111412048,-12.390035629272461,-3.4265220165252686
1777560306814452700,18.90945263671875,0.3397808074951172,-13.246665954589844,-3.8907296657562256
1777560306832982800,18.927982666015627,-0.12681959569454193,-14.074583053588867,-3.2039895057678223
1777560306851512800,18.946512939453125,0.3086741268634796,-13.179667472839355,-1.4931213855743408
1777560306870042600,18.965042724609376,1.703689694404602,-10.549955368041992,0.9547362327575684
1777560306888572700,18.98357275390625,0.9930213689804077,-8.827122688293457,1.7994025945663452
1777560306907102700,19.002102783203124,-1.5026925802230835,-9.896714210510254,2.3569302558898926
1777560306925632800,19.0206328125,-2.376072883605957,-12.301501274108887,3.3308091163635254
1777560306944162600,19.03916259765625,-1.5385849475860596,-14.703895568847656,3.5676984786987305
1777560306962692600,19.057692626953123,0.38285163044929504,-14.404792785644531,2.478964328765869
1777560306981222700,19.07622265625,-0.08135596662759781,-12.421142578125,1.2394821643829346
1777560306999752400,19.09475244140625,-2.0099709033966064,-11.35633659362793,-0.007178467698395252
1777560307018282500,19.113282470703126,-2.203789710998535,-10.363314628601074,-0.16749759018421173
1777560307036812500,19.1318125,-0.38285163044929504,-9.645467758178711,-0.4498506486415863
1777560307055342300,19.15034228515625,0.016749758273363113,-9.492327690124512,-1.129412293434143
1777560307073872400,19.168872314453125,-1.1676974296569824,-9.159725189208984,-0.9308080077171326
1777560307092402400,19.18740234375,-2.155933141708374,-8.693124771118164,-0.16510476171970367
1777560307110932200,19.20593212890625,-2.383251428604126,-7.3675007820129395,1.31365966796875
1777560307129462300,19.224462158203124,-1.9692929983139038,-6.6352972984313965,2.720639228820801
1777560307147992000,19.242991943359375,-1.3806586265563965,-6.180660724639893,3.28773832321167
1777560307166522400,19.2615224609375,0.22971096634864807,-5.7786664962768555,2.610569477081299
1777560307185052200,19.28005224609375,1.588834285736084,-5.469992637634277,2.1367905139923096
1777560307203582200,19.298582275390626,2.0578274726867676,-5.4795637130737305,2.4119651317596436
1777560307222112300,19.3171123046875,1.954936146736145,-5.295316696166992,2.857030153274536
1777560307240642000,19.33564208984375,1.7922241687774658,-4.919643402099609,2.7086751461029053
1777560307259172000,19.354172119140625,1.9381862878799438,-4.5822553634643555,2.225325107574463
1777560307277702100,19.3727021484375,2.5842485427856445,-4.656432628631592,1.8616160154342651
1777560307296232000,19.39123193359375,4.264009952545166,-5.154139995574951,2.062613010406494
1777560307314762000,19.409761962890624,5.678168296813965,-6.606583118438721,2.5914268493652344
1777560307333292000,19.4282919921875,8.451449394226074,-9.824930191040039,3.9625144004821777
1777560307351821800,19.44682177734375,13.576875686645508,-16.876577377319336,3.297309637069702
1777560307370351900,19.465351806640626,12.79202938079834,-27.328428268432617,-2.053041934967041
1777560307388882000,19.4838818359375,6.661618232727051,-20.831912994384766,-2.8283164501190186
1777560307407411700,19.50241162109375,5.041677474975586,-8.350951194763184,1.6893328428268433
1777560307425941800,19.520941650390625,4.106083869934082,-0.9667003750801086,3.6921253204345703
1777560307444471800,19.539471923828124,3.4265220165252686,2.225325107574463,4.8574299812316895
1777560307463001900,19.558001953125,0.9834501147270203,-1.4572290182113647,7.802994728088379
1777560307481531600,19.57653173828125,5.371886730194092,-11.050054550170898,8.831908226013184
1777560307500061700,19.595061767578127,3.955335855484009,-20.298315048217773,4.737788677215576
1777560307518591700,19.613591796875,-2.524427890777588,-17.79302978515625,-2.4119651317596436
1777560307537121500,19.63212158203125,-6.604190349578857,-7.539783954620361,0.39960137009620667
1777560307555651600,19.650651611328126,-2.392822742462158,-3.9696927070617676,3.634697675704956
1777560307574181600,19.669181640625,-1.2059825658798218,-3.6059837341308594,3.9984066486358643
1777560307592711400,19.68771142578125,-0.9068797826766968,-4.402793884277344,3.555734395980835
1777560307611241500,19.706241455078125,-3.4025938510894775,-7.590033531188965,2.2157537937164307
1777560307629771500,19.724771484375,-4.878965377807617,-13.804193496704102,1.5649060010910034
1777560307648301300,19.74330126953125,-3.297309637069702,-19.231115341186523,-1.0648061037063599
1777560307666831400,19.761831298828124,-0.39481574296951294,-16.941184997558594,-3.586841106414795
1777560307685361400,19.780361328125,3.0580272674560547,-12.80160140991211,-3.9984066486358643
1777560307703891200,19.79889111328125,2.885744094848633,-9.542576789855957,-2.2133610248565674
1777560307722421200,19.817421142578127,0.39960137009620667,-7.365108013153076,0.20338992774486542
1777560307740951000,19.835950927734373,-3.0029923915863037,-6.041877269744873,1.5649060010910034
1777560307759481000,19.854481201171875,-3.4265220165252686,-5.879165172576904,1.9932212829589844
1777560307778011100,19.87301123046875,-2.108076810836792,-7.427321434020996,1.4763715267181396
1777560307796541200,19.891541259765624,0.5575276613235474,-9.975677490234375,0.22492532432079315
1777560307815071000,19.910071044921875,1.8592232465744019,-10.820343971252441,-1.0360921621322632
1777560307833601000,19.92860107421875,2.0578274726867676,-9.982855796813965,-1.9214365482330322
1777560307852131000,19.947131103515623,0.035892341285943985,-8.944371223449707,-1.7874385118484497
1777560307870660900,19.965660888671874,-2.562713146209717,-7.767102241516113,-0.7824530005455017
1777560307889191000,19.98419091796875,-2.8043880462646484,-7.688138961791992,-0.11724831163883209
1777560307907721000,20.002720947265626,-0.7968099117279053,-8.420342445373535,-0.19621145725250244
1777560307926250800,20.021250732421876,0.7489534616470337,-9.53061294555664,-0.6508477330207825
1777560307944780800,20.03978076171875,0.48813581466674805,-10.822736740112305,-1.129412293434143
1777560307963310800,20.058310791015625,-0.519242525100708,-11.37069320678711,-0.6747759580612183
1777560307981840600,20.076840576171875,-1.069591760635376,-10.923234939575195,0.5479564070701599
1777560308000370700,20.09537060546875,-0.9284151792526245,-10.207781791687012,1.2131611108779907
1777560308018900700,20.113900634765624,-0.2584248483181,-9.67657470703125,0.7728816866874695
1777560308037430500,20.132430419921874,0.5551348328590393,-9.875179290771484,-0.38763725757598877
1777560308055960600,20.150960693359377,-0.6771687865257263,-10.097711563110352,-1.0265209674835205
1777560308074490600,20.16949072265625,-2.5124638080596924,-10.497312545776367,-0.7513462901115417
1777560308093020400,20.1880205078125,-1.789831280708313,-11.20080280303955,-0.1579262912273407
1777560308111550500,20.206550537109376,0.9284151792526245,-11.91625690460205,-0.16271193325519562
1777560308130080500,20.22508056640625,1.2562319040298462,-12.04068374633789,-1.2035897970199585
1777560308148610300,20.2436103515625,1.2705888748168945,-11.918649673461914,-2.531606435775757
1777560308167140400,20.262140380859375,0.4378865361213684,-12.509676933288574,-3.524627685546875
1777560308185670400,20.28067041015625,-0.5479564070701599,-14.21575927734375,-4.321437835693359
1777560308204200200,20.2992001953125,-1.1174482107162476,-14.074583053588867,-3.840480327606201
1777560308222730200,20.317730224609374,0.031106693670153618,-11.624332427978516,-1.1461620330810547
1777560308241260300,20.33626025390625,2.0171494483947754,-9.068798065185547,1.495514154434204
1777560308259790000,20.3547900390625,0.5934200286865234,-8.855836868286133,1.6199408769607544
1777560308278320000,20.373320068359376,-1.4739787578582764,-10.104889869689941,2.163111686706543
1777560308296850200,20.39185009765625,-1.6247265338897705,-12.844672203063965,2.651247501373291
1777560308315380000,20.4103798828125,-1.31365966796875,-14.337793350219727,2.579462766647339
1777560308333910000,20.428909912109376,-0.8207381963729858,-13.304094314575195,2.1511476039886475
1777560308352440000,20.447440185546874,-0.7178468108177185,-11.490334510803223,1.2370892763137817
1777560308370969900,20.465969970703124,-2.612962245941162,-10.85145092010498,0.3278166949748993
1777560308389500000,20.4845,-2.7326035499572754,-10.183853149414062,0.1052841991186142
1777560308408030000,20.503030029296873,0.22492532432079315,-9.781859397888184,-0.17228323221206665
1777560308426560000,20.52156005859375,2.289931297302246,-10.50927734375,-1.9405791759490967
1777560308445089800,20.54008984375,-0.12442677468061447,-10.631311416625977,-1.9310078620910645
1777560308463619800,20.558619873046876,-2.713460922241211,-9.92542839050293,-0.15314064919948578
1777560308482150000,20.57714990234375,-2.555534601211548,-7.81974458694458,1.667797327041626
1777560308500679700,20.5956796875,-2.1032910346984863,-6.233303070068359,2.517249345779419
1777560308519209700,20.614209716796875,-2.139183521270752,-5.13739013671875,2.5124638080596924
1777560308537739800,20.63273974609375,-0.6221339106559753,-4.584648132324219,1.8113667964935303
1777560308556269600,20.65126953125,0.7728816866874695,-4.500899314880371,1.892722725868225
1777560308574799600,20.669799560546874,1.184447169303894,-4.852644443511963,2.3952155113220215
1777560308593329700,20.68832958984375,1.5744773149490356,-4.768895626068115,2.912065267562866
1777560308611859500,20.706859375,1.7491533756256104,-4.029513359069824,3.0245277881622314
1777560308630389500,20.725389404296877,2.4287149906158447,-3.3882367610931396,3.1680972576141357
1777560308648919600,20.74391943359375,3.625126361846924,-3.9744784832000732,2.6799614429473877
1777560308667449300,20.762449462890626,5.938985824584961,-5.319244861602783,3.153740167617798
1777560308685979400,20.7809794921875,9.260223388671875,-8.592626571655273,4.208974838256836
1777560308704509400,20.799509521484374,16.87418556213379,-17.81934928894043,3.445664644241333
1777560308723039200,20.818039306640625,12.016755104064941,-32.85824203491211,-2.837887763977051
1777560308741569300,20.8365693359375,4.646861553192139,-23.401805877685547,-3.263810157775879
1777560308760099300,20.855099365234373,3.445664644241333,-8.415556907653809,1.2323036193847656
1777560308778629400,20.87362939453125,3.902693748474121,0.031106693670153618,1.8496519327163696
1777560308797159200,20.8921591796875,3.074777126312256,3.8524444103240967,2.179861545562744
1777560308815689200,20.910689208984376,4.0797624588012695,-0.031106693670153618,3.6370904445648193
1777560308834219300,20.92921923828125,9.080761909484863,-10.344172477722168,3.5820555686950684
1777560308852749000,20.9477490234375,3.3643085956573486,-20.858234405517578,4.1730828285217285
1777560308871279000,20.966279052734375,-2.155933141708374,-19.027725219726562,1.789831280708313
1777560308889809200,20.98480908203125,-12.05504035949707,-9.236295700073242,3.895515203475952
1777560308908339000,21.0033388671875,-3.6945180892944336,-3.6849467754364014,9.559326171875
1777560308926869000,21.021868896484374,1.9022940397262573,-1.8831514120101929,9.109476089477539
1777560308945399000,21.04039892578125,1.038485050201416,-2.3976082801818848,3.5150563716888428
1777560308963928800,21.0589287109375,-4.292723655700684,-5.2354960441589355,0.9355936646461487
1777560308982459000,21.077458984375,-6.465406894683838,-10.925628662109375,0.24406790733337402
1777560309000989000,21.095989013671876,-5.146961688995361,-19.96810531616211,-0.9044869542121887
1777560309019518700,21.114518798828126,-3.019742250442505,-20.903697967529297,-4.651647090911865
1777560309038048800,21.133048828125,2.8139593601226807,-14.474184036254883,-6.309873104095459
1777560309056578800,21.151578857421875,3.950550079345703,-9.90149974822998,-5.599205017089844
1777560309075108900,21.17010888671875,0.6604190468788147,-6.872186660766602,-2.1678972244262695
1777560309093638700,21.188638671875,-1.9764715433120728,-5.575276851654053,0.9308080077171326
1777560309112168700,21.207168701171874,-2.383251428604126,-5.402993679046631,3.1202406883239746
1777560309130698800,21.22569873046875,-0.16031911969184875,-7.056434154510498,3.7232320308685303
1777560309149228500,21.244228515625,1.3567304611206055,-9.396614074707031,2.912065267562866
1777560309167758600,21.262758544921876,2.0745773315429688,-10.559526443481445,0.38285163044929504
1777560309186288600,21.28128857421875,2.3880369663238525,-9.66221809387207,-1.734796404838562
1777560309204818400,21.299818359375,0.9571290612220764,-8.86780071258545,-2.486142635345459
1777560309223348500,21.318348388671875,-3.438486099243164,-8.23130989074707,-1.0480563640594482
1777560309241878500,21.33687841796875,-4.864608287811279,-8.12123966217041,0.6891329288482666
1777560309269673500,21.364673583984374,0.7800601720809937,-9.863214492797852,0.34695929288864136
1777560309288203500,21.38320361328125,1.5912270545959473,-11.286944389343262,-1.2729816436767578
1777560309306733300,21.4017333984375,-0.031106693670153618,-11.552547454833984,-2.115255117416382
1777560309325263400,21.420263427734376,-1.9022940397262573,-10.48534870147705,-1.4859428405761719
1777560309343793400,21.43879345703125,-0.8925228714942932,-9.123832702636719,-0.10289137065410614
1777560309362323200,21.4573232421875,1.1126625537872314,-9.152546882629395,0.08135596662759781
1777560309380853200,21.475853271484375,0.2679961323738098,-10.614561080932617,-0.4905286431312561
1777560309399383300,21.49438330078125,-1.5361921787261963,-12.306286811828613,-0.9786644577980042
1777560309417913000,21.5129130859375,-1.6390835046768188,-13.509876251220703,-1.2442678213119507
1777560309436443100,21.531443115234374,-0.064606212079525,-13.194024085998535,-1.4333007335662842
1777560309454973200,21.54997314453125,1.2538390159606934,-12.52881908416748,-2.029113531112671
1777560309473503200,21.568503173828127,1.4069796800613403,-12.665210723876953,-2.242074728012085
1777560309492033000,21.587032958984373,0.42352959513664246,-13.689338684082031,-2.368894338607788
1777560309510563000,21.60556298828125,0.3397808074951172,-13.86640739440918,-2.2779672145843506
1777560309529093000,21.624093017578126,0.5862415432929993,-12.78485107421875,-0.7106683254241943
1777560309547623000,21.642622802734376,1.919043779373169,-10.250852584838867,1.672582983970642
1777560309566153000,21.661153076171875,0.8422735929489136,-8.365307807922363,2.0745773315429688
1777560309584683000,21.67968310546875,-1.5337992906570435,-8.82951545715332,2.495713949203491
1777560309603212800,21.698212890625,-3.098705291748047,-10.999805450439453,3.4002010822296143
1777560309621742800,21.716742919921874,-2.148754835128784,-13.26102352142334,4.589433670043945
1777560309640273000,21.73527294921875,0.19142581522464752,-13.488341331481934,4.381258487701416
1777560309658802700,21.753802734375,1.3471591472625732,-12.497713088989258,3.0412776470184326
1777560309677332700,21.772332763671876,1.4859428405761719,-11.638689041137695,1.9597218036651611
1777560309695862800,21.79086279296875,-1.0600204467773438,-11.284551620483398,0.46899324655532837
1777560309714392800,21.809392822265625,-2.8498518466949463,-10.794022560119629,-0.605384111404419
1777560309732922600,21.827922607421876,-1.0193424224853516,-10.279565811157227,-1.5361921787261963
1777560309751452700,21.84645263671875,-0.38763725757598877,-9.927821159362793,-1.8999011516571045
1777560309769982700,21.864982666015624,-2.045863389968872,-8.944371223449707,-0.3732803463935852
1777560309788512800,21.8835126953125,-2.1678972244262695,-7.192824840545654,1.2299108505249023
1777560309807042600,21.90204248046875,-2.2325034141540527,-5.958128452301025,2.076970100402832
1777560309825572600,21.920572509765623,-1.368694543838501,-4.965106964111328,2.4287149906158447
1777560309844102700,21.9391025390625,-0.20338992774486542,-4.1036906242370605,2.249253273010254
1777560309862632700,21.9576328125,0.3613162338733673,-3.555734395980835,2.0745773315429688
1777560309881162500,21.97616259765625,1.0480563640594482,-3.3643085956573486,2.132004976272583
1777560309899692500,21.994692626953125,1.7228323221206665,-3.572484254837036,2.0554347038269043
1777560309918222600,22.01322265625,2.2636101245880127,-3.5916268825531006,1.9357935190200806
1777560309936752400,22.03175244140625,3.019742250442505,-3.7902309894561768,1.8951154947280884
1777560309955282400,22.050282470703124,4.855037212371826,-4.673182487487793,2.117648124694824
1777560309973812500,22.0688125,9.475577354431152,-6.819544315338135,4.0319061279296875
1777560309992342300,22.08734228515625,14.55075454711914,-12.392428398132324,6.6592254638671875
1777560310010872300,22.105872314453126,17.5011043548584,-27.04607391357422,2.9312076568603516
1777560310029402400,22.12440234375,4.287938117980957,-28.40280532836914,-4.225724697113037
1777560310047932200,22.14293212890625,4.034298896789551,-14.950355529785156,-1.1868400573730469
1777560310066462200,22.161462158203125,4.1730828285217285,-4.362115859985352,2.6775684356689453
1777560310084992300,22.1799921875,4.831109046936035,2.2085752487182617,3.7567315101623535
1777560310103522000,22.19852197265625,3.8213376998901367,4.400400638580322,4.962714195251465
1777560310122052000,22.217052001953125,3.383451223373413,-1.9980069398880005,4.934000492095947
1777560310140582100,22.23558203125,8.293522834777832,-12.263216018676758,5.328815937042236
1777560310159112200,22.2541123046875,3.88594388961792,-23.54058837890625,4.766502857208252
1777560310177642200,22.272642333984376,0.7680960893630981,-20.626131057739258,-0.5072783827781677
1777560310196172000,22.291172119140626,-10.65523910522461,-8.087740898132324,-0.11006984114646912
1777560310214702000,22.3097021484375,-2.8450660705566406,-2.6775684356689453,5.6446685791015625
1777560310233232100,22.328232177734375,0.6317051649093628,-1.6055840253829956,7.0995049476623535
1777560310251762200,22.34676220703125,-0.44745782017707825,-2.2229323387145996,4.156332969665527
1777560310270292000,22.3652919921875,-3.4576287269592285,-4.790431022644043,2.65842604637146
1777560310288822000,22.383822021484374,-7.156932353973389,-11.059626579284668,1.3663017749786377
1777560310307352000,22.40235205078125,-4.500899314880371,-19.23590087890625,0.09810572862625122
1777560310325881900,22.4208818359375,-1.1748759746551514,-22.399211883544922,-5.015356063842773
1777560310344412000,22.439411865234376,2.3808584213256836,-14.93121337890625,-6.620940208435059
1777560310362942000,22.45794189453125,3.9050865173339844,-9.870393753051758,-5.008177757263184
1777560310381471700,22.4764716796875,-0.7728816866874695,-6.726224422454834,-1.5361921787261963
1777560310400001800,22.495001708984375,-4.067798614501953,-5.225924491882324,1.6558332443237305
1777560310418531800,22.51353173828125,-2.3330020904541016,-5.063212871551514,3.108276605606079
1777560310437062000,22.532061767578124,-0.4905286431312561,-6.798008918762207,3.524627685546875
1777560310455591700,22.550591796875,1.643869161605835,-10.12881851196289,2.4717857837677
1777560310474121700,22.569121826171877,2.926422119140625,-11.392229080200195,0.27038896083831787
1777560310492651800,22.58765185546875,2.2755744457244873,-9.678967475891113,-1.222732424736023
1777560310511181800,22.606181884765626,0.26560330390930176,-8.281558990478516,-1.8113667964935303
1777560310529711900,22.6247119140625,-3.9146578311920166,-7.479963779449463,-1.4644074440002441
1777560310548241700,22.64324169921875,-4.374079704284668,-6.984649181365967,-0.7058826684951782
1777560310566771700,22.661771728515625,-0.1746760457754135,-8.025527000427246,-0.12681959569454193
1777560310585301800,22.6803017578125,2.045863389968872,-10.059426307678223,-0.7034898400306702
1777560310603831600,22.69883154296875,0.6747759580612183,-11.839686393737793,-1.674975872039795
1777560310622361600,22.717361572265624,-1.2179467678070068,-11.966506004333496,-1.7778671979904175
1777560310640891600,22.7358916015625,-1.5744773149490356,-11.20798110961914,-1.1988041400909424
1777560310659421400,22.75442138671875,0.24406790733337402,-10.334601402282715,-0.8590233325958252
1777560310677951500,22.772951416015626,1.7515461444854736,-10.540383338928223,-0.97148597240448
1777560310696481500,22.7914814453125,0.24406790733337402,-11.36351490020752,-0.7489534616470337
1777560310715011300,22.81001123046875,-1.3806586265563965,-12.06221866607666,-0.18903298676013947
1777560310733541400,22.828541259765625,-1.057627558708191,-12.67717456817627,-0.27756741642951965
1777560310752071400,22.847071533203124,0.5048855543136597,-12.701102256774902,-1.2275179624557495
1777560310770601500,22.8656015625,1.3040883541107178,-12.224930763244629,-2.706282377243042
1777560310789131500,22.884131591796876,0.5599204897880554,-11.887542724609375,-3.486342668533325
1777560310807661300,22.902661376953127,-0.18424734473228455,-13.395021438598633,-3.9529430866241455
1777560310826191400,22.92119140625,0.605384111404419,-13.753944396972656,-2.9934210777282715
1777560310844721400,22.939721435546875,1.7802600860595703,-12.248859405517578,-0.6652047038078308
1777560310863251500,22.95825146484375,3.1992039680480957,-9.80100154876709,0.7848458290100098
1777560310881781200,22.97678125,0.2847459018230438,-8.324629783630371,1.3854442834854126
1777560310900311300,22.995311279296875,-2.2157537937164307,-10.083354949951172,2.3641088008880615
1777560310918841300,23.01384130859375,-3.2518460750579834,-12.885350227355957,3.483949661254883
1777560310937371100,23.03237109375,-1.6319050788879395,-15.242280006408691,4.543970108032227
1777560310955901200,23.050901123046874,0.1986042857170105,-15.134603500366211,3.895515203475952
1777560310974431200,23.06943115234375,1.6510475873947144,-12.732209205627441,2.9790642261505127
1777560310992961300,23.087961181640626,-1.667797327041626,-11.3778715133667,0.8255237936973572
1777560311011491300,23.1064912109375,-1.887937068939209,-10.114460945129395,-0.4713860750198364
1777560311030021000,23.125021240234375,0.7896314859390259,-9.54496955871582,-1.3567304611206055
1777560311048551200,23.14355126953125,-0.09810572862625122,-9.631111145019531,-2.0410776138305664
1777560311067081200,23.162081298828124,-2.562713146209717,-9.803394317626953,-1.7395820617675781
1777560311085611000,23.180611083984374,-3.2757742404937744,-8.858229637145996,-0.2392822653055191
1777560311104141000,23.19914111328125,-1.7826528549194336,-6.632904529571533,1.7515461444854736
1777560311122671000,23.217671142578126,-2.7014968395233154,-5.048855781555176,2.1535403728485107
1777560311141201200,23.236201171875,-1.2131611108779907,-4.046263217926025,2.4526431560516357
1777560311159731000,23.25473095703125,0.5670989751815796,-3.538984775543213,2.4837498664855957
1777560311178261000,23.273260986328125,0.607776939868927,-3.2374889850616455,2.2851455211639404
1777560311196791000,23.291791015625,1.5672988891601562,-3.4097721576690674,2.1367905139923096
1777560311215321000,23.310321044921874,2.2683959007263184,-3.950550079345703,1.8687944412231445
1777560311233851100,23.32885107421875,2.589034080505371,-4.285545349121094,1.5744773149490356
1777560311252381000,23.347380859375,3.170490026473999,-4.579862594604492,1.3639088869094849
1777560311270911000,23.365910888671873,6.628118515014648,-5.123033046722412,2.076970100402832
1777560311289441000,23.38444091796875,10.631311416625977,-7.149754047393799,3.988835334777832
1777560311307970800,23.402970703125,12.411571502685547,-12.375679016113281,6.254838466644287
1777560311326500900,23.4215009765625,15.058032989501953,-23.54058837890625,1.9070796966552734
1777560311345031000,23.440031005859375,6.149554252624512,-27.12025260925293,-6.03948450088501
1777560311363561000,23.45856103515625,5.821737289428711,-15.6227388381958,-2.589034080505371
1777560311382091000,23.477091064453123,4.680361270904541,-5.151747226715088,2.196611166000366
1777560311400620800,23.495620849609374,5.101497650146484,0.5814558863639832,4.175475597381592
1777560311419150800,23.51415087890625,3.541377544403076,2.6464617252349854,6.477370738983154
1777560311437681000,23.532680908203126,4.07258415222168,-3.012563705444336,7.585247993469238
1777560311456210700,23.551210693359376,5.812166213989258,-13.926227569580078,7.039684295654297
1777560311474740700,23.56974072265625,2.3186452388763428,-21.76272201538086,5.893522262573242
1777560311493270800,23.588270751953125,-7.369893550872803,-16.881362915039062,-2.1511476039886475
1777560311511800800,23.60680078125,-7.401000499725342,-6.742974281311035,1.8376877307891846
1777560311530330600,23.62533056640625,-0.5288137793540955,-3.328416347503662,4.7401814460754395
1777560311548860700,23.643860595703124,0.04307080805301666,-3.050848960876465,3.022135019302368
1777560311567390700,23.662390625,-3.060420274734497,-3.7639100551605225,0.9882357716560364
1777560311585920800,23.680920654296877,-5.821737289428711,-7.451249599456787,1.0265209674835205
1777560311604450800,23.699450927734375,-5.544169902801514,-14.56511116027832,2.201396942138672
1777560311622980600,23.717980712890625,-1.794616937637329,-23.011775970458984,-0.9571290612220764
1777560311641510700,23.7365107421875,0.794417142868042,-17.814563751220703,-4.0558342933654785
1777560311660040700,23.755040771484374,3.8261234760284424,-11.320444107055664,-3.184846878051758
1777560311678570500,23.773570556640625,2.737389087677002,-7.496713161468506,-1.1222338676452637
1777560311697100500,23.7921005859375,-0.8949156403541565,-5.304887771606445,1.4452649354934692
1777560311715630600,23.810630615234373,-2.768495798110962,-4.610969066619873,2.227717876434326
1777560311734160400,23.829160400390624,-3.2614171504974365,-5.649454116821289,1.9597218036651611
