time,seconds_elapsed,z,y,x
1776038153360372500,-1522134.5446274413,-7.5,-7.980000019073486,0.5399999618530273
1776038153380053000,-1522134.5249470214,-8.039999961853027,-7.679999828338623,0.9599999785423279
1776038153400033500,-1522134.5049665528,-8.09999942779541,-6.839999675750732,1.8600000143051147
1776038153410104300,-1522134.494895752,-8.34000015258789,-6.599999904632568,1.6200000047683716
1776038153420053000,-1522134.4849470216,-9,-6.659999847412109,1.6200000047683716
1776038153430154200,-1522134.4748457032,-9.059999465942383,-6.960000038146973,1.4399999380111694
1776038153440225000,-1522134.4647749024,-9.59999942779541,-7.259999752044678,0.5399999618530273
1776038153450296000,-1522134.4547038574,-9.539999961853027,-7.199999809265137,1.1399999856948853
1776038153470376400,-1522134.4346235353,-9.539999961853027,-7.319999694824219,1.2599999904632568
1776038153480447200,-1522134.4245527345,-9.179999351501465,-7.319999694824219,1.6799999475479126
1776038153490518000,-1522134.4144819337,-8.039999961853027,-7.199999809265137,1.6799999475479126
1776038153500558300,-1522134.4044416505,-6.779999732971191,-6.899999618530273,1.6200000047683716
1776038153510659600,-1522134.3943403321,-5.21999979019165,-7.019999980926514,1.7400000095367432
1776038153520600000,-1522134.3843999023,-4.559999942779541,-7.139999866485596,1.5
1776038153530670800,-1522134.3743291015,-3.9599997997283936,-7.259999752044678,1.6200000047683716
1776038153540680400,-1522134.3643195801,-4.259999752044678,-7.37999963760376,2.0399999618530273
1776038153550751200,-1522134.3542487794,-4.5,-7.199999809265137,2.5799999237060547
1776038153560791600,-1522134.3442084962,-5.159999847412109,-7.559999942779541,2.2200000286102295
1776038153590943000,-1522134.314057129,-8.34000015258789,-7.37999963760376,1.6799999475479126
1776038153601013800,-1522134.3039863282,-7.739999771118164,-6.71999979019165,2.819999933242798
1776038153611115000,-1522134.2938850098,-6.659999847412109,-6.960000038146973,2.3999998569488525
1776038153621124900,-1522134.2838752442,-6.599999904632568,-7.559999942779541,2.2799999713897705
1776038153631226000,-1522134.2737739258,-7.139999866485596,-7.919999599456787,2.5199999809265137
1776038153641297000,-1522134.263703125,-7.37999963760376,-8.460000038146973,1.9199999570846558
1776038153651368000,-1522134.25363208,-7.37999963760376,-8.880000114440918,2.0399999618530273
1776038153681488600,-1522134.2235114747,-6.359999656677246,-8.039999961853027,1.559999942779541
1776038153691529000,-1522134.2134709472,-6.779999732971191,-7.5,2.1599998474121094
1776038153701569300,-1522134.203430664,-6.839999675750732,-7.319999694824219,1.9799998998641968
1776038153711670500,-1522134.19332959,-7.079999923706055,-7.619999885559082,2.3399999141693115
1776038153721710800,-1522134.1832890625,-7.440000057220459,-7.799999713897705,2.6399998664855957
1776038153741822000,-1522134.1631779785,-7.559999942779541,-7.859999656677246,1.9799998998641968
1776038153751862300,-1522134.1531376953,-7.859999656677246,-7.859999656677246,2.2799999713897705
1776038153782013400,-1522134.1229865723,-7.5,-7.139999866485596,2.2200000286102295
1776038153792053800,-1522134.1129462891,-7.37999963760376,-6.779999732971191,2.1599998474121094
1776038153802033200,-1522134.1029667968,-7.259999752044678,-6.659999847412109,1.9799998998641968
1776038153812134400,-1522134.0928654785,-7.859999656677246,-6.839999675750732,2.5799999237060547
1776038153822205200,-1522134.082794922,-8.639999389648438,-7.019999980926514,2.5799999237060547
1776038153832276000,-1522134.0727241212,-8.639999389648438,-7.199999809265137,2.6399998664855957
1776038153842316300,-1522134.0626835937,-8.880000114440918,-7.440000057220459,2.2200000286102295
1776038153852417500,-1522134.0525825196,-8.399999618530273,-7.440000057220459,1.7400000095367432
1776038153902771700,-1522134.0022282714,-7.919999599456787,-6.659999847412109,1.4399999380111694
1776038153912842500,-1522133.9921574707,-7.739999771118164,-6.239999771118164,1.7999999523162842
1776038153922882800,-1522133.9821171875,-8.399999618530273,-6.059999942779541,3
1776038153932953600,-1522133.9720463867,-8.15999984741211,-6.179999828338623,2.4600000381469727
1776038153943024400,-1522133.961975586,-8.460000038146973,-6.71999979019165,2.5199999809265137
1776038153953064700,-1522133.9519353027,-8.579999923706055,-6.659999847412109,3.179999828338623
1776038153963104800,-1522133.9418952637,-7.799999713897705,-6.659999847412109,2.0399999618530273
1776038153993317400,-1522133.9116826172,-6.059999942779541,-5.400000095367432,1.9199999570846558
1776038154003388200,-1522133.9016118164,-5.159999847412109,-5.099999904632568,1.7400000095367432
1776038154033539300,-1522133.8714606934,-5.759999752044678,-5.159999847412109,0.17999999225139618
1776038154043579600,-1522133.8614204102,-7.259999752044678,-4.739999771118164,0.5999999642372131
1776038154053650400,-1522133.8513496094,-8.639999389648438,-3.6599998474121094,1.3199999332427979
1776038154063690800,-1522133.8413093262,-10.319999694824219,-2.879999876022339,1.5
1776038154093933800,-1522133.811066162,-12.960000038146973,-1.6799999475479126,0.7199999690055847
1776038154103974000,-1522133.801026123,-12.779999732971191,-0.7199999690055847,1.3799999952316284
1776038154124115700,-1522133.7808842773,-9.179999351501465,0.5399999618530273,1.6200000047683716
1776038154134155800,-1522133.7708442383,-8.279999732971191,0.05999999865889549,1.0199999809265137
1776038154144196000,-1522133.7608039551,-7.859999656677246,0.23999999463558197,0.47999998927116394
1776038154154236400,-1522133.750763672,-9.84000015258789,0.6599999666213989,1.4399999380111694
1776038154164307200,-1522133.7406928712,-11.880000114440918,0.7799999713897705,1.3799999952316284
1776038154194458600,-1522133.7105412597,-11.579999923706055,2.819999933242798,1.3199999332427979
1776038154204529400,-1522133.7004707032,-9.059999465942383,3.5999999046325684,0.7199999690055847
1776038154214600200,-1522133.6903999024,-7.5,4.5,1.3799999952316284
1776038154234711300,-1522133.6702888184,-4.019999980926514,4.259999752044678,1.7999999523162842
1776038154244782000,-1522133.6602180176,-4.199999809265137,3.7200000286102295,2.2200000286102295
1776038154254852900,-1522133.6501472169,-4.139999866485596,4.199999809265137,2.759999990463257
1776038154264862700,-1522133.640137207,-5.099999904632568,4.079999923706055,2.5799999237060547
1776038154294953000,-1522133.6100471192,-6,4.5,3.419999837875366
1776038154304962800,-1522133.6000371093,-5.099999904632568,5.159999847412109,3.8399999141693115
1776038154315033600,-1522133.5899663086,-4.079999923706055,4.920000076293945,4.139999866485596
1776038154325104400,-1522133.5798955078,-2.700000047683716,4.679999828338623,4.139999866485596
1776038154335175200,-1522133.5698249512,-1.559999942779541,4.859999656677246,4.799999713897705
1776038154345185000,-1522133.5598149414,-1.1399999856948853,4.559999942779541,5.099999904632568
1776038154355286300,-1522133.549713623,-1.7999999523162842,4.980000019073486,4.920000076293945
1776038154375367000,-1522133.5296330566,-4.980000019073486,4.5,5.400000095367432
1776038154395508500,-1522133.509491455,-6.539999961853027,3.119999885559082,6.359999656677246
1776038154415680500,-1522133.4893195801,-5.639999866485596,1.7400000095367432,6.960000038146973
1776038154425690400,-1522133.4793095703,-5.460000038146973,1.1999999284744263,6.839999675750732
1776038154435791600,-1522133.4692084962,-4.079999923706055,0.9599999785423279,7.739999771118164
1776038154455933200,-1522133.4490668946,-1.2599999904632568,0.29999998211860657,7.199999809265137
1776038154476044300,-1522133.4289558106,1.1399999856948853,-0.8999999761581421,6.599999904632568
1776038154496125000,-1522133.408875,0.8399999737739563,-1.5,7.37999963760376
1776038154526337300,-1522133.3786628419,0.7199999690055847,-1.9199999570846558,7.37999963760376
1776038154536408000,-1522133.368592041,0.5999999642372131,-1.7999999523162842,7.199999809265137
1776038154596802300,-1522133.308197754,1.1399999856948853,-2.1599998474121094,7.37999963760376
1776038154616883000,-1522133.2881169433,1.1399999856948853,-2.1599998474121094,6.599999904632568
1776038154687287000,-1522133.2177128906,1.1999999284744263,-0.8399999737739563,6.239999771118164
1776038154707428600,-1522133.197571289,1.559999942779541,-0.05999999865889549,6.839999675750732
1776038154757843700,-1522133.14715625,1.6799999475479126,0.47999998927116394,8.699999809265137
1776038154818329600,-1522133.0866704101,3.179999828338623,0.7199999690055847,6.539999961853027
1776038154898712800,-1522133.0062871093,3.299999952316284,3.119999885559082,7.739999771118164
1776038154908814000,-1522132.9961860352,3.5399999618530273,2.700000047683716,7.980000019073486
1776038154918915300,-1522132.9860847169,3.419999837875366,1.7400000095367432,7.679999828338623
1776038154959168000,-1522132.9458320313,1.1999999284744263,4.559999942779541,8.220000267028809
1776038154969177900,-1522132.9358222657,1.0799999237060547,4.799999713897705,7.980000019073486
1776038154979279000,-1522132.9257209473,0.7799999713897705,4.980000019073486,7.739999771118164
1776038154989350000,-1522132.9156501465,1.6799999475479126,5.279999732971191,7.919999599456787
1776038154999451400,-1522132.905548584,2.93999981880188,5.21999979019165,7.319999694824219
1776038155009522200,-1522132.8954777832,3.7200000286102295,5.87999963760376,6.71999979019165
1776038155019501300,-1522132.8854987794,4.980000019073486,6.359999656677246,6.779999732971191
1776038155029602600,-1522132.875397461,5.039999961853027,6.960000038146973,6.659999847412109
1776038155049744400,-1522132.8552556152,4.980000019073486,6.779999732971191,6.899999618530273
1776038155100006700,-1522132.8049934083,1.7999999523162842,8.399999618530273,6.539999961853027
1776038155110108200,-1522132.7948918457,3.240000009536743,8.279999732971191,6.779999732971191
1776038155120209400,-1522132.7847905273,4.739999771118164,9.179999351501465,7.440000057220459
1776038155130280200,-1522132.7747197265,5.039999961853027,8.819999694824219,6.239999771118164
1776038155150421800,-1522132.754578125,2.1599998474121094,9.420000076293945,4.980000019073486
1776038155160492500,-1522132.7445075684,1.6799999475479126,9.239999771118164,4.139999866485596
1776038155170563300,-1522132.7344367676,2.3999998569488525,9.479999542236328,4.380000114440918
1776038155180634000,-1522132.7243659669,3.6599998474121094,8.9399995803833,3.5999999046325684
1776038155190735400,-1522132.7142646485,3.419999837875366,9.239999771118164,4.619999885559082
1776038155200806400,-1522132.7041936035,2.6399998664855957,9.65999984741211,4.559999942779541
1776038155210877200,-1522132.6941228027,1.0799999237060547,9.960000038146973,4.5
1776038155220917200,-1522132.6840827637,-0.6599999666213989,10.5,4.319999694824219
1776038155230927000,-1522132.674072998,-1.3199999332427979,10.619999885559082,3.8399999141693115
1776038155261139500,-1522132.6438605958,-0.8399999737739563,10.679999351501465,2.3999998569488525
1776038155281250600,-1522132.6237495118,0.8999999761581421,11.34000015258789,1.6200000047683716
1776038155291291000,-1522132.6137092286,2.5199999809265137,11.039999961853027,1.7400000095367432
1776038155301331200,-1522132.6036687011,3.419999837875366,11.219999313354492,1.7400000095367432
1776038155311432400,-1522132.593567627,3.5999999046325684,10.5,1.8600000143051147
1776038155321534000,-1522132.5834660644,1.9799998998641968,10.859999656677246,1.9799998998641968
1776038155331513000,-1522132.5734868164,0.05999999865889549,11.15999984741211,1.5
1776038155341584000,-1522132.5634160156,-0.8399999737739563,11.219999313354492,0.8999999761581421
1776038155371826700,-1522132.53317334,0.35999998450279236,12.539999961853027,0.41999998688697815
1776038155381897500,-1522132.5231025391,1.1999999284744263,12.119999885559082,0.5999999642372131
1776038155391968500,-1522132.513031494,2.5199999809265137,11.699999809265137,0.6599999666213989
1776038155402039300,-1522132.5029606933,3.179999828338623,11.039999961853027,0.7799999713897705
1776038155412110000,-1522132.4928898925,3.419999837875366,10.679999351501465,0.7799999713897705
1776038155422211300,-1522132.4827885742,2.0999999046325684,10.800000190734863,0.6599999666213989
1776038155432282000,-1522132.4727177734,0.35999998450279236,11.09999942779541,0.41999998688697815
1776038155442353000,-1522132.4626472169,-0.7199999690055847,11.639999389648438,0.7799999713897705
1776038155452423700,-1522132.452576416,-1.7999999523162842,11.9399995803833,0.5399999618530273
1776038155482575000,-1522132.4224248047,0.47999998927116394,12.65999984741211,0.41999998688697815
1776038155492554200,-1522132.4124458008,2.2200000286102295,12.420000076293945,0.11999999731779099
1776038155502625000,-1522132.402375,2.879999876022339,12.65999984741211,1.3199999332427979
1776038155512665300,-1522132.3923347169,3.8999998569488525,11.880000114440918,1.0199999809265137
1776038155522766800,-1522132.3822331543,4.559999942779541,11.819999694824219,0.8999999761581421
1776038155532837600,-1522132.3721623535,4.139999866485596,11.639999389648438,1.7999999523162842
1776038155542877700,-1522132.3621223145,4.199999809265137,11.15999984741211,1.0799999237060547
1776038155562958300,-1522132.342041748,1.7400000095367432,12,2.1599998474121094
1776038155583130600,-1522132.3218693847,1.4399999380111694,13.679999351501465,3.179999828338623
1776038155593201400,-1522132.311798584,2.700000047683716,12.960000038146973,3.240000009536743
1776038155603211000,-1522132.3017890626,3.7799999713897705,12.420000076293945,3.179999828338623
1776038155613281800,-1522132.2917182618,4.559999942779541,11.9399995803833,3.4800000190734863
1776038155623322000,-1522132.2816779786,5.099999904632568,10.739999771118164,2.6399998664855957
1776038155633393000,-1522132.2716071778,5.21999979019165,10.739999771118164,3
1776038155643463700,-1522132.261536377,5.039999961853027,10.380000114440918,2.759999990463257
1776038155653504000,-1522132.2514960938,3.5399999618530273,10.019999504089355,3.299999952316284
1776038155683747000,-1522132.2212529297,1.0199999809265137,10.4399995803833,5.579999923706055
1776038155693817900,-1522132.2111821289,2.0399999618530273,11.399999618530273,6.299999713897705
1776038155703858000,-1522132.20114209,3.179999828338623,10.559999465942383,6
1776038155713898200,-1522132.1911018067,3.9599997997283936,10.619999885559082,6.659999847412109
1776038155723999700,-1522132.181000244,4.980000019073486,10.979999542236328,7.37999963760376
1776038155734070500,-1522132.1709294433,5.579999923706055,10.139999389648438,6.899999618530273
1776038155744141300,-1522132.1608586425,5.099999904632568,11.460000038146973,8.639999389648438
1776038155754212000,-1522132.1507878418,4.679999828338623,10.920000076293945,8.460000038146973
1776038155784363500,-1522132.1206364746,1.5,10.559999465942383,8.519999504089355
1776038155794403600,-1522132.1105964356,1.6200000047683716,10.859999656677246,8.399999618530273
1776038155804413400,-1522132.10058667,3.059999942779541,10.739999771118164,9.719999313354492
1776038155814453800,-1522132.0905461425,4.619999885559082,10.859999656677246,10.559999465942383
1776038155824555000,-1522132.0804450684,5.87999963760376,10.079999923706055,10.559999465942383
1776038155834625800,-1522132.0703742676,6.71999979019165,9.84000015258789,12
1776038155844696600,-1522132.0603034669,6.480000019073486,9.179999351501465,11.09999942779541
1776038155854767400,-1522132.050232666,7.259999752044678,9,11.09999942779541
1776038155864807700,-1522132.0401923829,7.559999942779541,8.519999504089355,11.399999618530273
1776038155904969000,-1522132.0000310058,6.659999847412109,8.09999942779541,12.359999656677246
1776038155914978600,-1522131.9900214844,6.599999904632568,8.519999504089355,13.139999389648438
1776038155925080000,-1522131.9799199218,7.799999713897705,8.9399995803833,14.09999942779541
1776038155935089700,-1522131.9699104005,8.9399995803833,8.639999389648438,14.699999809265137
1776038155945191200,-1522131.9598088379,9.179999351501465,7.980000019073486,13.679999351501465
1776038155955231200,-1522131.949768799,9.59999942779541,7.679999828338623,13.319999694824219
1776038155965271600,-1522131.9397285157,9.539999961853027,7.319999694824219,13.319999694824219
1776038155985382700,-1522131.9196174317,9.719999313354492,6.839999675750732,11.9399995803833
1776038156005524200,-1522131.8994758301,8.15999984741211,7.019999980926514,11.75999927520752
1776038156015564500,-1522131.889435547,7.980000019073486,6.960000038146973,12.179999351501465
1776038156025635300,-1522131.8793647462,8.819999694824219,7.199999809265137,13.139999389648438
1776038156035706000,-1522131.8692939454,9.719999313354492,6.359999656677246,12.539999961853027
1776038156045777000,-1522131.8592231446,10.5,5.339999675750732,12.059999465942383
1776038156055847700,-1522131.8491523438,10.079999923706055,5.159999847412109,12
1776038156065888000,-1522131.8391120606,9.899999618530273,4.079999923706055,10.979999542236328
1776038156075958800,-1522131.8290412598,8.880000114440918,4.859999656677246,11.819999694824219
1776038156116150500,-1522131.7888493652,6.899999618530273,6.599999904632568,11.219999313354492
1776038156126221300,-1522131.7787788087,8.039999961853027,6.839999675750732,10.859999656677246
1776038156136292000,-1522131.7687080079,9.539999961853027,7.139999866485596,10.800000190734863
1776038156146363000,-1522131.758637207,10.260000228881836,7.259999752044678,10.679999351501465
1776038156156433700,-1522131.7485664063,10.859999656677246,7.019999980926514,10.679999351501465
1776038156166535200,-1522131.7384648437,10.739999771118164,7.679999828338623,11.399999618530273
1776038156176544800,-1522131.7284553223,10.079999923706055,7.739999771118164,11.399999618530273
1776038156196686300,-1522131.7083137208,8.279999732971191,8.460000038146973,11.09999942779541
1776038156206787800,-1522131.6982121582,6.899999618530273,9.059999465942383,10.559999465942383
1776038156216858600,-1522131.6881413574,7.019999980926514,10.559999465942383,10.559999465942383
1776038156226960000,-1522131.678040039,7.079999923706055,11.639999389648438,10.619999885559082
1776038156237030700,-1522131.6679692382,7.37999963760376,12.179999351501465,10.619999885559082
1776038156247101400,-1522131.6578986817,8.880000114440918,12.119999885559082,10.199999809265137
1776038156267182000,-1522131.637817871,12.239999771118164,11.819999694824219,10.4399995803833
1776038156277161200,-1522131.6278388673,12.960000038146973,11.819999694824219,10.4399995803833
1776038156287262500,-1522131.617737549,13.139999389648438,12.300000190734863,11.039999961853027
1776038156317383400,-1522131.587616455,9.539999961853027,11.15999984741211,10.079999923706055
1776038156327484700,-1522131.577515381,8.880000114440918,10.739999771118164,10.5
1776038156337555500,-1522131.5674445801,8.699999809265137,11.279999732971191,11.279999732971191
1776038156347626200,-1522131.5573737794,8.699999809265137,11.699999809265137,11.519999504089355
1776038156357697300,-1522131.5473027343,9.179999351501465,11.699999809265137,11.75999927520752
1776038156367768000,-1522131.5372319336,8.819999694824219,11.75999927520752,11.399999618530273
1776038156377838800,-1522131.5271611328,8.039999961853027,11.039999961853027,11.399999618530273
1776038156387940000,-1522131.5170598144,6,11.15999984741211,11.460000038146973
1776038156428223200,-1522131.4767768555,-1.2599999904632568,15.299999237060547,10.380000114440918
1776038156438294000,-1522131.4667060548,0.11999999731779099,17.639999389648438,10.019999504089355
1776038156448334300,-1522131.4566657715,2.3399999141693115,18.65999984741211,9.899999618530273
1776038156458374700,-1522131.446625244,3.9599997997283936,18.65999984741211,9.059999465942383
1776038156468476000,-1522131.43652417,5.099999904632568,17.940000534057617,8.699999809265137
1776038156478546700,-1522131.4264533692,5.819999694824219,17.520000457763672,8.9399995803833
1776038156488617500,-1522131.4163825684,5.699999809265137,16.920000076293945,8.699999809265137
1776038156508759300,-1522131.3962407226,6.299999713897705,17.520000457763672,8.760000228881836
1776038156528870100,-1522131.3761298829,6.299999713897705,18.119998931884766,8.639999389648438
1776038156538910500,-1522131.3660895997,5.400000095367432,18.239999771118164,8.880000114440918
1776038156548920300,-1522131.3560795898,4.619999885559082,18.059999465942383,8.819999694824219
1776038156558960600,-1522131.3460393066,4.259999752044678,17.81999969482422,9.239999771118164
1776038156569031400,-1522131.3359685058,4.199999809265137,17.940000534057617,8.760000228881836
1776038156589112000,-1522131.3158879394,4.679999828338623,18.239999771118164,7.739999771118164
1776038156599182800,-1522131.3058171386,4.079999923706055,18.119998931884766,7.319999694824219
1776038156629395200,-1522131.2756047363,3.059999942779541,18.84000015258789,6.899999618530273
1776038156639435500,-1522131.265564453,3.8999998569488525,19.3799991607666,5.699999809265137
1776038156649506300,-1522131.2554936523,4.079999923706055,19.619998931884766,4.799999713897705
1776038156659516000,-1522131.245484131,3.8999998569488525,19.260000228881836,3.9599997997283936
1776038156669617400,-1522131.2353825683,3.299999952316284,18.84000015258789,3.299999952316284
1776038156679688200,-1522131.2253117675,3.359999895095825,18.779998779296875,3.5399999618530273
1776038156689697800,-1522131.2153022462,2.819999933242798,19.19999885559082,3.4800000190734863
1776038156719849200,-1522131.185150879,3.179999828338623,20.399999618530273,3.119999885559082
1776038156729920000,-1522131.1750800782,3.7200000286102295,20.34000015258789,2.93999981880188
1776038156739929900,-1522131.1650700683,2.93999981880188,20.34000015258789,3.6599998474121094
1776038156749970200,-1522131.1550297851,3.179999828338623,20.520000457763672,3.7799999713897705
1776038156760041000,-1522131.1449589843,3.5999999046325684,20.279998779296875,3.179999828338623
1776038156770081300,-1522131.1349187011,3.4800000190734863,20.100000381469727,3
1776038156790192400,-1522131.1148076172,3.359999895095825,19.5,1.0199999809265137
1776038156800263200,-1522131.1047368164,3,19.3799991607666,1.1999999284744263
1776038156820404700,-1522131.0845952148,2.819999933242798,19.5,0.5999999642372131
1776038156840546300,-1522131.0644536132,3.5999999046325684,20.100000381469727,1.2599999904632568
1776038156850617000,-1522131.0543828125,3.6599998474121094,20.399999618530273,1.9799998998641968
1776038156860657400,-1522131.0443425293,3.9599997997283936,19.559999465942383,1.7999999523162842
1776038156870728200,-1522131.0342717285,3.7799999713897705,19.979999542236328,2.819999933242798
1776038156880738000,-1522131.0242619629,3.359999895095825,19.799999237060547,2.5799999237060547
1776038156890808800,-1522131.014191162,3.7200000286102295,19.559999465942383,2.700000047683716
1776038156900788000,-1522131.004211914,3.5999999046325684,20.100000381469727,3.419999837875366
1776038156931061500,-1522130.9739384765,3.8999998569488525,19.979999542236328,4.5
1776038156941101800,-1522130.9638981933,3.5399999618530273,20.03999900817871,5.159999847412109
1776038156951203000,-1522130.953796875,3.5399999618530273,20.279998779296875,5.159999847412109
1776038156961273900,-1522130.9437260742,3.419999837875366,19.5,5.099999904632568
1776038156971375000,-1522130.933625,3.7799999713897705,19.559999465942383,6.119999885559082
1776038156981385000,-1522130.9236149902,4.079999923706055,19.260000228881836,6.539999961853027
1776038156991486200,-1522130.9135136718,4.019999980926514,19.079999923706055,7.799999713897705
1776038157001526500,-1522130.9034733886,4.5,20.100000381469727,9.119999885559082
1776038157041748700,-1522130.8632512207,2.0399999618530273,19.139999389648438,9.59999942779541
1776038157061920800,-1522130.8430793458,2.0399999618530273,19.260000228881836,9.779999732971191
1776038157071991600,-1522130.833008545,3,19.139999389648438,9.899999618530273
1776038157082001400,-1522130.8229985351,4.619999885559082,19.799999237060547,10.800000190734863
1776038157092072200,-1522130.8129277343,4.920000076293945,19.020000457763672,11.039999961853027
1776038157102143000,-1522130.8028569336,4.5,18.779998779296875,10.5
1776038157112213800,-1522130.7927861328,4.5,18.479999542236328,10.079999923706055
1776038157152497000,-1522130.752503174,-0.6599999666213989,18.600000381469727,13.25999927520752
1776038157172577500,-1522130.7324223632,-0.41999998688697815,18.420000076293945,15.59999942779541
1776038157182648300,-1522130.7223515625,1.5,17.459999084472656,16.079999923706055
1776038157192719000,-1522130.712281006,3.059999942779541,16.3799991607666,16.19999885559082
1776038157202759400,-1522130.7022404785,4.619999885559082,15.779999732971191,16.979999542236328
1776038157212830200,-1522130.6921696777,5.039999961853027,14.639999389648438,16.19999885559082
1776038157222901000,-1522130.6820991212,4.319999694824219,14.880000114440918,16.559999465942383
1776038157253113300,-1522130.6518867188,1.8600000143051147,13.920000076293945,16.079999923706055
1776038157263123200,-1522130.641876709,2.0399999618530273,13.859999656677246,16.440000534057617
1776038157273194000,-1522130.6318059082,3.240000009536743,14.039999961853027,17.34000015258789
1776038157283264800,-1522130.6217353516,3.9599997997283936,14.34000015258789,18.53999900817871
1776038157293366000,-1522130.6116340333,5.819999694824219,14.519999504089355,18.84000015258789
1776038157303406300,-1522130.60159375,6.779999732971191,14.34000015258789,19.68000030517578
1776038157313507600,-1522130.5914924317,6.659999847412109,13.859999656677246,19.079999923706055
1776038157323578600,-1522130.5814213867,7.440000057220459,13.4399995803833,18.479999542236328
1776038157363831300,-1522130.5411687011,4.259999752044678,15,19.920000076293945
1776038157373902000,-1522130.5310979004,5.400000095367432,15.299999237060547,19.68000030517578
1776038157383911700,-1522130.521088379,7.019999980926514,15.479999542236328,20.03999900817871
1776038157393982500,-1522130.5110175782,8.819999694824219,15.059999465942383,20.579999923706055
1776038157404053200,-1522130.5009467774,9.539999961853027,15.359999656677246,20.8799991607666
1776038157414093600,-1522130.4909064942,9.960000038146973,14.399999618530273,20.939998626708984
1776038157424103400,-1522130.4808964843,9.960000038146973,14.039999961853027,20.579999923706055
1776038157434174200,-1522130.4708256836,10.679999351501465,13.739999771118164,20.03999900817871
1776038157464356000,-1522130.4406437988,11.34000015258789,13.619999885559082,19.079999923706055
1776038157484528000,-1522130.420471924,9.420000076293945,13.859999656677246,18.779998779296875
1776038157494538000,-1522130.410461914,10.139999389648438,13.679999351501465,19.020000457763672
1776038157504578300,-1522130.4004216308,10.679999351501465,12.960000038146973,19.079999923706055
1776038157514618600,-1522130.3903813476,11.399999618530273,12.179999351501465,19.020000457763672
1776038157524659000,-1522130.3803410644,11.460000038146973,12.65999984741211,19.260000228881836
1776038157534699000,-1522130.3703010255,11.09999942779541,12.719999313354492,19.079999923706055
1776038157544769800,-1522130.3602302247,10.859999656677246,12.84000015258789,19.139999389648438
1776038157584931000,-1522130.3200688476,9.179999351501465,13.319999694824219,18
1776038157595001900,-1522130.3099980468,8.15999984741211,13.679999351501465,17.100000381469727
1776038157605072600,-1522130.299927246,7.799999713897705,13.920000076293945,17.69999885559082
1776038157615143400,-1522130.2898566895,7.980000019073486,14.15999984741211,17.81999969482422
1776038157625183700,-1522130.279816162,9.119999885559082,14.9399995803833,18.299999237060547
1776038157635285000,-1522130.269715088,9.539999961853027,14.579999923706055,19.3799991607666
1776038157645355800,-1522130.2596442872,8.579999923706055,14.9399995803833,18.959999084472656
1776038157685608400,-1522130.2193916016,2.93999981880188,15.359999656677246,18.35999870300293
1776038157705750000,-1522130.19925,2.2200000286102295,18.059999465942383,18.53999900817871
1776038157715851500,-1522130.1891484375,2.700000047683716,19.020000457763672,18.059999465942383
1776038157725922300,-1522130.1790776367,2.879999876022339,19.619998931884766,18.059999465942383
1776038157735993000,-1522130.169006836,1.9199999570846558,19.439998626708984,17.81999969482422
1776038157746094300,-1522130.1589057618,1.6799999475479126,19.85999870300293,16.68000030517578
1776038157786316500,-1522130.1186833496,-2.0999999046325684,21.84000015258789,14.219999313354492
1776038157796387300,-1522130.108612793,-2.3999998569488525,22.079999923706055,14.579999923706055
1776038157806458000,-1522130.0985419923,-1.559999942779541,21.84000015258789,13.979999542236328
1776038157816498400,-1522130.0885014648,-1.559999942779541,21,14.399999618530273
1776038157826538800,-1522130.0784611816,-1.8600000143051147,20.69999885559082,14.519999504089355
1776038157836640000,-1522130.0683601075,-2.819999933242798,20.69999885559082,13.25999927520752
1776038157846710800,-1522130.0582893067,-4.380000114440918,20.639999389648438,13.199999809265137
1776038157856781600,-1522130.048218506,-5.699999809265137,20.939998626708984,12.239999771118164
1776038157886933000,-1522130.0180668945,-8.460000038146973,21.600000381469727,11.039999961853027
1776038157897003800,-1522130.007996338,-8.15999984741211,22.19999885559082,10.5
1776038157907044000,-1522129.9979558105,-7.440000057220459,22.19999885559082,10.139999389648438
1776038157917145300,-1522129.9878547364,-6.480000019073486,22.19999885559082,9.960000038146973
1776038157927185700,-1522129.9778144532,-5.159999847412109,21.899999618530273,9.479999542236328
1776038157937256400,-1522129.9677436524,-4.679999828338623,21.35999870300293,9.300000190734863
1776038157947327200,-1522129.9576728516,-4.259999752044678,21.119998931884766,9.059999465942383
1776038157957398000,-1522129.9476020508,-3.9599997997283936,21,8.460000038146973
1776038157967468800,-1522129.93753125,-4.739999771118164,21.719999313354492,8.819999694824219
1776038157997681400,-1522129.9073186035,-6.599999904632568,22.799999237060547,7.139999866485596
1776038158017792300,-1522129.8872077637,-4.319999694824219,23.34000015258789,6.239999771118164
1776038158027832600,-1522129.8771674805,-3,22.619998931884766,6.239999771118164
1776038158037903400,-1522129.8670966798,-1.6799999475479126,22.68000030517578,5.639999866485596
1776038158047913200,-1522129.85708667,-0.9599999785423279,22.020000457763672,5.639999866485596
1776038158058014500,-1522129.8469855958,-0.9599999785423279,22.139999389648438,5.639999866485596
1776038158068024300,-1522129.836975586,-0.7199999690055847,22.739999771118164,5.159999847412109
1776038158098206200,-1522129.8067937011,-3.240000009536743,23.8799991607666,4.619999885559082
1776038158118286800,-1522129.7867131347,-4.139999866485596,24.65999984741211,5.039999961853027
1776038158128296400,-1522129.7767036133,-3.179999828338623,25.01999855041504,5.339999675750732
1776038158138398000,-1522129.7666020507,-2.1599998474121094,24.65999984741211,5.400000095367432
1776038158148468700,-1522129.75653125,-1.0199999809265137,24.18000030517578,5.339999675750732
1776038158158508800,-1522129.746491211,0.23999999463558197,24.479999542236328,5.099999904632568
1776038158168549000,-1522129.7364509278,0.35999998450279236,22.979999542236328,5.279999732971191
1776038158178620000,-1522129.726380127,-0.9599999785423279,22.68000030517578,4.679999828338623
1776038158208771300,-1522129.6962287598,-2.0999999046325684,23.69999885559082,5.400000095367432
1776038158218842000,-1522129.686157959,-0.5399999618530273,23.34000015258789,6.239999771118164
1776038158228943600,-1522129.6760563964,0.8999999761581421,22.920000076293945,7.199999809265137
1776038158239044900,-1522129.665955078,1.3199999332427979,22.31999969482422,7.859999656677246
1776038158249115600,-1522129.6558842773,0.7799999713897705,21.779998779296875,8.399999618530273
1776038158259186400,-1522129.6458134765,0.17999999225139618,21.600000381469727,9.119999885559082
1776038158269287700,-1522129.6357124024,-1.7999999523162842,21.119998931884766,8.880000114440918
1776038158289307400,-1522129.615692627,-3.9599997997283936,21.299999237060547,10.139999389648438
1776038158299378200,-1522129.6056218261,-5.159999847412109,21.35999870300293,10.739999771118164
1776038158319489000,-1522129.5855109864,-3.7799999713897705,21.239999771118164,12.420000076293945
1776038158329529300,-1522129.5754707032,-2.6399998664855957,20.760000228881836,12.719999313354492
1776038158339539200,-1522129.5654606933,-1.9199999570846558,19.31999969482422,13.019999504089355
1776038158349640400,-1522129.5553596192,-1.7400000095367432,18.059999465942383,13.139999389648438
1776038158359711200,-1522129.5452888184,-2.0999999046325684,17.399999618530273,13.199999809265137
1776038158399964000,-1522129.5050361329,-7.619999885559082,17.100000381469727,13.979999542236328
1776038158420075000,-1522129.484925049,-7.679999828338623,19.020000457763672,14.880000114440918
1776038158430084900,-1522129.474915039,-6.420000076293945,19.260000228881836,15.65999984741211
1776038158440186000,-1522129.464813965,-5.579999923706055,18.959999084472656,17.03999900817871
1776038158450257000,-1522129.4547431641,-4.920000076293945,18.239999771118164,17.69999885559082
1776038158460297200,-1522129.444702881,-4.559999942779541,16.799999237060547,17.940000534057617
1776038158470337500,-1522129.4346623535,-5.159999847412109,15.899999618530273,18.719999313354492
1776038158480438800,-1522129.4245612794,-4.980000019073486,15.479999542236328,19.19999885559082
1776038158500550000,-1522129.4044501954,-4.619999885559082,14.9399995803833,19.619998931884766
1776038158510651100,-1522129.394348877,-3.419999837875366,15.239999771118164,19.079999923706055
1776038158520752600,-1522129.3842473144,-2.93999981880188,15.479999542236328,19.260000228881836
1776038158530823400,-1522129.3741765136,-2.3999998569488525,15.59999942779541,19.260000228881836
1776038158540894200,-1522129.3641057129,-2.2200000286102295,15.779999732971191,20.100000381469727
1776038158550965000,-1522129.354034912,-2.700000047683716,15.420000076293945,20.81999969482422
1776038158561066200,-1522129.343933838,-2.5799999237060547,15.179999351501465,20.219999313354492
1776038158571045600,-1522129.3339543457,-2.700000047683716,14.519999504089355,20.03999900817871
1776038158581116400,-1522129.323883545,-2.0399999618530273,13.979999542236328,19.85999870300293
1776038158611359200,-1522129.2936408692,-1.1999999284744263,13.979999542236328,20.639999389648438
1776038158621430000,-1522129.2835700684,-1.8600000143051147,13.619999885559082,21
1776038158631531300,-1522129.27346875,-1.2599999904632568,12.899999618530273,20.760000228881836
1776038158641602300,-1522129.263397705,-0.5999999642372131,13.019999504089355,21.420000076293945
1776038158651673000,-1522129.2533269043,-0.9599999785423279,13.559999465942383,21.420000076293945
1776038158661743900,-1522129.2432561035,-0.41999998688697815,13.619999885559082,21.719999313354492
1776038158681885400,-1522129.223114502,-0.7199999690055847,12.84000015258789,20.760000228881836
1776038158702027000,-1522129.2029729004,0.23999999463558197,12.539999961853027,21.059999465942383
1776038158712097800,-1522129.1929020996,0.29999998211860657,12.179999351501465,21.35999870300293
1776038158732239400,-1522129.1727607423,1.0799999237060547,13.4399995803833,22.799999237060547
1776038158742340600,-1522129.162659424,0.7799999713897705,13.319999694824219,21.779998779296875
1776038158752350500,-1522129.152649414,0.5999999642372131,12.84000015258789,21.719999313354492
1776038158762451700,-1522129.14254834,-0.11999999731779099,12.539999961853027,22.19999885559082
1776038158772522500,-1522129.1324775391,-0.5999999642372131,12,21.299999237060547
1776038158782593300,-1522129.1224067383,-0.5999999642372131,12.059999465942383,22.19999885559082
1776038158802735000,-1522129.1022648925,-1.0199999809265137,11.819999694824219,21.119998931884766
1776038158842957000,-1522129.0620429688,0.5999999642372131,11.699999809265137,21.239999771118164
1776038158852997400,-1522129.0520026856,-0.11999999731779099,11.819999694824219,21.18000030517578
1776038158863099000,-1522129.041901123,-0.23999999463558197,11.639999389648438,20.81999969482422
1776038158883240400,-1522129.0217595214,-0.9599999785423279,12.59999942779541,21.420000076293945
1776038158903412500,-1522129.0015874023,-1.1999999284744263,12.59999942779541,20.939998626708984
1776038158913452800,-1522128.991547119,-0.8399999737739563,12.719999313354492,20.939998626708984
1776038158933564000,-1522128.9714360351,-0.5999999642372131,13.380000114440918,20.279998779296875
1776038158943634700,-1522128.9613652343,-0.6599999666213989,14.09999942779541,21
1776038158953705500,-1522128.9512944336,-1.1399999856948853,13.979999542236328,20.760000228881836
1776038158963806700,-1522128.9411933594,-1.9799998998641968,13.199999809265137,21
1776038158973816600,-1522128.9311833496,-2.6399998664855957,13.25999927520752,21.059999465942383
1776038158983887400,-1522128.9211125488,-3.359999895095825,12.239999771118164,20.279998779296875
1776038159034210800,-1522128.8707890625,-6.239999771118164,13.25999927520752,20.03999900817871
1776038159044281600,-1522128.860718506,-6.899999618530273,13.019999504089355,19.979999542236328
1776038159054352400,-1522128.8506477051,-6.71999979019165,13.920000076293945,19.139999389648438
1776038159064453600,-1522128.8405463868,-6.659999847412109,15.239999771118164,18.84000015258789
1776038159074494000,-1522128.8305061036,-7.37999963760376,15.779999732971191,19.139999389648438
1776038159084534300,-1522128.8204658204,-8.09999942779541,16.139999389648438,18.239999771118164
1776038159104645400,-1522128.8003547364,-10.139999389648438,15.839999198913574,17.219999313354492
1776038159114655200,-1522128.7903447265,-11.279999732971191,15.299999237060547,15.899999618530273
1776038159134796800,-1522128.770203125,-11.75999927520752,16.079999923706055,15.779999732971191
1776038159144867600,-1522128.7601323242,-11.09999942779541,15,15
1776038159154877400,-1522128.7501225586,-10.019999504089355,14.880000114440918,15.65999984741211
1776038159164978700,-1522128.7400212402,-9.960000038146973,14.15999984741211,15.539999961853027
1776038159175049500,-1522128.7299504394,-11.34000015258789,13.979999542236328,15.239999771118164
1776038159185120300,-1522128.7198796386,-13.199999809265137,15.119999885559082,16.079999923706055
1776038159205231400,-1522128.6997685547,-16.079999923706055,15.479999542236328,15.420000076293945
1776038159235382800,-1522128.6696171875,-13.4399995803833,16.139999389648438,15.479999542236328
1776038159245453600,-1522128.6595463867,-12.059999465942383,16.739999771118164,15.779999732971191
1776038159255524400,-1522128.649475586,-10.859999656677246,16.739999771118164,14.880000114440918
1776038159265625600,-1522128.6393745118,-9.960000038146973,16.5,15.299999237060547
1776038159275605000,-1522128.6293950195,-10.079999923706055,16.799999237060547,14.880000114440918
1776038159285706200,-1522128.6192937011,-10.619999885559082,17.15999984741211,14.09999942779541
1776038159295777000,-1522128.6092229004,-12.059999465942383,17.940000534057617,13.979999542236328
1776038159325989400,-1522128.5790107423,-14.9399995803833,19.260000228881836,12.65999984741211
1776038159336029700,-1522128.5689702148,-13.920000076293945,20.579999923706055,13.380000114440918
1776038159346100500,-1522128.558899414,-12.899999618530273,20.279998779296875,12.179999351501465
1776038159356171300,-1522128.5488288575,-11.880000114440918,20.8799991607666,12.539999961853027
1776038159366211600,-1522128.53878833,-10.920000076293945,20.639999389648438,13.019999504089355
1776038159376221400,-1522128.5287785644,-10.199999809265137,19.619998931884766,12.119999885559082
1776038159386292200,-1522128.5187077636,-10.679999351501465,19.68000030517578,12.59999942779541
1776038159396332300,-1522128.5086677247,-11.219999313354492,19.68000030517578,12.179999351501465
1776038159426483700,-1522128.4785163575,-13.920000076293945,20.81999969482422,11.09999942779541
1776038159436524000,-1522128.4684760743,-13.559999465942383,21.479999542236328,10.859999656677246
1776038159446625300,-1522128.458374756,-12.239999771118164,21.119998931884766,10.739999771118164
1776038159456696000,-1522128.4483039551,-10.019999504089355,21.600000381469727,10.4399995803833
1776038159466736400,-1522128.438263672,-9,21,10.679999351501465
1776038159476746200,-1522128.428253662,-7.559999942779541,21.35999870300293,11.09999942779541
1776038159486847500,-1522128.418152588,-7.679999828338623,21.959999084472656,11.219999313354492
1776038159496918300,-1522128.4080817872,-8.279999732971191,21.65999984741211,12.239999771118164
1776038159527161300,-1522128.377838623,-10.800000190734863,21.600000381469727,12.359999656677246
1776038159537201700,-1522128.3677983398,-10.859999656677246,22.68000030517578,12.59999942779541
1776038159547272400,-1522128.357727539,-9.84000015258789,22.739999771118164,13.199999809265137
1776038159557343200,-1522128.3476567382,-8.9399995803833,22.079999923706055,13.739999771118164
1776038159567444500,-1522128.33755542,-7.739999771118164,21.959999084472656,14.219999313354492
1776038159577515300,-1522128.327484619,-7.079999923706055,21.059999465942383,14.15999984741211
1776038159587616500,-1522128.317383545,-7.440000057220459,20.8799991607666,15.420000076293945
1776038159597687300,-1522128.3073127442,-7.859999656677246,20.399999618530273,16.020000457763672
1776038159607788800,-1522128.2972111816,-9.539999961853027,19.5,16.5
1776038159647980300,-1522128.2570197755,-14.399999618530273,17.760000228881836,18.35999870300293
1776038159658051000,-1522128.2469489747,-13.619999885559082,17.399999618530273,18.779998779296875
1776038159668121900,-1522128.236878174,-12.539999961853027,17.279998779296875,19.5
1776038159678192600,-1522128.226807373,-11.460000038146973,16.739999771118164,19.739999771118164
1776038159688294100,-1522128.2167058105,-10.019999504089355,16.3799991607666,20.100000381469727
1776038159698303700,-1522128.2066962891,-9.359999656677246,15.239999771118164,20.279998779296875
1776038159708405200,-1522128.1965947265,-8.880000114440918,14.579999923706055,20.520000457763672
1776038159738617600,-1522128.1663823242,-8.9399995803833,12.539999961853027,21
1776038159748718800,-1522128.15628125,-10.019999504089355,12.239999771118164,21.18000030517578
1776038159758820000,-1522128.1461799317,-10.139999389648438,12.119999885559082,21.53999900817871
1776038159768860400,-1522128.1361396485,-10.199999809265137,11.579999923706055,22.020000457763672
1776038159778931200,-1522128.1260688477,-9.65999984741211,11.819999694824219,23.8799991607666
1776038159788971500,-1522128.1160285645,-8.519999504089355,11.519999504089355,25.079999923706055
1776038159798981400,-1522128.1060185547,-7.859999656677246,11.09999942779541,25.260000228881836
1776038159809052200,-1522128.0959477539,-7.5,10.800000190734863,25.3799991607666
1776038159829193700,-1522128.0758061523,-9.300000190734863,10.4399995803833,23.939998626708984
1776038159849365800,-1522128.0556342774,-10.739999771118164,11.579999923706055,24.119998931884766
1776038159859406000,-1522128.0455939942,-9.84000015258789,11.399999618530273,24.420000076293945
1776038159869507600,-1522128.0354924316,-9,11.639999389648438,25.3799991607666
1776038159879578400,-1522128.0254216308,-7.619999885559082,11.819999694824219,26.03999900817871
1776038159889679600,-1522128.0153203125,-6.420000076293945,11.219999313354492,25.739999771118164
1776038159899689500,-1522128.0053105468,-5.940000057220459,11.460000038146973,25.85999870300293
1776038159909760300,-1522127.995239746,-5.759999752044678,11.039999961853027,26.03999900817871
1776038159919831000,-1522127.9851689453,-6.599999904632568,10.859999656677246,25.85999870300293
1776038159929901800,-1522127.9750981445,-7.619999885559082,11.399999618530273,26.279998779296875
1776038159960053000,-1522127.9449470215,-8.279999732971191,12.359999656677246,26.760000228881836
1776038159970124000,-1522127.9348759765,-7.019999980926514,12.179999351501465,26.8799991607666
1776038159980133600,-1522127.9248664551,-7.079999923706055,12,27
1776038159990204400,-1522127.9147956544,-6.299999713897705,12.359999656677246,26.639999389648438
1776038160000244700,-1522127.9047553712,-6.119999885559082,11.09999942779541,26.03999900817871
1776038160010315500,-1522127.8946845704,-6.059999942779541,11.09999942779541,26.69999885559082
1776038160020325400,-1522127.8846745605,-4.739999771118164,11.279999732971191,27
1776038160040497400,-1522127.8645026856,-4.199999809265137,11.460000038146973,27.239999771118164
1776038160070709800,-1522127.8342902833,-6.779999732971191,13.4399995803833,26.34000015258789
1776038160080719600,-1522127.8242802734,-7.5,13.920000076293945,26.69999885559082
1776038160090820900,-1522127.8141791993,-7.019999980926514,14.09999942779541,26.760000228881836
1776038160100800300,-1522127.804199707,-6.480000019073486,14.039999961853027,26.459999084472656
1776038160110901500,-1522127.7940983886,-4.799999713897705,13.979999542236328,26.81999969482422
1776038160120941800,-1522127.7840581054,-3.6599998474121094,14.279999732971191,26.760000228881836
1776038160131043000,-1522127.7739570313,-2.879999876022339,13.859999656677246,26.639999389648438
1776038160151184600,-1522127.7538154298,-2.2799999713897705,14.639999389648438,26.69999885559082
1776038160171326200,-1522127.7336738282,-1.3199999332427979,16.079999923706055,26.8799991607666
1776038160181366500,-1522127.723633545,-1.6200000047683716,16.139999389648438,26.8799991607666
1776038160191468000,-1522127.7135319824,-2.0399999618530273,15.65999984741211,26.760000228881836
1776038160201538800,-1522127.7034611816,-3.240000009536743,15.179999351501465,26.51999855041504
1776038160211609600,-1522127.6933903808,-4.019999980926514,14.519999504089355,25.85999870300293
1776038160221650000,-1522127.6833500976,-3.8999998569488525,15.239999771118164,25.439998626708984
1776038160231751200,-1522127.6732487793,-3.7799999713897705,16.139999389648438,25.139999389648438
1776038160251923200,-1522127.6530769044,-2.5799999237060547,17.69999885559082,25.979999542236328
1776038160272034300,-1522127.6329655761,-2.2200000286102295,18.059999465942383,26.760000228881836
1776038160282044200,-1522127.6229558105,-2.879999876022339,17.760000228881836,26.939998626708984
1776038160292084500,-1522127.6129155273,-2.6399998664855957,17.69999885559082,27
1776038160302094000,-1522127.602906006,-3.5399999618530273,17.279998779296875,27.479999542236328
1776038160312195300,-1522127.5928046876,-3.8399999141693115,17.219999313354492,27.18000030517578
1776038160322266400,-1522127.5827336425,-4.380000114440918,16.979999542236328,26.399999618530273
1776038160332367600,-1522127.5726323242,-6.059999942779541,17.399999618530273,26.15999984741211
1776038160352478700,-1522127.5525212402,-9.359999656677246,19.020000457763672,26.099998474121094
1776038160362488300,-1522127.5425117188,-10.859999656677246,20.15999984741211,26.69999885559082
1776038160372589800,-1522127.5324101562,-12.239999771118164,20.81999969482422,26.8799991607666
1776038160382630100,-1522127.522369873,-13.079999923706055,21.479999542236328,26.459999084472656
1776038160392701000,-1522127.5122990722,-13.920000076293945,22.020000457763672,25.31999969482422
1776038160402771700,-1522127.5022282714,-14.279999732971191,22.85999870300293,24.119998931884766
1776038160412842500,-1522127.4921574707,-14.15999984741211,23.69999885559082,23.15999984741211
1776038160422913300,-1522127.48208667,-13.799999237060547,24.299999237060547,22.139999389648438
1776038160432984000,-1522127.472015869,-13.4399995803833,24.779998779296875,21.959999084472656
1776038160443024400,-1522127.461975586,-13.5,24.65999984741211,20.939998626708984
1776038160473206300,-1522127.4317937011,-14.819999694824219,23.8799991607666,20.459999084472656
1776038160483277000,-1522127.4217229004,-15.420000076293945,24.239999771118164,20.520000457763672
1776038160493347800,-1522127.4116520996,-16.079999923706055,24.420000076293945,20.279998779296875
1776038160503357400,-1522127.4016425782,-16.920000076293945,25.01999855041504,20.03999900817871
1776038160513459000,-1522127.3915410156,-17.219999313354492,25.439998626708984,19.31999969482422
1776038160523529700,-1522127.3814702148,-18.119998931884766,25.799999237060547,18.779998779296875
1776038160533631000,-1522127.3713691407,-18.119998931884766,25.799999237060547,17.579999923706055
1776038160563873800,-1522127.3411262208,-16.799999237060547,27.65999984741211,15.239999771118164
1776038160573944800,-1522127.3310551757,-16.799999237060547,28.559999465942383,14.699999809265137
1776038160584015600,-1522127.320984375,-16.559999465942383,29.15999984741211,14.219999313354492
1776038160594086400,-1522127.3109135742,-17.100000381469727,29.34000015258789,13.739999771118164
1776038160604157200,-1522127.3008427734,-17.81999969482422,29.8799991607666,13.559999465942383
1776038160614258400,-1522127.290741455,-17.579999923706055,30.35999870300293,12.960000038146973
1776038160624298800,-1522127.2807011718,-17.579999923706055,30.479999542236328,11.880000114440918
1776038160634400000,-1522127.2706000977,-16.920000076293945,31.19999885559082,11.34000015258789
1776038160654572000,-1522127.2504279786,-16.260000228881836,31.3799991607666,9.899999618530273
1776038160664582000,-1522127.240418213,-16.619998931884766,31.01999855041504,9.239999771118164
1776038160674683100,-1522127.2303168946,-16.5,31.31999969482422,8.9399995803833
1776038160684754000,-1522127.2202460938,-16.85999870300293,30.65999984741211,8.220000267028809
1776038160694825000,-1522127.2101750488,-17.34000015258789,30.959999084472656,9
1776038160704865000,-1522127.2001350098,-17.760000228881836,30.719999313354492,9.119999885559082
1776038160714935800,-1522127.190064209,-18.35999870300293,30.239999771118164,8.34000015258789
1776038160725006800,-1522127.179993164,-18.779998779296875,30.119998931884766,8.279999732971191
1776038160735077600,-1522127.1699223632,-18.84000015258789,29.459999084472656,7.5
1776038160765198300,-1522127.1398017579,-17.279998779296875,30.65999984741211,8.34000015258789
1776038160775269000,-1522127.129730957,-16.5,31.01999855041504,8.760000228881836
1776038160785309400,-1522127.119690674,-14.819999694824219,31.139999389648438,9
1776038160795410700,-1522127.1095893555,-13.5,31.3799991607666,9.960000038146973
1776038160805451000,-1522127.0995490723,-12.960000038146973,31.3799991607666,10.979999542236328
1776038160815552300,-1522127.089447754,-12.179999351501465,31.559999465942383,11.279999732971191
1776038160825623300,-1522127.079376709,-12.59999942779541,30.65999984741211,11.34000015258789
1776038160835694000,-1522127.0693059082,-12.300000190734863,30.719999313354492,12.239999771118164
1776038160875946800,-1522127.0290532226,-11.279999732971191,30.059999465942383,16.559999465942383
1776038160885987000,-1522127.0190129394,-11.579999923706055,28.260000228881836,16.739999771118164
1776038160896057900,-1522127.0089421386,-11.460000038146973,27.65999984741211,18
1776038160906098000,-1522126.9989020997,-12,26.459999084472656,19.439998626708984
1776038160916169000,-1522126.9888310547,-12.84000015258789,24.84000015258789,19.559999465942383
1776038160926209000,-1522126.9787910157,-13.5,23.81999969482422,21.600000381469727
1776038160936279800,-1522126.968720215,-14.75999927520752,22.739999771118164,23.279998779296875
1776038160946350800,-1522126.95864917,-15.960000038146973,20.69999885559082,23.51999855041504
1776038160986664400,-1522126.9183354492,-18.18000030517578,17.399999618530273,24.35999870300293
1776038160996735200,-1522126.9082646484,-19.020000457763672,16.799999237060547,25.559999465942383
1776038161006806000,-1522126.8981940919,-19.260000228881836,16.260000228881836,25.799999237060547
1776038161016907300,-1522126.8880927735,-19.139999389648438,16.139999389648438,25.619998931884766
1776038161026947600,-1522126.8780524903,-19.739999771118164,15.839999198913574,26.099998474121094
1776038161037049000,-1522126.8679509277,-20.15999984741211,15.479999542236328,26.099998474121094
1776038161047058700,-1522126.8579414063,-20.100000381469727,15.65999984741211,27.35999870300293
1776038161067200300,-1522126.8377998048,-20.03999900817871,16.079999923706055,30.420000076293945
1776038161097351700,-1522126.8076484376,-13.859999656677246,19.5,31.559999465942383
1776038161107392000,-1522126.7976079101,-12.420000076293945,19.85999870300293,31.439998626708984
1776038161117462800,-1522126.7875371093,-11.639999389648438,19.139999389648438,31.31999969482422
1776038161127472600,-1522126.7775273437,-10.859999656677246,19.85999870300293,31.439998626708984
1776038161137543400,-1522126.767456543,-10.559999465942383,20.34000015258789,32.040000915527344
1776038161147583700,-1522126.7574162597,-10.019999504089355,20.639999389648438,31.739999771118164
1776038161157685000,-1522126.7473149414,-9.059999465942383,21.84000015258789,31.5
1776038161197968100,-1522126.7070319825,-5.819999694824219,22.020000457763672,32.040000915527344
1776038161208008400,-1522126.696991455,-5.460000038146973,21.53999900817871,31.19999885559082
1776038161218079200,-1522126.6869206543,-6.119999885559082,21.059999465942383,31.139999389648438
1776038161228150000,-1522126.6768500977,-6.239999771118164,20.579999923706055,31.19999885559082
1776038161238190300,-1522126.6668095703,-5.699999809265137,20.939998626708984,31.439998626708984
1776038161248200200,-1522126.6567998047,-6.299999713897705,20.760000228881836,31.3799991607666
1776038161258301400,-1522126.6466984863,-6,20.81999969482422,32.21999740600586
1776038161278382000,-1522126.62661792,-5.87999963760376,21.18000030517578,32.459999084472656
1776038161318634800,-1522126.5863652343,-3.9599997997283936,20.100000381469727,33.540000915527344
1776038161328674800,-1522126.5763251954,-3.4800000190734863,20.100000381469727,33.599998474121094
1776038161338776300,-1522126.5662236328,-3.179999828338623,19.920000076293945,33.36000061035156
1776038161348877600,-1522126.5561223144,-3.299999952316284,19.799999237060547,34.68000030517578
1776038161358978800,-1522126.5460212403,-3.5399999618530273,19.31999969482422,34.07999801635742
1776038161389099800,-1522126.5159001464,-3.059999942779541,19.31999969482422,34.07999801635742
1776038161399170600,-1522126.5058293457,-2.5199999809265137,19.619998931884766,34.439998626708984
1776038161409241300,-1522126.495758545,-2.5799999237060547,19.85999870300293,35.63999938964844
1776038161419342600,-1522126.4856574708,-2.1599998474121094,20.399999618530273,36.36000061035156
1776038161429444000,-1522126.4755559082,-2.4600000381469727,20.520000457763672,36
1776038161439515000,-1522126.4654851074,-2.5199999809265137,21,36.29999923706055
1776038161449585700,-1522126.4554143066,-2.3999998569488525,21.479999542236328,35.39999771118164
1776038161459626000,-1522126.4453740234,-2.3399999141693115,21.779998779296875,35.459999084472656
1776038161479828500,-1522126.425171631,-2.700000047683716,22.020000457763672,34.79999923706055
1776038161499939600,-1522126.4050603027,-3.179999828338623,21.959999084472656,35.15999984741211
1776038161510040800,-1522126.3949592286,-3.359999895095825,22.619998931884766,35.279998779296875
1776038161520111600,-1522126.3848884278,-3.299999952316284,22.19999885559082,34.68000030517578
1776038161530182400,-1522126.374817627,-3.7200000286102295,21.600000381469727,33.84000015258789
1776038161540253200,-1522126.3647468262,-4.199999809265137,21.84000015258789,33.65999984741211
1776038161550324200,-1522126.3546757812,-5.159999847412109,21.35999870300293,33.41999816894531
1776038161560395000,-1522126.3446049804,-5.159999847412109,21.959999084472656,33.47999954223633
1776038161570465800,-1522126.3345341797,-6.119999885559082,21.119998931884766,33.23999786376953
1776038161590577000,-1522126.3144230957,-5.639999866485596,22.31999969482422,33.89999771118164
1776038161610657300,-1522126.2943427735,-6.480000019073486,22.799999237060547,33.599998474121094
1776038161620697600,-1522126.2843024903,-7.619999885559082,22.619998931884766,32.880001068115234
1776038161630798800,-1522126.274201172,-8.819999694824219,22.559999465942383,32.81999969482422
1776038161640870000,-1522126.264130127,-10.380000114440918,22.68000030517578,32.70000076293945
1776038161650910000,-1522126.254090088,-11.15999984741211,23.81999969482422,32.279998779296875
1776038161660950300,-1522126.2440498048,-11.460000038146973,25.5,31.3799991607666
1776038161691193300,-1522126.2138066406,-11.039999961853027,28.739999771118164,27.420000076293945
1776038161701233400,-1522126.2037666016,-11.460000038146973,28.559999465942383,27.119998931884766
1776038161711304400,-1522126.1936955566,-11.639999389648438,28.85999870300293,26.760000228881836
1776038161721375200,-1522126.1836247558,-11.819999694824219,28.85999870300293,26.760000228881836
1776038161731384800,-1522126.1736152344,-12.84000015258789,28.19999885559082,26.099998474121094
1776038161741425200,-1522126.1635749512,-13.5,27.779998779296875,25.619998931884766
1776038161751496000,-1522126.1535041505,-14.34000015258789,27.959999084472656,25.5
1776038161761566700,-1522126.1434333497,-15,28.3799991607666,24
1776038161801819400,-1522126.1031806641,-13.920000076293945,30.899999618530273,22.619998931884766
1776038161811890200,-1522126.0931098633,-13.920000076293945,31.5,22.19999885559082
1776038161821991700,-1522126.0830083007,-13.920000076293945,31.979999542236328,20.459999084472656
1776038161832062500,-1522126.0729375,-13.5,32.39999771118164,19.920000076293945
1776038161842163700,-1522126.0628361816,-13.859999656677246,32.63999938964844,18.779998779296875
1776038161852234500,-1522126.052765625,-14.519999504089355,32.63999938964844,18.35999870300293
1776038161862305300,-1522126.0426948243,-15.59999942779541,33.23999786376953,17.8799991607666
1776038161872376000,-1522126.0326240235,-16.440000534057617,33.540000915527344,16.85999870300293
1776038161892517600,-1522126.012482422,-17.100000381469727,34.79999923706055,15.719999313354492
1776038161902588400,-1522126.0024116212,-17.15999984741211,34.68000030517578,15.420000076293945
1776038161912628700,-1522125.992371338,-16.739999771118164,35.279998779296875,15.179999351501465
1776038161922699500,-1522125.9823005372,-17.459999084472656,35.459999084472656,15.59999942779541
1776038161932739800,-1522125.972260254,-16.799999237060547,34.97999954223633,14.399999618530273
1776038161942780200,-1522125.9622197265,-16.559999465942383,34.73999786376953,14.519999504089355
1776038161952851000,-1522125.95214917,-17.219999313354492,33.959999084472656,13.4399995803833
1776038161962952200,-1522125.9420478516,-17.100000381469727,34.13999938964844,13.380000114440918
1776038161973023000,-1522125.9319770508,-17.520000457763672,34.13999938964844,13.25999927520752
1776038162003235600,-1522125.9017644043,-20.520000457763672,34.79999923706055,12.899999618530273
1776038162023316000,-1522125.881684082,-20.219999313354492,35.52000045776367,14.639999389648438
1776038162033356300,-1522125.871643799,-19.68000030517578,35.7599983215332,15.479999542236328
1776038162043427000,-1522125.861572998,-18.959999084472656,35.040000915527344,15.899999618530273
1776038162053497900,-1522125.8515021973,-17.639999389648438,34.97999954223633,16.68000030517578
1776038162063599400,-1522125.8414006347,-18,34.07999801635742,16.139999389648438
1776038162073670100,-1522125.831329834,-18.059999465942383,33.959999084472656,16.559999465942383
1776038162113922800,-1522125.7910771484,-17.100000381469727,34.5,20.100000381469727
1776038162123993600,-1522125.7810063476,-17.100000381469727,34.13999938964844,20.69999885559082
1776038162134003200,-1522125.7709968262,-17.219999313354492,33.36000061035156,21.84000015258789
1776038162144104700,-1522125.7608952636,-16.979999542236328,32.70000076293945,21.84000015258789
1776038162154175500,-1522125.7508244629,-17.579999923706055,31.559999465942383,22.85999870300293
1776038162164276700,-1522125.7407231445,-18.18000030517578,30.420000076293945,24
1776038162174317000,-1522125.7306828613,-18.299999237060547,29.81999969482422,24.18000030517578
1776038162184418300,-1522125.7205817872,-19.079999923706055,28.979999542236328,25.139999389648438
1776038162224610000,-1522125.6803898925,-19.5,26.219999313354492,25.799999237060547
1776038162234680800,-1522125.6703190918,-18.899999618530273,25.619998931884766,25.799999237060547
1776038162244751600,-1522125.660248291,-18.299999237060547,25.799999237060547,25.799999237060547
1776038162254822400,-1522125.6501774902,-18.84000015258789,25.079999923706055,26.099998474121094
1776038162264862700,-1522125.640137207,-19.079999923706055,24.299999237060547,26.459999084472656
1776038162274933500,-1522125.6300664062,-19.979999542236328,24.119998931884766,27.479999542236328
1776038162285034800,-1522125.619965332,-20.8799991607666,23.939998626708984,28.19999885559082
1776038162325318000,-1522125.579682129,-22.439998626708984,23.81999969482422,33.540000915527344
1776038162335389000,-1522125.569611084,-21.65999984741211,22.85999870300293,34.439998626708984
1776038162345459700,-1522125.5595402832,-21.420000076293945,21.959999084472656,34.55999755859375
1776038162355530500,-1522125.5494694824,-21,21.959999084472656,36.29999923706055
1776038162365601300,-1522125.5393986816,-19.920000076293945,22.139999389648438,36.71999740600586
1776038162375672000,-1522125.5293278808,-19.079999923706055,22.5,36.84000015258789
1776038162415985700,-1522125.4890144044,-17.03999900817871,21.420000076293945,37.31999969482422
1776038162436035800,-1522125.4689641113,-14.880000114440918,21.239999771118164,39
1776038162446137000,-1522125.458862793,-14.699999809265137,20.639999389648438,39.119998931884766
1776038162456208000,-1522125.4487922364,-14.34000015258789,19.5,39
1776038162466278700,-1522125.4387214356,-14.819999694824219,18.53999900817871,39.23999786376953
1776038162476349400,-1522125.4286506348,-15.420000076293945,17.639999389648438,39.36000061035156
1776038162486420200,-1522125.418579834,-15.779999732971191,16.920000076293945,39.23999786376953
1776038162496491000,-1522125.4085090333,-15.539999961853027,17.219999313354492,40.13999938964844
1776038162526703600,-1522125.3782963867,-13.380000114440918,17.459999084472656,40.31999969482422
1776038162546845200,-1522125.3581547851,-12.420000076293945,17.459999084472656,40.37999725341797
1776038162556916000,-1522125.3480839843,-11.9399995803833,17.639999389648438,41.21999740600586
1776038162567017200,-1522125.337982666,-11.75999927520752,16.85999870300293,41.39999771118164
1776038162577088000,-1522125.3279121094,-10.4399995803833,16.5,41.81999969482422
1776038162587189200,-1522125.317810791,-10.319999694824219,15.65999984741211,41.87999725341797
1776038162597260000,-1522125.3077399903,-10.5,14.639999389648438,41.15999984741211
1776038162627411500,-1522125.277588623,-11.519999504089355,15.779999732971191,41.70000076293945
1776038162647553000,-1522125.2574470215,-10.859999656677246,18.18000030517578,43.20000076293945
1776038162657623800,-1522125.2473762208,-9.779999732971191,18.18000030517578,43.55999755859375
1776038162667694600,-1522125.23730542,-8.519999504089355,17.760000228881836,43.439998626708984
1776038162677765600,-1522125.227234375,-7.440000057220459,17.34000015258789,44.040000915527344
1776038162687805700,-1522125.217194336,-7.559999942779541,15.839999198913574,42.89999771118164
1776038162697815600,-1522125.2071843261,-7.559999942779541,15.299999237060547,41.939998626708984
1776038162748200200,-1522125.1567998047,-10.380000114440918,18.479999542236328,42.119998931884766
1776038162768341800,-1522125.136658203,-8.34000015258789,19.5,41.87999725341797
1776038162778443000,-1522125.1265568847,-6.420000076293945,20.15999984741211,41.57999801635742
1776038162788513800,-1522125.1164863282,-6.359999656677246,20.15999984741211,42.29999923706055
1776038162798584600,-1522125.1064155274,-5.579999923706055,20.100000381469727,41.939998626708984
1776038162828766500,-1522125.0762336426,-6.539999961853027,20.279998779296875,40.97999954223633
1776038162848816600,-1522125.0561833496,-7.859999656677246,21.959999084472656,42.599998474121094
1776038162858856700,-1522125.0461433106,-8.399999618530273,22.439998626708984,42.05999755859375
1776038162868958200,-1522125.036041748,-9.239999771118164,22.3799991607666,41.279998779296875
1776038162879029000,-1522125.0259709472,-9.65999984741211,22.19999885559082,39.89999771118164
1776038162889099800,-1522125.0159001464,-10.380000114440918,22.079999923706055,39.18000030517578
1776038162899140000,-1522125.0058598632,-12.359999656677246,22.799999237060547,39.540000915527344
1776038162909211000,-1522124.9957890625,-15,22.619998931884766,39.29999923706055
1776038162949463600,-1522124.955536377,-24.719999313354492,22.3799991607666,37.07999801635742
1776038162959534300,-1522124.9454655761,-25.3799991607666,23.51999855041504,36.05999755859375
1776038162969635600,-1522124.935364502,-24.899999618530273,24.84000015258789,34.73999786376953
1776038162979676000,-1522124.9253239746,-23.8799991607666,26.81999969482422,34.439998626708984
1776038162989777200,-1522124.9152229005,-22.799999237060547,27.119998931884766,32.15999984741211
1776038162999817500,-1522124.9051826173,-21.479999542236328,27.65999984741211,30.84000015258789
1776038163009857800,-1522124.8951420898,-21.18000030517578,28.5,30.35999870300293
1776038163019867600,-1522124.8851323242,-21.059999465942383,28.619998931884766,29.099998474121094
1776038163040009200,-1522124.8649907226,-22.260000228881836,31.19999885559082,28.559999465942383
1776038163060089900,-1522124.8449101562,-22.260000228881836,32.81999969482422,26.099998474121094
1776038163080262000,-1522124.824738037,-20.34000015258789,33.36000061035156,24.719999313354492
1776038163090363100,-1522124.814636963,-19.799999237060547,33.29999923706055,23.69999885559082
1776038163100403500,-1522124.8045964355,-19.619998931884766,34.31999969482422,23.939998626708984
1776038163110504700,-1522124.7944953614,-19.31999969482422,34.91999816894531,22.559999465942383
1776038163130615800,-1522124.7743842774,-20.939998626708984,36.119998931884766,20.639999389648438
1776038163150757400,-1522124.7542426758,-21.53999900817871,36.71999740600586,17.69999885559082
1776038163160828200,-1522124.744171875,-20.34000015258789,36.36000061035156,16.920000076293945
1776038163170929700,-1522124.7340703125,-19.559999465942383,36.47999954223633,15.839999198913574
1776038163180939300,-1522124.724060791,-18.420000076293945,36,14.819999694824219
1776038163191040800,-1522124.7139592285,-18.299999237060547,36.89999771118164,15.119999885559082
1776038163201080800,-1522124.7039191895,-18.719999313354492,37.5,14.279999732971191
1776038163211152000,-1522124.6938481445,-19.260000228881836,38.15999984741211,13.979999542236328
1776038163221161500,-1522124.683838623,-19.85999870300293,38.87999725341797,13.319999694824219
1776038163231262700,-1522124.6737373048,-20.399999618530273,39.18000030517578,12.239999771118164
1776038163251373800,-1522124.6536262208,-19.31999969482422,40.5,11.399999618530273
1776038163261383700,-1522124.643616211,-17.34000015258789,40.91999816894531,11.219999313354492
1776038163271485000,-1522124.6335151368,-16.31999969482422,41.15999984741211,10.859999656677246
1776038163281555700,-1522124.623444336,-15.539999961853027,40.37999725341797,10.619999885559082
1776038163291626500,-1522124.6133735352,-14.880000114440918,40.31999969482422,11.09999942779541
1776038163301697300,-1522124.6033027344,-15.359999656677246,40.07999801635742,10.920000076293945
1776038163311768300,-1522124.5932316894,-15.960000038146973,39.540000915527344,10.979999542236328
1776038163321839000,-1522124.5831608886,-16.739999771118164,39.779998779296875,10.319999694824219
1776038163352082000,-1522124.5529179687,-18,41.39999771118164,10.199999809265137
1776038163382324700,-1522124.522675293,-15.779999732971191,40.37999725341797,11.75999927520752
1776038163392426200,-1522124.5125737304,-14.279999732971191,39.84000015258789,12.179999351501465
1776038163402497000,-1522124.5025029297,-12.960000038146973,39.23999786376953,12.59999942779541
1776038163412567800,-1522124.4924321289,-12.119999885559082,39.47999954223633,13.319999694824219
1776038163422638600,-1522124.482361328,-12.300000190734863,38.81999969482422,13.079999923706055
1776038163442780200,-1522124.4622197265,-14.039999961853027,39.18000030517578,15.119999885559082
1776038163452820500,-1522124.4521794433,-14.519999504089355,39,15.539999961853027
1776038163462830300,-1522124.4421696777,-13.739999771118164,39.779998779296875,17.279998779296875
1776038163472901000,-1522124.432098877,-13.199999809265137,39.47999954223633,17.399999618530273
1776038163482972000,-1522124.4220280761,-11.579999923706055,39.41999816894531,18
1776038163493042700,-1522124.4119572754,-10.979999542236328,38.15999984741211,17.81999969482422
1776038163503021800,-1522124.4019782715,-11.519999504089355,37.13999938964844,18.059999465942383
1776038163513123000,-1522124.3918769532,-12.119999885559082,36.84000015258789,19.439998626708984
1776038163523193900,-1522124.3818061524,-13.079999923706055,35.81999969482422,19.619998931884766
1776038163563355100,-1522124.3416447754,-16.020000457763672,37.07999801635742,21.479999542236328
1776038163573426000,-1522124.3315739746,-15.59999942779541,37.02000045776367,21.420000076293945
1776038163583466200,-1522124.3215336914,-14.279999732971191,37.86000061035156,22.799999237060547
1776038163593537000,-1522124.3114628906,-13.199999809265137,37.79999923706055,23.279998779296875
1776038163603607800,-1522124.3013920898,-11.399999618530273,37.20000076293945,23.100000381469727
1776038163613678600,-1522124.291321289,-11.15999984741211,36.65999984741211,24
1776038163623688400,-1522124.2813115234,-12.359999656677246,34.91999816894531,23.81999969482422
1776038163633698000,-1522124.271302002,-13.199999809265137,34.2599983215332,24.53999900817871
1776038163663849500,-1522124.2411506348,-14.34000015258789,34.07999801635742,27.53999900817871
1776038163673950700,-1522124.2310493165,-14.9399995803833,33.779998779296875,28.19999885559082
1776038163684021500,-1522124.2209785157,-15.239999771118164,33.119998931884766,28.31999969482422
1776038163694092500,-1522124.2109074707,-15.479999542236328,32.81999969482422,29.51999855041504
1776038163714264600,-1522124.1907353515,-14.639999389648438,31.619998931884766,30.65999984741211
1776038163724305000,-1522124.1806950683,-13.619999885559082,30.599998474121094,30.65999984741211
1776038163734406100,-1522124.17059375,-14.399999618530273,30.17999839782715,30.84000015258789
1776038163774598000,-1522124.1304020996,-15.119999885559082,29.399999618530273,33.36000061035156
1776038163784638000,-1522124.1203620606,-14.34000015258789,29.099998474121094,33.599998474121094
1776038163794739500,-1522124.110260498,-14.219999313354492,28.799999237060547,34.73999786376953
1776038163814881000,-1522124.0901188964,-13.199999809265137,26.399999618530273,36.41999816894531
1776038163824921300,-1522124.0800786132,-13.5,25.19999885559082,37.02000045776367
1776038163835022600,-1522124.069977295,-13.739999771118164,24.479999542236328,37.31999969482422
1776038163845093400,-1522124.0599067383,-14.519999504089355,23.81999969482422,37.619998931884766
1776038163875305700,-1522124.029694336,-16.979999542236328,22.619998931884766,36.779998779296875
1776038163885376500,-1522124.0196235352,-17.520000457763672,22.559999465942383,36.41999816894531
1776038163895447300,-1522124.0095527344,-16.5,22.799999237060547,36.41999816894531
1776038163905487600,-1522123.9995124512,-15.059999465942383,22.799999237060547,36.599998474121094
1776038163915528000,-1522123.989472168,-13.4399995803833,22.920000076293945,37.13999938964844
1776038163925598700,-1522123.9794013673,-11.579999923706055,22.559999465942383,36.779998779296875
1776038163935700000,-1522123.969300049,-11.039999961853027,21.899999618530273,37.31999969482422
1776038163945740300,-1522123.9592597657,-11.399999618530273,21.65999984741211,37.31999969482422
1776038163965881900,-1522123.9391181641,-13.319999694824219,22.020000457763672,36.599998474121094
1776038163975983400,-1522123.9290166015,-13.739999771118164,22.31999969482422,36.41999816894531
1776038163996125000,-1522123.908875,-12.960000038146973,23.03999900817871,35.57999801635742
1776038164006134800,-1522123.8988652343,-11.819999694824219,23.69999885559082,36.119998931884766
1776038164016236000,-1522123.888763916,-10.619999885559082,24.059999465942383,36.36000061035156
1776038164026306800,-1522123.8786931152,-9.479999542236328,24.479999542236328,36.71999740600586
1776038164036408000,-1522123.868592041,-7.919999599456787,24.18000030517578,36.47999954223633
1776038164046418000,-1522123.8585820312,-7.5,24.420000076293945,37.13999938964844
1776038164086701000,-1522123.818298828,-6.779999732971191,24.600000381469727,35.939998626708984
1776038164096771800,-1522123.8082282715,-7.139999866485596,24.600000381469727,36.36000061035156
1776038164106842600,-1522123.7981574708,-7.5,24.059999465942383,35.52000045776367
1776038164116883000,-1522123.7881169433,-7.199999809265137,24.600000381469727,34.73999786376953
1776038164126953700,-1522123.7780463868,-7.980000019073486,24.299999237060547,33.959999084472656
1776038164137024500,-1522123.767975586,-7.980000019073486,23.81999969482422,33.05999755859375
1776038164147064800,-1522123.7579350586,-8.34000015258789,24,32.57999801635742
1776038164157135600,-1522123.747864502,-8.9399995803833,23.34000015258789,32.040000915527344
1776038164207459000,-1522123.6975410157,-10.019999504089355,24.65999984741211,32.880001068115234
1776038164227600600,-1522123.6773994141,-11.460000038146973,25.260000228881836,32.21999740600586
1776038164247742200,-1522123.6572578126,-12.899999618530273,26.15999984741211,31.260000228881836
1776038164257813200,-1522123.6471867675,-14.219999313354492,26.279998779296875,30
1776038164287934000,-1522123.6170661622,-13.920000076293945,28.5,26.15999984741211
1776038164297974300,-1522123.6070256347,-13.25999927520752,29.760000228881836,25.139999389648438
1776038164308045000,-1522123.596954834,-12.779999732971191,29.579999923706055,24.35999870300293
1776038164318055000,-1522123.5869450683,-13.139999389648438,29.639999389648438,23.34000015258789
1776038164328095200,-1522123.5769047851,-14.219999313354492,29.639999389648438,22.020000457763672
1776038164338196500,-1522123.5668034668,-14.460000038146973,29.51999855041504,21.84000015258789
1776038164348267300,-1522123.556732666,-15.539999961853027,29.15999984741211,20.939998626708984
1776038164358277000,-1522123.5467229004,-15.239999771118164,29.760000228881836,20.399999618530273
1776038164368317200,-1522123.5366828614,-15.059999465942383,29.760000228881836,19.619998931884766
1776038164408539400,-1522123.4964606934,-16.020000457763672,31.01999855041504,15.899999618530273
1776038164418610200,-1522123.4863898926,-15.479999542236328,31.559999465942383,15.420000076293945
1776038164428650500,-1522123.4763496094,-15.839999198913574,32.099998474121094,15.359999656677246
1776038164438721300,-1522123.4662788087,-15.779999732971191,32.459999084472656,14.880000114440918
1776038164448700700,-1522123.4562993164,-15.65999984741211,32.81999969482422,14.399999618530273
1776038164458802000,-1522123.446197998,-15.479999542236328,32.880001068115234,13.4399995803833
1776038164468872700,-1522123.4361271972,-15.299999237060547,33.05999755859375,12.779999732971191
1776038164499115500,-1522123.4058845215,-13.979999542236328,34.13999938964844,9.779999732971191
1776038164509217000,-1522123.395782959,-14.039999961853027,34.619998931884766,8.880000114440918
1776038164519318300,-1522123.3856816406,-14.34000015258789,34.86000061035156,8.399999618530273
1776038164529389000,-1522123.3756108398,-14.9399995803833,35.21999740600586,8.039999961853027
1776038164539429400,-1522123.3655705566,-15.179999351501465,34.86000061035156,8.220000267028809
1776038164549530600,-1522123.3554694825,-14.9399995803833,34.91999816894531,7.859999656677246
1776038164559601400,-1522123.3453986817,-14.219999313354492,35.15999984741211,7.440000057220459
1776038164569672200,-1522123.335327881,-13.799999237060547,35.099998474121094,7.259999752044678
1776038164579712500,-1522123.3252875977,-13.25999927520752,35.52000045776367,6.539999961853027
1776038164619934700,-1522123.2850651855,-12.119999885559082,36.18000030517578,5.579999923706055
1776038164630036000,-1522123.2749641114,-12.59999942779541,36.119998931884766,5.699999809265137
1776038164640106800,-1522123.2648933106,-12.539999961853027,35.459999084472656,5.400000095367432
1776038164650086100,-1522123.2549138183,-13.25999927520752,34.73999786376953,5.639999866485596
1776038164660157000,-1522123.2448430175,-13.559999465942383,35.459999084472656,6.239999771118164
1776038164670258200,-1522123.2347419434,-13.380000114440918,35.279998779296875,6.420000076293945
1776038164680329000,-1522123.2246711426,-12.960000038146973,35.39999771118164,6.539999961853027
1776038164710419200,-1522123.1945808106,-11.039999961853027,35.040000915527344,8.279999732971191
1776038164720520700,-1522123.184479248,-11.34000015258789,34.86000061035156,9.119999885559082
1776038164730530300,-1522123.1744697266,-11.579999923706055,34.86000061035156,9.420000076293945
1776038164740540200,-1522123.164459961,-11.34000015258789,35.34000015258789,10.079999923706055
1776038164750611000,-1522123.1543891602,-11.699999809265137,34.439998626708984,10.079999923706055
1776038164760651300,-1522123.1443486328,-11.399999618530273,34.20000076293945,10.380000114440918
1776038164770691600,-1522123.1343083496,-11.460000038146973,34.07999801635742,11.639999389648438
1776038164780762400,-1522123.1242375488,-12.719999313354492,33.23999786376953,13.319999694824219
1776038164790863600,-1522123.1141364747,-13.25999927520752,32.7599983215332,14.09999942779541
1776038164811005200,-1522123.093994873,-14.15999984741211,30.599998474121094,15.299999237060547
1776038164831116300,-1522123.0738837891,-13.559999465942383,29.459999084472656,17.34000015258789
1776038164841187000,-1522123.0638129883,-14.34000015258789,28.739999771118164,18.35999870300293
1776038164851257900,-1522123.0537421876,-14.279999732971191,27.779998779296875,19.3799991607666
1776038164861298200,-1522123.0437019044,-15.239999771118164,26.279998779296875,20.520000457763672
1776038164871399400,-1522123.033600586,-15.779999732971191,25.68000030517578,21.420000076293945
1776038164881501000,-1522123.0234990234,-16.139999389648438,24.239999771118164,22.3799991607666
1776038164891571700,-1522123.0134282226,-17.459999084472656,22.979999542236328,22.85999870300293
1776038164921814500,-1522122.983185547,-19.260000228881836,19.739999771118164,23.15999984741211
1776038164931885300,-1522122.9731147462,-19.31999969482422,19.020000457763672,23.15999984741211
1776038164941986800,-1522122.9630131836,-20.279998779296875,18.53999900817871,24.059999465942383
1776038164952057600,-1522122.9529423828,-21.119998931884766,18.18000030517578,24.239999771118164
1776038164962128400,-1522122.942871582,-22.260000228881836,17.579999923706055,24.059999465942383
1776038164972199200,-1522122.9328007812,-23.81999969482422,16.799999237060547,25.619998931884766
1776038164982239500,-1522122.922760498,-24,16.139999389648438,26.579999923706055
1776038164992310300,-1522122.9126896972,-23.939998626708984,15.65999984741211,28.260000228881836
1776038165022553000,-1522122.8824470215,-20.760000228881836,16.739999771118164,29.51999855041504
1776038165032623900,-1522122.8723762208,-19.020000457763672,16.85999870300293,28.260000228881836
1776038165042694700,-1522122.86230542,-18.420000076293945,17.399999618530273,28.619998931884766
1776038165052704500,-1522122.8522954101,-18,17.15999984741211,27.899999618530273
1776038165062775300,-1522122.8422246093,-16.920000076293945,18.299999237060547,28.559999465942383
1776038165072815600,-1522122.8321843261,-17.520000457763672,18.779998779296875,29.279998779296875
1776038165082886400,-1522122.8221135254,-16.020000457763672,19.439998626708984,29.51999855041504
1776038165103028000,-1522122.8019719238,-14.579999923706055,19.739999771118164,29.34000015258789
1776038165133209900,-1522122.771790039,-13.380000114440918,21.18000030517578,30.420000076293945
1776038165143280600,-1522122.7617192382,-13.139999389648438,21.420000076293945,30.719999313354492
1776038165153351400,-1522122.7516486817,-12.719999313354492,21,30.239999771118164
1776038165163452700,-1522122.7415473633,-12.719999313354492,20.8799991607666,30.84000015258789
1776038165173493000,-1522122.7315070801,-12.779999732971191,20.520000457763672,30.719999313354492
1776038165183563800,-1522122.7214362794,-13.079999923706055,20.03999900817871,30.84000015258789
1776038165193604000,-1522122.7113959962,-12.899999618530273,20.639999389648438,31.19999885559082
1776038165203644400,-1522122.7013554687,-12.359999656677246,20.81999969482422,31.19999885559082
1776038165253937400,-1522122.6510625,-11.039999961853027,21.059999465942383,32.099998474121094
1776038165274109400,-1522122.630890625,-10.380000114440918,20.399999618530273,31.19999885559082
1776038165284180200,-1522122.6208198243,-10.319999694824219,20.34000015258789,30.899999618530273
1776038165294251000,-1522122.6107490235,-10.079999923706055,20.03999900817871,30.420000076293945
1776038165304321800,-1522122.6006782227,-10.199999809265137,20.279998779296875,31.619998931884766
1776038165324402400,-1522122.5805976563,-8.880000114440918,20.639999389648438,31.19999885559082
1776038165334473200,-1522122.5705268555,-9.059999465942383,20.399999618530273,30.84000015258789
1776038165344544000,-1522122.5604560548,-8.760000228881836,20.579999923706055,30
1776038165354614800,-1522122.550385254,-9.479999542236328,20.34000015258789,30.119998931884766
1776038165364685600,-1522122.5403144532,-9.479999542236328,20.100000381469727,30
1776038165374756600,-1522122.5302434082,-10.079999923706055,20.639999389648438,30.35999870300293
1776038165384857900,-1522122.5201420898,-10.079999923706055,21,30.779998779296875
1776038165394928600,-1522122.510071289,-10.019999504089355,21.119998931884766,30.84000015258789
1776038165404999400,-1522122.5000004882,-10.260000228881836,21.53999900817871,30.599998474121094
1776038165415070200,-1522122.4899296875,-9.539999961853027,21.299999237060547,30.059999465942383
1776038165445282600,-1522122.4597175294,-13.139999389648438,21.84000015258789,28.979999542236328
1776038165465424100,-1522122.4395759278,-14.15999984741211,22.739999771118164,28.439998626708984
1776038165475434000,-1522122.429565918,-13.679999351501465,22.68000030517578,28.139999389648438
1776038165485504800,-1522122.4194951172,-13.019999504089355,22.439998626708984,28.079999923706055
1776038165495575600,-1522122.4094245606,-11.75999927520752,22.020000457763672,27.119998931884766
1776038165505676800,-1522122.3993232423,-11.34000015258789,22.260000228881836,27.599998474121094
1776038165515747600,-1522122.3892524415,-10.559999465942383,21.600000381469727,27.18000030517578
1776038165525818400,-1522122.3791816407,-11.699999809265137,20.939998626708984,26.760000228881836
1776038165545990700,-1522122.3590092773,-14.34000015258789,20.219999313354492,26.639999389648438
1776038165556000300,-1522122.348999756,-16.020000457763672,20.399999618530273,26.939998626708984
1776038165566101800,-1522122.3388981933,-17.100000381469727,21.600000381469727,26.760000228881836
1776038165576172500,-1522122.3288273925,-17.81999969482422,22.619998931884766,26.099998474121094
1776038165586243300,-1522122.3187565918,-18.119998931884766,24,25.19999885559082
1776038165596314000,-1522122.308685791,-17.8799991607666,24.959999084472656,23.639999389648438
1776038165606385000,-1522122.2986149902,-19.3799991607666,25.01999855041504,22.979999542236328
1776038165616455700,-1522122.2885444337,-20.459999084472656,24.779998779296875,21.779998779296875
1776038165626526500,-1522122.2784736329,-20.939998626708984,24.119998931884766,21.719999313354492
1776038165666809600,-1522122.2381904298,-20.459999084472656,22.079999923706055,18.239999771118164
1776038165676819500,-1522122.2281806641,-21.600000381469727,22.559999465942383,18
1776038165686890200,-1522122.2181098633,-22.139999389648438,23.399999618530273,18.53999900817871
1776038165696961000,-1522122.2080390626,-22.260000228881836,23.939998626708984,18.899999618530273
1776038165707062300,-1522122.1979377442,-21.65999984741211,23.81999969482422,18.84000015258789
1776038165717133300,-1522122.1878666992,-21.420000076293945,23.579999923706055,19.139999389648438
1776038165727234600,-1522122.1777653808,-21.239999771118164,23.81999969482422,18.299999237060547
1776038165737305300,-1522122.16769458,-20.579999923706055,24.18000030517578,17.579999923706055
1776038165767578600,-1522122.1374213868,-23.51999855041504,25.739999771118164,15.960000038146973
1776038165777619000,-1522122.1273811036,-23.8799991607666,26.760000228881836,16.31999969482422
1776038165787720400,-1522122.117279541,-22.920000076293945,26.51999855041504,15.239999771118164
1776038165797821700,-1522122.1071782226,-21.959999084472656,26.69999885559082,15.65999984741211
1776038165807831600,-1522122.097168457,-21.299999237060547,26.279998779296875,15.059999465942383
1776038165817841200,-1522122.0871589356,-21.479999542236328,25.31999969482422,13.25999927520752
1776038165827942400,-1522122.0770576173,-21.959999084472656,25.68000030517578,13.799999237060547
1776038165838013400,-1522122.0669865722,-22.85999870300293,26.03999900817871,12.84000015258789
1776038165878205000,-1522122.026795166,-21.959999084472656,26.760000228881836,10.559999465942383
1776038165888245200,-1522122.0167546386,-21.239999771118164,27.479999542236328,10.019999504089355
1776038165898285600,-1522122.0067143554,-20.939998626708984,27.959999084472656,9.779999732971191
1776038165908386800,-1522121.9966132813,-19.85999870300293,29.279998779296875,10.859999656677246
1776038165918457600,-1522121.9865424805,-19.139999389648438,28.5,10.139999389648438
1776038165928558800,-1522121.9764411622,-19.19999885559082,28.31999969482422,9.779999732971191
1776038165938599200,-1522121.966400879,-18.959999084472656,28.01999855041504,9.300000190734863
1776038165958771500,-1522121.9462285156,-19.020000457763672,28.5,10.260000228881836
1776038165968842200,-1522121.9361577148,-19.619998931884766,28.619998931884766,10.920000076293945
1776038165998993700,-1522121.9060063476,-20.639999389648438,29.03999900817871,11.15999984741211
1776038166009095000,-1522121.8959050293,-19.3799991607666,29.03999900817871,12.239999771118164
1776038166019165700,-1522121.8858342285,-18.239999771118164,28.979999542236328,12.65999984741211
1776038166029236500,-1522121.8757634277,-17.219999313354492,28.619998931884766,13.559999465942383
1776038166039276800,-1522121.8657231445,-17.219999313354492,27.479999542236328,13.739999771118164
1776038166049347600,-1522121.8556523437,-18.420000076293945,27.18000030517578,13.799999237060547
1776038166059388000,-1522121.8456120605,-18.600000381469727,25.979999542236328,13.979999542236328
1776038166079560000,-1522121.8254401856,-19.920000076293945,25.979999542236328,16.31999969482422
1776038166109741800,-1522121.7952580566,-21.600000381469727,24.600000381469727,19.739999771118164
1776038166119812600,-1522121.7851875,-21.719999313354492,22.979999542236328,20.760000228881836
1776038166129853000,-1522121.7751469726,-21.35999870300293,21.959999084472656,20.939998626708984
1776038166139862800,-1522121.765137207,-20.639999389648438,21.239999771118164,21.899999618530273
1776038166149964000,-1522121.7550358886,-20.760000228881836,19.920000076293945,22.260000228881836
1776038166170105600,-1522121.734894287,-19.979999542236328,19.139999389648438,22.799999237060547
1776038166180146000,-1522121.7248540039,-21,18.84000015258789,22.739999771118164
1776038166190247200,-1522121.7147529298,-21.059999465942383,18.600000381469727,22.619998931884766
1776038166200257000,-1522121.70474292,-20.579999923706055,18.239999771118164,22.799999237060547
1776038166210327800,-1522121.694672119,-21.479999542236328,17.81999969482422,23.399999618530273
1776038166220337700,-1522121.6846623535,-21.719999313354492,17.399999618530273,23.760000228881836
1776038166230408400,-1522121.6745915527,-22.68000030517578,16.799999237060547,24.119998931884766
1776038166250550000,-1522121.6544499511,-23.81999969482422,15.779999732971191,25.139999389648438
1776038166260590300,-1522121.644409668,-23.639999389648438,15.59999942779541,26.399999618530273
1776038166310974700,-1522121.5940253907,-20.579999923706055,17.760000228881836,27.959999084472656
1776038166321045500,-1522121.58395459,-19.979999542236328,17.520000457763672,27.719999313354492
1776038166341156600,-1522121.563843506,-19.5,18.84000015258789,28.3799991607666
1776038166351257900,-1522121.5537421876,-18.53999900817871,18.299999237060547,27.599998474121094
1776038166361328600,-1522121.5436713868,-17.940000534057617,18.84000015258789,28.260000228881836
1776038166381439700,-1522121.5235603028,-15.960000038146973,18.059999465942383,28.139999389648438
1776038166391541200,-1522121.5134587402,-15.899999618530273,17.940000534057617,28.31999969482422
1776038166401612000,-1522121.5033879394,-15.960000038146973,17.459999084472656,28.439998626708984
1776038166411682800,-1522121.4933171386,-15.479999542236328,17.940000534057617,29.219999313354492
1776038166421753600,-1522121.4832463379,-14.880000114440918,18.35999870300293,30.239999771118164
1776038166431824400,-1522121.473175537,-14.519999504089355,18.18000030517578,29.579999923706055
1776038166441895200,-1522121.4631047363,-13.799999237060547,18.53999900817871,29.8799991607666
1776038166451966000,-1522121.4530339355,-14.519999504089355,17.760000228881836,29.579999923706055
1776038166462006300,-1522121.4429936523,-15.420000076293945,16.68000030517578,28.739999771118164
1776038166502289400,-1522121.4027106934,-18.18000030517578,17.399999618530273,30.17999839782715
1776038166512360200,-1522121.3926398926,-16.559999465942383,17.81999969482422,30.479999542236328
1776038166522431000,-1522121.3825690919,-14.699999809265137,18.420000076293945,31.19999885559082
1776038166542603300,-1522121.3623967285,-12,18.65999984741211,32.21999740600586
1776038166552674000,-1522121.3523259277,-11.699999809265137,18.18000030517578,32.099998474121094
1776038166562683600,-1522121.3423164063,-11.75999927520752,17.639999389648438,31.799999237060547
1776038166592926700,-1522121.3120732422,-11.579999923706055,17.520000457763672,29.639999389648438
1776038166613037800,-1522121.2919621582,-10.260000228881836,18.18000030517578,29.03999900817871
1776038166633179400,-1522121.2718205566,-9.899999618530273,18.479999542236328,30.119998931884766
1776038166643250200,-1522121.2617497558,-10.859999656677246,18,30.059999465942383
1776038166653321000,-1522121.251678955,-11.279999732971191,17.81999969482422,29.939998626708984
1776038166663330800,-1522121.2416691894,-11.75999927520752,17.69999885559082,29.34000015258789
1776038166673432000,-1522121.231567871,-12,18.119998931884766,29.099998474121094
1776038166693573600,-1522121.2114262695,-11.639999389648438,19.139999389648438,28.01999855041504
1776038166713715200,-1522121.1912849122,-13.139999389648438,20.279998779296875,28.3799991607666
1776038166723786000,-1522121.1812141114,-13.859999656677246,20.100000381469727,28.68000030517578
1776038166733856800,-1522121.1711433106,-13.079999923706055,19.979999542236328,28.3799991607666
1776038166743927600,-1522121.1610725098,-12.59999942779541,19.739999771118164,28.920000076293945
1776038166753998300,-1522121.151001709,-12.899999618530273,18.899999618530273,28.01999855041504
1776038166764069000,-1522121.1409309083,-13.920000076293945,18.779998779296875,28.079999923706055
1776038166774140000,-1522121.1308601075,-15.119999885559082,19.139999389648438,28.439998626708984
1776038166814484200,-1522121.0905158692,-21.35999870300293,20.219999313354492,24.65999984741211
1776038166824524500,-1522121.0804753418,-21.059999465942383,21.299999237060547,23.8799991607666
1776038166834595300,-1522121.0704047852,-20.100000381469727,21.84000015258789,22.5
1776038166844666000,-1522121.0603339844,-19.3799991607666,21.899999618530273,21.299999237060547
1776038166854737000,-1522121.0502631837,-18.239999771118164,23.100000381469727,20.579999923706055
1776038166864777200,-1522121.0402229005,-17.760000228881836,23.459999084472656,19.31999969482422
1776038166874848000,-1522121.0301520997,-17.8799991607666,22.979999542236328,19.020000457763672
1776038166894928600,-1522121.010071289,-19.920000076293945,23.03999900817871,18.479999542236328
1776038166904999400,-1522121.0000004882,-21.35999870300293,22.68000030517578,17.81999969482422
1776038166925141000,-1522120.9798588867,-20.520000457763672,22.739999771118164,17.34000015258789
1776038166935242200,-1522120.9697578126,-19.68000030517578,22.85999870300293,16.979999542236328
1776038166945313000,-1522120.9596870118,-18.479999542236328,22.979999542236328,16.68000030517578
1776038166955383800,-1522120.949616211,-18.719999313354492,23.219999313354492,16.19999885559082
1776038166965454800,-1522120.939545166,-18.719999313354492,23.579999923706055,15.299999237060547
1776038166975556000,-1522120.9294438476,-19.619998931884766,24,14.460000038146973
1776038167005707500,-1522120.8992924804,-22.5,26.34000015258789,12.239999771118164
1776038167015778300,-1522120.8892216797,-22.19999885559082,27.059999465942383,11.75999927520752
1776038167025849000,-1522120.8791508789,-21.239999771118164,27.53999900817871,12.359999656677246
1776038167035920000,-1522120.869080078,-20.219999313354492,27.119998931884766,11.460000038146973
1776038167045960200,-1522120.859039795,-18.84000015258789,26.579999923706055,11.15999984741211
1776038167056031000,-1522120.848968994,-18.779998779296875,26.459999084472656,11.579999923706055
1776038167066071300,-1522120.838928711,-18.719999313354492,26.03999900817871,9.960000038146973
1776038167076111400,-1522120.828888672,-19.559999465942383,25.799999237060547,9.65999984741211
1776038167086151700,-1522120.8188483887,-21.35999870300293,26.099998474121094,9.179999351501465
1776038167106293200,-1522120.7987067872,-22.920000076293945,26.579999923706055,8.15999984741211
1776038167126435000,-1522120.7785649414,-22.020000457763672,26.579999923706055,7.019999980926514
1776038167136475100,-1522120.7685249024,-20.939998626708984,26.760000228881836,6.480000019073486
1776038167146546000,-1522120.7584541016,-19.3799991607666,26.760000228881836,6.359999656677246
1776038167156647400,-1522120.748352539,-18.84000015258789,26.760000228881836,7.139999866485596
1776038167166718200,-1522120.7382817382,-18.420000076293945,27,7.139999866485596
1776038167176819500,-1522120.7281806641,-18.719999313354492,26.939998626708984,7.679999828338623
1776038167186890200,-1522120.7181098633,-20.100000381469727,26.8799991607666,7.679999828338623
1776038167217072000,-1522120.6879279786,-23.639999389648438,26.81999969482422,8.039999961853027
1776038167237213700,-1522120.667786377,-22.5,27.779998779296875,10.260000228881836
1776038167247254000,-1522120.6577460938,-20.8799991607666,27,9.899999618530273
1776038167257324800,-1522120.647675293,-19.85999870300293,26.099998474121094,10.139999389648438
1776038167267395600,-1522120.6376044923,-19.139999389648438,25.3799991607666,10.260000228881836
1776038167277466400,-1522120.6275336915,-19.079999923706055,24.53999900817871,9.539999961853027
1776038167287537200,-1522120.6174628907,-20.399999618530273,23.639999389648438,11.09999942779541
1776038167327789800,-1522120.5772102051,-24.239999771118164,24.239999771118164,14.579999923706055
1776038167337860600,-1522120.5671394044,-24.059999465942383,23.639999389648438,15.299999237060547
1776038167347931600,-1522120.5570683593,-22.619998931884766,22.31999969482422,15.719999313354492
1776038167358002400,-1522120.5469975586,-20.939998626708984,21.53999900817871,16.799999237060547
1776038167368073200,-1522120.5369267578,-20.69999885559082,20.399999618530273,16.799999237060547
1776038167378174500,-1522120.5268254394,-20.639999389648438,19.85999870300293,17.34000015258789
1776038167388245200,-1522120.5167546386,-21.239999771118164,20.34000015258789,17.940000534057617
1776038167438630000,-1522120.4663701172,-21.779998779296875,17.69999885559082,18.84000015258789
1776038167448700700,-1522120.4562993164,-21.779998779296875,18.239999771118164,18.53999900817871
1776038167458802000,-1522120.446197998,-21.899999618530273,17.520000457763672,19.19999885559082
1776038167468903200,-1522120.436096924,-23.279998779296875,17.579999923706055,19.85999870300293
1776038167479004400,-1522120.4259956055,-22.920000076293945,17.399999618530273,21.53999900817871
1776038167489075500,-1522120.4159245605,-23.579999923706055,16.260000228881836,22.19999885559082
1776038167499115500,-1522120.4058845215,-23.639999389648438,15.839999198913574,22.979999542236328
1776038167539368200,-1522120.365631836,-21.059999465942383,14.699999809265137,23.639999389648438
1776038167549469700,-1522120.3555302734,-20.459999084472656,15.719999313354492,24.18000030517578
1776038167559510000,-1522120.3454899902,-19.85999870300293,15.65999984741211,23.760000228881836
1776038167569550000,-1522120.3354499512,-19.5,15.539999961853027,24
1776038167579620900,-1522120.3253791505,-18.84000015258789,15.899999618530273,24.600000381469727
1776038167589661200,-1522120.3153388673,-18.600000381469727,15.059999465942383,24.18000030517578
1776038167599701500,-1522120.305298584,-18.899999618530273,15.179999351501465,24.35999870300293
1776038167650055700,-1522120.254944336,-17.639999389648438,15.719999313354492,25.439998626708984
1776038167660126500,-1522120.2448735351,-17.15999984741211,15.539999961853027,25.5
1776038167670136000,-1522120.2348640137,-16.920000076293945,15.359999656677246,25.3799991607666
1776038167680237600,-1522120.2247624511,-17.279998779296875,14.639999389648438,25.19999885559082
1776038167690308400,-1522120.2146916504,-17.639999389648438,14.039999961853027,25.31999969482422
1776038167700348400,-1522120.2046516114,-18,13.979999542236328,25.799999237060547
1776038167710388700,-1522120.1946113282,-18.239999771118164,13.25999927520752,26.15999984741211
1776038167740570600,-1522120.1644294434,-16.559999465942383,13.799999237060547,26.579999923706055
1776038167760743000,-1522120.14425708,-15.779999732971191,14.579999923706055,27
1776038167790955300,-1522120.1140446777,-17.279998779296875,15.420000076293945,26.579999923706055
1776038167801026000,-1522120.103973877,-18.899999618530273,14.819999694824219,25.31999969482422
1776038167811127300,-1522120.0938728028,-20.760000228881836,14.519999504089355,25.260000228881836
1776038167821198000,-1522120.083802002,-21.65999984741211,14.519999504089355,25.3799991607666
1776038167851380000,-1522120.0536201173,-20.8799991607666,15.359999656677246,25.260000228881836
1776038167861450800,-1522120.0435493165,-20.399999618530273,15.899999618530273,25.31999969482422
1776038167871521500,-1522120.0334785157,-19.920000076293945,15.59999942779541,24.84000015258789
1776038167881592300,-1522120.023407715,-20.219999313354492,15.420000076293945,25.139999389648438
1776038167891602200,-1522120.013397705,-20.639999389648438,14.699999809265137,24.18000030517578
1776038167901673000,-1522120.0033271485,-20.69999885559082,14.399999618530273,24.059999465942383
1776038167911743700,-1522119.9932563477,-21.119998931884766,14.9399995803833,24.600000381469727
1776038167921814500,-1522119.983185547,-20.639999389648438,15.119999885559082,24.479999542236328
1776038167962067200,-1522119.9429328614,-19.19999885559082,15.719999313354492,24.420000076293945
1776038167972138000,-1522119.9328620606,-18.899999618530273,16.139999389648438,25.01999855041504
1776038167982208800,-1522119.9227912598,-18.35999870300293,15.719999313354492,24.779998779296875
1776038167992279600,-1522119.912720459,-17.520000457763672,15.65999984741211,25.19999885559082
1776038168002350600,-1522119.902649414,-17.579999923706055,14.519999504089355,24.600000381469727
1776038168022461400,-1522119.8825385743,-17.8799991607666,12.84000015258789,24.420000076293945
1776038168072785200,-1522119.8322148437,-19.139999389648438,12.719999313354492,24.65999984741211
1776038168082886400,-1522119.8221135254,-20.219999313354492,12.300000190734863,24.53999900817871
1776038168092957200,-1522119.8120427246,-20.459999084472656,12.539999961853027,23.279998779296875
1776038168103028000,-1522119.8019719238,-21.959999084472656,13.319999694824219,23.81999969482422
1776038168113098800,-1522119.7919013673,-23.34000015258789,13.859999656677246,23.03999900817871
1776038168123169500,-1522119.7818305665,-22.979999542236328,14.699999809265137,22.079999923706055
1776038168133240300,-1522119.7717597657,-23.03999900817871,15.359999656677246,21.959999084472656
1776038168173432000,-1522119.731567871,-20.520000457763672,14.039999961853027,17.520000457763672
1776038168183502800,-1522119.7214970703,-20.459999084472656,13.979999542236328,17.8799991607666
1776038168193573600,-1522119.7114262695,-21.119998931884766,13.679999351501465,17.279998779296875
1776038168203675000,-1522119.7013251954,-21.719999313354492,14.279999732971191,17.760000228881836
1776038168213684700,-1522119.6913151855,-22.260000228881836,14.15999984741211,17.520000457763672
1776038168223786000,-1522119.6812141114,-22.799999237060547,14.75999927520752,18.119998931884766
1776038168233795800,-1522119.6712041015,-22.559999465942383,14.880000114440918,17.8799991607666
1776038168243866600,-1522119.6611333007,-22.5,14.699999809265137,17.100000381469727
1776038168274048500,-1522119.630951416,-25.559999465942383,15.359999656677246,15.359999656677246
1776038168294068000,-1522119.610932129,-25.439998626708984,16.920000076293945,14.460000038146973
1776038168304169200,-1522119.6008308106,-23.939998626708984,17.100000381469727,14.34000015258789
1776038168314240000,-1522119.5907600098,-23.03999900817871,16.559999465942383,13.979999542236328
1776038168324311000,-1522119.5806889648,-22.559999465942383,16.3799991607666,13.739999771118164
1776038168334381800,-1522119.570618164,-23.219999313354492,16.799999237060547,13.380000114440918
1776038168344422000,-1522119.560578125,-23.51999855041504,17.399999618530273,13.739999771118164
1776038168374542800,-1522119.5304570312,-24.239999771118164,16.68000030517578,12.359999656677246
1776038168394715000,-1522119.5102851563,-24.959999084472656,17.459999084472656,11.639999389648438
1776038168404755200,-1522119.500244873,-24.959999084472656,17.81999969482422,11.9399995803833
1776038168414826000,-1522119.4901740723,-24,18.18000030517578,11.639999389648438
1776038168424866300,-1522119.4801337891,-22.979999542236328,18.18000030517578,12.779999732971191
1776038168434937000,-1522119.4700629883,-22.260000228881836,18.600000381469727,13.319999694824219
1776038168445008000,-1522119.4599921876,-21.600000381469727,19.260000228881836,13.679999351501465
1776038168455078700,-1522119.4499213868,-21.959999084472656,18.719999313354492,13.859999656677246
1776038168485199600,-1522119.419800293,-23.219999313354492,18.35999870300293,12.059999465942383
1776038168505341200,-1522119.3996589356,-23.459999084472656,20.219999313354492,13.559999465942383
1776038168515412000,-1522119.3895881348,-23.100000381469727,20.81999969482422,14.399999618530273
1776038168525482800,-1522119.379517334,-22.260000228881836,20.279998779296875,14.699999809265137
1776038168535553500,-1522119.3694465333,-21.53999900817871,19.68000030517578,15.359999656677246
1776038168545593900,-1522119.35940625,-21.35999870300293,19.3799991607666,15
1776038168555634200,-1522119.3493657226,-20.8799991607666,19.19999885559082,14.460000038146973
1776038168575775700,-1522119.3292243653,-20.8799991607666,19.85999870300293,14.9399995803833
1776038168595886800,-1522119.309113037,-20.34000015258789,19.799999237060547,17.03999900817871
1776038168605988000,-1522119.299011963,-20.399999618530273,19.5,17.81999969482422
1776038168616059000,-1522119.2889411622,-19.979999542236328,19.260000228881836,18.299999237060547
1776038168626129700,-1522119.2788703614,-21,18.18000030517578,18.35999870300293
1776038168636200400,-1522119.2687995606,-21.239999771118164,17.639999389648438,18.65999984741211
1776038168646302000,-1522119.258697998,-21.239999771118164,17.219999313354492,19.3799991607666
1776038168656372700,-1522119.2486271972,-22.020000457763672,15.839999198913574,19.739999771118164
1776038168676514300,-1522119.2284855957,-20.459999084472656,14.880000114440918,21
1776038168686524200,-1522119.21847583,-19.619998931884766,14.039999961853027,20.81999969482422
1776038168706604500,-1522119.1983955079,-18.779998779296875,12.960000038146973,21
1776038168726776800,-1522119.1782231445,-18.899999618530273,11.519999504089355,20.8799991607666
1776038168736847600,-1522119.1681523437,-19.31999969482422,10.739999771118164,20.399999618530273
1776038168746918400,-1522119.158081543,-19.079999923706055,10.559999465942383,20.34000015258789
1776038168756989200,-1522119.1480107422,-20.939998626708984,10.739999771118164,21.239999771118164
1776038168767060000,-1522119.1379399414,-22.619998931884766,10.679999351501465,21.299999237060547
1776038168787171000,-1522119.1178288574,-26.51999855041504,10.619999885559082,23.219999313354492
1776038168807251700,-1522119.097748291,-25.559999465942383,8.639999389648438,23.51999855041504
1776038168817261300,-1522119.0877387696,-24.479999542236328,8.15999984741211,24.719999313354492
1776038168827362600,-1522119.0776374512,-22.799999237060547,6.839999675750732,24.84000015258789
1776038168837433600,-1522119.0675664062,-21.299999237060547,6.239999771118164,25.559999465942383
1776038168847534800,-1522119.0574650879,-21.059999465942383,6.179999828338623,26.579999923706055
1776038168857605600,-1522119.047394287,-20.81999969482422,5.819999694824219,26.279998779296875
1776038168867676400,-1522119.0373234863,-20.639999389648438,6.119999885559082,26.15999984741211
1776038168897797400,-1522119.0072026367,-20.459999084472656,7.019999980926514,25.3799991607666
1776038168907898600,-1522118.9971013183,-20.939998626708984,7.37999963760376,25.439998626708984
1776038168917877800,-1522118.9871223145,-20.639999389648438,7.079999923706055,24.479999542236328
1776038168927979300,-1522118.977020752,-19.31999969482422,7.679999828338623,24.959999084472656
1776038168938019300,-1522118.966980713,-18.479999542236328,6.960000038146973,25.3799991607666
1776038168948120800,-1522118.9568791504,-17.579999923706055,6.779999732971191,25.799999237060547
1776038168958130400,-1522118.946869629,-17.03999900817871,7.199999809265137,26.579999923706055
1776038168968232000,-1522118.9367680664,-17.760000228881836,6.599999904632568,25.68000030517578
1776038169008515000,-1522118.8964848632,-20.219999313354492,6.119999885559082,24.119998931884766
1776038169018585900,-1522118.8864140625,-20.100000381469727,7.440000057220459,25.68000030517578
1776038169028656600,-1522118.8763432617,-19.260000228881836,7.679999828338623,26.219999313354492
1776038169038727400,-1522118.866272461,-17.69999885559082,8.09999942779541,27.35999870300293
1776038169048798200,-1522118.8562019044,-16.020000457763672,8.09999942779541,27.719999313354492
1776038169058869000,-1522118.8461311036,-16.5,7.199999809265137,27.599998474121094
1776038169068909300,-1522118.8360905761,-16.799999237060547,6.779999732971191,27.65999984741211
1776038169078949600,-1522118.826050293,-18.059999465942383,5.460000038146973,26.099998474121094
1776038169109070300,-1522118.7959296876,-20.520000457763672,6.839999675750732,26.579999923706055
1776038169129151000,-1522118.7758491212,-17.459999084472656,8.34000015258789,28.439998626708984
1776038169139160800,-1522118.7658391113,-15.420000076293945,8.15999984741211,28.439998626708984
1776038169149231600,-1522118.7557683105,-13.679999351501465,7.619999885559082,28.559999465942383
1776038169159302400,-1522118.7456975097,-12.84000015258789,7.5,29.34000015258789
1776038169169373200,-1522118.735626709,-12.719999313354492,7.859999656677246,29.81999969482422
1776038169179413500,-1522118.7255864257,-13.380000114440918,8.039999961853027,30.119998931884766
1776038169189453800,-1522118.7155461425,-13.559999465942383,8.279999732971191,29.8799991607666
1776038169219574500,-1522118.6854255372,-12.179999351501465,9,27.899999618530273
1776038169229645300,-1522118.6753547364,-11.219999313354492,9,27.53999900817871
1776038169239685600,-1522118.6653144532,-11.75999927520752,9.300000190734863,27.959999084472656
1776038169249726000,-1522118.65527417,-11.09999942779541,8.519999504089355,26.760000228881836
1776038169259735800,-1522118.6452641601,-10.979999542236328,9.059999465942383,27.35999870300293
1776038169269837000,-1522118.6351628418,-10.979999542236328,9.539999961853027,27.479999542236328
1776038169279907800,-1522118.625092041,-11.15999984741211,9.359999656677246,27.420000076293945
1776038169290009000,-1522118.6149909669,-12.65999984741211,10.199999809265137,28.01999855041504
1776038169310120200,-1522118.5948798829,-15.65999984741211,10.380000114440918,28.3799991607666
1776038169330261800,-1522118.5747382813,-16.260000228881836,9.960000038146973,28.68000030517578
1776038169340241200,-1522118.564758789,-14.699999809265137,10.260000228881836,28.68000030517578
1776038169350342400,-1522118.554657715,-14.039999961853027,9.539999961853027,27.84000015258789
1776038169360413200,-1522118.5445869141,-13.25999927520752,9.359999656677246,28.85999870300293
1776038169370453500,-1522118.5345463867,-13.799999237060547,9.65999984741211,28.799999237060547
1776038169380432600,-1522118.5245673829,-14.819999694824219,9.059999465942383,28.5
1776038169390534100,-1522118.5144658203,-16.079999923706055,9.779999732971191,28.85999870300293
1776038169410645200,-1522118.4943547363,-19.19999885559082,10.559999465942383,27.119998931884766
1776038169430756400,-1522118.4742436523,-21,12.779999732971191,26.459999084472656
1776038169440827100,-1522118.4641728515,-20.219999313354492,14.399999618530273,26.579999923706055
1776038169450898000,-1522118.4541020507,-18.84000015258789,15.179999351501465,26.03999900817871
1776038169460938200,-1522118.4440617675,-16.979999542236328,15.179999351501465,24.779998779296875
1776038169471039500,-1522118.4339604492,-16.920000076293945,15.299999237060547,24.119998931884766
1776038169481018600,-1522118.4239814454,-17.459999084472656,15.359999656677246,23.939998626708984
1776038169491120000,-1522118.4138798828,-18.420000076293945,15.420000076293945,23.15999984741211
1776038169501191000,-1522118.403809082,-19.739999771118164,16.19999885559082,23.459999084472656
1776038169511261700,-1522118.3937382812,-20.579999923706055,17.100000381469727,23.15999984741211
1776038169521302000,-1522118.383697998,-21.059999465942383,17.459999084472656,21.959999084472656
1776038169531372800,-1522118.3736271972,-20.03999900817871,18,22.139999389648438
1776038169541412900,-1522118.3635871583,-19.31999969482422,18.299999237060547,22.079999923706055
1776038169551514400,-1522118.3534855957,-18.420000076293945,17.8799991607666,21.600000381469727
1776038169561493500,-1522118.3435065919,-17.579999923706055,18.119998931884766,21.719999313354492
1776038169571594800,-1522118.3334052735,-17.69999885559082,18.719999313354492,21.18000030517578
1776038169581665800,-1522118.3233342285,-18.18000030517578,19.139999389648438,20.939998626708984
1776038169591736600,-1522118.3132634277,-19.079999923706055,19.739999771118164,20.279998779296875
1776038169621918500,-1522118.283081543,-22.3799991607666,21.899999618530273,18.420000076293945
1776038169631989200,-1522118.2730107422,-22.079999923706055,22.619998931884766,18
1776038169642029300,-1522118.2629707032,-20.69999885559082,22.920000076293945,17.940000534057617
1776038169652130800,-1522118.2528691406,-19.5,23.459999084472656,17.940000534057617
1776038169662140400,-1522118.2428596192,-19.079999923706055,22.559999465942383,16.979999542236328
1776038169672211200,-1522118.2327888184,-18.779998779296875,22.85999870300293,17.100000381469727
1776038169682282200,-1522118.2227177734,-19.139999389648438,22.920000076293945,15.839999198913574
1776038169692353000,-1522118.2126469726,-20.03999900817871,22.619998931884766,15.719999313354492
1776038169732666600,-1522118.1723334962,-20.219999313354492,24.959999084472656,16.19999885559082
1776038169742707000,-1522118.1622929687,-19.68000030517578,25.19999885559082,16.68000030517578
1776038169752808200,-1522118.1521918946,-18.84000015258789,25.619998931884766,16.559999465942383
1776038169762879000,-1522118.1421210938,-19.19999885559082,25.439998626708984,16.559999465942383
1776038169772949800,-1522118.132050293,-18.959999084472656,25.139999389648438,15.359999656677246
1776038169783020500,-1522118.1219794923,-19.68000030517578,24.119998931884766,14.9399995803833
1776038169793091300,-1522118.1119086915,-19.85999870300293,23.15999984741211,14.399999618530273
1776038169803162400,-1522118.1018376464,-19.5,23.639999389648438,14.09999942779541
1776038169833405200,-1522118.0715947265,-19.139999389648438,24.84000015258789,16.5
1776038169853546800,-1522118.0514533692,-19.19999885559082,23.81999969482422,17.279998779296875
1776038169863556600,-1522118.0414433593,-19.559999465942383,23.579999923706055,17.15999984741211
1776038169873627400,-1522118.0313725586,-20.219999313354492,23.639999389648438,17.940000534057617
1776038169883698200,-1522118.0213017578,-19.979999542236328,22.68000030517578,17.15999984741211
1776038169893769000,-1522118.011230957,-19.31999969482422,22.68000030517578,18.18000030517578
1776038169903839700,-1522118.0011601562,-18.959999084472656,22.260000228881836,18.65999984741211
1776038169913941000,-1522117.991059082,-19.139999389648438,21.35999870300293,18.35999870300293
1776038169944123000,-1522117.9608771973,-17.8799991607666,22.020000457763672,20.69999885559082
1776038169954224400,-1522117.9507756347,-17.81999969482422,21.899999618530273,21.84000015258789
1776038169964234000,-1522117.9407661133,-18.53999900817871,21.299999237060547,22.139999389648438
1776038169974304800,-1522117.9306953126,-18.899999618530273,21,22.260000228881836
1776038169984345000,-1522117.9206550294,-19.260000228881836,19.31999969482422,21.420000076293945
1776038169994415900,-1522117.9105842286,-19.260000228881836,18.35999870300293,21.719999313354492
1776038170004486700,-1522117.9005134278,-18.600000381469727,17.760000228881836,22.68000030517578
1776038170014588000,-1522117.8904121094,-18.84000015258789,16.799999237060547,22.979999542236328
1776038170024628200,-1522117.8803718262,-18.719999313354492,16.31999969482422,23.51999855041504
1776038170034729700,-1522117.8702702636,-17.8799991607666,16.440000534057617,23.760000228881836
1776038170064972500,-1522117.8400273437,-18.53999900817871,16.31999969482422,23.81999969482422
1776038170075043300,-1522117.8299567872,-19.3799991607666,16.19999885559082,23.579999923706055
1776038170085053200,-1522117.8199467773,-19.619998931884766,16.440000534057617,23.8799991607666
1776038170095093500,-1522117.809906494,-19.31999969482422,16.619998931884766,23.8799991607666
1776038170105103000,-1522117.7998969727,-18.959999084472656,17.279998779296875,24.35999870300293
1776038170115174000,-1522117.789826172,-18.779998779296875,17.03999900817871,25.079999923706055
1776038170125244700,-1522117.7797553712,-18.35999870300293,16.85999870300293,25.3799991607666
1776038170155457300,-1522117.7495427246,-18,17.69999885559082,28.079999923706055
1776038170175598800,-1522117.729401123,-16.799999237060547,17.100000381469727,28.5
1776038170185669600,-1522117.7193303222,-16.19999885559082,17.34000015258789,29.81999969482422
1776038170195740400,-1522117.7092595214,-15.779999732971191,17.279998779296875,30
1776038170205811200,-1522117.6991887207,-15.299999237060547,16.979999542236328,29.939998626708984
1776038170215851500,-1522117.6891484375,-15.65999984741211,17.639999389648438,30.239999771118164
1776038170225891800,-1522117.6791081543,-15.299999237060547,18,29.639999389648438
1776038170256043000,-1522117.6489570313,-13.319999694824219,18.959999084472656,29.279998779296875
1776038170266113800,-1522117.6388862305,-13.5,18.84000015258789,29.279998779296875
1776038170276184800,-1522117.6288151855,-14.039999961853027,18.959999084472656,28.920000076293945
1776038170286255600,-1522117.6187443847,-14.09999942779541,19.3799991607666,29.099998474121094
1776038170296356900,-1522117.6086430664,-14.34000015258789,19.439998626708984,29.399999618530273
1776038170306427600,-1522117.5985722656,-13.4399995803833,19.979999542236328,29.8799991607666
1776038170316498400,-1522117.5885014648,-12.899999618530273,18.84000015258789,29.81999969482422
1776038170326569200,-1522117.578430664,-12.179999351501465,17.8799991607666,30.299999237060547
1776038170356812000,-1522117.5481879883,-9.539999961853027,17.639999389648438,32.040000915527344
1776038170366883000,-1522117.5381169433,-9.300000190734863,18.479999542236328,32.57999801635742
1776038170376953900,-1522117.5280461425,-9.539999961853027,18.420000076293945,32.880001068115234
1776038170386933000,-1522117.5180668945,-9.359999656677246,17.8799991607666,32.7599983215332
1776038170397034200,-1522117.5079658204,-9.899999618530273,16.559999465942383,32.21999740600586
1776038170407105000,-1522117.4978950196,-10.019999504089355,15.779999732971191,32.34000015258789
1776038170427246600,-1522117.477753418,-9.539999961853027,14.579999923706055,33.05999755859375
1776038170437317600,-1522117.467682373,-10.139999389648438,15.299999237060547,33.89999771118164
1776038170467530000,-1522117.4374699707,-12.539999961853027,15.899999618530273,33.41999816894531
1776038170477631200,-1522117.4273686523,-11.34000015258789,15.960000038146973,33.959999084472656
1776038170487702000,-1522117.4172980958,-9.84000015258789,15.59999942779541,34.68000030517578
1776038170497772800,-1522117.407227295,-8.579999923706055,15.839999198913574,34.97999954223633
1776038170507843600,-1522117.3971564942,-8.09999942779541,15.179999351501465,35.099998474121094
1776038170517914400,-1522117.3870856934,-7.980000019073486,14.399999618530273,34.13999938964844
1776038170527954700,-1522117.3770454102,-7.619999885559082,14.699999809265137,33.779998779296875
1776038170538025500,-1522117.3669746094,-7.440000057220459,14.279999732971191,33.84000015258789
1776038170548096300,-1522117.3569038087,-7.440000057220459,14.460000038146973,33.71999740600586
1776038170578308600,-1522117.3266914063,-8.699999809265137,14.75999927520752,33.71999740600586
1776038170598450400,-1522117.3065495605,-10.079999923706055,15.59999942779541,33.599998474121094
1776038170608490500,-1522117.2965095215,-9.539999961853027,15.299999237060547,33.540000915527344
1776038170618561500,-1522117.2864384765,-8.399999618530273,15.719999313354492,33.65999984741211
1776038170628632300,-1522117.2763676757,-7.799999713897705,15.299999237060547,34.13999938964844
1776038170638733600,-1522117.2662663574,-8.15999984741211,15.119999885559082,34.07999801635742
1776038170648804400,-1522117.2561955566,-9.119999885559082,15.239999771118164,34.380001068115234
1776038170658875100,-1522117.2461247558,-10.619999885559082,15,33.65999984741211
1776038170689026600,-1522117.2159733886,-14.34000015258789,16.920000076293945,32.34000015258789
1776038170709137700,-1522117.1958623047,-14.34000015258789,17.639999389648438,32.34000015258789
1776038170719239000,-1522117.1857609863,-13.25999927520752,17.219999313354492,32.099998474121094
1776038170729309700,-1522117.1756901855,-12.059999465942383,16.920000076293945,32.279998779296875
1776038170739411000,-1522117.1655891114,-11.579999923706055,16.68000030517578,32.34000015258789
1776038170749420800,-1522117.1555791015,-12.359999656677246,16.739999771118164,32.57999801635742
1776038170759522000,-1522117.1454780274,-14.639999389648438,17.100000381469727,32.52000045776367
1776038170789612500,-1522117.1153874511,-21.119998931884766,18.600000381469727,31.260000228881836
1776038170799683300,-1522117.1053166504,-21.779998779296875,19.799999237060547,30.059999465942383
1776038170809723600,-1522117.0952763672,-21.53999900817871,21,30.059999465942383
1776038170819825000,-1522117.0851750488,-20.81999969482422,22.260000228881836,28.979999542236328
1776038170829865200,-1522117.0751347656,-20.03999900817871,23.100000381469727,27.35999870300293
1776038170839936000,-1522117.0650639648,-18.479999542236328,23.639999389648438,25.979999542236328
1776038170850006800,-1522117.054993164,-17.940000534057617,24.239999771118164,24.239999771118164
1776038170860077600,-1522117.0449223632,-18.600000381469727,24.35999870300293,23.51999855041504
1776038170870026200,-1522117.034973877,-18.53999900817871,25.31999969482422,23.81999969482422
