time,seconds_elapsed,z,y,x
1776038153350471000,-1522134.5545290527,-0.047884032130241394,-0.1173158809542656,-0.10295066982507706
1776038153380053000,-1522134.5249470214,-0.4381389021873474,-0.26575639843940735,0
1776038153400033500,-1522134.5049665528,-0.3256114423274994,-0.08379705995321274,0.10055647045373917
1776038153410104300,-1522134.494895752,-0.3232172429561615,-0.07900865375995636,0.08140286058187485
1776038153420053000,-1522134.4849470216,-0.33997663855552673,-0.05267243832349777,0.05506663769483566
1776038153430154200,-1522134.4748457032,-0.21308395266532898,-0.043095629662275314,-0.011971008032560349
1776038153440225000,-1522134.4647749024,-0.15801730751991272,-0.1364694982767105,0.021547814831137657
1776038153450296000,-1522134.4547038574,-0.08379705995321274,-0.2082955539226532,-0.06464344263076782
1776038153470376400,-1522134.4346235353,-0.026336219161748886,-0.19393034279346466,-0.07661445438861847
1776038153480447200,-1522134.4245527345,-0.05267243832349777,-0.10055647045373917,-0.11971008777618408
1776038153490518000,-1522134.4144819337,-0.002394201699644327,-0.07900865375995636,-0.17238251864910126
1776038153500558300,-1522134.4044416505,-0.021547814831137657,-0.05746084079146385,-0.17477671802043915
1776038153510659600,-1522134.3943403321,-0.011971008032560349,-0.0933738648891449,-0.2059013396501541
1776038153520600000,-1522134.3843999023,-0.07900865375995636,-0.016759412363171577,-0.2059013396501541
1776038153530670800,-1522134.3743291015,-0.07422025501728058,0.019153613597154617,-0.19871874153614044
1776038153540680400,-1522134.3643195801,-0.15083470940589905,0.047884032130241394,-0.11013327538967133
1776038153550751200,-1522134.3542487794,-0.21547815203666687,0.004788403399288654,-0.023942016065120697
1776038153560791600,-1522134.3442084962,-0.3471592366695404,0.1604115068912506,-0.09816227108240128
1776038153590943000,-1522134.314057129,-0.524330198764801,0.45489832758903503,-0.06703764945268631
1776038153601013800,-1522134.3039863282,-0.6368576288223267,0.5363011956214905,-0.06703764945268631
1776038153611115000,-1522134.2938850098,-0.7110779285430908,0.31603461503982544,-0.011971008032560349
1776038153621124900,-1522134.2838752442,-0.7589619159698486,0.1388636976480484,0.1628057211637497
1776038153631226000,-1522134.2737739258,-0.828393816947937,0.07422025501728058,0.12689268589019775
1776038153641297000,-1522134.263703125,-0.7613561153411865,0.1412578970193863,0.17238251864910126
1776038153651368000,-1522134.25363208,-0.8140285611152649,0.1412578970193863,0.19632454216480255
1776038153661377500,-1522134.2436225587,-0.8307880163192749,0.24899697303771973,0.26336219906806946
1776038153681488600,-1522134.2235114747,-0.9145850539207458,0.4357447028160095,0.20350714027881622
1776038153691529000,-1522134.2134709472,-1.039083480834961,0.5147533416748047,0.1843535304069519
1776038153701569300,-1522134.203430664,-1.2689268589019775,0.6967126727104187,0.06224924325942993
1776038153711670500,-1522134.19332959,-1.414973258972168,0.9169792532920837,0.1149216815829277
1776038153721710800,-1522134.1832890625,-1.5658079385757446,1.0558429956436157,0.016759412363171577
1776038153741822000,-1522134.1631779785,-1.3431471586227417,0.24899697303771973,-0.06464344263076782
1776038153751862300,-1522134.1531376953,-1.2737152576446533,-0.272938996553421,-0.21547815203666687
1776038153761872000,-1522134.143128174,-1.0989385843276978,-0.5746083855628967,-0.37828385829925537
1776038153782013400,-1522134.1229865723,-1.094150185585022,0.12449848651885986,-0.5171475410461426
1776038153792053800,-1522134.1129462891,-1.0127472877502441,0.4213795065879822,-0.4692635238170624
1776038153802033200,-1522134.1029667968,-0.7613561153411865,0.586579442024231,-0.3663128614425659
1776038153812134400,-1522134.0928654785,-0.3926490843296051,0.2944868206977844,-0.33997663855552673
1776038153822205200,-1522134.082794922,0.26096799969673157,-0.22744916379451752,-0.2753331959247589
1776038153832276000,-1522134.0727241212,0.8954314589500427,-0.8978256583213806,-0.24660277366638184
1776038153842316300,-1522134.0626835937,1.5969325304031372,-1.7932571172714233,-0.33758243918418884
1776038153852417500,-1522134.0525825196,1.5849615335464478,-2.4013843536376953,-0.3447650372982025
1776038153862488300,-1522134.0425117188,1.4077905416488647,-2.166752576828003,-0.08619125932455063
1776038153902771700,-1522134.0022282714,0.2801215946674347,-1.1324573755264282,0.5434837937355042
1776038153912842500,-1522133.9921574707,0.33279404044151306,-1.0678139925003052,0.6224924325942993
1776038153922882800,-1522133.9821171875,0.23702596127986908,-0.9289502501487732,0.5506663918495178
1776038153932953600,-1522133.9720463867,0.06224924325942993,-0.7350199222564697,0.4884171485900879
1776038153943024400,-1522133.961975586,-0.11252748221158981,-0.3974374830722809,0.38546648621559143
1776038153953064700,-1522133.9519353027,-0.4620809257030487,-0.23702596127986908,0.2082955539226532
1776038153963104800,-1522133.9418952637,-0.950498104095459,0.13168109953403473,-0.06464344263076782
1776038153973175600,-1522133.931824463,-1.414973258972168,0.5195417404174805,-0.4357447028160095
1776038153993317400,-1522133.9116826172,-2.2912509441375732,1.01753568649292,-1.194706678390503
1776038154003388200,-1522133.9016118164,-2.6360161304473877,1.094150185585022,-1.5634137392044067
1776038154023499300,-1522133.8815007324,-3.2632968425750732,1.0773907899856567,-2.315192937850952
1776038154033539300,-1522133.8714606934,-3.3925838470458984,1.0007762908935547,-2.8850131034851074
1776038154043579600,-1522133.8614204102,-3.7469255924224854,1.113303780555725,-3.2848446369171143
1776038154053650400,-1522133.8513496094,-3.912125587463379,1.2401964664459229,-3.780444383621216
1776038154063690800,-1522133.8413093262,-4.043806552886963,1.1875240802764893,-4.223371982574463
1776038154093933800,-1522133.811066162,-4.608838081359863,1.0247182846069336,-5.123591423034668
1776038154103974000,-1522133.801026123,-4.778826713562012,1.2066776752471924,-5.315127849578857
1776038154114075400,-1522133.7909245605,-4.93923807144165,1.5203180313110352,-5.731719017028809
1776038154124115700,-1522133.7808842773,-5.092466831207275,1.6184803247451782,-5.978321552276611
1776038154134155800,-1522133.7708442383,-5.382165431976318,1.5131354331970215,-6.347028732299805
1776038154144196000,-1522133.7608039551,-5.521028995513916,1.5083470344543457,-6.414066314697266
1776038154154236400,-1522133.750763672,-5.683835029602051,1.5179238319396973,-6.617573261260986
1776038154164307200,-1522133.7406928712,-5.875370979309082,1.6376339197158813,-6.677428722381592
1776038154194458600,-1522133.7105412597,-5.547365188598633,1.558625340461731,-7.513004779815674
1776038154204529400,-1522133.7004707032,-5.128379821777344,1.4676456451416016,-7.759607791900635
1776038154214600200,-1522133.6903999024,-4.6040496826171875,1.335964560508728,-7.91283655166626
1776038154234711300,-1522133.6702888184,-3.1100680828094482,0.7852981686592102,-8.164227485656738
1776038154244782000,-1522133.6602180176,-2.4899697303771973,0.9744400978088379,-8.032546997070312
1776038154254852900,-1522133.6501472169,-2.030282974243164,1.403002142906189,-7.793126583099365
1776038154264862700,-1522133.640137207,-1.7190368175506592,1.8555063009262085,-7.601590633392334
1776038154274903000,-1522133.6300969238,-1.6711528301239014,2.319981336593628,-7.376535415649414
1776038154294953000,-1522133.6100471192,-1.7525556087493896,2.5043349266052246,-6.92881965637207
1776038154304962800,-1522133.6000371093,-1.8626888990402222,2.1811177730560303,-6.897695064544678
1776038154315033600,-1522133.5899663086,-1.9823989868164062,1.6759412288665771,-6.914454460144043
1776038154325104400,-1522133.5798955078,-2.0183119773864746,0.871489405632019,-6.885724067687988
1776038154335175200,-1522133.5698249512,-2.075772762298584,0.1628057211637497,-7.079654216766357
1776038154345185000,-1522133.5598149414,-2.032677173614502,-0.5985504388809204,-7.225700855255127
1776038154355286300,-1522133.549713623,-2.0829553604125977,-1.4077905416488647,-7.29034423828125
1776038154375367000,-1522133.5296330566,-2.233790159225464,-3.248931646347046,-7.010222434997559
1776038154405579300,-1522133.4994206543,-2.8203697204589844,-5.250484466552734,-5.537788391113281
1776038154415680500,-1522133.4893195801,-3.0573954582214355,-5.535394191741943,-5.011064052581787
1776038154425690400,-1522133.4793095703,-3.339911460876465,-5.825092792510986,-4.462791919708252
1776038154435791600,-1522133.4692084962,-3.3686418533325195,-5.8657941818237305,-3.9480385780334473
1776038154455933200,-1522133.4490668946,-3.220201253890991,-5.60722017288208,-3.0813376903533936
1776038154465943000,-1522133.4390568847,-2.846705913543701,-5.377377033233643,-2.719813108444214
1776038154506195700,-1522133.3988041992,-0.8738836050033569,-4.5609540939331055,-1.86508309841156
1776038154526337300,-1522133.3786628419,0.22505496442317963,-4.900930881500244,-1.7357962131500244
1776038154546478800,-1522133.3585212403,1.1300631761550903,-5.671864032745361,-1.2090718746185303
1776038154596802300,-1522133.308197754,0.5195417404174805,-6.493074893951416,1.3766659498214722
1776038154616883000,-1522133.2881169433,1.3215993642807007,-7.400477409362793,2.0446481704711914
1776038154697388300,-1522133.2076118165,3.533841609954834,-6.854599475860596,1.436521053314209
1776038154707428600,-1522133.197571289,3.7924153804779053,-6.655880928039551,1.2186486721038818
1776038154757843700,-1522133.14715625,4.137180328369141,-5.30076265335083,-0.31603461503982544
1776038154778015700,-1522133.126984375,3.6511576175689697,-4.371812343597412,-0.751779317855835
1776038154838440400,-1522133.0665595704,1.9393033981323242,-2.585737943649292,-2.4660277366638184
1776038154898712800,-1522133.0062871093,-0.3711012601852417,-1.7190368175506592,-1.5203180313110352
1776038154908814000,-1522132.9961860352,-0.7948749661445618,-1.3862427473068237,-1.7166426181793213
1776038154918915300,-1522132.9860847169,-1.1563993692398071,-1.1540051698684692,-1.9249382019042969
1776038154959168000,-1522132.9458320313,-0.5746083855628967,-0.44532153010368347,-2.784456491470337
1776038154969177900,-1522132.9358222657,-0.5195417404174805,-0.3016694188117981,-3.0837318897247314
1776038154979279000,-1522132.9257209473,-0.9026140570640564,-0.2801215946674347,-3.397372245788574
1776038154989350000,-1522132.9156501465,-1.381454348564148,-0.20111294090747833,-3.5889084339141846
1776038154999451400,-1522132.905548584,-1.9393033981323242,-0.09576806426048279,-3.778050184249878
1776038155009522200,-1522132.8954777832,-2.343923568725586,-0.2322375625371933,-3.797203779220581
1776038155019501300,-1522132.8854987794,-2.497152328491211,-0.5937620401382446,-3.9049429893493652
1776038155029602600,-1522132.875397461,-2.741360902786255,-0.727837324142456,-3.9169139862060547
1776038155059754000,-1522132.8452460938,-3.797203779220581,-0.47884035110473633,-4.177882194519043
1776038155100006700,-1522132.8049934083,-4.393360137939453,1.070208191871643,-3.821146011352539
1776038155110108200,-1522132.7948918457,-4.357447147369385,1.0295066833496094,-3.600879430770874
1776038155120209400,-1522132.7847905273,-4.163516521453857,0.8403648138046265,-3.332728862762451
1776038155130280200,-1522132.7747197265,-4.041412353515625,0.9289502501487732,-3.098097085952759
1776038155160492500,-1522132.7445075684,-3.203441858291626,1.625662922859192,-3.1196448802948
1776038155170563300,-1522132.7344367676,-3.1914708614349365,1.987187385559082,-2.964021682739258
1776038155180634000,-1522132.7243659669,-3.3854012489318848,2.31758713722229,-2.784456491470337
1776038155190735400,-1522132.7142646485,-3.5649664402008057,2.6839001178741455,-2.580949544906616
1776038155200806400,-1522132.7041936035,-3.73016619682312,2.940079689025879,-2.2888567447662354
1776038155210877200,-1522132.6941228027,-3.7205893993377686,3.1747114658355713,-2.0829553604125977
1776038155220917200,-1522132.6840827637,-3.7158010005950928,3.2369606494903564,-1.98958158493042
1776038155230927000,-1522132.674072998,-3.5482068061828613,3.4811692237854004,-1.9488801956176758
1776038155261139500,-1522132.6438605958,-3.0142998695373535,4.213795185089111,-1.6711528301239014
1776038155281250600,-1522132.6237495118,-2.6384103298187256,4.529829502105713,-1.5753847360610962
1776038155291291000,-1522132.6137092286,-2.2361843585968018,4.575319290161133,-1.3527239561080933
1776038155301331200,-1522132.6036687011,-1.843535304069519,4.484339714050293,-1.3670891523361206
1776038155311432400,-1522132.593567627,-1.2665326595306396,4.311957359313965,-1.381454348564148
1776038155321534000,-1522132.5834660644,-0.7805097699165344,4.05817174911499,-1.3239935636520386
1776038155331513000,-1522132.5734868164,-0.7733271718025208,3.971980571746826,-1.3407529592514038
1776038155351654700,-1522132.553345459,-1.2976573705673218,4.199429988861084,-1.0438719987869263
1776038155371826700,-1522132.53317334,-1.4413094520568848,4.458003520965576,-0.7565677165985107
1776038155381897500,-1522132.5231025391,-1.3096283674240112,4.369418144226074,-0.5889736413955688
1776038155391968500,-1522132.513031494,-1.1252747774124146,4.151545524597168,-0.4836287498474121
1776038155402039300,-1522132.5029606933,-0.8475474119186401,3.8810009956359863,-0.507570743560791
1776038155412110000,-1522132.4928898925,-0.5315127968788147,3.6104562282562256,-0.6655880808830261
1776038155422211300,-1522132.4827885742,-0.36152446269989014,3.399766445159912,-0.811634361743927
1776038155432282000,-1522132.4727177734,-0.1412578970193863,3.162740468978882,-0.9217676520347595
1776038155442353000,-1522132.4626472169,-0.014365210197865963,2.96162748336792,-1.0558429956436157
1776038155452423700,-1522132.452576416,0.11252748221158981,2.7222073078155518,-1.2737152576446533
1776038155482575000,-1522132.4224248047,0.629675030708313,2.145204782485962,-2.1763293743133545
1776038155492554200,-1522132.4124458008,0.608127236366272,1.9488801956176758,-2.518700122833252
1776038155502625000,-1522132.402375,0.5267243981361389,1.800439715385437,-2.8395233154296875
1776038155512665300,-1522132.3923347169,0.2777273952960968,1.8555063009262085,-3.3231520652770996
1776038155522766800,-1522132.3822331543,0.11971008777618408,2.2577321529388428,-3.732560396194458
1776038155532837600,-1522132.3721623535,0.011971008032560349,2.6001031398773193,-4.20421838760376
1776038155542877700,-1522132.3621223145,-0.2777273952960968,3.600879430770874,-4.572925090789795
1776038155562958300,-1522132.342041748,-0.44771572947502136,4.5609540939331055,-5.137956619262695
1776038155583130600,-1522132.3218693847,-0.38307225704193115,4.163516521453857,-6.3302693367004395
1776038155593201400,-1522132.311798584,-0.28730419278144836,3.4811692237854004,-6.936002254486084
1776038155603211000,-1522132.3017890626,-0.19871874153614044,2.5546131134033203,-7.405265808105469
1776038155613281800,-1522132.2917182618,-0.12928688526153564,1.4891934394836426,-7.668628215789795
1776038155623322000,-1522132.2816779786,-0.08379705995321274,0.6177040338516235,-7.539340972900391
1776038155633393000,-1522132.2716071778,-0.17477671802043915,-0.07900865375995636,-6.967126846313477
1776038155643463700,-1522132.261536377,-0.3974374830722809,-0.5219359993934631,-6.090848922729492
1776038155653504000,-1522132.2514960938,-0.6224924325942993,-0.8236053586006165,-5.102043628692627
1776038155683747000,-1522132.2212529297,-1.2665326595306396,-0.5027823448181152,-3.1962592601776123
1776038155693817900,-1522132.2111821289,-1.4652514457702637,-0.033518824726343155,-2.851494312286377
1776038155703858000,-1522132.20114209,-1.742978811264038,0.4572925269603729,-2.7078421115875244
1776038155713898200,-1522132.1911018067,-1.9393033981323242,1.0295066833496094,-2.7269957065582275
1776038155723999700,-1522132.181000244,-2.078166961669922,1.5538369417190552,-2.8658595085144043
1776038155734070500,-1522132.1709294433,-2.212242364883423,1.678335428237915,-3.0190882682800293
1776038155744141300,-1522132.1608586425,-2.300827741622925,1.6855180263519287,-3.098097085952759
1776038155754212000,-1522132.1507878418,-2.4420857429504395,1.45806884765625,-2.9161376953125
1776038155784363500,-1522132.1206364746,-3.292027235031128,0.043095629662275314,-2.142810583114624
1776038155794403600,-1522132.1105964356,-3.4979286193847656,0.0071826050989329815,-1.8531121015548706
1776038155804413400,-1522132.10058667,-3.557783842086792,-0.1604115068912506,-1.4652514457702637
1776038155814453800,-1522132.0905461425,-3.490746021270752,-0.5793967843055725,-1.0031704902648926
1776038155824555000,-1522132.0804450684,-3.3710360527038574,-0.993593692779541,-0.6584054827690125
1776038155834625800,-1522132.0703742676,-3.1483752727508545,-1.3239935636520386,-0.395043283700943
1776038155844696600,-1522132.0603034669,-3.07415509223938,-1.6208745241165161,-0.07182604819536209
1776038155854767400,-1522132.050232666,-2.9735984802246094,-1.944091796875,0.2992752194404602
1776038155864807700,-1522132.0401923829,-2.8179752826690674,-2.118868589401245,0.6919242739677429
1776038155874878500,-1522132.030121582,-2.6216509342193604,-2.142810583114624,0.9600749015808105
1776038155904969000,-1522132.0000310058,-2.470816135406494,-1.678335428237915,1.3407529592514038
1776038155914978600,-1522131.9900214844,-2.5450363159179688,-1.6328455209732056,1.5155296325683594
1776038155925080000,-1522131.9799199218,-2.5115175247192383,-1.482010841369629,1.644816517829895
1776038155935089700,-1522131.9699104005,-2.410961151123047,-1.721431016921997,1.7860745191574097
1776038155945191200,-1522131.9598088379,-2.145204782485962,-1.7764976024627686,1.699883222579956
1776038155955231200,-1522131.949768799,-1.8818424940109253,-1.9847931861877441,1.434126853942871
1776038155965271600,-1522131.9397285157,-1.644816517829895,-2.0829553604125977,1.139639973640442
1776038155995453400,-1522131.909546631,-0.9528923034667969,-2.099714994430542,0.8212111592292786
1776038156015564500,-1522131.889435547,-0.7254431247711182,-2.5713725090026855,0.9169792532920837
1776038156025635300,-1522131.8793647462,-0.4836287498474121,-2.873042106628418,0.8092401623725891
1776038156035706000,-1522131.8692939454,-0.11252748221158981,-3.1651346683502197,0.6751648783683777
1776038156045777000,-1522131.8592231446,0.21547815203666687,-3.56017804145813,0.545877993106842
1776038156055847700,-1522131.8491523438,0.6799532771110535,-3.6535518169403076,0.47884035110473633
1776038156065888000,-1522131.8391120606,1.1324573755264282,-3.598485231399536,0.5722141861915588
1776038156075958800,-1522131.8290412598,1.4748282432556152,-3.584120035171509,0.6703764796257019
1776038156086029600,-1522131.818970459,2.073378562927246,-3.44765043258667,0.7158663272857666
1776038156116150500,-1522131.7888493652,3.5386300086975098,-3.8163576126098633,0.2537853717803955
1776038156126221300,-1522131.7787788087,4.022258758544922,-3.3063924312591553,0.19871874153614044
1776038156136292000,-1522131.7687080079,4.527435302734375,-2.341529369354248,0.06703764945268631
1776038156146363000,-1522131.758637207,4.201824188232422,-1.6855180263519287,-0.20111294090747833
1776038156156433700,-1522131.7485664063,4.089296340942383,-1.1899182796478271,-0.6703764796257019
1776038156166535200,-1522131.7384648437,3.840299606323242,-0.8690952062606812,-1.0821791887283325
1776038156186646000,-1522131.718354004,3.552995204925537,-0.7661445140838623,-1.601720929145813
1776038156196686300,-1522131.7083137208,3.406949043273926,-1.0079588890075684,-1.9919757843017578
1776038156206787800,-1522131.6982121582,3.184288263320923,-1.2473790645599365,-2.2218191623687744
1776038156216858600,-1522131.6881413574,3.2968156337738037,-1.1420341730117798,-2.2002713680267334
1776038156226960000,-1522131.678040039,3.093308687210083,-0.7134721279144287,-2.145204782485962
1776038156237030700,-1522131.6679692382,2.918531894683838,-0.26096799969673157,-1.8770540952682495
1776038156247101400,-1522131.6578986817,2.806004285812378,0.06703764945268631,-1.678335428237915
1776038156267182000,-1522131.637817871,3.0190882682800293,0.1628057211637497,-2.1499931812286377
1776038156277161200,-1522131.6278388673,3.1890766620635986,0.043095629662275314,-2.434903144836426
1776038156287262500,-1522131.617737549,3.56017804145813,-0.33518823981285095,-2.695871114730835
1776038156297333500,-1522131.6076665039,3.5913026332855225,-0.5985504388809204,-2.889801502227783
1776038156317383400,-1522131.587616455,3.5889084339141846,-1.1755530834197998,-2.80361008644104
1776038156327484700,-1522131.577515381,3.2082302570343018,-1.2473790645599365,-2.5665841102600098
1776038156337555500,-1522131.5674445801,2.557007312774658,-1.2617442607879639,-2.142810583114624
1776038156347626200,-1522131.5573737794,1.8100165128707886,-1.237802267074585,-1.6424223184585571
1776038156357697300,-1522131.5473027343,1.1875240802764893,-1.2473790645599365,-1.3646949529647827
1776038156367768000,-1522131.5372319336,0.7876923680305481,-1.1348515748977661,-1.2880805730819702
1776038156377838800,-1522131.5271611328,0.22744916379451752,-1.0773907899856567,-1.4101848602294922
1776038156387940000,-1522131.5170598144,-0.023942016065120697,-0.8978256583213806,-1.745373010635376
1776038156398011000,-1522131.5069890136,-0.42616790533065796,-0.7422025203704834,-2.008735179901123
1776038156428223200,-1522131.4767768555,-1.6184803247451782,-0.4884171485900879,-2.9257144927978516
1776038156438294000,-1522131.4667060548,-1.7884687185287476,-0.2322375625371933,-3.272873640060425
1776038156448334300,-1522131.4566657715,-1.9584569931030273,-0.22266076505184174,-3.5218706130981445
1776038156458374700,-1522131.446625244,-2.140416383743286,-0.19871874153614044,-3.471592426300049
1776038156468476000,-1522131.43652417,-2.3511061668395996,-0.3447650372982025,-3.1747114658355713
1776038156478546700,-1522131.4264533692,-2.671929121017456,-0.33997663855552673,-3.066972494125366
1776038156488617500,-1522131.4163825684,-2.9161376953125,-0.3208230137825012,-2.959233283996582
1776038156498688300,-1522131.4063117676,-3.160346269607544,-0.2082955539226532,-2.9903578758239746
1776038156508759300,-1522131.3962407226,-3.442862033843994,-0.035913024097681046,-3.0166940689086914
1776038156528870100,-1522131.3761298829,-3.732560396194458,0.5961562395095825,-2.956839084625244
1776038156538910500,-1522131.3660895997,-3.9624037742614746,0.871489405632019,-2.8395233154296875
1776038156548920300,-1522131.3560795898,-4.165910720825195,1.1755530834197998,-2.8610711097717285
1776038156558960600,-1522131.3460393066,-4.347870349884033,1.403002142906189,-2.8347349166870117
1776038156569031400,-1522131.3359685058,-4.508281707763672,1.5825673341751099,-2.9233202934265137
1776038156589112000,-1522131.3158879394,-4.441244125366211,1.9823989868164062,-2.7317841053009033
1776038156599182800,-1522131.3058171386,-4.4077253341674805,2.2888567447662354,-2.695871114730835
1776038156629395200,-1522131.2756047363,-3.909731388092041,2.8107926845550537,-2.451662540435791
1776038156639435500,-1522131.265564453,-3.7277719974517822,3.0789434909820557,-2.4588451385498047
1776038156649506300,-1522131.2554936523,-3.9600095748901367,3.335123062133789,-2.3558945655822754
1776038156659516000,-1522131.245484131,-4.141968727111816,3.6104562282562256,-2.1763293743133545
1776038156669617400,-1522131.2353825683,-4.173093795776367,4.082113742828369,-1.9919757843017578
1776038156679688200,-1522131.2253117675,-3.8498764038085938,4.173093795776367,-1.8363527059555054
1776038156689697800,-1522131.2153022462,-3.4308910369873047,4.28322696685791,-1.7621324062347412
1776038156699677200,-1522131.2053227539,-3.339911460876465,4.4077253341674805,-1.5322890281677246
1776038156729920000,-1522131.1750800782,-3.5960910320281982,4.572925090789795,-0.993593692779541
1776038156739929900,-1522131.1650700683,-3.1076738834381104,4.613626480102539,-1.0103530883789062
1776038156749970200,-1522131.1550297851,-2.7269957065582275,4.520252704620361,-1.1204863786697388
1776038156760041000,-1522131.1449589843,-2.564189910888672,4.323928356170654,-1.091755986213684
1776038156770081300,-1522131.1349187011,-2.583343744277954,4.091690540313721,-1.0773907899856567
1776038156790192400,-1522131.1148076172,-2.80361008644104,3.9863457679748535,-1.359906554222107
1776038156800263200,-1522131.1047368164,-2.719813108444214,3.909731388092041,-1.678335428237915
1776038156820404700,-1522131.0845952148,-2.2433669567108154,3.754108190536499,-2.652775526046753
1776038156840546300,-1522131.0644536132,-1.1516109704971313,3.6176388263702393,-3.7181951999664307
1776038156850617000,-1522131.0543828125,-0.3926490843296051,3.579331636428833,-4.125209331512451
1776038156860657400,-1522131.0443425293,0.33758243918418884,3.6152446269989014,-4.5154643058776855
1776038156870728200,-1522131.0342717285,0.5530605912208557,3.711012601852417,-4.908113479614258
1776038156880738000,-1522131.0242619629,0.10295066982507706,3.756502389907837,-5.322310447692871
1776038156890808800,-1522131.014191162,-0.4596867263317108,3.794809579849243,-5.834669589996338
1776038156900788000,-1522131.004211914,-0.9983820915222168,3.6511576175689697,-6.481103897094727
1776038156931061500,-1522130.9739384765,-1.1803414821624756,2.9735984802246094,-7.448361396789551
1776038156941101800,-1522130.9638981933,-0.9265560507774353,2.5953147411346436,-7.220912456512451
1776038156951203000,-1522130.953796875,-0.689530074596405,2.3726539611816406,-6.485892295837402
1776038156961273900,-1522130.9437260742,-0.5147533416748047,2.2697031497955322,-5.418078422546387
1776038156971375000,-1522130.933625,-0.4429273009300232,2.166752576828003,-4.666299343109131
1776038156981385000,-1522130.9236149902,-0.31364041566848755,2.0470423698425293,-4.175487995147705
1776038156991486200,-1522130.9135136718,-0.22266076505184174,1.8507179021835327,-4.273650169372559
1776038157001526500,-1522130.9034733886,-0.3280056416988373,1.8842366933822632,-4.41969633102417
1776038157031678000,-1522130.8733220214,-0.9361328482627869,2.4157495498657227,-4.271255970001221
1776038157041748700,-1522130.8632512207,-1.3120225667953491,2.7102363109588623,-3.9647979736328125
1776038157061920800,-1522130.8430793458,-1.8698714971542358,3.1268274784088135,-3.2800562381744385
1776038157071991600,-1522130.833008545,-1.9847931861877441,3.1004912853240967,-3.026270866394043
1776038157082001400,-1522130.8229985351,-2.0039467811584473,3.026270866394043,-2.9041666984558105
1776038157092072200,-1522130.8129277343,-1.867477297782898,2.7293899059295654,-2.671929121017456
1776038157102143000,-1522130.8028569336,-1.821987509727478,2.315192937850952,-2.434903144836426
1776038157112213800,-1522130.7927861328,-1.8626888990402222,1.6376339197158813,-2.276885747909546
1776038157122284500,-1522130.7827155762,-1.7860745191574097,1.0678139925003052,-1.9704279899597168
1776038157152497000,-1522130.752503174,-1.699883222579956,0.26575639843940735,-0.4668693244457245
1776038157172577500,-1522130.7324223632,-1.6687586307525635,-0.2992752194404602,-0.09576806426048279
1776038157182648300,-1522130.7223515625,-1.6496049165725708,-0.47644615173339844,-0.05985504388809204
1776038157192719000,-1522130.712281006,-1.6136919260025024,-0.524330198764801,0.12210428714752197
1776038157202759400,-1522130.7022404785,-1.434126853942871,-0.7398083209991455,0.4141969084739685
1776038157212830200,-1522130.6921696777,-1.335964560508728,-0.8307880163192749,0.5985504388809204
1776038157222901000,-1522130.6820991212,-1.091755986213684,-1.2018892765045166,0.7182605266571045
1776038157253113300,-1522130.6518867188,-0.2944868206977844,-1.9081788063049316,0.7948749661445618
1776038157263123200,-1522130.641876709,-0.0694318488240242,-2.123656988143921,0.6631938815116882
1776038157273194000,-1522130.6318059082,0.15322890877723694,-2.2649147510528564,0.5171475410461426
1776038157283264800,-1522130.6217353516,0.18914192914962769,-2.5067291259765625,0.5961562395095825
1776038157293366000,-1522130.6116340333,0.17238251864910126,-2.5115175247192383,0.6943184733390808
1776038157303406300,-1522130.60159375,0.09816227108240128,-2.477998733520508,0.8619126081466675
1776038157313507600,-1522130.5914924317,0.033518824726343155,-2.231395959854126,0.9696516990661621
1776038157323578600,-1522130.5814213867,-0.035913024097681046,-2.161964178085327,0.9552865028381348
1776038157363831300,-1522130.5411687011,0.6440402865409851,-1.6160861253738403,0.4572925269603729
1776038157373902000,-1522130.5310979004,0.6177040338516235,-1.7190368175506592,0.2082955539226532
1776038157383911700,-1522130.521088379,0.7733271718025208,-1.8100165128707886,0.17956513166427612
1776038157393982500,-1522130.5110175782,0.9888052940368652,-1.9847931861877441,0.12449848651885986
1776038157404053200,-1522130.5009467774,1.2401964664459229,-2.1547815799713135,-0.0454898327589035
1776038157414093600,-1522130.4909064942,1.558625340461731,-2.319981336593628,-0.2944868206977844
1776038157424103400,-1522130.4808964843,1.86508309841156,-2.454056739807129,-0.5602431893348694
1776038157434174200,-1522130.4708256836,2.363077163696289,-2.6647465229034424,-0.7996633648872375
1776038157464356000,-1522130.4406437988,3.136404275894165,-2.3558945655822754,-1.3215993642807007
1776038157484528000,-1522130.420471924,3.155557870864868,-2.1475989818573,-1.5203180313110352
1776038157494538000,-1522130.410461914,3.227383852005005,-2.1380221843719482,-1.6424223184585571
1776038157504578300,-1522130.4004216308,3.162740468978882,-2.140416383743286,-1.6519991159439087
1776038157514618600,-1522130.3903813476,3.315969467163086,-2.1978771686553955,-1.7525556087493896
1776038157524659000,-1522130.3803410644,3.603273630142212,-2.3965959548950195,-2.2912509441375732
1776038157534699000,-1522130.3703010255,3.957615375518799,-2.604891538619995,-3.069366693496704
1776038157544769800,-1522130.3602302247,4.3622355461120605,-2.6886885166168213,-3.9384617805480957
1776038157574890800,-1522130.3301091308,4.580107688903809,-2.427720546722412,-4.546588897705078
1776038157584931000,-1522130.3200688476,4.165910720825195,-1.9608511924743652,-3.9384617805480957
1776038157595001900,-1522130.3099980468,3.469198226928711,-1.4269442558288574,-2.96162748336792
1776038157605072600,-1522130.299927246,2.738966703414917,-0.9840168952941895,-2.1571757793426514
1776038157615143400,-1522130.2898566895,1.9943699836730957,-0.49559974670410156,-1.7836803197860718
1776038157625183700,-1522130.279816162,1.3503297567367554,0.004788403399288654,-1.7597382068634033
1776038157635285000,-1522130.269715088,0.8595184087753296,0.31603461503982544,-1.889025092124939
1776038157645355800,-1522130.2596442872,0.6536170840263367,0.5171475410461426,-2.0254945755004883
1776038157685608400,-1522130.2193916016,0.2298433631658554,0.7924807667732239,-3.0334534645080566
1776038157705750000,-1522130.19925,-0.3280056416988373,0.768538773059845,-3.450044631958008
1776038157715851500,-1522130.1891484375,-0.6488286852836609,0.6847416758537292,-3.579331636428833
1776038157725922300,-1522130.1790776367,-1.0079588890075684,0.7541735172271729,-3.5697548389434814
1776038157735993000,-1522130.169006836,-1.2880805730819702,0.912190854549408,-3.5003228187561035
1776038157746094300,-1522130.1589057618,-1.601720929145813,1.015141487121582,-3.421314239501953
1776038157786316500,-1522130.1186833496,-1.7741034030914307,1.6927006244659424,-2.7700912952423096
1776038157796387300,-1522130.108612793,-1.9345149993896484,1.7142484188079834,-2.5929205417633057
1776038157806458000,-1522130.0985419923,-2.205059766769409,1.7405846118927002,-2.492363929748535
1776038157816498400,-1522130.0885014648,-2.4827871322631836,1.6927006244659424,-2.4803929328918457
1776038157826538800,-1522130.0784611816,-2.671929121017456,1.800439715385437,-2.47560453414917
1776038157836640000,-1522130.0683601075,-2.959233283996582,1.7310078144073486,-2.4875755310058594
1776038157846710800,-1522130.0582893067,-3.308786630630493,1.900996208190918,-2.63362193107605
1776038157856781600,-1522130.048218506,-3.60566782951355,2.296039342880249,-2.698265314102173
1776038157886933000,-1522130.0180668945,-4.247313976287842,2.4013843536376953,-2.3032219409942627
1776038157897003800,-1522130.007996338,-4.4292731285095215,2.403778553009033,-2.2912509441375732
1776038157907044000,-1522129.9979558105,-4.548983097076416,2.343923568725586,-2.2026655673980713
1776038157917145300,-1522129.9878547364,-4.754884719848633,2.3750481605529785,-2.0638017654418945
1776038157927185700,-1522129.9778144532,-4.829104900360107,2.3774423599243164,-1.9369091987609863
1776038157937256400,-1522129.9677436524,-4.920084476470947,2.5043349266052246,-1.9321208000183105
1776038157947327200,-1522129.9576728516,-5.099649429321289,2.5306711196899414,-1.8531121015548706
1776038157957398000,-1522129.9476020508,-5.281609058380127,2.652775526046753,-1.8315643072128296
1776038157967468800,-1522129.93753125,-5.3342814445495605,2.896984100341797,-1.8986018896102905
1776038157997681400,-1522129.9073186035,-5.3342814445495605,3.6607344150543213,-2.1715409755706787
1776038158017792300,-1522129.8872077637,-5.0876784324646,4.022258758544922,-2.427720546722412
1776038158027832600,-1522129.8771674805,-4.6255974769592285,3.971980571746826,-2.5689783096313477
1776038158037903400,-1522129.8670966798,-3.9695863723754883,3.845088005065918,-2.8395233154296875
1776038158047913200,-1522129.85708667,-3.069366693496704,3.758896589279175,-3.0550012588500977
1776038158058014500,-1522129.8469855958,-2.425326347351074,3.869029998779297,-3.339911460876465
1776038158068024300,-1522129.836975586,-2.207453966140747,4.4508209228515625,-3.4572272300720215
1776038158098206200,-1522129.8067937011,-2.3295583724975586,6.191405773162842,-3.7636849880218506
1776038158118286800,-1522129.7867131347,-2.070984363555908,6.332663536071777,-3.883395195007324
1776038158128296400,-1522129.7767036133,-1.4317326545715332,6.064512729644775,-4.003105163574219
1776038158138398000,-1522129.7666020507,-1.048660397529602,5.95677375793457,-4.089296340942383
1776038158148468700,-1522129.75653125,-0.40462008118629456,5.710171222686768,-4.146757125854492
1776038158158508800,-1522129.746491211,0.033518824726343155,5.609614372253418,-4.292803764343262
1776038158168549000,-1522129.7364509278,0.42856210470199585,5.2049946784973145,-4.438849925994873
1776038158178620000,-1522129.726380127,0.7589619159698486,4.78122091293335,-4.886565685272217
1776038158208771300,-1522129.6962287598,1.8315643072128296,3.9049429893493652,-6.8809356689453125
1776038158218842000,-1522129.686157959,1.5682021379470825,4.034229755401611,-7.362170219421387
1776038158228943600,-1522129.6760563964,1.7405846118927002,4.050989151000977,-7.86734676361084
1776038158239044900,-1522129.665955078,1.824381709098816,3.7445313930511475,-8.202534675598145
1776038158249115600,-1522129.6558842773,1.7932571172714233,3.1483752727508545,-8.061277389526367
1776038158259186400,-1522129.6458134765,2.013523578643799,2.6384103298187256,-7.68538761138916
1776038158269287700,-1522129.6357124024,2.2194249629974365,2.166752576828003,-7.201758861541748
1776038158279297500,-1522129.6257023925,2.4396915435791016,1.7621324062347412,-6.651092529296875
1776038158289307400,-1522129.615692627,2.540247917175293,1.482010841369629,-6.102819919586182
1776038158299378200,-1522129.6056218261,2.5474305152893066,1.290474772453308,-5.825092792510986
1776038158309418200,-1522129.5955817872,2.628833532333374,1.256955862045288,-5.489904403686523
1776038158319489000,-1522129.5855109864,2.5019407272338867,1.3455413579940796,-5.418078422546387
1776038158329529300,-1522129.5754707032,2.3558945655822754,1.3503297567367554,-5.173870086669922
1776038158339539200,-1522129.5654606933,1.9800047874450684,1.5083470344543457,-4.948814868927002
1776038158349640400,-1522129.5553596192,1.5442601442337036,1.7405846118927002,-4.733336925506592
1776038158359711200,-1522129.5452888184,0.9768342971801758,2.0374655723571777,-4.548983097076416
1776038158410034700,-1522129.494965332,-1.3215993642807007,2.5450363159179688,-3.5194764137268066
1776038158420075000,-1522129.484925049,-1.5179238319396973,2.1547815799713135,-3.1531636714935303
1776038158430084900,-1522129.474915039,-1.7094600200653076,1.824381709098816,-2.6431987285614014
1776038158440186000,-1522129.464813965,-1.9177556037902832,1.534683346748352,-2.2625205516815186
1776038158450257000,-1522129.4547431641,-2.0685901641845703,1.2737152576446533,-1.889025092124939
1776038158460297200,-1522129.444702881,-2.296039342880249,1.0007762908935547,-1.5322890281677246
1776038158470337500,-1522129.4346623535,-2.427720546722412,0.7182605266571045,-1.1037269830703735
1776038158480438800,-1522129.4245612794,-2.5546131134033203,0.3471592366695404,-0.6823474764823914
1776038158500550000,-1522129.4044501954,-2.477998733520508,-0.33997663855552673,-0.33997663855552673
1776038158510651100,-1522129.394348877,-2.4468741416931152,-0.6536170840263367,-0.24420857429504395
1776038158520752600,-1522129.3842473144,-2.3965959548950195,-0.7996633648872375,-0.004788403399288654
1776038158530823400,-1522129.3741765136,-2.2673089504241943,-0.993593692779541,0.17477671802043915
1776038158540894200,-1522129.3641057129,-2.123656988143921,-1.048660397529602,0.4884171485900879
1776038158550965000,-1522129.354034912,-1.968033790588379,-1.2497732639312744,0.6823474764823914
1776038158561066200,-1522129.343933838,-1.8746598958969116,-1.1300631761550903,0.7733271718025208
1776038158571045600,-1522129.3339543457,-1.821987509727478,-0.9097966551780701,0.9002198576927185
1776038158581116400,-1522129.323883545,-1.7573440074920654,-0.7398083209991455,1.1252747774124146
1776038158591217700,-1522129.3137822265,-1.6903064250946045,-0.6560112833976746,1.4197616577148438
1776038158631531300,-1522129.27346875,-0.950498104095459,-1.0965443849563599,1.50355863571167
1776038158641602300,-1522129.263397705,-0.8331822156906128,-1.2114660739898682,1.3263877630233765
1776038158651673000,-1522129.2533269043,-0.8164227604866028,-1.115697979927063,1.335964560508728
1776038158661743900,-1522129.2432561035,-0.8259995579719543,-1.2713210582733154,1.4484920501708984
1776038158681885400,-1522129.223114502,-0.3998316824436188,-1.6184803247451782,1.4173674583435059
1776038158691956200,-1522129.2130437011,0.038307227194309235,-1.9057846069335938,1.3670891523361206
1776038158702027000,-1522129.2029729004,0.6416460275650024,-2.0374655723571777,1.137245774269104
1776038158712097800,-1522129.1929020996,1.5969325304031372,-2.2673089504241943,0.7469909191131592
1776038158732239400,-1522129.1727607423,3.043030261993408,-2.3367409706115723,-0.014365210197865963
1776038158742340600,-1522129.162659424,2.8634653091430664,-2.056619167327881,-0.13168109953403473
1776038158752350500,-1522129.152649414,2.82515811920166,-1.886630892753601,-0.23702596127986908
1776038158762451700,-1522129.14254834,2.7988216876983643,-1.7812861204147339,-0.3734954595565796
1776038158772522500,-1522129.1324775391,3.201047658920288,-1.7621324062347412,-0.5410895943641663
1776038158782593300,-1522129.1224067383,3.155557870864868,-1.6065093278884888,-0.8092401623725891
1776038158792664300,-1522129.1123356933,2.7509377002716064,-1.3215993642807007,-1.2042834758758545
1776038158822876700,-1522129.082123291,2.1092917919158936,-0.646434485912323,-1.9249382019042969
1776038158842957000,-1522129.0620429688,2.3127987384796143,-1.0055646896362305,-2.5929205417633057
1776038158852997400,-1522129.0520026856,3.002328872680664,-1.335964560508728,-2.7988216876983643
1776038158863099000,-1522129.041901123,3.361459255218506,-1.3982137441635132,-2.8443117141723633
1776038158883240400,-1522129.0217595214,3.8522706031799316,-1.292868971824646,-3.2297780513763428
1776038158893311200,-1522129.0116887207,4.050989151000977,-1.2832920551300049,-3.6176388263702393
1776038158903412500,-1522129.0015874023,4.177882194519043,-1.2066776752471924,-3.825934410095215
1776038158913452800,-1522128.991547119,4.163516521453857,-1.2234370708465576,-3.9456443786621094
1776038158933564000,-1522128.9714360351,4.031835556030273,-1.01753568649292,-3.7445313930511475
1776038158943634700,-1522128.9613652343,3.7253777980804443,-0.8140285611152649,-3.44765043258667
1776038158953705500,-1522128.9512944336,3.114856481552124,-0.3878606855869293,-2.829946517944336
1776038158963806700,-1522128.9411933594,2.5258827209472656,-0.07422025501728058,-2.296039342880249
1776038158973816600,-1522128.9311833496,1.9632453918457031,0.18914192914962769,-1.9632453918457031
1776038158983887400,-1522128.9211125488,1.556231141090393,0.5099649429321289,-1.7070658206939697
1776038159034210800,-1522128.8707890625,0.5554547905921936,1.558625340461731,-3.095702886581421
1776038159044281600,-1522128.860718506,0.5434837937355042,1.6496049165725708,-3.4380736351013184
1776038159064453600,-1522128.8405463868,0.2082955539226532,1.9249382019042969,-4.225766181945801
1776038159074494000,-1522128.8305061036,-0.038307227194309235,2.054224967956543,-4.517858505249023
1776038159084534300,-1522128.8204658204,-0.44532153010368347,2.2912509441375732,-4.5609540939331055
1776038159104645400,-1522128.8003547364,-1.357512354850769,2.894589900970459,-4.175487995147705
1776038159114655200,-1522128.7903447265,-1.6974890232086182,3.0813376903533936,-3.9408559799194336
1776038159134796800,-1522128.770203125,-2.2457611560821533,3.426102638244629,-3.5697548389434814
1776038159144867600,-1522128.7601323242,-2.477998733520508,3.555389642715454,-3.315969467163086
1776038159154877400,-1522128.7501225586,-2.6575639247894287,3.6176388263702393,-3.071760892868042
1776038159164978700,-1522128.7400212402,-2.8419175148010254,3.576937437057495,-2.8610711097717285
1776038159175049500,-1522128.7299504394,-3.07415509223938,3.7014358043670654,-2.6815059185028076
1776038159185120300,-1522128.7198796386,-3.28963303565979,4.031835556030273,-2.559401512145996
1776038159205231400,-1522128.6997685547,-3.756502389907837,4.089296340942383,-2.6144683361053467
1776038159235382800,-1522128.6696171875,-4.4077253341674805,3.624821424484253,-2.557007312774658
1776038159245453600,-1522128.6595463867,-4.400542736053467,3.531447410583496,-2.564189910888672
1776038159255524400,-1522128.649475586,-4.302380561828613,3.5194764137268066,-2.6575639247894287
1776038159265625600,-1522128.6393745118,-4.302380561828613,3.533841609954834,-2.6671407222747803
1776038159275605000,-1522128.6293950195,-4.285621166229248,3.3854012489318848,-2.6623523235321045
1776038159285706200,-1522128.6192937011,-4.285621166229248,3.251325845718384,-2.7293899059295654
1776038159295777000,-1522128.6092229004,-4.19224739074707,3.2321722507476807,-2.7078421115875244
1776038159305847800,-1522128.5991520996,-4.189853191375732,3.090914487838745,-2.7916390895843506
1776038159325989400,-1522128.5790107423,-3.971980571746826,3.138798475265503,-2.832340717315674
1776038159336029700,-1522128.5689702148,-3.8067808151245117,3.354276657104492,-2.873042106628418
1776038159346100500,-1522128.558899414,-3.579331636428833,3.7229835987091064,-3.0310592651367188
1776038159356171300,-1522128.5488288575,-3.023876667022705,3.9193081855773926,-3.1435868740081787
1776038159366211600,-1522128.53878833,-2.693476915359497,4.213795185089111,-3.2345664501190186
1776038159376221400,-1522128.5287785644,-2.477998733520508,4.448426723480225,-3.1890766620635986
1776038159386292200,-1522128.5187077636,-2.4660277366638184,4.6040496826171875,-3.1268274784088135
1776038159396332300,-1522128.5086677247,-2.626439332962036,4.745307922363281,-2.9879636764526367
1776038159406403300,-1522128.4985966797,-2.734178304672241,4.879383087158203,-2.8179752826690674
1776038159436524000,-1522128.4684760743,-2.6024973392486572,4.999093055725098,-2.760514497756958
1776038159446625300,-1522128.458374756,-2.300827741622925,4.922478675842285,-2.9328970909118652
1776038159456696000,-1522128.4483039551,-1.8100165128707886,4.802768707275391,-3.0861260890960693
1776038159466736400,-1522128.438263672,-1.5203180313110352,4.843470096588135,-3.3949780464172363
1776038159476746200,-1522128.428253662,-1.1109095811843872,4.869806289672852,-3.73016619682312
1776038159486847500,-1522128.418152588,-0.7230489253997803,4.831499099731445,-4.041412353515625
1776038159496918300,-1522128.4080817872,-0.28969839215278625,4.551377296447754,-4.398148536682129
1776038159527161300,-1522128.377838623,1.2258312702178955,3.9911341667175293,-5.202600479125977
1776038159537201700,-1522128.3677983398,1.7549498081207275,3.7421371936798096,-5.458779811859131
1776038159547272400,-1522128.357727539,2.3127987384796143,3.6176388263702393,-5.872976779937744
1776038159557343200,-1522128.3476567382,2.516305923461914,3.4955344200134277,-6.18182897567749
1776038159567444500,-1522128.33755542,2.343923568725586,3.576937437057495,-6.411672115325928
1776038159577515300,-1522128.327484619,2.0590133666992188,3.421314239501953,-6.629544734954834
1776038159587616500,-1522128.317383545,1.290474772453308,3.1459810733795166,-6.9695210456848145
1776038159597687300,-1522128.3073127442,0.5793967843055725,2.604891538619995,-7.400477409362793
1776038159607788800,-1522128.2972111816,-0.11252748221158981,2.5067291259765625,-7.778761386871338
1776038159617829000,-1522128.2871708984,-0.33997663855552673,2.7078421115875244,-7.817068576812744
1776038159647980300,-1522128.2570197755,0.181959331035614,3.0813376903533936,-6.677428722381592
1776038159658051000,-1522128.2469489747,0.3758896589279175,2.801215887069702,-6.021417140960693
1776038159668121900,-1522128.236878174,0.7733271718025208,2.6575639247894287,-5.286397457122803
1776038159678192600,-1522128.226807373,0.9720458984375,2.3535003662109375,-4.644751071929932
1776038159688294100,-1522128.2167058105,1.0749965906143188,2.4229321479797363,-4.127603530883789
1776038159698303700,-1522128.2066962891,0.8930372595787048,2.4420857429504395,-4.017470359802246
1776038159708405200,-1522128.1965947265,0.667982280254364,2.604891538619995,-4.055777549743652
1776038159718476000,-1522128.1865239257,0.4596867263317108,2.5522189140319824,-4.304774761199951
1776038159738617600,-1522128.1663823242,0.043095629662275314,2.2912509441375732,-4.491522312164307
1776038159748718800,-1522128.15628125,-0.1173158809542656,1.9393033981323242,-4.242525577545166
1776038159758820000,-1522128.1461799317,-0.17238251864910126,1.580173134803772,-3.821146011352539
1776038159768860400,-1522128.1361396485,-0.40222588181495667,1.4053963422775269,-3.4380736351013184
1776038159778931200,-1522128.1260688477,-0.4884171485900879,1.1516109704971313,-2.9903578758239746
1776038159788971500,-1522128.1160285645,-0.5674257874488831,1.0558429956436157,-2.5234885215759277
1776038159798981400,-1522128.1060185547,-0.586579442024231,0.5650315880775452,-2.0638017654418945
1776038159809052200,-1522128.0959477539,-0.5985504388809204,0.2537853717803955,-1.5155296325683594
1776038159829193700,-1522128.0758061523,-0.8547300100326538,-0.20350714027881622,-0.19871874153614044
1776038159849365800,-1522128.0556342774,-0.9169792532920837,-0.44771572947502136,0.7182605266571045
1776038159859406000,-1522128.0455939942,-0.8858546018600464,-0.4692635238170624,1.0989385843276978
1776038159869507600,-1522128.0354924316,-0.7709329724311829,-0.29209262132644653,1.5298948287963867
1776038159879578400,-1522128.0254216308,-0.6991068720817566,-0.22744916379451752,1.8411411046981812
1776038159889679600,-1522128.0153203125,-0.6631938815116882,-0.15801730751991272,2.051830768585205
1776038159899689500,-1522128.0053105468,-0.5650315880775452,-0.181959331035614,2.3056161403656006
1776038159909760300,-1522127.995239746,-0.38307225704193115,-0.2298433631658554,2.4205379486083984
1776038159919831000,-1522127.9851689453,-0.24420857429504395,-0.1364694982767105,2.540247917175293
1776038159929901800,-1522127.9750981445,-0.12210428714752197,-0.20350714027881622,2.4444799423217773
1776038159960053000,-1522127.9449470215,0.18914192914962769,-0.36152446269989014,2.1092917919158936
1776038159970124000,-1522127.9348759765,0.181959331035614,-0.47884035110473633,1.9321208000183105
1776038159980133600,-1522127.9248664551,0.1388636976480484,-0.6416460275650024,1.8267759084701538
1776038159990204400,-1522127.9147956544,0.1628057211637497,-0.7015010714530945,1.5729905366897583
1776038160000244700,-1522127.9047553712,0.2753331959247589,-0.8427590131759644,1.3311761617660522
1776038160010315500,-1522127.8946845704,0.31842881441116333,-0.8667010068893433,1.0797849893569946
1776038160020325400,-1522127.8846745605,0.47884035110473633,-0.9528923034667969,0.8379706144332886
1776038160040497400,-1522127.8645026856,0.7493851184844971,-0.9864110946655273,0.4572925269603729
1776038160070709800,-1522127.8342902833,1.766920804977417,-0.4165911078453064,-0.44532153010368347
1776038160080719600,-1522127.8242802734,2.185906171798706,-0.30885201692581177,-0.7422025203704834
1776038160090820900,-1522127.8141791993,2.52109432220459,-0.12449848651885986,-0.8762778043746948
1776038160100800300,-1522127.804199707,3.021482467651367,-0.07422025501728058,-0.9528923034667969
1776038160110901500,-1522127.7940983886,3.7493197917938232,-0.17238251864910126,-1.1540051698684692
1776038160120941800,-1522127.7840581054,3.799597978591919,0.026336219161748886,-1.501164436340332
1776038160131043000,-1522127.7739570313,3.861847400665283,0.19393034279346466,-1.9488801956176758
1776038160151184600,-1522127.7538154298,3.0597896575927734,0.9074024558067322,-2.3582887649536133
1776038160171326200,-1522127.7336738282,2.5043349266052246,1.3958195447921753,-2.38462495803833
1776038160181366500,-1522127.723633545,2.346317768096924,1.5538369417190552,-2.454056739807129
1776038160191468000,-1522127.7135319824,2.1954829692840576,1.6687586307525635,-2.559401512145996
1776038160201538800,-1522127.7034611816,2.185906171798706,1.6711528301239014,-2.6862943172454834
1776038160211609600,-1522127.6933903808,2.2649147510528564,1.6759412288665771,-2.676717519760132
1776038160221650000,-1522127.6833500976,2.27209734916687,1.678335428237915,-2.5306711196899414
1776038160231751200,-1522127.6732487793,2.3989901542663574,1.4460978507995605,-2.7485435009002686
1776038160251923200,-1522127.6530769044,2.784456491470337,0.7829039692878723,-3.869029998779297
1776038160272034300,-1522127.6329655761,3.1651346683502197,0.2106897532939911,-4.378994941711426
1776038160282044200,-1522127.6229558105,3.203441858291626,0.2298433631658554,-4.163516521453857
1776038160292084500,-1522127.6129155273,2.9328970909118652,0.1628057211637497,-3.6990416049957275
1776038160302094000,-1522127.602906006,2.518700122833252,0.05267243832349777,-3.2609026432037354
1776038160312195300,-1522127.5928046876,1.9153614044189453,-0.12689268589019775,-2.964021682739258
1776038160322266400,-1522127.5827336425,1.3024457693099976,-0.24660277366638184,-2.8131868839263916
1776038160332367600,-1522127.5726323242,0.7254431247711182,-0.33279404044151306,-2.8443117141723633
1776038160342408000,-1522127.562592041,0.4213795065879822,-0.15083470940589905,-3.043030261993408
1776038160352478700,-1522127.5525212402,0.21787235140800476,-0.0071826050989329815,-3.4787750244140625
1776038160362488300,-1522127.5425117188,0.11013327538967133,0.11971008777618408,-3.909731388092041
1776038160372589800,-1522127.5324101562,-0.035913024097681046,0.09576806426048279,-4.199429988861084
1776038160382630100,-1522127.522369873,-0.24420857429504395,0.2106897532939911,-4.474762916564941
1776038160392701000,-1522127.5122990722,-0.5051765441894531,0.33279404044151306,-4.596867084503174
1776038160402771700,-1522127.5022282714,-0.9385270476341248,0.5530605912208557,-4.714183330535889
1776038160412842500,-1522127.4921574707,-1.3335703611373901,0.828393816947937,-4.9152960777282715
1776038160422913300,-1522127.48208667,-1.824381709098816,1.4532804489135742,-4.934449672698975
1776038160432984000,-1522127.472015869,-2.161964178085327,1.987187385559082,-4.886565685272217
1776038160443024400,-1522127.461975586,-2.4372973442077637,2.470816135406494,-4.78122091293335
1776038160473206300,-1522127.4317937011,-3.1052796840667725,3.090914487838745,-4.414907932281494
1776038160483277000,-1522127.4217229004,-3.3446998596191406,3.3518824577331543,-4.206612586975098
1776038160493347800,-1522127.4116520996,-3.5936968326568604,3.5003228187561035,-3.9240965843200684
1776038160503357400,-1522127.4016425782,-3.734954595565796,3.667917013168335,-3.627215623855591
1776038160513459000,-1522127.3915410156,-3.9025487899780273,3.73016619682312,-3.339911460876465
1776038160523529700,-1522127.3814702148,-4.091690540313721,3.8810009956359863,-3.184288263320923
1776038160533631000,-1522127.3713691407,-4.20421838760376,3.9049429893493652,-3.0166940689086914
1776038160563873800,-1522127.3411262208,-4.630385875701904,4.242525577545166,-2.9544448852539062
1776038160573944800,-1522127.3310551757,-4.7405195236206055,4.225766181945801,-2.913743495941162
1776038160584015600,-1522127.320984375,-4.733336925506592,4.431667327880859,-2.868253707885742
1776038160594086400,-1522127.3109135742,-4.565742492675781,4.54419469833374,-2.889801502227783
1776038160604157200,-1522127.3008427734,-4.414907932281494,4.692635536193848,-2.8826189041137695
1776038160614258400,-1522127.290741455,-4.333505153656006,4.836287498474121,-2.873042106628418
1776038160624298800,-1522127.2807011718,-4.132391929626465,4.912901878356934,-2.873042106628418
1776038160634400000,-1522127.2706000977,-3.97916316986084,5.073313236236572,-2.956839084625244
1776038160654572000,-1522127.2504279786,-3.907337188720703,5.4659624099731445,-3.0597896575927734
1776038160664582000,-1522127.240418213,-3.9911341667175293,5.647922039031982,-3.1890766620635986
1776038160674683100,-1522127.2303168946,-4.082113742828369,5.875370979309082,-3.1531636714935303
1776038160684754000,-1522127.2202460938,-4.220977783203125,5.932831764221191,-3.1052796840667725
1776038160694825000,-1522127.2101750488,-4.347870349884033,6.090848922729492,-3.1196448802948
1776038160704865000,-1522127.2001350098,-4.431667327880859,6.133944988250732,-3.1675288677215576
1776038160714935800,-1522127.190064209,-3.9432501792907715,6.196194171905518,-3.2130186557769775
1776038160725006800,-1522127.179993164,-3.533841609954834,6.114790916442871,-3.399766445159912
1776038160735077600,-1522127.1699223632,-3.248931646347046,6.133944988250732,-3.603273630142212
1776038160765198300,-1522127.1398017579,-2.765302896499634,5.990292549133301,-4.216189384460449
1776038160775269000,-1522127.129730957,-2.7269957065582275,5.899312973022461,-4.477157115936279
1776038160785309400,-1522127.119690674,-2.4851813316345215,5.626373767852783,-4.865017890930176
1776038160795410700,-1522127.1095893555,-2.319981336593628,5.47075080871582,-5.216965675354004
1776038160805451000,-1522127.0995490723,-1.9033904075622559,5.442020416259766,-5.70777702331543
1776038160815552300,-1522127.089447754,-1.381454348564148,5.161899089813232,-6.155492782592773
1776038160825623300,-1522127.079376709,-0.9528923034667969,4.759673118591309,-6.619967937469482
1776038160835694000,-1522127.0693059082,-0.7254431247711182,4.541800498962402,-7.115567684173584
1776038160865876000,-1522127.0391240234,-0.4668693244457245,3.2776620388031006,-9.964667320251465
1776038160875946800,-1522127.0290532226,-0.4381389021873474,2.0422539710998535,-11.173739433288574
1776038160885987000,-1522127.0190129394,0.1149216815829277,1.1324573755264282,-11.477803230285645
1776038160896057900,-1522127.0089421386,0.22505496442317963,0.2753331959247589,-11.18092155456543
1776038160906098000,-1522126.9989020997,0.9457096457481384,0.090979665517807,-10.129867553710938
1776038160916169000,-1522126.9888310547,1.3886369466781616,0.24181437492370605,-8.746018409729004
1776038160926209000,-1522126.9787910157,2.0590133666992188,0.5913678407669067,-7.594407558441162
1776038160936279800,-1522126.968720215,2.6216509342193604,1.3192051649093628,-6.701370716094971
1776038160946350800,-1522126.95864917,2.4636335372924805,1.8387469053268433,-5.954379558563232
1776038160986664400,-1522126.9183354492,-0.4357447028160095,5.085284233093262,-4.491522312164307
1776038160996735200,-1522126.9082646484,-1.278503656387329,5.212177276611328,-4.824316501617432
1776038161006806000,-1522126.8981940919,-1.845929503440857,5.161899089813232,-4.917690277099609
1776038161016907300,-1522126.8880927735,-2.4636335372924805,5.023035049438477,-4.726154327392578
1776038161026947600,-1522126.8780524903,-2.8562827110290527,4.881777286529541,-4.4292731285095215
1776038161037049000,-1522126.8679509277,-3.098097085952759,4.702212333679199,-4.034229755401611
1776038161047058700,-1522126.8579414063,-3.1531636714935303,4.388571739196777,-3.6367924213409424
1776038161067200300,-1522126.8377998048,-3.3063924312591553,3.7253777980804443,-2.851494312286377
1776038161097351700,-1522126.8076484376,-3.1220390796661377,1.3335703611373901,-1.6855180263519287
1776038161107392000,-1522126.7976079101,-3.1531636714935303,0.38307225704193115,-1.094150185585022
1776038161117462800,-1522126.7875371093,-3.136404275894165,-0.4429273009300232,-0.3663128614425659
1776038161127472600,-1522126.7775273437,-3.117250680923462,-1.173158884048462,0.26336219906806946
1776038161137543400,-1522126.767456543,-2.9903578758239746,-1.778891921043396,0.849941611289978
1776038161147583700,-1522126.7574162597,-2.9017724990844727,-1.9249382019042969,1.3455413579940796
1776038161157685000,-1522126.7473149414,-2.8203697204589844,-1.8171991109848022,1.6352397203445435
1776038161197968100,-1522126.7070319825,-2.1332337856292725,-1.113303780555725,2.367865562438965
1776038161208008400,-1522126.696991455,-1.6328455209732056,-1.0462661981582642,2.343923568725586
1776038161218079200,-1522126.6869206543,-1.4317326545715332,-0.6655880808830261,2.296039342880249
1776038161228150000,-1522126.6768500977,-1.1516109704971313,-0.24420857429504395,2.185906171798706
1776038161238190300,-1522126.6668095703,-0.871489405632019,0.19871874153614044,2.0039467811584473
1776038161248200200,-1522126.6567998047,-0.6272808313369751,0.5482721924781799,1.8531121015548706
1776038161268341800,-1522126.636658203,-0.3974374830722809,0.5722141861915588,1.6831238269805908
1776038161318634800,-1522126.5863652343,0.0933738648891449,-0.33039984107017517,-0.19153612852096558
1776038161328674800,-1522126.5763251954,0.3902548849582672,-0.629675030708313,-0.40701428055763245
1776038161338776300,-1522126.5662236328,0.8882488012313843,-0.9241618514060974,-0.4118026793003082
1776038161348877600,-1522126.5561223144,1.6065093278884888,-1.2258312702178955,-0.7086837291717529
1776038161358978800,-1522126.5460212403,2.2673089504241943,-1.216254472732544,-0.9576807022094727
1776038161389099800,-1522126.5159001464,2.473210334777832,-1.113303780555725,-2.1978771686553955
1776038161399170600,-1522126.5058293457,2.2433669567108154,-1.1061211824417114,-2.5019407272338867
1776038161409241300,-1522126.495758545,2.406172752380371,-1.0414776802062988,-2.82515811920166
1776038161419342600,-1522126.4856574708,3.1435868740081787,-1.1492167711257935,-3.023876667022705
1776038161429444000,-1522126.4755559082,3.35667085647583,-1.0103530883789062,-3.1699230670928955
1776038161439515000,-1522126.4654851074,3.512293815612793,-0.6177040338516235,-3.375824451446533
1776038161449585700,-1522126.4554143066,3.818751811981201,-0.24899697303771973,-3.5003228187561035
1776038161459626000,-1522126.4453740234,3.4955344200134277,0.40222588181495667,-3.581725835800171
1776038161479828500,-1522126.425171631,3.0190882682800293,1.436521053314209,-3.6152446269989014
1776038161499939600,-1522126.4050603027,3.383007049560547,1.316810965538025,-3.9647979736328125
1776038161510040800,-1522126.3949592286,3.531447410583496,0.8044517636299133,-4.072536945343018
1776038161520111600,-1522126.3848884278,3.890577793121338,0.35673606395721436,-4.046200752258301
1776038161530182400,-1522126.374817627,4.050989151000977,-0.023942016065120697,-3.885789394378662
1776038161540253200,-1522126.3647468262,3.9839515686035156,-0.3208230137825012,-3.56017804145813
1776038161550324200,-1522126.3546757812,3.6080620288848877,-0.3758896589279175,-3.071760892868042
1776038161560395000,-1522126.3446049804,2.911349296569824,-0.24181437492370605,-2.693476915359497
1776038161580475400,-1522126.3245246583,1.4700398445129395,0.16519992053508759,-2.451662540435791
1776038161600647700,-1522126.304352295,0.5434837937355042,0.38546648621559143,-3.28963303565979
1776038161610657300,-1522126.2943427735,0.28730419278144836,0.5267243981361389,-3.818751811981201
1776038161620697600,-1522126.2843024903,0.033518824726343155,0.6631938815116882,-4.120420932769775
1776038161630798800,-1522126.274201172,-0.17956513166427612,0.8547300100326538,-4.326322555541992
1776038161640870000,-1522126.264130127,-0.6272808313369751,0.9744400978088379,-4.4292731285095215
1776038161650910000,-1522126.254090088,-1.158793568611145,1.0773907899856567,-4.630385875701904
1776038161671051800,-1522126.2339482422,-2.1068975925445557,1.5538369417190552,-4.932055473327637
1776038161691193300,-1522126.2138066406,-2.808398485183716,2.3247697353363037,-4.9152960777282715
1776038161701233400,-1522126.2037666016,-2.875436305999756,2.612074136734009,-4.575319290161133
1776038161711304400,-1522126.1936955566,-3.0837318897247314,2.937685489654541,-4.288015365600586
1776038161721375200,-1522126.1836247558,-3.1866824626922607,3.0406360626220703,-3.845088005065918
1776038161731384800,-1522126.1736152344,-3.2752678394317627,3.3662476539611816,-3.423708438873291
1776038161741425200,-1522126.1635749512,-3.3494882583618164,3.550601005554199,-3.026270866394043
1776038161751496000,-1522126.1535041505,-3.445256233215332,3.6750996112823486,-2.6192567348480225
1776038161761566700,-1522126.1434333497,-3.579331636428833,3.799597978591919,-2.3726539611816406
1776038161801819400,-1522126.1031806641,-4.091690540313721,4.242525577545166,-2.1595699787139893
1776038161811890200,-1522126.0931098633,-4.206612586975098,4.390965938568115,-2.1547815799713135
1776038161821991700,-1522126.0830083007,-4.371812343597412,4.534617900848389,-2.1739351749420166
1776038161832062500,-1522126.0729375,-4.424484729766846,4.637568473815918,-2.183511972427368
1776038161842163700,-1522126.0628361816,-4.517858505249023,4.7836151123046875,-2.118868589401245
1776038161852234500,-1522126.052765625,-4.551377296447754,4.9152960777282715,-2.209848165512085
1776038161862305300,-1522126.0426948243,-4.513070106506348,5.013458251953125,-2.4468741416931152
1776038161872376000,-1522126.0326240235,-4.491522312164307,5.2696380615234375,-2.609679937362671
1776038161882446800,-1522126.0225532227,-4.448426723480225,5.386953830718994,-2.7964274883270264
1776038161892517600,-1522126.012482422,-4.3861775398254395,5.547365188598633,-3.0358476638793945
1776038161902588400,-1522126.0024116212,-4.110844135284424,5.518634796142578,-3.0765492916107178
1776038161912628700,-1522125.992371338,-3.6367924213409424,5.626373767852783,-3.313575267791748
1776038161922699500,-1522125.9823005372,-3.294421434402466,5.5976433753967285,-3.3877954483032227
1776038161932739800,-1522125.972260254,-3.0885202884674072,5.638344764709473,-3.509899616241455
1776038161942780200,-1522125.9622197265,-3.1220390796661377,5.719748020172119,-3.6990416049957275
1776038161952851000,-1522125.95214917,-3.138798475265503,5.731719017028809,-3.7612907886505127
1776038161962952200,-1522125.9420478516,-3.224989652633667,5.681440830230713,-3.8522706031799316
1776038161973023000,-1522125.9319770508,-3.1747114658355713,5.815515995025635,-4.060565948486328
1776038162003235600,-1522125.9017644043,-2.1499931812286377,5.355829238891602,-4.750096321105957
1776038162023316000,-1522125.881684082,-1.7046716213226318,5.078101634979248,-5.339069843292236
1776038162033356300,-1522125.871643799,-1.6112977266311646,4.989516258239746,-5.612008571624756
1776038162043427000,-1522125.861572998,-1.6543933153152466,4.821922302246094,-5.925649166107178
1776038162053497900,-1522125.8515021973,-1.5610195398330688,4.675876140594482,-6.050147533416748
1776038162063599400,-1522125.8414006347,-1.3192051649093628,4.6040496826171875,-6.184223175048828
1776038162073670100,-1522125.831329834,-0.7637503147125244,4.496310710906982,-6.339846134185791
1776038162113922800,-1522125.7910771484,-0.22744916379451752,3.5745432376861572,-9.047688484191895
1776038162123993600,-1522125.7810063476,-0.7110779285430908,3.531447410583496,-9.749189376831055
1776038162134003200,-1522125.7709968262,-0.7709329724311829,3.44765043258667,-10.029311180114746
1776038162144104700,-1522125.7608952636,-0.6272808313369751,2.9903578758239746,-9.813833236694336
1776038162154175500,-1522125.7508244629,0.09576806426048279,2.252943754196167,-9.485827445983887
1776038162164276700,-1522125.7407231445,0.7038952708244324,1.5610195398330688,-8.549694061279297
1776038162174317000,-1522125.7306828613,1.0319008827209473,1.4077905416488647,-7.240066051483154
1776038162184418300,-1522125.7205817872,1.1037269830703735,1.7357962131500244,-6.196194171905518
1776038162194428200,-1522125.7105717773,0.5410895943641663,2.3750481605529785,-5.442020416259766
1776038162224610000,-1522125.6803898925,-1.1851298809051514,4.20421838760376,-5.20978307723999
1776038162234680800,-1522125.6703190918,-1.9608511924743652,4.819528102874756,-5.250484466552734
1776038162244751600,-1522125.660248291,-2.432508945465088,5.137956619262695,-5.288791656494141
1776038162254822400,-1522125.6501774902,-2.5474305152893066,5.386953830718994,-5.142745018005371
1776038162264862700,-1522125.640137207,-2.6815059185028076,5.169081687927246,-4.953603267669678
1776038162274933500,-1522125.6300664062,-2.652775526046753,4.422090530395508,-4.501099109649658
1776038162285034800,-1522125.619965332,-2.652775526046753,3.936067581176758,-4.0964789390563965
1776038162295105500,-1522125.6098945313,-2.719813108444214,3.5434184074401855,-3.646369218826294
1776038162325318000,-1522125.579682129,-2.1308395862579346,2.255337953567505,-1.944091796875
1776038162335389000,-1522125.569611084,-2.006340980529785,1.6089035272598267,-1.4437036514282227
1776038162345459700,-1522125.5595402832,-1.9249382019042969,1.1635819673538208,-1.161187767982483
1776038162355530500,-1522125.5494694824,-1.9057846069335938,1.0582371950149536,-0.9313444495201111
1776038162365601300,-1522125.5393986816,-2.0159177780151367,0.9792284965515137,-0.730231523513794
1776038162375672000,-1522125.5293278808,-1.8483237028121948,0.7182605266571045,-0.6607996821403503
1776038162415985700,-1522125.4890144044,-1.7525556087493896,0.8930372595787048,-0.05746084079146385
1776038162426056400,-1522125.4789436036,-1.7262194156646729,1.091755986213684,0.05506663769483566
1776038162436035800,-1522125.4689641113,-1.6089035272598267,0.7733271718025208,0.17477671802043915
1776038162446137000,-1522125.458862793,-1.4700398445129395,0.37828385829925537,0.2346317619085312
1776038162456208000,-1522125.4487922364,-1.280897855758667,0.2059013396501541,0.11013327538967133
1776038162466278700,-1522125.4387214356,-1.235408067703247,-0.19153612852096558,-0.016759412363171577
1776038162476349400,-1522125.4286506348,-1.1540051698684692,-0.2561795711517334,0.09576806426048279
1776038162486420200,-1522125.418579834,-1.2090718746185303,-0.05746084079146385,0.2059013396501541
1776038162496491000,-1522125.4085090333,-1.1827356815338135,-0.10773907601833344,0.3280056416988373
1776038162506561800,-1522125.3984382325,-1.0127472877502441,-0.028730420395731926,0.31124621629714966
1776038162526703600,-1522125.3782963867,-1.2497732639312744,0.1173158809542656,0.1364694982767105
1776038162546845200,-1522125.3581547851,-1.0582371950149536,0.35434186458587646,-0.05027823522686958
1776038162556916000,-1522125.3480839843,-0.7709329724311829,0.40701428055763245,-0.21308395266532898
1776038162567017200,-1522125.337982666,-0.45489832758903503,0.5219359993934631,-0.21787235140800476
1776038162577088000,-1522125.3279121094,-0.016759412363171577,0.7565677165985107,-0.17717093229293823
1776038162587189200,-1522125.317810791,0.3734954595565796,0.8571242094039917,-0.019153613597154617
1776038162597260000,-1522125.3077399903,0.8882488012313843,0.7493851184844971,-0.014365210197865963
1776038162627411500,-1522125.277588623,2.0829553604125977,0.7637503147125244,-0.48602294921875
1776038162647553000,-1522125.2574470215,2.7772738933563232,0.5554547905921936,-0.8571242094039917
1776038162657623800,-1522125.2473762208,3.0861260890960693,0.22505496442317963,-1.072602391242981
1776038162667694600,-1522125.23730542,3.5649664402008057,-0.05267243832349777,-1.3479355573654175
1776038162677765600,-1522125.227234375,4.0294413566589355,-0.08619125932455063,-1.7573440074920654
1776038162687805700,-1522125.217194336,4.685452938079834,0.05267243832349777,-2.2242133617401123
1776038162697815600,-1522125.2071843261,4.917690277099609,0.4644751250743866,-2.5977089405059814
1776038162738129400,-1522125.1668706054,4.280832767486572,0.7996633648872375,-3.069366693496704
1776038162748200200,-1522125.1567998047,4.4077253341674805,0.5554547905921936,-2.937685489654541
1776038162768341800,-1522125.136658203,4.627991676330566,-0.3758896589279175,-3.5386300086975098
1776038162778443000,-1522125.1265568847,4.618414878845215,-0.7445967197418213,-3.9863457679748535
1776038162788513800,-1522125.1164863282,4.529829502105713,-1.0462661981582642,-4.292803764343262
1776038162798584600,-1522125.1064155274,4.520252704620361,-1.113303780555725,-4.414907932281494
1776038162828766500,-1522125.0762336426,3.552995204925537,-0.7230489253997803,-2.6623523235321045
1776038162838745900,-1522125.0662541504,3.1220390796661377,-0.49320554733276367,-2.0590133666992188
1776038162848816600,-1522125.0561833496,2.6815059185028076,-0.28730419278144836,-1.9536685943603516
1776038162858856700,-1522125.0461433106,2.2385785579681396,-0.12449848651885986,-2.03507137298584
1776038162868958200,-1522125.036041748,2.051830768585205,0.14365209639072418,-2.3558945655822754
1776038162879029000,-1522125.0259709472,1.7621324062347412,0.40222588181495667,-2.935291290283203
1776038162889099800,-1522125.0159001464,1.577778935432434,0.6368576288223267,-3.507505416870117
1776038162899140000,-1522125.0058598632,1.3670891523361206,0.9624691009521484,-3.84269380569458
1776038162909211000,-1522124.9957890625,1.1324573755264282,1.1563993692398071,-4.137180328369141
1776038162919251200,-1522124.9857487793,0.8978256583213806,1.3287819623947144,-4.316745758056641
1776038162959534300,-1522124.9454655761,-0.5626373887062073,2.5953147411346436,-4.316745758056641
1776038162969635600,-1522124.935364502,-1.0438719987869263,2.5067291259765625,-4.170699596405029
1776038162979676000,-1522124.9253239746,-1.4077905416488647,2.4875755310058594,-3.9887399673461914
1776038162989777200,-1522124.9152229005,-1.8291701078414917,2.4157495498657227,-3.8331170082092285
1776038162999817500,-1522124.9051826173,-2.2218191623687744,2.5019407272338867,-3.706224203109741
1776038163009857800,-1522124.8951420898,-2.513911724090576,2.38462495803833,-3.5697548389434814
1776038163019867600,-1522124.8851323242,-2.8131868839263916,2.607285737991333,-3.397372245788574
1776038163040009200,-1522124.8649907226,-3.464409828186035,2.7054479122161865,-3.2632968425750732
1776038163050080000,-1522124.8549199218,-3.7038300037384033,2.669534921646118,-3.3518824577331543
1776038163060089900,-1522124.8449101562,-3.9815573692321777,2.676717519760132,-3.375824451446533
1776038163070191000,-1522124.8348088379,-4.23773717880249,2.8850131034851074,-3.2345664501190186
1776038163080262000,-1522124.824738037,-4.458003520965576,3.155557870864868,-3.361459255218506
1776038163090363100,-1522124.814636963,-4.632780075073242,3.514688014984131,-3.399766445159912
1776038163100403500,-1522124.8045964355,-4.659116744995117,3.8163576126098633,-3.507505416870117
1776038163110504700,-1522124.7944953614,-4.742913722991943,4.036623954772949,-3.5242648124694824
1776038163130615800,-1522124.7743842774,-4.584896087646484,4.4508209228515625,-3.60566782951355
1776038163150757400,-1522124.7542426758,-4.441244125366211,4.908113479614258,-3.509899616241455
1776038163160828200,-1522124.744171875,-4.280832767486572,5.063736438751221,-3.529053211212158
1776038163170929700,-1522124.7340703125,-4.180276393890381,5.25527286529541,-3.383007049560547
1776038163180939300,-1522124.724060791,-3.971980571746826,5.396530628204346,-3.397372245788574
1776038163191040800,-1522124.7139592285,-4.062960147857666,5.537788391113281,-3.471592426300049
1776038163201080800,-1522124.7039191895,-4.048594951629639,5.631162166595459,-3.44765043258667
1776038163211152000,-1522124.6938481445,-3.909731388092041,5.521028995513916,-3.4572272300720215
1776038163221161500,-1522124.683838623,-3.665522813796997,5.542576789855957,-3.4165258407592773
1776038163241272600,-1522124.6637275391,-3.0526070594787598,5.384559631347656,-3.2561142444610596
1776038163261383700,-1522124.643616211,-2.52109432220459,5.590460777282715,-3.2752678394317627
1776038163271485000,-1522124.6335151368,-2.1715409755706787,5.78678560256958,-3.426102638244629
1776038163281555700,-1522124.623444336,-1.8507179021835327,5.791574001312256,-3.7158010005950928
1776038163291626500,-1522124.6133735352,-1.623268723487854,5.6910176277160645,-3.9600095748901367
1776038163301697300,-1522124.6033027344,-1.556231141090393,5.724536418914795,-4.134786128997803
1776038163311768300,-1522124.5932316894,-1.4987702369689941,5.765237808227539,-4.259284973144531
1776038163321839000,-1522124.5831608886,-1.4245500564575195,5.724536418914795,-4.331110954284668
1776038163331940400,-1522124.5730595703,-1.2306196689605713,5.657498836517334,-4.517858505249023
1776038163362152700,-1522124.5428474122,0.6847416758537292,4.129997730255127,-5.693411827087402
1776038163382324700,-1522124.522675293,1.723825216293335,3.914519786834717,-6.967126846313477
1776038163392426200,-1522124.5125737304,1.4724340438842773,4.098873138427734,-7.55131196975708
1776038163402497000,-1522124.5025029297,1.2449848651885986,4.326322555541992,-8.04930591583252
1776038163412567800,-1522124.4924321289,1.1276689767837524,4.469974517822266,-8.516175270080566
1776038163422638600,-1522124.482361328,0.9313444495201111,4.309563159942627,-9.078812599182129
1776038163442780200,-1522124.4622197265,1.0438719987869263,3.466804027557373,-8.995016098022461
1776038163452820500,-1522124.4521794433,1.2713210582733154,3.4763808250427246,-8.279149055480957
1776038163462830300,-1522124.4421696777,1.3215993642807007,3.4117374420166016,-8.11634349822998
1776038163472901000,-1522124.432098877,1.235408067703247,3.1244332790374756,-7.0341644287109375
1776038163482972000,-1522124.4220280761,1.455674648284912,2.564189910888672,-6.100425720214844
1776038163493042700,-1522124.4119572754,1.3982137441635132,2.0661959648132324,-5.530605792999268
1776038163503021800,-1522124.4019782715,1.3048399686813354,1.723825216293335,-5.049371242523193
1776038163513123000,-1522124.3918769532,1.3024457693099976,1.4293384552001953,-4.6255974769592285
1776038163523193900,-1522124.3818061524,1.235408067703247,1.482010841369629,-4.2760443687438965
1776038163533265000,-1522124.3717351074,1.1324573755264282,1.6711528301239014,-4.1180267333984375
1776038163563355100,-1522124.3416447754,0.9002198576927185,2.0925323963165283,-4.359841346740723
1776038163573426000,-1522124.3315739746,0.7541735172271729,2.3271639347076416,-4.4292731285095215
1776038163583466200,-1522124.3215336914,0.6320692300796509,2.5665841102600098,-4.326322555541992
1776038163593537000,-1522124.3114628906,0.524330198764801,2.920926094055176,-4.089296340942383
1776038163603607800,-1522124.3013920898,0.3663128614425659,3.184288263320923,-3.794809579849243
1776038163613678600,-1522124.291321289,0.3878606855869293,3.203441858291626,-3.5386300086975098
1776038163623688400,-1522124.2813115234,0.15083470940589905,3.1723172664642334,-3.205836057662964
1776038163633698000,-1522124.271302002,-0.043095629662275314,3.1435868740081787,-2.8155810832977295
1776038163643708000,-1522124.2612919922,-0.28969839215278625,3.3255462646484375,-2.387019157409668
1776038163673950700,-1522124.2310493165,-1.2425906658172607,3.071760892868042,-0.6392518281936646
1776038163684021500,-1522124.2209785157,-1.4269442558288574,2.7006595134735107,-0.33758243918418884
1776038163694092500,-1522124.2109074707,-1.4915876388549805,2.477998733520508,-0.17477671802043915
1776038163714264600,-1522124.1907353515,-1.37906014919281,1.8770540952682495,0.12210428714752197
1776038163724305000,-1522124.1806950683,-1.2018892765045166,1.525106430053711,0.2753331959247589
1776038163734406100,-1522124.17059375,-0.9911994934082031,1.2066776752471924,0.4381389021873474
1776038163774598000,-1522124.1304020996,0.17238251864910126,0.011971008032560349,0.5482721924781799
1776038163784638000,-1522124.1203620606,0.38067805767059326,-0.19871874153614044,0.4884171485900879
1776038163794739500,-1522124.110260498,0.5722141861915588,-0.5171475410461426,0.2825157940387726
1776038163814881000,-1522124.0901188964,0.6871358752250671,-0.6919242739677429,-0.10534487664699554
1776038163824921300,-1522124.0800786132,0.6584054827690125,-0.6799532771110535,-0.1173158809542656
1776038163835022600,-1522124.069977295,0.47165772318840027,-0.5817909836769104,-0.07900865375995636
1776038163845093400,-1522124.0599067383,0.2753331959247589,-0.4429273009300232,-0.028730420395731926
1776038163875305700,-1522124.029694336,0.2825157940387726,-0.4213795065879822,-0.38307225704193115
1776038163885376500,-1522124.0196235352,0.49799394607543945,-0.5841852426528931,-0.5099649429321289
1776038163895447300,-1522124.0095527344,0.7709329724311829,-0.5937620401382446,-0.5817909836769104
1776038163905487600,-1522123.9995124512,1.036689281463623,-0.6440402865409851,-0.5889736413955688
1776038163915528000,-1522123.989472168,1.0989385843276978,-0.6919242739677429,-0.6105214357376099
1776038163925598700,-1522123.9794013673,1.3958195447921753,-0.7733271718025208,-0.6655880808830261
1776038163935700000,-1522123.969300049,1.7693150043487549,-0.9433154463768005,-0.7206547260284424
1776038163945740300,-1522123.9592597657,2.252943754196167,-0.8236053586006165,-0.7445967197418213
1776038163955811000,-1522123.949188965,3.07415509223938,-0.7254431247711182,-0.9241618514060974
1776038163975983400,-1522123.9290166015,4.046200752258301,0.09816227108240128,-0.8954314589500427
1776038163986023700,-1522123.9189763183,4.168305397033691,0.6368576288223267,-0.7972691655158997
1776038164006134800,-1522123.8988652343,4.151545524597168,1.4197616577148438,-0.8571242094039917
1776038164016236000,-1522123.888763916,4.23773717880249,1.5873557329177856,-0.9911994934082031
1776038164026306800,-1522123.8786931152,4.623203277587891,1.7573440074920654,-1.2880805730819702
1776038164036408000,-1522123.868592041,4.76924991607666,1.5705963373184204,-1.5418659448623657
1776038164046418000,-1522123.8585820312,4.946420669555664,0.9648633003234863,-1.7741034030914307
1776038164086701000,-1522123.818298828,4.67827033996582,-0.6847416758537292,-2.5019407272338867
1776038164096771800,-1522123.8082282715,4.323928356170654,-1.2401964664459229,-3.0119056701660156
1776038164106842600,-1522123.7981574708,3.9480385780334473,-1.7717092037200928,-3.663128614425659
1776038164116883000,-1522123.7881169433,3.670311212539673,-2.279279947280884,-4.369418144226074
1776038164126953700,-1522123.7780463868,3.536235809326172,-2.6886885166168213,-4.999093055725098
1776038164137024500,-1522123.767975586,3.397372245788574,-2.8562827110290527,-5.216965675354004
1776038164147064800,-1522123.7579350586,3.2968156337738037,-2.765302896499634,-5.128379821777344
1776038164157135600,-1522123.747864502,2.8131868839263916,-2.403778553009033,-4.596867084503174
1776038164167176000,-1522123.7378239746,2.229001760482788,-1.8626888990402222,-3.9049429893493652
1776038164207459000,-1522123.6975410157,0.19153612852096558,-0.17238251864910126,-3.847482204437256
1776038164227600600,-1522123.6773994141,-0.1843535304069519,0.37828385829925537,-4.570530891418457
1776038164247742200,-1522123.6572578126,-0.47405192255973816,1.2114660739898682,-5.128379821777344
1776038164257813200,-1522123.6471867675,-0.5985504388809204,1.4197616577148438,-5.279214859008789
1776038164267853300,-1522123.6371467286,-0.8403648138046265,1.5083470344543457,-5.3127336502075195
1776038164287934000,-1522123.6170661622,-1.699883222579956,1.3862427473068237,-5.4013190269470215
1776038164297974300,-1522123.6070256347,-2.209848165512085,1.3766659498214722,-5.286397457122803
1776038164308045000,-1522123.596954834,-2.693476915359497,1.4867992401123047,-5.080495834350586
1776038164318055000,-1522123.5869450683,-3.1004912853240967,1.9536685943603516,-4.869806289672852
1776038164328095200,-1522123.5769047851,-3.3949780464172363,2.427720546722412,-4.611232280731201
1776038164338196500,-1522123.5668034668,-3.620033025741577,2.80361008644104,-4.261679172515869
1776038164348267300,-1522123.556732666,-3.756502389907837,3.3279404640197754,-4.060565948486328
1776038164358277000,-1522123.5467229004,-3.8115692138671875,3.8307228088378906,-3.861847400665283
1776038164368317200,-1522123.5366828614,-3.976768970489502,4.019864559173584,-3.6296098232269287
1776038164398468600,-1522123.5065314942,-4.01268196105957,4.81473970413208,-3.2800562381744385
1776038164408539400,-1522123.4964606934,-4.015076160430908,4.922478675842285,-3.292027235031128
1776038164418610200,-1522123.4863898926,-3.9049429893493652,5.039794445037842,-3.2585084438323975
1776038164428650500,-1522123.4763496094,-3.7205893993377686,5.20978307723999,-3.251325845718384
1776038164438721300,-1522123.4662788087,-3.404554843902588,5.2049946784973145,-3.2393548488616943
1776038164448700700,-1522123.4562993164,-3.24414324760437,5.274426460266113,-3.3303346633911133
1776038164458802000,-1522123.446197998,-2.942473888397217,5.365406036376953,-3.4739866256713867
1776038164468872700,-1522123.4361271972,-2.892195701599121,5.468356609344482,-3.531447410583496
1776038164499115500,-1522123.4058845215,-2.2577321529388428,5.609614372253418,-3.751713991165161
1776038164509217000,-1522123.395782959,-2.0901381969451904,5.456385612487793,-3.773261785507202
1776038164519318300,-1522123.3856816406,-2.231395959854126,5.458779811859131,-3.73016619682312
1776038164529389000,-1522123.3756108398,-2.5546131134033203,5.710171222686768,-3.7660791873931885
1776038164539429400,-1522123.3655705566,-2.7269957065582275,5.959167957305908,-3.6966474056243896
1776038164559601400,-1522123.3453986817,-2.564189910888672,6.2416839599609375,-3.7158010005950928
1776038164569672200,-1522123.335327881,-2.3535003662109375,6.086060523986816,-3.7660791873931885
1776038164579712500,-1522123.3252875977,-2.049436569213867,5.805939197540283,-3.8594532012939453
1776038164619934700,-1522123.2850651855,-0.9624691009521484,5.774814605712891,-4.2329487800598145
1776038164630036000,-1522123.2749641114,-0.7924807667732239,5.825092792510986,-4.3191399574279785
1776038164640106800,-1522123.2648933106,-0.811634361743927,5.851428985595703,-4.522646903991699
1776038164650086100,-1522123.2549138183,-0.8786720037460327,5.829881191253662,-4.616020679473877
1776038164660157000,-1522123.2448430175,-0.8236053586006165,5.789179801940918,-4.824316501617432
1776038164670258200,-1522123.2347419434,-0.5913678407669067,5.659893035888672,-5.0685248374938965
1776038164680329000,-1522123.2246711426,-0.33279404044151306,5.216965675354004,-5.434837818145752
1776038164710419200,-1522123.1945808106,0.993593692779541,4.393360137939453,-6.2392897605896
1776038164720520700,-1522123.184479248,1.4389152526855469,4.422090530395508,-6.509834289550781
1776038164730530300,-1522123.1744697266,1.5179238319396973,4.714183330535889,-6.840234279632568
1776038164740540200,-1522123.164459961,1.2689268589019775,5.2265424728393555,-7.187393665313721
1776038164750611000,-1522123.1543891602,0.7852981686592102,5.355829238891602,-7.47230339050293
1776038164760651300,-1522123.1443486328,0.31364041566848755,5.137956619262695,-7.951143741607666
1776038164770691600,-1522123.1343083496,-0.07182604819536209,5.082890033721924,-8.468291282653809
1776038164780762400,-1522123.1242375488,-0.3447650372982025,4.60165548324585,-9.172186851501465
1776038164790863600,-1522123.1141364747,-0.040701430290937424,3.758896589279175,-9.916783332824707
1776038164811005200,-1522123.093994873,1.0606313943862915,2.300827741622925,-10.587160110473633
1776038164821076000,-1522123.0839240723,1.6927006244659424,1.699883222579956,-9.890447616577148
1776038164831116300,-1522123.0738837891,2.233790159225464,1.1540051698684692,-8.80587387084961
1776038164841187000,-1522123.0638129883,2.4899697303771973,0.9672574996948242,-7.529764175415039
1776038164851257900,-1522123.0537421876,2.3247697353363037,0.7469909191131592,-7.230489253997803
1776038164861298200,-1522123.0437019044,2.2912509441375732,0.8164227604866028,-6.244078159332275
1776038164871399400,-1522123.033600586,2.0614075660705566,0.5386953949928284,-5.2696380615234375
1776038164881501000,-1522123.0234990234,1.5682021379470825,0.7015010714530945,-4.632780075073242
1776038164891571700,-1522123.0134282226,1.0869675874710083,0.9193734526634216,-4.173093795776367
1776038164921814500,-1522122.983185547,-0.3064578175544739,2.693476915359497,-4.077325344085693
1776038164931885300,-1522122.9731147462,-0.6057330369949341,3.3063924312591553,-4.110844135284424
1776038164941986800,-1522122.9630131836,-1.070208191871643,3.780444383621216,-4.1156325340271
1776038164952057600,-1522122.9529423828,-1.3910311460494995,3.8331170082092285,-4.048594951629639
1776038164962128400,-1522122.942871582,-1.4437036514282227,3.8977603912353516,-4.041412353515625
1776038164972199200,-1522122.9328007812,-4.307168960571289,5.166687488555908,-3.9384617805480957
1776038164982239500,-1522122.922760498,-2.8658595085144043,3.1723172664642334,-3.7445313930511475
1776038164992310300,-1522122.9126896972,0.47644615173339844,4.592078685760498,-3.2968156337738037
1776038165022553000,-1522122.8824470215,-2.2194249629974365,-0.8355764150619507,-2.0470423698425293
1776038165032623900,-1522122.8723762208,-2.1811177730560303,-2.252943754196167,-1.0223240852355957
1776038165042694700,-1522122.86230542,-2.164358377456665,-2.2002713680267334,0.05027823522686958
1776038165052704500,-1522122.8522954101,-2.250549554824829,-0.7158663272857666,0.6224924325942993
1776038165062775300,-1522122.8422246093,-2.2146365642547607,0.5506663918495178,0.7924807667732239
1776038165072815600,-1522122.8321843261,-1.968033790588379,0.40701428055763245,0.6200982332229614
1776038165082886400,-1522122.8221135254,-1.7956513166427612,-0.395043283700943,0.545877993106842
1776038165103028000,-1522122.8019719238,-1.381454348564148,-1.53707754611969,1.2258312702178955
1776038165133209900,-1522122.771790039,-0.871489405632019,-0.4357447028160095,1.9393033981323242
1776038165143280600,-1522122.7617192382,-0.8188169598579407,-0.26815059781074524,1.8339585065841675
1776038165153351400,-1522122.7516486817,-0.646434485912323,-0.4644751250743866,1.6974890232086182
1776038165163452700,-1522122.7415473633,-0.5363011956214905,-0.6919242739677429,1.5658079385757446
1776038165173493000,-1522122.7315070801,-0.3471592366695404,-0.9026140570640564,1.5131354331970215
1776038165183563800,-1522122.7214362794,-0.13168109953403473,-1.015141487121582,1.2066776752471924
1776038165193604000,-1522122.7113959962,0.08379705995321274,-0.8834604024887085,1.01753568649292
1776038165203644400,-1522122.7013554687,0.33518823981285095,-0.8930372595787048,0.7805097699165344
1776038165243866600,-1522122.6611333007,1.6974890232086182,-1.0342950820922852,0.009576806798577309
1776038165274109400,-1522122.630890625,1.4891934394836426,-0.7493851184844971,0.1364694982767105
1776038165284180200,-1522122.6208198243,1.3670891523361206,-0.5171475410461426,-0.014365210197865963
1776038165294251000,-1522122.6107490235,1.4724340438842773,-0.48602294921875,-0.19393034279346466
1776038165304321800,-1522122.6006782227,1.721431016921997,-0.6105214357376099,-0.42377370595932007
1776038165324402400,-1522122.5805976563,2.5306711196899414,-0.9289502501487732,-0.9911994934082031
1776038165334473200,-1522122.5705268555,2.9688100814819336,-1.05105459690094,-1.414973258972168
1776038165344544000,-1522122.5604560548,3.093308687210083,-1.0007762908935547,-1.8171991109848022
1776038165354614800,-1522122.550385254,3.141192674636841,-0.6536170840263367,-2.118868589401245
1776038165364685600,-1522122.5403144532,2.999934673309326,-0.028730420395731926,-2.4851813316345215
1776038165374756600,-1522122.5302434082,2.983175277709961,0.08619125932455063,-3.0142998695373535
1776038165384857900,-1522122.5201420898,2.9927520751953125,0.031124621629714966,-3.5386300086975098
1776038165394928600,-1522122.510071289,3.0119056701660156,-0.035913024097681046,-4.055777549743652
1776038165404999400,-1522122.5000004882,2.8850131034851074,-0.0071826050989329815,-4.175487995147705
1776038165415070200,-1522122.4899296875,2.655169725418091,0.2059013396501541,-4.247313976287842
1776038165455353300,-1522122.4496467286,2.3989901542663574,-0.40222588181495667,-4.436455726623535
1776038165465424100,-1522122.4395759278,2.3367409706115723,-0.5027823448181152,-3.9456443786621094
1776038165475434000,-1522122.429565918,2.2409727573394775,-0.4405331015586853,-3.445256233215332
1776038165485504800,-1522122.4194951172,1.900996208190918,-0.2825157940387726,-3.220201253890991
1776038165495575600,-1522122.4094245606,1.479616641998291,-0.0071826050989329815,-2.9664158821105957
1776038165505676800,-1522122.3993232423,0.9457096457481384,0.3734954595565796,-2.8107926845550537
1776038165515747600,-1522122.3892524415,0.6009446382522583,0.6129156351089478,-2.9712042808532715
1776038165525818400,-1522122.3791816407,0.22744916379451752,0.8475474119186401,-3.406949043273926
1776038165545990700,-1522122.3590092773,-0.1364694982767105,1.3096283674240112,-4.110844135284424
1776038165556000300,-1522122.348999756,-0.31603461503982544,1.2330138683319092,-4.345476150512695
1776038165566101800,-1522122.3388981933,-0.4381389021873474,1.4676456451416016,-4.611232280731201
1776038165576172500,-1522122.3288273925,-0.6392518281936646,1.5322890281677246,-5.032611846923828
1776038165586243300,-1522122.3187565918,-0.828393816947937,1.7501614093780518,-5.439626216888428
1776038165596314000,-1522122.308685791,-1.1659762859344482,1.9369091987609863,-5.633556365966797
1776038165606385000,-1522122.2986149902,-1.381454348564148,2.2026655673980713,-5.652710437774658
1776038165616455700,-1522122.2885444337,-1.742978811264038,2.5067291259765625,-5.509057998657227
1776038165626526500,-1522122.2784736329,-2.185906171798706,2.5234885215759277,-5.1810526847839355
1776038165636597200,-1522122.268402832,-2.564189910888672,2.676717519760132,-4.752490520477295
1776038165666809600,-1522122.2381904298,-3.6080620288848877,3.49314022064209,-3.5721490383148193
1776038165676819500,-1522122.2281806641,-3.8379054069519043,3.7397429943084717,-3.2537200450897217
1776038165686890200,-1522122.2181098633,-4.017470359802246,3.818751811981201,-3.045424461364746
1776038165696961000,-1522122.2080390626,-4.110844135284424,3.88818359375,-2.9161376953125
1776038165707062300,-1522122.1979377442,-4.19224739074707,4.084507942199707,-2.7317841053009033
1776038165717133300,-1522122.1878666992,-4.2760443687438965,4.302380561828613,-2.829946517944336
1776038165727234600,-1522122.1777653808,-4.261679172515869,4.434061527252197,-2.8443117141723633
1776038165737305300,-1522122.16769458,-4.288015365600586,4.46518611907959,-2.9712042808532715
1776038165767578600,-1522122.1374213868,-4.146757125854492,4.850652694702148,-3.1483752727508545
1776038165777619000,-1522122.1273811036,-4.197035789489746,4.970362663269043,-3.28963303565979
1776038165787720400,-1522122.117279541,-4.134786128997803,5.1595048904418945,-3.471592426300049
1776038165797821700,-1522122.1071782226,-4.170699596405029,5.3342814445495605,-3.5649664402008057
1776038165807831600,-1522122.097168457,-4.1180267333984375,5.374982833862305,-3.670311212539673
1776038165817841200,-1522122.0871589356,-4.055777549743652,5.525817394256592,-3.73016619682312
1776038165827942400,-1522122.0770576173,-3.9240965843200684,5.669469833374023,-3.8091750144958496
1776038165838013400,-1522122.0669865722,-3.6966474056243896,5.78678560256958,-3.866635799407959
1776038165878205000,-1522122.026795166,-3.3039982318878174,6.335057735443115,-3.6966474056243896
1776038165888245200,-1522122.0167546386,-2.889801502227783,6.337451934814453,-3.56017804145813
1776038165898285600,-1522122.0067143554,-2.6815059185028076,6.4595561027526855,-3.466804027557373
1776038165908386800,-1522121.9966132813,-2.5091233253479004,6.402095317840576,-3.4739866256713867
1776038165918457600,-1522121.9865424805,-2.360682964324951,6.191405773162842,-3.6128504276275635
1776038165928558800,-1522121.9764411622,-2.31758713722229,6.074089527130127,-3.711012601852417
1776038165938599200,-1522121.966400879,-2.3127987384796143,5.901707172393799,-3.8738183975219727
1776038165948700700,-1522121.9562993164,-2.2146365642547607,5.913678169250488,-4.015076160430908
1776038165958771500,-1522121.9462285156,-2.032677173614502,5.822698593139648,-4.230554580688477
1776038165968842200,-1522121.9361577148,-1.6208745241165161,5.580883979797363,-4.671087741851807
1776038165998993700,-1522121.9060063476,0.3423708379268646,4.903325080871582,-6.1985883712768555
1776038166009095000,-1522121.8959050293,1.0342950820922852,4.565742492675781,-6.600813865661621
1776038166019165700,-1522121.8858342285,1.5059528350830078,4.206612586975098,-7.070077419281006
1776038166029236500,-1522121.8757634277,1.4652514457702637,4.015076160430908,-7.642292022705078
1776038166039276800,-1522121.8657231445,0.9648633003234863,3.9863457679748535,-8.24084186553955
1776038166049347600,-1522121.8556523437,0.6105214357376099,3.7205893993377686,-9.155426979064941
1776038166059388000,-1522121.8456120605,0.09816227108240128,3.2106244564056396,-10.134655952453613
1776038166079560000,-1522121.8254401856,0.26096799969673157,2.1763293743133545,-11.221623420715332
1776038166109741800,-1522121.7952580566,1.4101848602294922,1.0223240852355957,-8.791508674621582
1776038166119812600,-1522121.7851875,1.5298948287963867,0.8954314589500427,-7.240066051483154
1776038166129853000,-1522121.7751469726,1.235408067703247,0.9648633003234863,-5.825092792510986
1776038166139862800,-1522121.765137207,0.768538773059845,1.235408067703247,-4.778826713562012
1776038166149964000,-1522121.7550358886,-0.06703764945268631,1.742978811264038,-4.350264549255371
1776038166170105600,-1522121.734894287,-1.5921441316604614,2.6240451335906982,-4.551377296447754
1776038166180146000,-1522121.7248540039,-1.9919757843017578,2.8874073028564453,-4.611232280731201
1776038166190247200,-1522121.7147529298,-2.229001760482788,2.9496564865112305,-4.551377296447754
1776038166200257000,-1522121.70474292,-2.296039342880249,2.7700912952423096,-4.24970817565918
1776038166210327800,-1522121.694672119,-2.2697031497955322,2.5234885215759277,-4.015076160430908
1776038166220337700,-1522121.6846623535,-2.3247697353363037,2.3056161403656006,-3.7708675861358643
1776038166230408400,-1522121.6745915527,-1.9704279899597168,2.1380221843719482,-3.6535518169403076
1776038166250550000,-1522121.6544499511,-2.121262788772583,1.9393033981323242,-3.023876667022705
1776038166260590300,-1522121.644409668,-2.166752576828003,1.721431016921997,-2.38462495803833
1776038166270691600,-1522121.6343083496,-2.1739351749420166,1.5921441316604614,-1.5945383310317993
1776038166321045500,-1522121.58395459,-2.7916390895843506,1.0103530883789062,0.9169792532920837
1776038166341156600,-1522121.563843506,-2.6360161304473877,0.7350199222564697,1.1851298809051514
1776038166351257900,-1522121.5537421876,-2.4013843536376953,0.6033388376235962,1.259350061416626
1776038166361328600,-1522121.5436713868,-2.231395959854126,0.5219359993934631,1.4652514457702637
1776038166371399400,-1522121.533600586,-2.1045033931732178,0.3663128614425659,1.5705963373184204
1776038166381439700,-1522121.5235603028,-1.9704279899597168,0.3423708379268646,1.6328455209732056
1776038166391541200,-1522121.5134587402,-1.8507179021835327,0.17238251864910126,1.742978811264038
1776038166401612000,-1522121.5033879394,-1.525106430053711,0.05985504388809204,1.9153614044189453
1776038166411682800,-1522121.4933171386,-1.3311761617660522,-0.08619125932455063,1.8698714971542358
1776038166421753600,-1522121.4832463379,-1.091755986213684,-0.0933738648891449,1.8411411046981812
1776038166431824400,-1522121.473175537,-0.8762778043746948,-0.10534487664699554,1.6543933153152466
1776038166441895200,-1522121.4631047363,-0.5841852426528931,-0.3064578175544739,1.4987702369689941
1776038166451966000,-1522121.4530339355,-0.19393034279346466,-0.5363011956214905,1.2186486721038818
1776038166462006300,-1522121.4429936523,0.3734954595565796,-0.8188169598579407,0.8379706144332886
1776038166472107500,-1522121.4328925782,1.1324573755264282,-1.1563993692398071,0.4620809257030487
1776038166502289400,-1522121.4027106934,2.3750481605529785,-1.2066776752471924,-0.043095629662275314
1776038166512360200,-1522121.3926398926,2.628833532333374,-1.1180921792984009,-0.0071826050989329815
1776038166522431000,-1522121.3825690919,2.4420857429504395,-0.9888052940368652,0.10295066982507706
1776038166542603300,-1522121.3623967285,2.1332337856292725,-0.8571242094039917,-0.524330198764801
1776038166552674000,-1522121.3523259277,2.2194249629974365,-0.7876923680305481,-0.9169792532920837
1776038166562683600,-1522121.3423164063,2.628833532333374,-0.8690952062606812,-1.2641384601593018
1776038166592926700,-1522121.3120732422,4.299986362457275,-1.316810965538025,-2.212242364883423
1776038166613037800,-1522121.2919621582,4.4723687171936035,-0.8762778043746948,-3.0142998695373535
1776038166623108600,-1522121.2818913574,4.266467571258545,-0.727837324142456,-3.4811692237854004
1776038166633179400,-1522121.2718205566,4.094084739685059,-0.5746083855628967,-3.8953661918640137
1776038166643250200,-1522121.2617497558,3.976768970489502,-0.6153098344802856,-4.189853191375732
1776038166653321000,-1522121.251678955,3.8762125968933105,-0.6129156351089478,-4.292803764343262
1776038166663330800,-1522121.2416691894,3.627215623855591,-0.6751648783683777,-4.266467571258545
1776038166673432000,-1522121.231567871,3.3231520652770996,-0.7565677165985107,-4.101267337799072
1776038166693573600,-1522121.2114262695,3.134010076522827,-0.9816226959228516,-4.335899353027344
1776038166713715200,-1522121.1912849122,2.801215887069702,-0.8451532125473022,-4.402936935424805
1776038166723786000,-1522121.1812141114,2.3535003662109375,-0.5913678407669067,-4.264073371887207
1776038166733856800,-1522121.1711433106,1.7501614093780518,-0.2825157940387726,-3.907337188720703
1776038166743927600,-1522121.1610725098,1.0630255937576294,-0.05027823522686958,-3.711012601852417
1776038166753998300,-1522121.151001709,0.35913026332855225,0.304063618183136,-3.600879430770874
1776038166764069000,-1522121.1409309083,-0.31364041566848755,0.6392518281936646,-3.6320040225982666
1776038166774140000,-1522121.1308601075,-0.8403648138046265,0.9097966551780701,-3.869029998779297
1776038166784211000,-1522121.1207890625,-1.3120225667953491,1.139639973640442,-4.2975921630859375
1776038166814484200,-1522121.0905158692,-2.0638017654418945,1.8076223134994507,-5.128379821777344
1776038166824524500,-1522121.0804753418,-2.185906171798706,1.9393033981323242,-5.43723201751709
1776038166834595300,-1522121.0704047852,-2.293645143508911,1.8531121015548706,-5.679046630859375
1776038166844666000,-1522121.0603339844,-2.454056739807129,2.073378562927246,-5.796362400054932
1776038166854737000,-1522121.0502631837,-2.4803929328918457,2.279279947280884,-5.69580602645874
1776038166864777200,-1522121.0402229005,-2.6240451335906982,2.427720546722412,-5.43723201751709
1776038166874848000,-1522121.0301520997,-2.8562827110290527,2.736572504043579,-5.118803024291992
1776038166884857900,-1522121.0201420898,-3.0837318897247314,2.96162748336792,-4.857835292816162
1776038166894928600,-1522121.010071289,-3.270479440689087,3.248931646347046,-4.505887508392334
1776038166904999400,-1522121.0000004882,-3.576937437057495,3.555389642715454,-4.125209331512451
1776038166925141000,-1522120.9798588867,-4.0078935623168945,3.9025487899780273,-3.5242648124694824
1776038166935242200,-1522120.9697578126,-4.125209331512451,4.089296340942383,-3.162740468978882
1776038166945313000,-1522120.9596870118,-4.177882194519043,4.259284973144531,-2.980781078338623
1776038166955383800,-1522120.949616211,-4.280832767486572,4.474762916564941,-2.913743495941162
1776038166965454800,-1522120.939545166,-4.32871675491333,4.613626480102539,-2.913743495941162
1776038166975556000,-1522120.9294438476,-4.352658748626709,4.738125324249268,-2.8802247047424316
1776038167005707500,-1522120.8992924804,-4.213795185089111,5.193023681640625,-2.956839084625244
1776038167015778300,-1522120.8892216797,-3.8738183975219727,5.154716491699219,-2.959233283996582
1776038167025849000,-1522120.8791508789,-3.6559460163116455,5.197812080383301,-2.9759926795959473
1776038167035920000,-1522120.869080078,-3.450044631958008,5.310339450836182,-3.138798475265503
1776038167045960200,-1522120.859039795,-3.378218650817871,5.475539207458496,-3.2106244564056396
1776038167056031000,-1522120.848968994,-3.5003228187561035,5.719748020172119,-3.179499864578247
1776038167066071300,-1522120.838928711,-3.3207578659057617,5.999869346618652,-3.2752678394317627
1776038167076111400,-1522120.828888672,-2.9089550971984863,6.021417140960693,-3.3279404640197754
1776038167086151700,-1522120.8188483887,-2.7724854946136475,6.0190229415893555,-3.426102638244629
1776038167116364000,-1522120.7886359864,-2.8371291160583496,6.53377628326416,-3.4955344200134277
1776038167126435000,-1522120.7785649414,-3.002328872680664,6.636727333068848,-3.5027170181274414
1776038167136475100,-1522120.7685249024,-3.043030261993408,6.698976516723633,-3.620033025741577
1776038167146546000,-1522120.7584541016,-2.964021682739258,6.48828649520874,-3.914519786834717
1776038167156647400,-1522120.748352539,-2.7676970958709717,6.253654956817627,-4.264073371887207
1776038167166718200,-1522120.7382817382,-2.5761611461639404,6.023811340332031,-4.7405195236206055
1776038167176819500,-1522120.7281806641,-2.432508945465088,5.698200225830078,-5.193023681640625
1776038167186890200,-1522120.7181098633,-2.229001760482788,5.394136428833008,-5.552153587341309
1776038167217072000,-1522120.6879279786,-1.0989385843276978,4.865017890930176,-6.624756336212158
1776038167227112400,-1522120.6778874511,-0.5746083855628967,4.546588897705078,-6.890512466430664
1776038167237213700,-1522120.667786377,-0.1843535304069519,4.290409564971924,-7.168240070343018
1776038167247254000,-1522120.6577460938,0.19632454216480255,4.37420654296875,-7.462726593017578
1776038167257324800,-1522120.647675293,0.45010992884635925,4.398148536682129,-7.936778545379639
1776038167267395600,-1522120.6376044923,0.2513911724090576,4.668693542480469,-8.26239013671875
1776038167277466400,-1522120.6275336915,-0.11013327538967133,4.711789131164551,-8.669404029846191
1776038167287537200,-1522120.6174628907,-0.4381389021873474,4.355052947998047,-9.184157371520996
1776038167327789800,-1522120.5772102051,-0.363918662071228,2.698265314102173,-9.457097053527832
1776038167337860600,-1522120.5671394044,0.07422025501728058,2.4181437492370605,-8.698134422302246
1776038167347931600,-1522120.5570683593,0.42856210470199585,2.140416383743286,-7.694964408874512
1776038167358002400,-1522120.5469975586,0.6967126727104187,2.0877439975738525,-6.689399719238281
1776038167368073200,-1522120.5369267578,0.7972691655158997,1.9608511924743652,-6.028599739074707
1776038167378174500,-1522120.5268254394,0.8810662031173706,1.8914192914962769,-5.628767967224121
1776038167388245200,-1522120.5167546386,0.6799532771110535,2.013523578643799,-5.686229228973389
1776038167438630000,-1522120.4663701172,-1.1085153818130493,3.754108190536499,-4.908113479614258
1776038167448700700,-1522120.4562993164,-1.316810965538025,3.5003228187561035,-4.632780075073242
1776038167458802000,-1522120.446197998,-1.482010841369629,3.2321722507476807,-4.206612586975098
1776038167468903200,-1522120.436096924,-1.4269442558288574,2.959233283996582,-3.8379054069519043
1776038167479004400,-1522120.4259956055,-1.434126853942871,2.7748796939849854,-3.442862033843994
1776038167489075500,-1522120.4159245605,-1.338358759880066,2.650381326675415,-3.069366693496704
1776038167499115500,-1522120.4058845215,-1.4676456451416016,2.612074136734009,-2.6216509342193604
1776038167509217000,-1522120.395782959,-1.5658079385757446,2.2864625453948975,-2.0039467811584473
1776038167539368200,-1522120.365631836,-2.013523578643799,1.139639973640442,-0.43335050344467163
1776038167549469700,-1522120.3555302734,-2.030282974243164,0.689530074596405,-0.17238251864910126
1776038167559510000,-1522120.3454899902,-2.1116859912872314,0.507570743560791,0.002394201699644327
1776038167569550000,-1522120.3354499512,-2.097320795059204,0.33039984107017517,0.13168109953403473
1776038167579620900,-1522120.3253791505,-1.8387469053268433,0.038307227194309235,0.2992752194404602
1776038167589661200,-1522120.3153388673,-1.6519991159439087,-0.10773907601833344,0.5099649429321289
1776038167599701500,-1522120.305298584,-1.4748282432556152,-0.35673606395721436,0.730231523513794
1776038167650055700,-1522120.254944336,-1.0414776802062988,-0.16998831927776337,0.8523358106613159
1776038167660126500,-1522120.2448735351,-0.8786720037460327,-0.17238251864910126,0.7493851184844971
1776038167670136000,-1522120.2348640137,-0.6727706789970398,-0.26096799969673157,0.5506663918495178
1776038167680237600,-1522120.2247624511,-0.5410895943641663,-0.08858546614646912,0.3663128614425659
1776038167690308400,-1522120.2146916504,-0.47165772318840027,-0.026336219161748886,0.22744916379451752
1776038167700348400,-1522120.2046516114,-0.4357447028160095,0.11252748221158981,0.19632454216480255
1776038167710388700,-1522120.1946113282,-0.3758896589279175,0.23702596127986908,0.304063618183136
1776038167740570600,-1522120.1644294434,0.10534487664699554,0.2346317619085312,0.12449848651885986
1776038167760743000,-1522120.14425708,0.8906430602073669,-0.17238251864910126,-0.40701428055763245
1776038167790955300,-1522120.1140446777,2.5953147411346436,0.019153613597154617,-1.6927006244659424
1776038167801026000,-1522120.103973877,2.8586769104003906,0.22026655077934265,-1.6974890232086182
1776038167811127300,-1522120.0938728028,2.7054479122161865,0.5219359993934631,-1.6735470294952393
1776038167821198000,-1522120.083802002,2.6839001178741455,0.706289529800415,-1.6735470294952393
1776038167831268900,-1522120.0737312012,2.6791117191314697,0.8164227604866028,-1.824381709098816
1776038167851380000,-1522120.0536201173,2.4444799423217773,1.3694833517074585,-2.205059766769409
1776038167861450800,-1522120.0435493165,2.2625205516815186,1.2952631711959839,-2.3965959548950195
1776038167871521500,-1522120.0334785157,2.207453966140747,1.3263877630233765,-2.4875755310058594
1776038167881592300,-1522120.023407715,2.343923568725586,1.1540051698684692,-2.6192567348480225
1776038167891602200,-1522120.013397705,2.47560453414917,1.1228805780410767,-2.691082715988159
1776038167901673000,-1522120.0033271485,2.499546527862549,1.1683704853057861,-2.719813108444214
1776038167911743700,-1522119.9932563477,2.5091233253479004,1.292868971824646,-2.695871114730835
1776038167921814500,-1522119.983185547,2.52109432220459,1.3335703611373901,-2.607285737991333
1776038167931885300,-1522119.9731147462,2.5115175247192383,0.993593692779541,-2.82515811920166
1776038167962067200,-1522119.9429328614,2.7078421115875244,-0.5482721924781799,-4.692635536193848
1776038167972138000,-1522119.9328620606,2.82515811920166,-0.5506663918495178,-4.965574264526367
1776038167982208800,-1522119.9227912598,2.7078421115875244,-0.40940847992897034,-4.93923807144165
1776038167992279600,-1522119.912720459,2.499546527862549,-0.08619125932455063,-4.879383087158203
1776038168002350600,-1522119.902649414,1.9105730056762695,0.06464344263076782,-4.668693542480469
1776038168012421400,-1522119.8925786132,1.2761094570159912,0.2753331959247589,-4.314351558685303
1776038168022461400,-1522119.8825385743,0.5554547905921936,0.5817909836769104,-3.974374771118164
1776038168062714400,-1522119.8422856445,-0.828393816947937,1.3431471586227417,-4.24970817565918
1776038168072785200,-1522119.8322148437,-0.8834604024887085,1.4652514457702637,-4.259284973144531
1776038168082886400,-1522119.8221135254,-1.0438719987869263,1.5155296325683594,-4.3406877517700195
1776038168092957200,-1522119.8120427246,-1.2306196689605713,1.5658079385757446,-4.448426723480225
1776038168103028000,-1522119.8019719238,-1.45806884765625,1.6328455209732056,-4.587290287017822
1776038168113098800,-1522119.7919013673,-1.8411411046981812,1.7884687185287476,-4.6255974769592285
1776038168123169500,-1522119.7818305665,-2.0925323963165283,1.9752163887023926,-4.505887508392334
1776038168133240300,-1522119.7717597657,-2.3295583724975586,2.3319525718688965,-4.343081951141357
1776038168173432000,-1522119.731567871,-3.339911460876465,2.9520506858825684,-3.7253777980804443
1776038168183502800,-1522119.7214970703,-3.536235809326172,3.2106244564056396,-3.6296098232269287
1776038168193573600,-1522119.7114262695,-3.8163576126098633,3.4572272300720215,-3.4787750244140625
1776038168203675000,-1522119.7013251954,-4.041412353515625,3.6607344150543213,-3.308786630630493
1776038168213684700,-1522119.6913151855,-4.352658748626709,3.732560396194458,-3.2297780513763428
1776038168223786000,-1522119.6812141114,-4.446032524108887,3.8163576126098633,-3.1052796840667725
1776038168233795800,-1522119.6712041015,-4.654327869415283,3.84269380569458,-3.0597896575927734
1776038168243866600,-1522119.6611333007,-4.759673118591309,3.885789394378662,-3.028665065765381
1776038168253937400,-1522119.6510625,-4.829104900360107,3.8115692138671875,-2.889801502227783
1776038168274048500,-1522119.630951416,-4.994304656982422,3.732560396194458,-2.7293899059295654
1776038168294068000,-1522119.610932129,-5.118803024291992,3.7493197917938232,-2.760514497756958
1776038168304169200,-1522119.6008308106,-5.097255229949951,3.663128614425659,-2.920926094055176
1776038168314240000,-1522119.5907600098,-5.118803024291992,3.7445313930511475,-3.112462282180786
1776038168324311000,-1522119.5806889648,-4.953603267669678,3.869029998779297,-3.3949780464172363
1776038168334381800,-1522119.570618164,-4.833893299102783,4.2760443687438965,-3.6128504276275635
1776038168344422000,-1522119.560578125,-4.709394931793213,4.537012100219727,-3.840299606323242
1776038168374542800,-1522119.5304570312,-4.431667327880859,4.838681697845459,-4.316745758056641
1776038168394715000,-1522119.5102851563,-4.173093795776367,4.932055473327637,-4.745307922363281
1776038168404755200,-1522119.500244873,-3.890577793121338,5.023035049438477,-4.8482584953308105
1776038168414826000,-1522119.4901740723,-3.627215623855591,5.137956619262695,-4.927267074584961
1776038168424866300,-1522119.4801337891,-3.3638534545898438,5.145139217376709,-5.0876784324646
1776038168434937000,-1522119.4700629883,-3.002328872680664,5.008669853210449,-5.1595048904418945
1776038168445008000,-1522119.4599921876,-2.827552318572998,5.135562419891357,-5.413290023803711
1776038168455078700,-1522119.4499213868,-2.557007312774658,5.430049419403076,-5.537788391113281
1776038168485199600,-1522119.419800293,-2.2385785579681396,6.052541732788086,-5.714959621429443
1776038168505341200,-1522119.3996589356,-2.205059766769409,6.026205539703369,-5.729324817657471
1776038168515412000,-1522119.3895881348,-1.8818424940109253,5.935225963592529,-5.774814605712891
1776038168525482800,-1522119.379517334,-1.4269442558288574,5.913678169250488,-5.96874475479126
1776038168535553500,-1522119.3694465333,-0.7565677165985107,5.947196960449219,-6.2201361656188965
1776038168545593900,-1522119.35940625,-0.0071826050989329815,6.119579315185547,-6.600813865661621
1776038168555634200,-1522119.3493657226,0.6153098344802856,6.167463779449463,-7.022193431854248
1776038168565705000,-1522119.3392949218,0.7469909191131592,6.1315507888793945,-7.3885064125061035
1776038168575775700,-1522119.3292243653,0.6177040338516235,5.858611583709717,-7.8098859786987305
1776038168595886800,-1522119.309113037,0.21787235140800476,5.449203014373779,-9.205705642700195
1776038168605988000,-1522119.299011963,0.004788403399288654,5.336675643920898,-9.706093788146973
1776038168616059000,-1522119.2889411622,-0.05746084079146385,4.989516258239746,-9.979032516479492
1776038168626129700,-1522119.2788703614,0.05985504388809204,4.520252704620361,-10.022128105163574
1776038168636200400,-1522119.2687995606,0.26096799969673157,4.084507942199707,-9.612719535827637
1776038168646302000,-1522119.258697998,0.3687070608139038,3.6080620288848877,-8.705317497253418
1776038168656372700,-1522119.2486271972,0.3926490843296051,3.308786630630493,-7.68538761138916
1776038168676514300,-1522119.2284855957,0.5123591423034668,2.9328970909118652,-6.076483726501465
1776038168696533800,-1522119.2084663087,-0.002394201699644327,2.6575639247894287,-4.790797710418701
1776038168716675300,-1522119.188324707,-0.6943184733390808,2.494758129119873,-4.721365928649902
1776038168726776800,-1522119.1782231445,-1.2114660739898682,2.5258827209472656,-4.857835292816162
1776038168736847600,-1522119.1681523437,-1.9297266006469727,2.626439332962036,-4.987122058868408
1776038168746918400,-1522119.158081543,-2.3511061668395996,2.779668092727661,-5.161899089813232
1776038168756989200,-1522119.1480107422,-2.564189910888672,2.607285737991333,-5.183446884155273
1776038168767060000,-1522119.1379399414,-2.719813108444214,2.27209734916687,-5.03021764755249
1776038168787171000,-1522119.1178288574,-2.655169725418091,1.6280571222305298,-4.438849925994873
1776038168807251700,-1522119.097748291,-2.231395959854126,1.1899182796478271,-3.5649664402008057
1776038168817261300,-1522119.0877387696,-2.0685901641845703,1.0654197931289673,-3.066972494125366
1776038168827362600,-1522119.0776374512,-1.8387469053268433,0.9433154463768005,-2.516305923461914
1776038168837433600,-1522119.0675664062,-1.845929503440857,0.9409212470054626,-1.9943699836730957
1776038168847534800,-1522119.0574650879,-1.9800047874450684,0.9481038451194763,-1.5107412338256836
1776038168857605600,-1522119.047394287,-2.1763293743133545,0.8619126081466675,-1.0414776802062988
1776038168867676400,-1522119.0373234863,-2.2649147510528564,0.6200982332229614,-0.689530074596405
1776038168897797400,-1522119.0072026367,-2.252943754196167,0.09576806426048279,-0.05267243832349777
1776038168907898600,-1522118.9971013183,-2.1308395862579346,0.13168109953403473,0.19632454216480255
1776038168917877800,-1522118.9871223145,-2.054224967956543,0.11252748221158981,0.3878606855869293
1776038168927979300,-1522118.977020752,-1.9919757843017578,0.26336219906806946,0.5937620401382446
1776038168938019300,-1522118.966980713,-1.7980455160140991,0.35673606395721436,0.7876923680305481
1776038168948120800,-1522118.9568791504,-1.4484920501708984,0.43095630407333374,0.9576807022094727
1776038168958130400,-1522118.946869629,-1.2186486721038818,0.49320554733276367,0.950498104095459
1776038168968232000,-1522118.9367680664,-1.072602391242981,0.48602294921875,0.8236053586006165
1776038169008515000,-1522118.8964848632,-0.4429273009300232,0.3998316824436188,0.7086837291717529
1776038169018585900,-1522118.8864140625,-0.3208230137825012,0.2944868206977844,0.507570743560791
1776038169028656600,-1522118.8763432617,-0.11971008777618408,0.2585737705230713,0.38546648621559143
1776038169038727400,-1522118.866272461,0.11013327538967133,0.47405192255973816,0.15083470940589905
1776038169048798200,-1522118.8562019044,0.31842881441116333,0.3902548849582672,-0.06464344263076782
1776038169058869000,-1522118.8461311036,0.5913678407669067,0.272938996553421,-0.19393034279346466
1776038169068909300,-1522118.8360905761,0.8619126081466675,0.026336219161748886,-0.1604115068912506
1776038169078949600,-1522118.826050293,1.3407529592514038,0.05506663769483566,-0.3974374830722809
1776038169109070300,-1522118.7959296876,2.513911724090576,0.16759411990642548,-1.0103530883789062
1776038169129151000,-1522118.7758491212,3.2178070545196533,0.2322375625371933,-1.4293384552001953
1776038169139160800,-1522118.7658391113,3.490746021270752,0.6320692300796509,-1.6136919260025024
1776038169149231600,-1522118.7557683105,3.533841609954834,0.751779317855835,-1.845929503440857
1776038169159302400,-1522118.7456975097,3.507505416870117,0.8523358106613159,-2.0159177780151367
1776038169169373200,-1522118.735626709,3.600879430770874,0.7876923680305481,-2.322375535964966
1776038169179413500,-1522118.7255864257,3.6583402156829834,0.8020575642585754,-2.5234885215759277
1776038169199494100,-1522118.7055058593,3.4979286193847656,1.1659762859344482,-3.141192674636841
1776038169219574500,-1522118.6854255372,3.248931646347046,1.1971008777618408,-3.5266590118408203
1776038169229645300,-1522118.6753547364,3.0550012588500977,1.1252747774124146,-3.6583402156829834
1776038169239685600,-1522118.6653144532,2.9281086921691895,0.8451532125473022,-3.890577793121338
1776038169249726000,-1522118.65527417,2.978386878967285,0.43095630407333374,-4.302380561828613
1776038169259735800,-1522118.6452641601,3.0837318897247314,-0.002394201699644327,-4.63517427444458
1776038169269837000,-1522118.6351628418,3.07415509223938,-0.2585737705230713,-4.932055473327637
1776038169279907800,-1522118.625092041,3.023876667022705,-0.20350714027881622,-4.9799394607543945
1776038169290009000,-1522118.6149909669,2.920926094055176,-0.31124621629714966,-5.166687488555908
1776038169310120200,-1522118.5948798829,2.5234885215759277,-0.002394201699644327,-4.750096321105957
1776038169330261800,-1522118.5747382813,1.216254472732544,0.7972691655158997,-3.533841609954834
1776038169340241200,-1522118.564758789,0.47884035110473633,1.0438719987869263,-3.0142998695373535
1776038169350342400,-1522118.554657715,-0.10055647045373917,1.2497732639312744,-2.8107926845550537
1776038169360413200,-1522118.5445869141,-0.6655880808830261,1.3958195447921753,-3.0166940689086914
1776038169370453500,-1522118.5345463867,-1.0079588890075684,1.5107412338256836,-3.354276657104492
1776038169380432600,-1522118.5245673829,-1.1875240802764893,1.558625340461731,-3.8283286094665527
1776038169390534100,-1522118.5144658203,-1.3455413579940796,1.4676456451416016,-4.137180328369141
1776038169410645200,-1522118.4943547363,-1.6112977266311646,1.237802267074585,-4.431667327880859
1776038169430756400,-1522118.4742436523,-2.161964178085327,1.0749965906143188,-4.750096321105957
1776038169440827100,-1522118.4641728515,-2.564189910888672,1.1276689767837524,-4.879383087158203
1776038169450898000,-1522118.4541020507,-2.75812029838562,1.4963760375976562,-4.831499099731445
1776038169460938200,-1522118.4440617675,-2.940079689025879,1.742978811264038,-4.845864295959473
1776038169471039500,-1522118.4339604492,-3.095702886581421,1.7956513166427612,-4.702212333679199
1776038169481018600,-1522118.4239814454,-3.406949043273926,1.9608511924743652,-4.505887508392334
1776038169491120000,-1522118.4138798828,-3.799597978591919,2.3247697353363037,-4.311957359313965
1776038169501191000,-1522118.403809082,-4.055777549743652,2.829946517944336,-4.151545524597168
1776038169511261700,-1522118.3937382812,-4.271255970001221,3.1100680828094482,-4.201824188232422
1776038169521302000,-1522118.383697998,-4.462791919708252,3.44765043258667,-4.125209331512451
1776038169531372800,-1522118.3736271972,-4.594472885131836,3.5745432376861572,-3.9600095748901367
1776038169541412900,-1522118.3635871583,-4.7620673179626465,3.687070608139038,-3.8498764038085938
1776038169551514400,-1522118.3534855957,-4.807557106018066,3.847482204437256,-3.797203779220581
1776038169561493500,-1522118.3435065919,-4.93923807144165,3.9695863723754883,-3.909731388092041
1776038169571594800,-1522118.3334052735,-5.039794445037842,4.189853191375732,-4.000710964202881
1776038169581665800,-1522118.3233342285,-4.900930881500244,4.290409564971924,-4.07014274597168
1776038169591736600,-1522118.3132634277,-4.821922302246094,4.4723687171936035,-4.027047157287598
1776038169621918500,-1522118.283081543,-4.738125324249268,4.944026470184326,-3.6774938106536865
1776038169631989200,-1522118.2730107422,-4.5825018882751465,5.051765441894531,-3.667917013168335
1776038169642029300,-1522118.2629707032,-4.479551315307617,5.2265424728393555,-3.847482204437256
1776038169652130800,-1522118.2528691406,-4.264073371887207,5.322310447692871,-3.885789394378662
1776038169662140400,-1522118.2428596192,-3.976768970489502,5.456385612487793,-3.9839515686035156
