time,seconds_elapsed,z,y,x
1776038153350471000,-1522134.5545290527,9.306262016296387,1.5490485429763794,0.6799532771110535
1776038153380053000,-1522134.5249470214,9.244012832641602,1.4413094520568848,0.7996633648872375
1776038153400033500,-1522134.5049665528,9.32541561126709,1.4652514457702637,0.8451532125473022
1776038153410104300,-1522134.494895752,9.308655738830566,1.4867992401123047,0.8355764150619507
1776038153420053000,-1522134.4849470216,9.435548782348633,1.4963760375976562,0.7805097699165344
1776038153430154200,-1522134.4748457032,9.490615844726562,1.400607943534851,0.8092401623725891
1776038153440225000,-1522134.4647749024,9.567230224609375,1.3120225667953491,0.7326257228851318
1776038153450296000,-1522134.4547038574,9.651026725769043,1.278503656387329,0.7613561153411865
1776038153460275200,-1522134.4447248536,9.634267807006836,1.2617442607879639,0.7086837291717529
1776038153480447200,-1522134.4245527345,9.667786598205566,1.3311761617660522,0.5817909836769104
1776038153490518000,-1522134.4144819337,9.653421401977539,1.3407529592514038,0.5530605912208557
1776038153500558300,-1522134.4044416505,9.66539192199707,1.2952631711959839,0.49320554733276367
1776038153510659600,-1522134.3943403321,9.603142738342285,1.357512354850769,0.4596867263317108
1776038153520600000,-1522134.3843999023,9.610325813293457,1.3958195447921753,0.4357447028160095
1776038153530670800,-1522134.3743291015,9.533711433410645,1.4293384552001953,0.49320554733276367
1776038153540680400,-1522134.3643195801,9.469067573547363,1.3982137441635132,0.5626373887062073
1776038153550751200,-1522134.3542487794,9.337387084960938,1.558625340461731,0.48602294921875
1776038153560791600,-1522134.3442084962,9.282320022583008,1.680729627609253,0.4884171485900879
1776038153570832000,-1522134.334168213,9.210494041442871,1.9105730056762695,0.6057330369949341
1776038153590943000,-1522134.314057129,9.009381294250488,2.183511972427368,0.49799394607543945
1776038153601013800,-1522134.3039863282,8.918401718139648,2.0661959648132324,0.5482721924781799
1776038153611115000,-1522134.2938850098,8.856152534484863,1.9584569931030273,0.727837324142456
1776038153621124900,-1522134.2838752442,8.777143478393555,1.9393033981323242,0.7254431247711182
1776038153631226000,-1522134.2737739258,8.834604263305664,2.0446481704711914,0.7996633648872375
1776038153641297000,-1522134.263703125,8.769960403442383,2.0901381969451904,0.8619126081466675
1776038153651368000,-1522134.25363208,8.738836288452148,2.248155355453491,0.9696516990661621
1776038153661377500,-1522134.2436225587,8.674192428588867,2.3726539611816406,0.9744400978088379
1776038153681488600,-1522134.2235114747,8.525752067565918,2.537853717803955,0.912190854549408
1776038153691529000,-1522134.2134709472,8.303091049194336,2.693476915359497,0.7709329724311829
1776038153701569300,-1522134.203430664,8.164227485656738,2.8778305053710938,0.8020575642585754
1776038153711670500,-1522134.19332959,8.027758598327637,2.9664158821105957,0.6751648783683777
1776038153721710800,-1522134.1832890625,7.999027729034424,2.7078421115875244,0.667982280254364
1776038153731781600,-1522134.1732182617,8.279149055480957,2.027888774871826,0.5339069962501526
1776038153741822000,-1522134.1631779785,8.365341186523438,1.4173674583435059,0.3495534360408783
1776038153751862300,-1522134.1531376953,8.556877136230469,1.0319008827209473,0.15322890877723694
1776038153782013400,-1522134.1229865723,8.671798706054688,1.8746598958969116,-0.05746084079146385
1776038153792053800,-1522134.1129462891,8.93037223815918,2.008735179901123,-0.004788403399288654
1776038153802033200,-1522134.1029667968,9.30386734008789,1.6903064250946045,-0.021547814831137657
1776038153812134400,-1522134.0928654785,9.967061996459961,1.1300631761550903,-0.004788403399288654
1776038153822205200,-1522134.082794922,10.606313705444336,0.43095630407333374,-0.014365210197865963
1776038153832276000,-1522134.0727241212,11.314997673034668,-0.5099649429321289,-0.14604631066322327
1776038153842316300,-1522134.0626835937,11.307814598083496,-1.1516109704971313,-0.1843535304069519
1776038153852417500,-1522134.0525825196,11.133037567138672,-0.9409212470054626,0.038307227194309235
1776038153902771700,-1522134.0022282714,10.053253173828125,0.21787235140800476,0.5985504388809204
1776038153912842500,-1522133.9921574707,9.959878921508789,0.3232172429561615,0.5099649429321289
1776038153922882800,-1522133.9821171875,9.792284965515137,0.4692635238170624,0.4381389021873474
1776038153932953600,-1522133.9720463867,9.622296333312988,0.7374141216278076,0.3256114423274994
1776038153943024400,-1522133.961975586,9.282320022583008,0.8164227604866028,0.1388636976480484
1776038153953064700,-1522133.9519353027,8.80587387084961,1.0821791887283325,-0.14365209639072418
1776038153963104800,-1522133.9418952637,8.35097599029541,1.3718775510787964,-0.5219359993934631
1776038153973175600,-1522133.931824463,7.857769966125488,1.5394717454910278,-0.8978256583213806
1776038153993317400,-1522133.9116826172,7.158663272857666,1.4915876388549805,-1.7286136150360107
1776038154003388200,-1522133.9016118164,6.782773494720459,1.278503656387329,-2.121262788772583
1776038154013428500,-1522133.8915715332,6.536170482635498,1.0031704902648926,-2.5474305152893066
1776038154033539300,-1522133.8714606934,6.033388137817383,0.5123591423034668,-3.5936968326568604
1776038154043579600,-1522133.8614204102,5.841852188110352,0.33279404044151306,-4.141968727111816
1776038154053650400,-1522133.8513496094,5.671864032745361,-0.0454898327589035,-4.644751071929932
1776038154063690800,-1522133.8413093262,5.56173038482666,-0.49559974670410156,-5.066130638122559
1776038154073792300,-1522133.8312077636,5.298368453979492,-1.015141487121582,-5.494692802429199
1776038154093933800,-1522133.811066162,4.616020679473877,-1.4939818382263184,-6.066906929016113
1776038154103974000,-1522133.801026123,4.32871675491333,-1.558625340461731,-6.5912370681762695
1776038154114075400,-1522133.7909245605,3.995922565460205,-1.9129672050476074,-6.988674640655518
1776038154124115700,-1522133.7808842773,3.5721490383148193,-2.319981336593628,-7.465120792388916
1776038154134155800,-1522133.7708442383,3.224989652633667,-2.734178304672241,-7.687781810760498
1776038154144196000,-1522133.7608039551,2.873042106628418,-3.0526070594787598,-8.030152320861816
1776038154154236400,-1522133.750763672,2.434903144836426,-3.31118106842041,-8.269572257995605
1776038154164307200,-1522133.7406928712,2.097320795059204,-3.579331636428833,-8.734047889709473
1776038154174347500,-1522133.730652588,1.9608511924743652,-3.9600095748901367,-9.215282440185547
1776038154194458600,-1522133.7105412597,2.188300371170044,-4.58968448638916,-10.177751541137695
1776038154204529400,-1522133.7004707032,2.454056739807129,-4.924872875213623,-10.572794914245605
1776038154214600200,-1522133.6903999024,3.0190882682800293,-5.339069843292236,-11.063606262207031
1776038154234711300,-1522133.6702888184,3.823540210723877,-5.674258232116699,-11.496956825256348
1776038154244782000,-1522133.6602180176,4.07014274597168,-5.288791656494141,-11.544840812683105
1776038154254852900,-1522133.6501472169,4.189853191375732,-4.836287498474121,-11.650185585021973
1776038154264862700,-1522133.640137207,4.05817174911499,-4.335899353027344,-11.729193687438965
1776038154274903000,-1522133.6300969238,3.864241600036621,-4.01268196105957,-11.817779541015625
1776038154294953000,-1522133.6100471192,3.318363666534424,-4.244919776916504,-12.181697845458984
1776038154304962800,-1522133.6000371093,2.999934673309326,-4.644751071929932,-12.507309913635254
1776038154315033600,-1522133.5899663086,2.7246015071868896,-5.298368453979492,-12.842497825622559
1776038154325104400,-1522133.5798955078,2.513911724090576,-5.8873419761657715,-13.275848388671875
1776038154335175200,-1522133.5698249512,2.382230758666992,-6.471527099609375,-13.713987350463867
1776038154345185000,-1522133.5598149414,2.1787235736846924,-7.070077419281006,-14.0635404586792
1776038154355286300,-1522133.549713623,1.9847931861877441,-7.7213006019592285,-14.36521053314209
1776038154365357000,-1522133.5396428222,1.8076223134994507,-8.38449478149414,-14.314931869506836
1776038154375367000,-1522133.5296330566,1.5610195398330688,-8.798690795898438,-14.18803882598877
1776038154385407200,-1522133.5195927734,1.3287819623947144,-9.21288776397705,-13.919888496398926
1776038154405579300,-1522133.4994206543,0.8834604024887085,-9.260771751403809,-13.177685737609863
1776038154415680500,-1522133.4893195801,0.6129156351089478,-9.129091262817383,-12.804190635681152
1776038154425690400,-1522133.4793095703,0.5889736413955688,-8.822632789611816,-12.413935661315918
1776038154435791600,-1522133.4692084962,0.6105214357376099,-8.35336971282959,-12.021286964416504
1776038154445862400,-1522133.4591376954,0.7158663272857666,-7.824251174926758,-11.781867027282715
1776038154455933200,-1522133.4490668946,1.05105459690094,-7.254431247711182,-11.51611042022705
1776038154465943000,-1522133.4390568847,1.259350061416626,-6.701370716094971,-11.410765647888184
1776038154476044300,-1522133.4289558106,1.50355863571167,-6.081272125244141,-11.192893028259277
1776038154506195700,-1522133.3988041992,3.19865345954895,-5.272032260894775,-10.867281913757324
1776038154536408000,-1522133.368592041,4.23773717880249,-6.074089527130127,-10.498574256896973
1776038154546478800,-1522133.3585212403,4.850652694702148,-6.335057735443115,-10.08437728881836
1776038154606812200,-1522133.298187744,3.8810009956359863,-7.879317760467529,-7.405265808105469
1776038154616883000,-1522133.2881169433,3.804386615753174,-8.030152320861816,-7.141903877258301
1776038154697388300,-1522133.2076118165,5.978321552276611,-7.666234016418457,-8.283937454223633
1776038154717529900,-1522133.187470215,6.157886981964111,-7.242460250854492,-8.99740982055664
1776038154767914500,-1522133.1370854492,5.815515995025635,-6.172252178192139,-10.141838073730469
1776038154828400400,-1522133.0765996093,4.2544965744018555,-5.372588634490967,-11.57596492767334
1776038154898712800,-1522133.0062871093,1.8387469053268433,-5.329493045806885,-10.29746150970459
1776038154908814000,-1522132.9961860352,1.534683346748352,-5.243301868438721,-10.41956615447998
1776038154918915300,-1522132.9860847169,1.434126853942871,-5.0685248374938965,-10.556035041809082
1776038154928986000,-1522132.976013916,1.501164436340332,-5.1116204261779785,-10.627861022949219
1776038154959168000,-1522132.9458320313,2.4684219360351562,-5.082890033721924,-11.104307174682617
1776038154969177900,-1522132.9358222657,2.1499931812286377,-5.173870086669922,-11.32457447052002
1776038154979279000,-1522132.9257209473,1.7549498081207275,-5.228936672210693,-11.398794174194336
1776038154989350000,-1522132.9156501465,1.2689268589019775,-5.228936672210693,-11.489773750305176
1776038154999451400,-1522132.905548584,0.950498104095459,-5.489904403686523,-11.386823654174805
1776038155009522200,-1522132.8954777832,0.8738836050033569,-5.961562156677246,-11.384428977966309
1776038155019501300,-1522132.8854987794,0.7086837291717529,-6.215347766876221,-11.27190113067627
1776038155029602600,-1522132.875397461,0.44771572947502136,-6.44279670715332,-11.314997673034668
1776038155039673600,-1522132.865326416,0.21787235140800476,-6.509834289550781,-11.314997673034668
1776038155059754000,-1522132.8452460938,-0.49320554733276367,-5.925649166107178,-11.1474027633667
1776038155100006700,-1522132.8049934083,-0.4908113479614258,-5.305551052093506,-10.005369186401367
1776038155110108200,-1522132.7948918457,-0.26575639843940735,-5.60722017288208,-9.605537414550781
1776038155120209400,-1522132.7847905273,-0.12449848651885986,-5.647922039031982,-9.222464561462402
1776038155130280200,-1522132.7747197265,-0.023942016065120697,-5.540182590484619,-9.169792175292969
1776038155140351000,-1522132.7646489257,0.40222588181495667,-5.389348030090332,-9.066842079162598
1776038155160492500,-1522132.7445075684,0.6919242739677429,-5.094861030578613,-8.518569946289062
1776038155170563300,-1522132.7344367676,0.47165772318840027,-4.8937482833862305,-8.188169479370117
1776038155180634000,-1522132.7243659669,0.2585737705230713,-4.659116744995117,-7.8314337730407715
1776038155190735400,-1522132.7142646485,0.05506663769483566,-4.532223701477051,-7.383718013763428
1776038155200806400,-1522132.7041936035,0.021547814831137657,-4.422090530395508,-7.022193431854248
1776038155210877200,-1522132.6941228027,-0.019153613597154617,-4.479551315307617,-6.773196697235107
1776038155220917200,-1522132.6840827637,0.0933738648891449,-4.3622355461120605,-6.567295074462891
1776038155230927000,-1522132.674072998,0.22744916379451752,-4.223371982574463,-6.3302693367004395
1776038155241028400,-1522132.6639716798,0.4189853072166443,-4.134786128997803,-6.095637321472168
1776038155261139500,-1522132.6438605958,0.6416460275650024,-3.801992416381836,-5.750872611999512
1776038155271210200,-1522132.633789795,0.8403648138046265,-3.7253777980804443,-5.556941986083984
1776038155281250600,-1522132.6237495118,1.2306196689605713,-3.737348794937134,-5.22175407409668
1776038155291291000,-1522132.6137092286,1.6208745241165161,-3.866635799407959,-5.157110691070557
1776038155301331200,-1522132.6036687011,2.2026655673980713,-4.0749311447143555,-5.085284233093262
1776038155311432400,-1522132.593567627,2.7030537128448486,-4.347870349884033,-4.970362663269043
1776038155321534000,-1522132.5834660644,2.741360902786255,-4.4508209228515625,-4.922478675842285
1776038155331513000,-1522132.5734868164,2.518700122833252,-4.316745758056641,-4.754884719848633
1776038155341584000,-1522132.5634160156,2.300827741622925,-4.218583583831787,-4.548983097076416
1776038155351654700,-1522132.553345459,2.1308395862579346,-4.189853191375732,-4.422090530395508
1776038155371826700,-1522132.53317334,2.473210334777832,-3.9863457679748535,-4.048594951629639
1776038155381897500,-1522132.5231025391,2.7078421115875244,-4.180276393890381,-3.9480385780334473
1776038155391968500,-1522132.513031494,3.0190882682800293,-4.4292731285095215,-3.9839515686035156
1776038155402039300,-1522132.5029606933,3.354276657104492,-4.67827033996582,-4.168305397033691
1776038155412110000,-1522132.4928898925,3.531447410583496,-4.874594688415527,-4.345476150512695
1776038155422211300,-1522132.4827885742,3.751713991165161,-5.0900726318359375,-4.503493309020996
1776038155432282000,-1522132.4727177734,3.8714241981506348,-5.272032260894775,-4.687847137451172
1776038155442353000,-1522132.4626472169,3.9911341667175293,-5.485116004943848,-4.975151062011719
1776038155452423700,-1522132.452576416,4.2329487800598145,-5.628767967224121,-5.317522048950195
1776038155462494500,-1522132.4425056153,4.424484729766846,-5.861005783081055,-5.614402770996094
1776038155482575000,-1522132.4224248047,4.436455726623535,-6.107608318328857,-6.586448669433594
1776038155492554200,-1522132.4124458008,4.345476150512695,-6.200982570648193,-7.024587631225586
1776038155502625000,-1522132.402375,4.094084739685059,-6.078877925872803,-7.632715225219727
1776038155512665300,-1522132.3923347169,3.936067581176758,-5.602431774139404,-8.178592681884766
1776038155522766800,-1522132.3822331543,3.8355112075805664,-5.166687488555908,-8.80587387084961
1776038155532837600,-1522132.3721623535,3.5458126068115234,-4.079719543457031,-9.313444137573242
1776038155542877700,-1522132.3621223145,3.2609026432037354,-3.0813376903533936,-9.679757118225098
1776038155552948700,-1522132.3520512695,3.378218650817871,-2.9017724990844727,-10.213664054870605
1776038155562958300,-1522132.342041748,3.4380736351013184,-2.9305028915405273,-10.915165901184082
1776038155583130600,-1522132.3218693847,3.4811692237854004,-3.552995204925537,-12.629413604736328
1776038155593201400,-1522132.311798584,3.5266590118408203,-4.3406877517700195,-13.292608261108398
1776038155603211000,-1522132.3017890626,3.5410242080688477,-5.22175407409668,-13.797784805297852
1776038155613281800,-1522132.2917182618,3.5410242080688477,-5.928043365478516,-13.869610786437988
1776038155623322000,-1522132.2816779786,3.404554843902588,-6.414066314697266,-13.534421920776367
1776038155633393000,-1522132.2716071778,3.155557870864868,-6.675034523010254,-12.844892501831055
1776038155643463700,-1522132.261536377,2.9233202934265137,-6.737283706665039,-12.069170951843262
1776038155653504000,-1522132.2514960938,2.7557260990142822,-6.682217121124268,-11.477803230285645
1776038155663605200,-1522132.2413947755,2.540247917175293,-6.2847795486450195,-10.951078414916992
1776038155683747000,-1522132.2212529297,2.207453966140747,-5.054159641265869,-10.429142951965332
1776038155693817900,-1522132.2111821289,1.9800047874450684,-4.352658748626709,-10.395624160766602
1776038155703858000,-1522132.20114209,1.8363527059555054,-3.581725835800171,-10.51054573059082
1776038155713898200,-1522132.1911018067,1.745373010635376,-2.873042106628418,-10.730812072753906
1776038155723999700,-1522132.181000244,1.6615760326385498,-2.561795711517334,-10.96304988861084
1776038155734070500,-1522132.1709294433,1.6065093278884888,-2.4133553504943848,-11.099518775939941
1776038155744141300,-1522132.1608586425,1.4939818382263184,-2.5067291259765625,-10.972626686096191
1776038155754212000,-1522132.1507878418,1.2306196689605713,-2.8850131034851074,-10.781089782714844
1776038155764283000,-1522132.140717041,0.9528923034667969,-3.2417490482330322,-10.594342231750488
1776038155784363500,-1522132.1206364746,0.3998316824436188,-3.6511576175689697,-10.072406768798828
1776038155794403600,-1522132.1105964356,0.2968810200691223,-3.799597978591919,-9.713275909423828
1776038155804413400,-1522132.10058667,0.3016694188117981,-4.20421838760376,-9.287108421325684
1776038155814453800,-1522132.0905461425,0.35913026332855225,-4.611232280731201,-8.973467826843262
1776038155824555000,-1522132.0804450684,0.5051765441894531,-4.93923807144165,-8.743624687194824
1776038155834625800,-1522132.0703742676,0.5147533416748047,-5.236119270324707,-8.449137687683105
1776038155844696600,-1522132.0603034669,0.5434837937355042,-5.556941986083984,-8.106766700744629
1776038155854767400,-1522132.050232666,0.6320692300796509,-5.714959621429443,-7.750030994415283
1776038155864807700,-1522132.0401923829,0.7709329724311829,-5.710171222686768,-7.515398979187012
1776038155874878500,-1522132.030121582,0.7445967197418213,-5.525817394256592,-7.417236804962158
1776038155904969000,-1522132.0000310058,0.7134721279144287,-4.963180065155029,-7.108384609222412
1776038155914978600,-1522131.9900214844,0.6823474764823914,-4.76924991607666,-7.01979923248291
1776038155925080000,-1522131.9799199218,0.7254431247711182,-4.944026470184326,-6.9240312576293945
1776038155935089700,-1522131.9699104005,0.9433154463768005,-4.946420669555664,-7.046135425567627
1776038155945191200,-1522131.9598088379,1.1563993692398071,-5.078101634979248,-7.357381820678711
1776038155955231200,-1522131.949768799,1.3455413579940796,-5.118803024291992,-7.687781810760498
1776038155965271600,-1522131.9397285157,1.4700398445129395,-5.085284233093262,-7.95832633972168
1776038155975312000,-1522131.9296882325,1.7046716213226318,-4.967968463897705,-8.180987358093262
1776038155995453400,-1522131.909546631,1.7908629179000854,-5.12119722366333,-8.08282470703125
1776038156015564500,-1522131.889435547,2.0638017654418945,-5.710171222686768,-8.221688270568848
1776038156025635300,-1522131.8793647462,2.341529369354248,-6.009446144104004,-8.377311706542969
1776038156035706000,-1522131.8692939454,2.58813214302063,-6.44279670715332,-8.518569946289062
1776038156045777000,-1522131.8592231446,2.9712042808532715,-6.564900875091553,-8.597578048706055
1776038156055847700,-1522131.8491523438,3.3518824577331543,-6.524199485778809,-8.516175270080566
1776038156065888000,-1522131.8391120606,3.6367924213409424,-6.509834289550781,-8.432378768920898
1776038156075958800,-1522131.8290412598,4.1874589920043945,-6.366182327270508,-8.401253700256348
1776038156086029600,-1522131.818970459,4.73573112487793,-6.375759124755859,-8.576030731201172
1776038156116150500,-1522131.7888493652,5.995080947875977,-6.124367713928223,-8.980650901794434
1776038156126221300,-1522131.7787788087,6.495469093322754,-5.142745018005371,-9.117119789123535
1776038156136292000,-1522131.7687080079,6.174646377563477,-4.477157115936279,-9.390059471130371
1776038156146363000,-1522131.758637207,6.0836663246154785,-3.9815573692321777,-9.854534149169922
1776038156156433700,-1522131.7485664063,5.858611583709717,-3.667917013168335,-10.259154319763184
1776038156166535200,-1522131.7384648437,5.623979568481445,-3.603273630142212,-10.754754066467285
1776038156176544800,-1522131.7284553223,5.623979568481445,-3.603273630142212,-10.754754066467285
1776038156196686300,-1522131.7083137208,5.303156852722168,-4.134786128997803,-11.348516464233398
1776038156206787800,-1522131.6982121582,5.43723201751709,-4.062960147857666,-11.310209274291992
1776038156216858600,-1522131.6881413574,5.260061264038086,-3.6727054119110107,-11.238382339477539
1776038156226960000,-1522131.678040039,5.130774021148682,-3.251325845718384,-10.948684692382812
1776038156237030700,-1522131.6679692382,5.054159641265869,-2.9448680877685547,-10.733205795288086
1776038156247101400,-1522131.6578986817,5.185841083526611,-2.7676970958709717,-10.886435508728027
1776038156257111300,-1522131.6478886718,5.370194435119629,-2.8826189041137695,-11.166556358337402
1776038156267182000,-1522131.637817871,5.595249176025391,-3.0119056701660156,-11.434707641601562
1776038156277161200,-1522131.6278388673,6.021417140960693,-3.399766445159912,-11.676521301269531
1776038156287262500,-1522131.617737549,6.117185115814209,-3.6750996112823486,-11.848904609680176
1776038156317383400,-1522131.587616455,5.920860767364502,-4.381389141082764,-11.45146656036377
1776038156327484700,-1522131.577515381,5.360617637634277,-4.436455726623535,-10.984597206115723
1776038156337555500,-1522131.5674445801,4.687847137451172,-4.455609321594238,-10.445901870727539
1776038156347626200,-1522131.5573737794,4.14915132522583,-4.525041103363037,-10.11789608001709
1776038156357697300,-1522131.5473027343,3.8379054069519043,-4.486733913421631,-9.981427192687988
1776038156367768000,-1522131.5372319336,3.3686418533325195,-4.513070106506348,-10.038887977600098
1776038156377838800,-1522131.5271611328,3.205836057662964,-4.426878929138184,-10.302249908447266
1776038156387940000,-1522131.5170598144,2.9017724990844727,-4.371812343597412,-10.486603736877441
1776038156428223200,-1522131.4767768555,1.9943699836730957,-4.278438568115234,-11.36048698425293
1776038156438294000,-1522131.4667060548,1.922544002532959,-4.3622355461120605,-11.51611042022705
1776038156448334300,-1522131.4566657715,1.8531121015548706,-4.458003520965576,-11.346121788024902
1776038156458374700,-1522131.446625244,1.7286136150360107,-4.707000732421875,-10.948684692382812
1776038156468476000,-1522131.43652417,1.501164436340332,-4.838681697845459,-10.711658477783203
1776038156478546700,-1522131.4264533692,1.3335703611373901,-4.95120906829834,-10.481815338134766
1776038156488617500,-1522131.4163825684,1.1563993692398071,-4.9799394607543945,-10.38844108581543
1776038156498688300,-1522131.4063117676,0.9289502501487732,-4.953603267669678,-10.285490036010742
1776038156508759300,-1522131.3962407226,0.8643068075180054,-4.843470096588135,-10.089165687561035
1776038156528870100,-1522131.3761298829,0.5363011956214905,-4.520252704620361,-9.679757118225098
1776038156538910500,-1522131.3660895997,0.36152446269989014,-4.355052947998047,-9.569623947143555
1776038156548920300,-1522131.3560795898,0.2082955539226532,-4.28322696685791,-9.39245319366455
1776038156558960600,-1522131.3460393066,0.07182604819536209,-4.256890773773193,-9.327810287475586
1776038156569031400,-1522131.3359685058,0.0694318488240242,-4.299986362457275,-9.14585018157959
1776038156579010600,-1522131.325989502,0.1867477297782898,-4.146757125854492,-8.825027465820312
1776038156589112000,-1522131.3158879394,0.24181437492370605,-3.9695863723754883,-8.638279914855957
1776038156599182800,-1522131.3058171386,0.47165772318840027,-3.8714241981506348,-8.413225173950195
1776038156609253600,-1522131.2957463379,0.6440402865409851,-3.866635799407959,-8.238448143005371
1776038156629395200,-1522131.2756047363,0.9457096457481384,-3.5865142345428467,-7.922413349151611
1776038156639435500,-1522131.265564453,0.706289529800415,-3.3949780464172363,-7.745242595672607
1776038156649506300,-1522131.2554936523,0.5339069962501526,-3.203441858291626,-7.450755596160889
1776038156659516000,-1522131.245484131,0.5171475410461426,-2.808398485183716,-7.15387487411499
1776038156669617400,-1522131.2353825683,0.8595184087753296,-2.7940332889556885,-6.876147270202637
1776038156679688200,-1522131.2253117675,1.3000515699386597,-2.765302896499634,-6.665457725524902
1776038156689697800,-1522131.2153022462,1.400607943534851,-2.7246015071868896,-6.3063273429870605
1776038156699677200,-1522131.2053227539,1.3000515699386597,-2.801215887069702,-5.985504150390625
1776038156729920000,-1522131.1750800782,1.5873557329177856,-2.8395233154296875,-5.310339450836182
1776038156739929900,-1522131.1650700683,1.9512743949890137,-2.9903578758239746,-5.341464042663574
1776038156749970200,-1522131.1550297851,2.0925323963165283,-3.24414324760437,-5.231330871582031
1776038156760041000,-1522131.1449589843,2.0470423698425293,-3.531447410583496,-5.147533416748047
1776038156770081300,-1522131.1349187011,1.9584569931030273,-3.6942532062530518,-5.118803024291992
1776038156790192400,-1522131.1148076172,1.8387469053268433,-3.8307228088378906,-5.602431774139404
1776038156800263200,-1522131.1047368164,2.051830768585205,-3.84269380569458,-5.990292549133301
1776038156810364400,-1522131.094635498,2.2840683460235596,-4.015076160430908,-6.557718276977539
1776038156820404700,-1522131.0845952148,2.760514497756958,-4.165910720825195,-7.108384609222412
1776038156830475500,-1522131.074524414,3.3423056602478027,-4.14915132522583,-7.663839817047119
1776038156840546300,-1522131.0644536132,4.084507942199707,-4.177882194519043,-8.109161376953125
1776038156850617000,-1522131.0543828125,4.802768707275391,-4.125209331512451,-8.549694061279297
1776038156860657400,-1522131.0443425293,5.006275653839111,-4.003105163574219,-9.004592895507812
1776038156870728200,-1522131.0342717285,4.548983097076416,-3.9217023849487305,-9.488221168518066
1776038156880738000,-1522131.0242619629,3.9815573692321777,-3.84269380569458,-10.08198356628418
1776038156890808800,-1522131.014191162,3.442862033843994,-3.936067581176758,-10.81700325012207
1776038156900788000,-1522131.004211914,3.0310592651367188,-4.0749311447143555,-11.420342445373535
1776038156910889200,-1522130.99411084,2.801215887069702,-4.180276393890381,-11.908759117126465
1776038156931061500,-1522130.9739384765,3.4165258407592773,-4.738125324249268,-12.05959415435791
1776038156941101800,-1522130.9638981933,3.6104562282562256,-4.898536682128906,-11.458649635314941
1776038156951203000,-1522130.953796875,3.732560396194458,-4.9152960777282715,-10.558429718017578
1776038156961273900,-1522130.9437260742,3.7660791873931885,-4.93923807144165,-9.943120002746582
1776038156971375000,-1522130.933625,3.8522706031799316,-4.955997467041016,-9.624691009521484
1776038156981385000,-1522130.9236149902,3.912125587463379,-5.058948040008545,-9.861717224121094
1776038156991486200,-1522130.9135136718,3.7708675861358643,-4.910507678985596,-10.1753568649292
1776038157001526500,-1522130.9034733886,3.6343982219696045,-4.759673118591309,-10.441113471984863
1776038157011566800,-1522130.8934331054,3.3207578659057617,-4.359841346740723,-10.522516250610352
1776038157041748700,-1522130.8632512207,2.279279947280884,-3.2130186557769775,-9.96945571899414
1776038157061920800,-1522130.8430793458,2.0183119773864746,-2.896984100341797,-9.667786598205566
1776038157071991600,-1522130.833008545,1.9847931861877441,-2.8610711097717285,-9.651026725769043
1776038157082001400,-1522130.8229985351,2.097320795059204,-3.0526070594787598,-9.524134635925293
1776038157092072200,-1522130.8129277343,2.10210919380188,-3.35667085647583,-9.399636268615723
1776038157102143000,-1522130.8028569336,2.013523578643799,-3.950432777404785,-9.337387084960938
1776038157112213800,-1522130.7927861328,2.0183119773864746,-4.414907932281494,-9.150638580322266
1776038157152497000,-1522130.752503174,1.8722656965255737,-5.092466831207275,-7.898471355438232
1776038157162537200,-1522130.7424628907,1.845929503440857,-5.228936672210693,-7.807491779327393
1776038157172577500,-1522130.7324223632,1.8171991109848022,-5.286397457122803,-7.869740962982178
1776038157182648300,-1522130.7223515625,1.8052281141281128,-5.20978307723999,-7.781155586242676
1776038157192719000,-1522130.712281006,1.8770540952682495,-5.30076265335083,-7.60637903213501
1776038157202759400,-1522130.7022404785,1.867477297782898,-5.279214859008789,-7.527369976043701
1776038157212830200,-1522130.6921696777,2.008735179901123,-5.544970989227295,-7.503427982330322
1776038157222901000,-1522130.6820991212,2.161964178085327,-5.489904403686523,-7.50582218170166
1776038157263123200,-1522130.641876709,2.8131868839263916,-6.2416839599609375,-8.039729118347168
1776038157273194000,-1522130.6318059082,2.7724854946136475,-6.418854713439941,-8.01339340209961
1776038157283264800,-1522130.6217353516,2.7006595134735107,-6.382941722869873,-7.948749542236328
1776038157293366000,-1522130.6116340333,2.5665841102600098,-6.287173748016357,-7.826645374298096
1776038157303406300,-1522130.60159375,2.4588451385498047,-6.004657745361328,-7.747636795043945
1776038157313507600,-1522130.5914924317,2.33913516998291,-5.892130374908447,-7.793126583099365
1776038157323578600,-1522130.5814213867,2.492363929748535,-5.750872611999512,-7.891288757324219
1776038157333679900,-1522130.5713200683,2.7437551021575928,-5.473145008087158,-8.056488990783691
1776038157363831300,-1522130.5411687011,2.7724854946136475,-5.473145008087158,-8.588001251220703
1776038157373902000,-1522130.5310979004,2.8802247047424316,-5.600037574768066,-8.611943244934082
1776038157383911700,-1522130.521088379,3.045424461364746,-5.810727596282959,-8.662221908569336
1776038157393982500,-1522130.5110175782,3.24414324760437,-6.0190229415893555,-8.832210540771484
1776038157404053200,-1522130.5009467774,3.5051112174987793,-6.215347766876221,-9.078812599182129
1776038157414093600,-1522130.4909064942,3.7421371936798096,-6.378153324127197,-9.346963882446289
1776038157424103400,-1522130.4808964843,4.177882194519043,-6.607996463775635,-9.591172218322754
1776038157434174200,-1522130.4708256836,4.824316501617432,-6.567295074462891,-9.825803756713867
1776038157444245000,-1522130.460755127,4.841075897216797,-6.502651691436768,-10.031704902648926
1776038157464356000,-1522130.4406437988,4.812345504760742,-6.3063273429870605,-10.14902114868164
1776038157484528000,-1522130.420471924,4.759673118591309,-6.253654956817627,-10.407594680786133
1776038157494538000,-1522130.410461914,4.668693542480469,-6.294356346130371,-10.405200958251953
1776038157504578300,-1522130.4004216308,4.797980308532715,-6.390124320983887,-10.488997459411621
1776038157514618600,-1522130.3903813476,5.0685248374938965,-6.631938934326172,-11.010933876037598
1776038157524659000,-1522130.3803410644,5.406107425689697,-6.885724067687988,-11.767500877380371
1776038157534699000,-1522130.3703010255,5.796362400054932,-7.024587631225586,-12.612654685974121
1776038157544769800,-1522130.3602302247,5.987898349761963,-7.146692276000977,-13.175292015075684
1776038157554810000,-1522130.3501899415,5.987898349761963,-7.146692276000977,-13.175292015075684
1776038157584931000,-1522130.3200688476,5.013458251953125,-6.00226354598999,-11.492168426513672
1776038157595001900,-1522130.3099980468,4.355052947998047,-5.614402770996094,-10.647014617919922
1776038157605072600,-1522130.299927246,3.691859006881714,-5.188235282897949,-10.223240852355957
1776038157615143400,-1522130.2898566895,3.141192674636841,-4.764461517333984,-10.134655952453613
1776038157625183700,-1522130.279816162,2.7293899059295654,-4.527435302734375,-10.20648193359375
1776038157635285000,-1522130.269715088,2.6168625354766846,-4.434061527252197,-10.254365921020508
1776038157645355800,-1522130.2596442872,2.63362193107605,-4.46518611907959,-10.323798179626465
1776038157655426600,-1522130.2495734864,2.612074136734009,-4.414907932281494,-10.460267066955566
1776038157685608400,-1522130.2193916016,2.470816135406494,-4.73573112487793,-11.073183059692383
1776038157705750000,-1522130.19925,2.0039467811584473,-4.963180065155029,-11.140220642089844
1776038157715851500,-1522130.1891484375,1.7501614093780518,-4.989516258239746,-11.02051067352295
1776038157725922300,-1522130.1790776367,1.5682021379470825,-4.929661273956299,-10.836156845092773
1776038157735993000,-1522130.169006836,1.359906554222107,-4.934449672698975,-10.627861022949219
1776038157746094300,-1522130.1589057618,1.4317326545715332,-4.771644115447998,-10.472238540649414
1776038157756165000,-1522130.148834961,1.5275006294250488,-4.707000732421875,-10.204087257385254
1776038157786316500,-1522130.1186833496,1.5203180313110352,-4.666299343109131,-9.184157371520996
1776038157796387300,-1522130.108612793,1.3742717504501343,-4.721365928649902,-8.937555313110352
1776038157806458000,-1522130.0985419923,1.2018892765045166,-4.829104900360107,-8.803479194641113
1776038157816498400,-1522130.0885014648,1.139639973640442,-4.793191909790039,-8.647856712341309
1776038157826538800,-1522130.0784611816,0.9624691009521484,-4.922478675842285,-8.523358345031738
1776038157836640000,-1522130.0683601075,0.730231523513794,-4.819528102874756,-8.516175270080566
1776038157846710800,-1522130.0582893067,0.5171475410461426,-4.4723687171936035,-8.468291282653809
1776038157856781600,-1522130.048218506,0.4572925269603729,-4.410119533538818,-8.312667846679688
1776038157866822000,-1522130.0381782227,0.26096799969673157,-4.412513732910156,-8.073247909545898
1776038157897003800,-1522130.007996338,-0.22026655077934265,-4.680664539337158,-7.496245384216309
1776038157907044000,-1522129.9979558105,-0.4405331015586853,-4.711789131164551,-7.285555839538574
1776038157917145300,-1522129.9878547364,-0.5363011956214905,-4.790797710418701,-7.06528902053833
1776038157927185700,-1522129.9778144532,-0.6536170840263367,-4.752490520477295,-6.955155849456787
1776038157937256400,-1522129.9677436524,-0.8690952062606812,-4.843470096588135,-6.734889507293701
1776038157947327200,-1522129.9576728516,-1.0845733880996704,-4.802768707275391,-6.617573261260986
1776038157957398000,-1522129.9476020508,-1.1851298809051514,-4.675876140594482,-6.538564682006836
1776038157967468800,-1522129.93753125,-1.2665326595306396,-4.54419469833374,-6.461950302124023
1776038157987610400,-1522129.9173896485,-1.3551181554794312,-4.2329487800598145,-6.40927791595459
1776038157997681400,-1522129.9073186035,-1.400607943534851,-4.106055736541748,-6.387730121612549
1776038158017792300,-1522129.8872077637,-0.8571242094039917,-4.213795185089111,-6.428431510925293
1776038158027832600,-1522129.8771674805,-0.2777273952960968,-4.4292731285095215,-6.584054470062256
1776038158037903400,-1522129.8670966798,0.5386953949928284,-4.606443881988525,-6.677428722381592
1776038158047913200,-1522129.85708667,1.1180921792984009,-4.563348293304443,-6.866570472717285
1776038158058014500,-1522129.8469855958,1.2641384601593018,-4.05817174911499,-6.873753070831299
1776038158068024300,-1522129.836975586,1.1779472827911377,-3.531447410583496,-6.9240312576293945
1776038158078125600,-1522129.8268745118,1.0127472877502441,-2.8131868839263916,-6.88332986831665
1776038158098206200,-1522129.8067937011,0.9097966551780701,-2.3343467712402344,-6.936002254486084
1776038158118286800,-1522129.7867131347,1.6400281190872192,-2.765302896499634,-6.957550048828125
1776038158128296400,-1522129.7767036133,1.9345149993896484,-2.911349296569824,-7.0126166343688965
1776038158138398000,-1522129.7666020507,2.4612393379211426,-3.203441858291626,-7.053318023681641
1776038158148468700,-1522129.75653125,2.827552318572998,-3.3255462646484375,-7.204153060913086
1776038158158508800,-1522129.746491211,3.1292216777801514,-3.7493197917938232,-7.376535415649414
1776038158168549000,-1522129.7364509278,3.375824451446533,-4.185064792633057,-7.86734676361084
1776038158178620000,-1522129.726380127,3.6104562282562256,-4.5394062995910645,-8.480262756347656
1776038158208771300,-1522129.6962287598,3.890577793121338,-4.884171485900879,-10.702081680297852
1776038158218842000,-1522129.686157959,4.022258758544922,-4.824316501617432,-11.350910186767578
1776038158228943600,-1522129.6760563964,4.084507942199707,-5.0685248374938965,-11.853693008422852
1776038158239044900,-1522129.665955078,4.041412353515625,-5.5760955810546875,-11.923124313354492
1776038158249115600,-1522129.6558842773,4.266467571258545,-5.9974751472473145,-11.738770484924316
1776038158259186400,-1522129.6458134765,4.501099109649658,-6.339846134185791,-11.504138946533203
1776038158269287700,-1522129.6357124024,4.759673118591309,-6.62236213684082,-11.168951034545898
1776038158279297500,-1522129.6257023925,4.934449672698975,-6.730101108551025,-10.888829231262207
1776038158289307400,-1522129.615692627,5.020640850067139,-6.763619899749756,-10.836156845092773
1776038158299378200,-1522129.6056218261,5.216965675354004,-6.584054470062256,-10.769119262695312
1776038158309418200,-1522129.5955817872,5.200206279754639,-6.311115741729736,-10.912771224975586
1776038158319489000,-1522129.5855109864,5.202600479125977,-6.064512729644775,-10.919954299926758
1776038158329529300,-1522129.5754707032,4.967968463897705,-5.679046630859375,-10.90558910369873
1776038158339539200,-1522129.5654606933,4.6950297355651855,-5.193023681640625,-10.90558910369873
1776038158349640400,-1522129.5553596192,4.264073371887207,-4.685452938079834,-10.881647109985352
1776038158359711200,-1522129.5452888184,3.8355112075805664,-4.261679172515869,-10.960655212402344
1776038158369782000,-1522129.5352180176,3.4141316413879395,-3.773261785507202,-10.96304988861084
1776038158410034700,-1522129.494965332,2.3942017555236816,-3.3710360527038574,-10.24239444732666
1776038158420075000,-1522129.484925049,2.2170307636260986,-3.5673606395721436,-9.828198432922363
1776038158430084900,-1522129.474915039,1.9943699836730957,-3.7708675861358643,-9.516951560974121
1776038158440186000,-1522129.464813965,1.800439715385437,-3.955221176147461,-9.224859237670898
1776038158450257000,-1522129.4547431641,1.5155296325683594,-4.182670593261719,-8.927978515625
1776038158460297200,-1522129.444702881,1.2952631711959839,-4.4292731285095215,-8.571242332458496
1776038158470337500,-1522129.4346623535,1.0821791887283325,-4.78122091293335,-8.20492935180664
1776038158480438800,-1522129.4245612794,1.0055646896362305,-5.104437828063965,-8.17141056060791
1776038158490509600,-1522129.4144904786,0.9241618514060974,-5.451597213745117,-7.9846625328063965
1776038158500550000,-1522129.4044501954,0.8307880163192749,-5.760449409484863,-7.94635534286499
1776038158510651100,-1522129.394348877,0.7589619159698486,-5.899312973022461,-7.762001991271973
1776038158520752600,-1522129.3842473144,0.7661445140838623,-6.081272125244141,-7.6351094245910645
1776038158530823400,-1522129.3741765136,0.7948749661445618,-6.119579315185547,-7.376535415649414
1776038158540894200,-1522129.3641057129,0.8331822156906128,-6.294356346130371,-7.242460250854492
1776038158550965000,-1522129.354034912,0.8379706144332886,-6.145915985107422,-7.19936466217041
1776038158561066200,-1522129.343933838,0.7326257228851318,-5.918466567993164,-7.129932880401611
1776038158571045600,-1522129.3339543457,0.6536170840263367,-5.738901615142822,-6.955155849456787
1776038158581116400,-1522129.323883545,0.5913678407669067,-5.633556365966797,-6.710947513580322
1776038158611359200,-1522129.2936408692,0.9074024558067322,-5.906495571136475,-6.648698329925537
1776038158631531300,-1522129.27346875,1.0079588890075684,-6.016628742218018,-7.017405033111572
1776038158641602300,-1522129.263397705,0.9457096457481384,-5.875370979309082,-7.050923824310303
1776038158651673000,-1522129.2533269043,0.871489405632019,-5.999869346618652,-6.9695210456848145
1776038158661743900,-1522129.2432561035,0.9169792532920837,-6.0621185302734375,-6.92881965637207
1776038158681885400,-1522129.223114502,1.5298948287963867,-6.538564682006836,-7.141903877258301
1776038158702027000,-1522129.2029729004,2.9496564865112305,-6.8809356689453125,-7.795520782470703
1776038158712097800,-1522129.1929020996,3.9456443786621094,-7.036558628082275,-8.236053466796875
1776038158722168600,-1522129.182831543,4.2975921630859375,-6.936002254486084,-8.580819129943848
1776038158732239400,-1522129.1727607423,4.082113742828369,-6.631938934326172,-8.71728801727295
1776038158742340600,-1522129.162659424,4.015076160430908,-6.447585105895996,-8.834604263305664
1776038158752350500,-1522129.152649414,3.971980571746826,-6.335057735443115,-8.975862503051758
1776038158762451700,-1522129.14254834,4.359841346740723,-6.315904140472412,-9.14585018157959
1776038158772522500,-1522129.1324775391,4.302380561828613,-6.167463779449463,-9.411606788635254
1776038158782593300,-1522129.1224067383,3.892971992492676,-5.899312973022461,-9.799467086791992
1776038158812806000,-1522129.0921940918,3.2369606494903564,-5.315127849578857,-10.472238540649414
1776038158842957000,-1522129.0620429688,4.077325344085693,-6.141127586364746,-11.276689529418945
1776038158852997400,-1522129.0520026856,4.410119533538818,-6.251260757446289,-11.298237800598145
1776038158863099000,-1522129.041901123,4.67827033996582,-6.279991149902344,-11.437101364135742
1776038158883240400,-1522129.0217595214,5.037400245666504,-6.332663536071777,-11.961431503295898
1776038158903412500,-1522129.0015874023,5.135562419891357,-6.423643112182617,-12.198457717895508
1776038158913452800,-1522128.991547119,5.142745018005371,-6.433219909667969,-12.181697845458984
1776038158933564000,-1522128.9714360351,4.750096321105957,-6.2392897605896,-11.549629211425781
1776038158943634700,-1522128.9613652343,4.185064792633057,-5.904101371765137,-10.864887237548828
1776038158953705500,-1522128.9512944336,3.643975019454956,-5.6670756340026855,-10.271124839782715
1776038158963806700,-1522128.9411933594,3.1459810733795166,-5.492298603057861,-9.864110946655273
1776038158973816600,-1522128.9311833496,2.808398485183716,-5.2672438621521,-9.526528358459473
1776038158983887400,-1522128.9211125488,2.497152328491211,-5.070919036865234,-9.59835433959961
1776038158993958100,-1522128.911041748,2.367865562438965,-4.922478675842285,-9.861717224121094
1776038159034210800,-1522128.8707890625,2.343923568725586,-4.750096321105957,-10.642226219177246
1776038159044281600,-1522128.860718506,2.3558945655822754,-4.704606533050537,-10.802638053894043
1776038159054352400,-1522128.8506477051,2.2625205516815186,-4.651933670043945,-11.197681427001953
1776038159064453600,-1522128.8405463868,2.166752576828003,-4.611232280731201,-11.35809326171875
1776038159074494000,-1522128.8305061036,1.9105730056762695,-4.446032524108887,-11.279084205627441
1776038159084534300,-1522128.8204658204,1.6136919260025024,-4.194641590118408,-10.931924819946289
1776038159094605000,-1522128.8103950196,1.3239935636520386,-3.9600095748901367,-10.651803016662598
1776038159114655200,-1522128.7903447265,0.9576807022094727,-3.6367924213409424,-10.002974510192871
1776038159134796800,-1522128.770203125,0.8475474119186401,-3.4548330307006836,-9.306262016296387
1776038159144867600,-1522128.7601323242,0.8236053586006165,-3.426102638244629,-8.932766914367676
1776038159154877400,-1522128.7501225586,0.7565677165985107,-3.49314022064209,-8.619126319885254
1776038159164978700,-1522128.7400212402,0.6440402865409851,-3.397372245788574,-8.327033042907715
1776038159175049500,-1522128.7299504394,0.5363011956214905,-3.098097085952759,-8.094796180725098
1776038159185120300,-1522128.7198796386,0.42377370595932007,-3.114856481552124,-8.032546997070312
1776038159195191000,-1522128.709809082,0.24420857429504395,-3.1100680828094482,-7.934384346008301
1776038159205231400,-1522128.6997685547,0.08140286058187485,-3.292027235031128,-7.862558364868164
1776038159235382800,-1522128.6696171875,-0.2968810200691223,-3.8570590019226074,-7.529764175415039
1776038159245453600,-1522128.6595463867,-0.22505496442317963,-3.950432777404785,-7.522581577301025
1776038159255524400,-1522128.649475586,-0.26096799969673157,-4.019864559173584,-7.433996200561523
1776038159265625600,-1522128.6393745118,-0.28969839215278625,-4.256890773773193,-7.326257228851318
1776038159275605000,-1522128.6293950195,-0.3447650372982025,-4.481945514678955,-7.285555839538574
1776038159285706200,-1522128.6192937011,-0.31364041566848755,-4.596867084503174,-7.15387487411499
1776038159295777000,-1522128.6092229004,-0.38307225704193115,-4.833893299102783,-7.129932880401611
1776038159325989400,-1522128.5790107423,-0.2585737705230713,-4.855441093444824,-6.888118267059326
1776038159336029700,-1522128.5689702148,-0.1173158809542656,-4.572925090789795,-6.943184852600098
1776038159346100500,-1522128.558899414,0.3447650372982025,-4.46518611907959,-6.9455790519714355
1776038159356171300,-1522128.5488288575,0.6033388376235962,-4.23773717880249,-6.952761650085449
1776038159366211600,-1522128.53878833,0.7350199222564697,-4.077325344085693,-6.809109687805176
1776038159376221400,-1522128.5287785644,0.6823474764823914,-3.976768970489502,-6.670246124267578
1776038159386292200,-1522128.5187077636,0.44532153010368347,-3.9001545906066895,-6.44279670715332
1776038159396332300,-1522128.5086677247,0.2753331959247589,-3.8139634132385254,-6.208165168762207
1776038159426483700,-1522128.4785163575,0.20111294090747833,-3.823540210723877,-5.985504150390625
1776038159436524000,-1522128.4684760743,0.43095630407333374,-3.93367338180542,-6.1267619132995605
1776038159446625300,-1522128.458374756,0.8427590131759644,-4.084507942199707,-6.260837554931641
1776038159456696000,-1522128.4483039551,1.0678139925003052,-4.065354347229004,-6.567295074462891
1776038159466736400,-1522128.438263672,1.4077905416488647,-4.0533833503723145,-6.912060260772705
1776038159476746200,-1522128.428253662,1.7310078144073486,-4.101267337799072,-7.249642848968506
1776038159486847500,-1522128.418152588,2.1045033931732178,-4.383783340454102,-7.644686222076416
1776038159496918300,-1522128.4080817872,2.434903144836426,-4.4292731285095215,-7.94635534286499
1776038159507019800,-1522128.3979802246,2.940079689025879,-4.616020679473877,-8.307879447937012
1776038159527161300,-1522128.377838623,4.015076160430908,-5.104437828063965,-9.023746490478516
1776038159537201700,-1522128.3677983398,4.570530891418457,-5.183446884155273,-9.555258750915527
1776038159547272400,-1522128.357727539,4.788403511047363,-5.240907669067383,-10.002974510192871
1776038159557343200,-1522128.3476567382,4.637568473815918,-5.097255229949951,-10.359710693359375
1776038159567444500,-1522128.33755542,4.393360137939453,-5.166687488555908,-10.742782592773438
1776038159577515300,-1522128.327484619,3.667917013168335,-5.351040840148926,-11.243170738220215
1776038159587616500,-1522128.317383545,3.00711727142334,-5.789179801940918,-11.84650993347168
1776038159597687300,-1522128.3073127442,2.3702597618103027,-5.767632007598877,-12.409147262573242
1776038159607788800,-1522128.2972111816,2.2170307636260986,-5.430049419403076,-12.643778800964355
1776038159647980300,-1522128.2570197755,3.4093432426452637,-4.5609540939331055,-11.738770484924316
1776038159658051000,-1522128.2469489747,3.9025487899780273,-4.503493309020996,-11.204863548278809
1776038159668121900,-1522128.236878174,4.197035789489746,-4.558559894561768,-10.802638053894043
1776038159678192600,-1522128.226807373,4.3622355461120605,-4.288015365600586,-10.472238540649414
1776038159688294100,-1522128.2167058105,4.240131378173828,-4.031835556030273,-10.572794914245605
1776038159698303700,-1522128.2066962891,4.048594951629639,-3.687070608139038,-10.769119262695312
1776038159708405200,-1522128.1965947265,3.861847400665283,-3.5386300086975098,-11.190498352050781
1776038159718476000,-1522128.1865239257,3.620033025741577,-3.5434184074401855,-11.499350547790527
1776038159738617600,-1522128.1663823242,3.2345664501190186,-3.7397429943084717,-11.494562149047852
1776038159748718800,-1522128.15628125,3.134010076522827,-3.9911341667175293,-11.176133155822754
1776038159758820000,-1522128.1461799317,2.8610711097717285,-4.0964789390563965,-10.867281913757324
1776038159768860400,-1522128.1361396485,2.715024709701538,-4.288015365600586,-10.488997459411621
1776038159778931200,-1522128.1260688477,2.5665841102600098,-4.335899353027344,-10.086771965026855
1776038159788971500,-1522128.1160285645,2.4684219360351562,-4.793191909790039,-9.682151794433594
1776038159798981400,-1522128.1060185547,2.365471363067627,-5.080495834350586,-9.186552047729492
1776038159809052200,-1522128.0959477539,2.118868589401245,-5.382165431976318,-8.62391471862793
1776038159819123000,-1522128.085876953,1.9249382019042969,-5.506663799285889,-7.9631147384643555
1776038159839264500,-1522128.0657355958,1.699883222579956,-5.714959621429443,-7.1251444816589355
1776038159859406000,-1522128.0455939942,1.7190368175506592,-5.506663799285889,-6.390124320983887
1776038159869507600,-1522128.0354924316,1.7357962131500244,-5.406107425689697,-6.117185115814209
1776038159879578400,-1522128.0254216308,1.7286136150360107,-5.30076265335083,-5.944802761077881
1776038159889679600,-1522128.0153203125,1.7908629179000854,-5.286397457122803,-5.726930618286133
1776038159899689500,-1522128.0053105468,1.9393033981323242,-5.293580055236816,-5.6455278396606445
1776038159909760300,-1522127.995239746,2.0470423698425293,-5.1595048904418945,-5.559336185455322
1776038159919831000,-1522127.9851689453,2.140416383743286,-5.188235282897949,-5.688623428344727
1776038159929901800,-1522127.9750981445,2.319981336593628,-5.2265424728393555,-5.856217384338379
1776038159960053000,-1522127.9449470215,2.31758713722229,-5.324704647064209,-6.31829833984375
1776038159970124000,-1522127.9348759765,2.2409727573394775,-5.463568210601807,-6.445190906524658
1776038159980133600,-1522127.9248664551,2.229001760482788,-5.501875400543213,-6.720524311065674
1776038159990204400,-1522127.9147956544,2.300827741622925,-5.626373767852783,-6.981492042541504
1776038160000244700,-1522127.9047553712,2.3104045391082764,-5.640739440917969,-7.247248649597168
1776038160010315500,-1522127.8946845704,2.43011474609375,-5.719748020172119,-7.503427982330322
1776038160020325400,-1522127.8846745605,2.454056739807129,-5.659893035888672,-7.632715225219727
1776038160030426600,-1522127.8745734864,2.6431987285614014,-5.78678560256958,-7.876923561096191
1776038160050598700,-1522127.8544013673,3.313575267791748,-5.499481201171875,-8.42040729522705
1776038160070709800,-1522127.8342902833,4.0749311447143555,-5.3127336502075195,-8.959102630615234
1776038160080719600,-1522127.8242802734,4.426878929138184,-5.183446884155273,-9.05487060546875
1776038160090820900,-1522127.8141791993,4.903325080871582,-5.1810526847839355,-9.107542991638184
1776038160100800300,-1522127.804199707,5.612008571624756,-5.331887245178223,-9.279925346374512
1776038160110901500,-1522127.7940983886,5.647922039031982,-5.188235282897949,-9.593565940856934
1776038160120941800,-1522127.7840581054,5.702988624572754,-5.082890033721924,-10.002974510192871
1776038160131043000,-1522127.7739570313,5.288791656494141,-4.817133903503418,-10.182539939880371
1776038160141083400,-1522127.7639165039,4.908113479614258,-4.501099109649658,-10.323798179626465
1776038160151184600,-1522127.7538154298,4.639962673187256,-4.299986362457275,-10.287884712219238
1776038160171326200,-1522127.7336738282,4.2544965744018555,-4.048594951629639,-10.268731117248535
1776038160181366500,-1522127.723633545,4.120420932769775,-3.9887399673461914,-10.33098030090332
1776038160191468000,-1522127.7135319824,4.129997730255127,-4.050989151000977,-10.405200958251953
1776038160201538800,-1522127.7034611816,4.228160381317139,-4.098873138427734,-10.350133895874023
1776038160211609600,-1522127.6933903808,4.256890773773193,-4.144362926483154,-10.163386344909668
1776038160221650000,-1522127.6833500976,4.4077253341674805,-4.417302131652832,-10.342951774597168
1776038160231751200,-1522127.6732487793,4.639962673187256,-4.733336925506592,-10.730812072753906
1776038160241822000,-1522127.6631779785,4.838681697845459,-5.149928092956543,-11.396400451660156
1776038160251923200,-1522127.6530769044,5.032611846923828,-5.540182590484619,-11.8441162109375
1776038160272034300,-1522127.6329655761,5.3342814445495605,-5.770026206970215,-11.616666793823242
1776038160282044200,-1522127.6229558105,5.097255229949951,-5.846640586853027,-11.133037567138672
1776038160292084500,-1522127.6129155273,4.733336925506592,-5.971138954162598,-10.6709566116333
1776038160302094000,-1522127.602906006,4.168305397033691,-6.167463779449463,-10.350133895874023
1776038160312195300,-1522127.5928046876,3.598485231399536,-6.313509941101074,-10.163386344909668
1776038160322266400,-1522127.5827336425,3.0573954582214355,-6.428431510925293,-10.160991668701172
1776038160332367600,-1522127.5726323242,2.7964274883270264,-6.291962146759033,-10.307038307189941
1776038160342408000,-1522127.562592041,2.6384103298187256,-6.189011573791504,-10.6925048828125
1776038160352478700,-1522127.5525212402,2.604891538619995,-6.119579315185547,-11.046846389770508
1776038160362488300,-1522127.5425117188,2.5258827209472656,-6.189011573791504,-11.27190113067627
1776038160372589800,-1522127.5324101562,2.410961151123047,-6.124367713928223,-11.465831756591797
1776038160382630100,-1522127.522369873,2.2601263523101807,-6.052541732788086,-11.499350547790527
1776038160392701000,-1522127.5122990722,1.9536685943603516,-5.882553577423096,-11.51850414276123
1776038160402771700,-1522127.5022282714,1.699883222579956,-5.652710437774658,-11.614272117614746
1776038160412842500,-1522127.4921574707,1.359906554222107,-5.070919036865234,-11.51850414276123
1776038160422913300,-1522127.48208667,1.1803414821624756,-4.577713489532471,-11.353304862976074
1776038160432984000,-1522127.472015869,1.0678139925003052,-4.132391929626465,-11.12346076965332
1776038160443024400,-1522127.461975586,0.9265560507774353,-3.869029998779297,-10.714052200317383
1776038160453095200,-1522127.4519047851,0.9265560507774353,-3.869029998779297,-10.714052200317383
1776038160473206300,-1522127.4317937011,0.7445967197418213,-3.428496837615967,-9.986215591430664
1776038160483277000,-1522127.4217229004,0.5913678407669067,-3.335123062133789,-9.569623947143555
1776038160493347800,-1522127.4116520996,0.5434837937355042,-3.246537446975708,-9.102754592895508
1776038160503357400,-1522127.4016425782,0.42856210470199585,-3.2632968425750732,-8.671798706054688
1776038160513459000,-1522127.3915410156,0.2801215946674347,-3.224989652633667,-8.33182144165039
1776038160523529700,-1522127.3814702148,0.181959331035614,-3.313575267791748,-7.994239330291748
1776038160533631000,-1522127.3713691407,0.009576806798577309,-3.2992098331451416,-7.771578788757324
1776038160543701800,-1522127.36129834,-0.2059013396501541,-3.3638534545898438,-7.608773231506348
1776038160573944800,-1522127.3310551757,-0.5410895943641663,-3.4404678344726562,-6.938396453857422
1776038160584015600,-1522127.320984375,-0.4357447028160095,-3.4548330307006836,-6.773196697235107
1776038160594086400,-1522127.3109135742,-0.35434186458587646,-3.4356794357299805,-6.564900875091553
1776038160604157200,-1522127.3008427734,-0.3232172429561615,-3.3877954483032227,-6.392518520355225
1776038160614258400,-1522127.290741455,-0.17477671802043915,-3.4165258407592773,-6.1985883712768555
1776038160624298800,-1522127.2807011718,-0.05027823522686958,-3.3303346633911133,-6.1315507888793945
1776038160634400000,-1522127.2706000977,-0.05506663769483566,-3.157952070236206,-6.035782337188721
1776038160644470800,-1522127.260529297,0.009576806798577309,-3.0550012588500977,-5.918466567993164
1776038160654572000,-1522127.2504279786,-0.0454898327589035,-2.9161376953125,-5.875370979309082
1776038160664582000,-1522127.240418213,-0.10295066982507706,-2.7078421115875244,-5.722142219543457
1776038160674683100,-1522127.2303168946,-0.19632454216480255,-2.6647465229034424,-5.556941986083984
1776038160684754000,-1522127.2202460938,-0.27054479718208313,-2.5115175247192383,-5.4659624099731445
1776038160694825000,-1522127.2101750488,-0.2992752194404602,-2.4636335372924805,-5.427655220031738
1776038160704865000,-1522127.2001350098,0.24420857429504395,-2.3942017555236816,-5.4013190269470215
1776038160714935800,-1522127.190064209,0.7110779285430908,-2.4612393379211426,-5.530605792999268
1776038160725006800,-1522127.179993164,1.039083480834961,-2.43011474609375,-5.700594425201416
1776038160735077600,-1522127.1699223632,1.414973258972168,-2.3965959548950195,-5.920860767364502
1776038160745117700,-1522127.1598823243,1.50355863571167,-2.3750481605529785,-6.0836663246154785
1776038160765198300,-1522127.1398017579,1.7046716213226318,-2.5785553455352783,-6.617573261260986
1776038160775269000,-1522127.129730957,1.968033790588379,-2.82515811920166,-7.072471618652344
1776038160785309400,-1522127.119690674,2.1380221843719482,-2.956839084625244,-7.496245384216309
1776038160795410700,-1522127.1095893555,2.5474305152893066,-2.956839084625244,-8.101978302001953
1776038160805451000,-1522127.0995490723,3.0526070594787598,-3.2106244564056396,-8.674192428588867
1776038160815552300,-1522127.089447754,3.4524388313293457,-3.581725835800171,-9.287108421325684
1776038160825623300,-1522127.079376709,3.641580820083618,-3.7636849880218506,-9.950302124023438
1776038160835694000,-1522127.0693059082,3.8283286094665527,-4.041412353515625,-10.931924819946289
1776038160845734100,-1522127.0592658692,3.845088005065918,-4.165910720825195,-12.02846908569336
1776038160875946800,-1522127.0290532226,4.271255970001221,-6.809109687805176,-15.444994926452637
1776038160885987000,-1522127.0190129394,4.378994941711426,-7.5201873779296875,-15.43062973022461
1776038160896057900,-1522127.0089421386,5.137956619262695,-7.51779317855835,-14.669273376464844
1776038160906098000,-1522126.9989020997,5.6670756340026855,-7.137115478515625,-13.57512378692627
1776038160916169000,-1522126.9888310547,6.4834980964660645,-6.4834980964660645,-12.737153053283691
1776038160926209000,-1522126.9787910157,7.1921820640563965,-5.473145008087158,-12.09311294555664
1776038160936279800,-1522126.968720215,7.230489253997803,-4.575319290161133,-11.63342571258545
1776038160946350800,-1522126.95864917,7.117961883544922,-3.5913026332855225,-11.099518775939941
1776038160986664400,-1522126.9183354492,4.213795185089111,0.47405192255973816,-11.417947769165039
1776038160996735200,-1522126.9082646484,3.6966474056243896,0.6536170840263367,-11.628637313842773
1776038161006806000,-1522126.8981940919,3.093308687210083,0.6871358752250671,-11.54005241394043
1776038161016907300,-1522126.8880927735,2.6862943172454834,0.6631938815116882,-11.3269681930542
1776038161026947600,-1522126.8780524903,2.406172752380371,0.5554547905921936,-11.003750801086426
1776038161037049000,-1522126.8679509277,2.2888567447662354,0.26575639843940735,-10.6709566116333
1776038161047058700,-1522126.8579414063,2.126051187515259,-0.05027823522686958,-10.3549222946167
1776038161057129500,-1522126.8478706055,1.9153614044189453,-0.49320554733276367,-9.995792388916016
1776038161067200300,-1522126.8377998048,1.824381709098816,-1.3024457693099976,-9.797073364257812
1776038161097351700,-1522126.8076484376,1.2330138683319092,-4.474762916564941,-8.391676902770996
1776038161107392000,-1522126.7976079101,0.9959878921508789,-5.48272180557251,-7.690176010131836
1776038161117462800,-1522126.7875371093,0.6919242739677429,-6.423643112182617,-7.086836814880371
1776038161127472600,-1522126.7775273437,0.5219359993934631,-7.201758861541748,-6.524199485778809
1776038161137543400,-1522126.767456543,0.3232172429561615,-7.493851184844971,-6.050147533416748
1776038161147583700,-1522126.7574162597,0.14365209639072418,-7.501033782958984,-5.781997203826904
1776038161157685000,-1522126.7473149414,-0.021547814831137657,-7.252037048339844,-5.542576789855957
1776038161167755800,-1522126.7372441406,-0.043095629662275314,-6.888118267059326,-5.348646640777588
1776038161197968100,-1522126.7070319825,0.47644615173339844,-6.933608055114746,-5.2049946784973145
1776038161208008400,-1522126.696991455,0.6105214357376099,-6.538564682006836,-5.284003257751465
1776038161218079200,-1522126.6869206543,0.8475474119186401,-6.0836663246154785,-5.430049419403076
1776038161228150000,-1522126.6768500977,1.115697979927063,-5.588066577911377,-5.652710437774658
1776038161238190300,-1522126.6668095703,1.3646949529647827,-5.173870086669922,-5.851428985595703
1776038161248200200,-1522126.6567998047,1.4437036514282227,-4.953603267669678,-6.028599739074707
1776038161258301400,-1522126.6466984863,1.6136919260025024,-5.013458251953125,-6.117185115814209
1776038161268341800,-1522126.636658203,1.7836803197860718,-5.020640850067139,-6.335057735443115
1776038161308533200,-1522126.596466797,1.9967641830444336,-5.6191911697387695,-8.226476669311523
1776038161318634800,-1522126.5863652343,2.2457611560821533,-5.872976779937744,-8.480262756347656
1776038161328674800,-1522126.5763251954,2.693476915359497,-6.129156112670898,-8.523358345031738
1776038161338776300,-1522126.5662236328,3.361459255218506,-6.3973069190979,-8.851364135742188
1776038161348877600,-1522126.5561223144,3.971980571746826,-6.361393928527832,-9.129091262817383
1776038161358978800,-1522126.5460212403,4.323928356170654,-6.354211330413818,-9.500192642211914
1776038161368988700,-1522126.5360112304,4.185064792633057,-6.1530985832214355,-9.940725326538086
1776038161389099800,-1522126.5159001464,3.8163576126098633,-6.234501361846924,-10.706870079040527
1776038161399170600,-1522126.5058293457,3.9647979736328125,-6.184223175048828,-11.025299072265625
1776038161409241300,-1522126.495758545,4.697423934936523,-6.308721542358398,-11.21444034576416
1776038161419342600,-1522126.4856574708,4.912901878356934,-6.19379997253418,-11.343728065490723
1776038161429444000,-1522126.4755559082,5.078101634979248,-5.825092792510986,-11.532869338989258
1776038161439515000,-1522126.4654851074,5.403713226318359,-5.492298603057861,-11.63103199005127
1776038161449585700,-1522126.4554143066,5.104437828063965,-4.874594688415527,-11.683704376220703
1776038161459626000,-1522126.4453740234,4.843470096588135,-4.235342979431152,-11.616666793823242
1776038161469727200,-1522126.435272705,4.687847137451172,-3.9193081855773926,-11.654973983764648
1776038161479828500,-1522126.425171631,4.829104900360107,-3.818751811981201,-11.729193687438965
1776038161499939600,-1522126.4050603027,5.281609058380127,-4.680664539337158,-12.006921768188477
1776038161510040800,-1522126.3949592286,5.657498836517334,-5.171475887298584,-11.944672584533691
1776038161520111600,-1522126.3848884278,5.839457988739014,-5.602431774139404,-11.745953559875488
1776038161530182400,-1522126.374817627,5.791574001312256,-5.937620162963867,-11.389217376708984
1776038161540253200,-1522126.3647468262,5.451597213745117,-6.0405707359313965,-10.860098838806152
1776038161550324200,-1522126.3546757812,4.793191909790039,-5.944802761077881,-10.44350814819336
1776038161560395000,-1522126.3446049804,4.106055736541748,-5.801150798797607,-10.06043529510498
1776038161570465800,-1522126.3345341797,3.464409828186035,-5.635950565338135,-10.098742485046387
1776038161600647700,-1522126.304352295,2.492363929748535,-5.48272180557251,-11.243170738220215
1776038161610657300,-1522126.2943427735,2.315192937850952,-5.4252610206604,-11.456254959106445
1776038161620697600,-1522126.2843024903,2.188300371170044,-5.310339450836182,-11.568782806396484
1776038161630798800,-1522126.274201172,1.8411411046981812,-5.2696380615234375,-11.571176528930664
1776038161640870000,-1522126.264130127,1.4197616577148438,-5.243301868438721,-11.66455078125
1776038161650910000,-1522126.254090088,1.0342950820922852,-5.1595048904418945,-11.731588363647461
1776038161660950300,-1522126.2440498048,0.7254431247711182,-4.922478675842285,-11.724405288696289
1776038161671051800,-1522126.2339482422,0.4884171485900879,-4.592078685760498,-11.671732902526855
1776038161691193300,-1522126.2138066406,0.3256114423274994,-4.067748546600342,-10.99656867980957
1776038161701233400,-1522126.2037666016,0.24660277366638184,-3.821146011352539,-10.558429718017578
1776038161711304400,-1522126.1936955566,0.24420857429504395,-3.7876269817352295,-9.983820915222168
1776038161721375200,-1522126.1836247558,0.26096799969673157,-3.555389642715454,-9.397241592407227
1776038161731384800,-1522126.1736152344,0.26096799969673157,-3.4524388313293457,-8.860940933227539
1776038161741425200,-1522126.1635749512,0.23702596127986908,-3.4356794357299805,-8.274360656738281
1776038161751496000,-1522126.1535041505,0.15083470940589905,-3.4189200401306152,-7.857769966125488
1776038161761566700,-1522126.1434333497,0.002394201699644327,-3.4189200401306152,-7.501033782958984
1776038161771637500,-1522126.133362549,-0.009576806798577309,-3.4356794357299805,-7.280767440795898
1776038161801819400,-1522126.1031806641,-0.4668693244457245,-3.423708438873291,-6.742072105407715
1776038161811890200,-1522126.0931098633,-0.6560112833976746,-3.3949780464172363,-6.581660270690918
1776038161821991700,-1522126.0830083007,-0.7350199222564697,-3.399766445159912,-6.414066314697266
1776038161832062500,-1522126.0729375,-0.8523358106613159,-3.354276657104492,-6.174646377563477
1776038161842163700,-1522126.0628361816,-0.9097966551780701,-3.3231520652770996,-6.081272125244141
1776038161852234500,-1522126.052765625,-0.8858546018600464,-3.2992098331451416,-6.172252178192139
1776038161862305300,-1522126.0426948243,-0.8762778043746948,-3.1268274784088135,-6.1530985832214355
1776038161872376000,-1522126.0326240235,-0.8355764150619507,-3.0573954582214355,-6.224924564361572
1776038161892517600,-1522126.012482422,-0.47884035110473633,-3.021482467651367,-6.2392897605896
1776038161902588400,-1522126.0024116212,0.009576806798577309,-2.9472622871398926,-6.366182327270508
1776038161912628700,-1522125.992371338,0.3687070608139038,-3.002328872680664,-6.344634532928467
1776038161922699500,-1522125.9823005372,0.5961562395095825,-2.9879636764526367,-6.36378812789917
1776038161932739800,-1522125.972260254,0.5746083855628967,-2.920926094055176,-6.493074893951416
1776038161942780200,-1522125.9622197265,0.5746083855628967,-2.920926094055176,-6.493074893951416
1776038161952851000,-1522125.95214917,0.5051765441894531,-2.983175277709961,-6.521805286407471
1776038161962952200,-1522125.9420478516,0.5746083855628967,-2.851494312286377,-6.694188117980957
1776038161973023000,-1522125.9319770508,0.9145850539207458,-2.985569477081299,-7.005434036254883
1776038161983093800,-1522125.92190625,1.2641384601593018,-3.1890766620635986,-7.230489253997803
1776038162003235600,-1522125.9017644043,1.9823989868164062,-3.5936968326568604,-7.620744228363037
1776038162013275600,-1522125.8917243653,2.0925323963165283,-3.5697548389434814,-7.9631147384643555
1776038162023316000,-1522125.881684082,2.185906171798706,-3.646369218826294,-8.279149055480957
1776038162033356300,-1522125.871643799,2.140416383743286,-3.799597978591919,-8.640673637390137
1776038162043427000,-1522125.861572998,2.229001760482788,-3.9217023849487305,-8.841787338256836
1776038162053497900,-1522125.8515021973,2.4660277366638184,-3.971980571746826,-9.050082206726074
1776038162063599400,-1522125.8414006347,3.0142998695373535,-4.043806552886963,-9.32302188873291
1776038162073670100,-1522125.831329834,3.8139634132385254,-4.410119533538818,-10.034099578857422
1776038162083741000,-1522125.8212590332,4.036623954772949,-4.616020679473877,-10.826580047607422
1776038162113922800,-1522125.7910771484,3.0621838569641113,-4.7405195236206055,-13.409923553466797
1776038162123993600,-1522125.7810063476,3.021482467651367,-4.733336925506592,-13.869610786437988
1776038162134003200,-1522125.7709968262,3.1890766620635986,-5.0876784324646,-13.84566879272461
1776038162144104700,-1522125.7608952636,3.9384617805480957,-5.710171222686768,-13.716381072998047
1776038162154175500,-1522125.7508244629,4.570530891418457,-6.279991149902344,-12.981361389160156
1776038162164276700,-1522125.7407231445,4.929661273956299,-6.279991149902344,-11.908759117126465
1776038162174317000,-1522125.7306828613,5.03021764755249,-5.8442463874816895,-11.015722274780273
1776038162184418300,-1522125.7205817872,4.525041103363037,-5.0469770431518555,-10.45547866821289
1776038162224610000,-1522125.6803898925,2.300827741622925,-2.0183119773864746,-10.833763122558594
1776038162234680800,-1522125.6703190918,1.8746598958969116,-1.577778935432434,-10.986991882324219
1776038162244751600,-1522125.660248291,1.7860745191574097,-1.216254472732544,-10.948684692382812
1776038162254822400,-1522125.6501774902,1.659181833267212,-1.335964560508728,-10.864887237548828
1776038162264862700,-1522125.640137207,1.6759412288665771,-1.9847931861877441,-10.524910926818848
1776038162274933500,-1522125.6300664062,1.6519991159439087,-2.3989901542663574,-10.213664054870605
1776038162285034800,-1522125.619965332,1.5394717454910278,-2.7126305103302,-9.8784761428833
1776038162295105500,-1522125.6098945313,1.5705963373184204,-2.9759926795959473,-9.411606788635254
1776038162325318000,-1522125.579682129,1.9847931861877441,-4.381389141082764,-8.097189903259277
1776038162335389000,-1522125.569611084,1.9800047874450684,-4.78122091293335,-7.908048152923584
1776038162345459700,-1522125.5595402832,1.886630892753601,-4.836287498474121,-7.785943984985352
1776038162355530500,-1522125.5494694824,1.6711528301239014,-4.867412090301514,-7.682993412017822
1776038162365601300,-1522125.5393986816,1.721431016921997,-5.070919036865234,-7.718906402587891
1776038162375672000,-1522125.5293278808,1.4676456451416016,-5.245696067810059,-7.805097579956055
1776038162385773300,-1522125.5192268067,1.4915876388549805,-5.30076265335083,-7.82185697555542
1776038162415985700,-1522125.4890144044,1.3646949529647827,-4.273650169372559,-7.5417351722717285
1776038162436035800,-1522125.4689641113,1.4628572463989258,-4.757278919219971,-7.582436561584473
1776038162446137000,-1522125.458862793,1.5705963373184204,-4.812345504760742,-7.812280178070068
1776038162456208000,-1522125.4487922364,1.5442601442337036,-5.12119722366333,-8.022970199584961
1776038162466278700,-1522125.4387214356,1.5442601442337036,-5.082890033721924,-7.999027729034424
1776038162476349400,-1522125.4286506348,1.4197616577148438,-4.802768707275391,-7.95832633972168
1776038162486420200,-1522125.418579834,1.3766659498214722,-4.7620673179626465,-7.910442352294922
1776038162496491000,-1522125.4085090333,1.479616641998291,-4.608838081359863,-7.989450931549072
1776038162526703600,-1522125.3782963867,1.1252747774124146,-4.261679172515869,-8.40843677520752
1776038162546845200,-1522125.3581547851,1.3048399686813354,-3.9432501792907715,-8.75080680847168
1776038162556916000,-1522125.3480839843,1.525106430053711,-3.799597978591919,-8.791508674621582
1776038162567017200,-1522125.337982666,1.8602946996688843,-3.533841609954834,-8.789113998413086
1776038162577088000,-1522125.3279121094,2.169146776199341,-3.4117374420166016,-8.65982723236084
1776038162587189200,-1522125.317810791,2.5929205417633057,-3.49314022064209,-8.686163902282715
1776038162597260000,-1522125.3077399903,2.9065608978271484,-3.5170822143554688,-8.875306129455566
1776038162607331000,-1522125.2976689453,3.2776620388031006,-3.49314022064209,-9.10993766784668
1776038162627411500,-1522125.277588623,3.7900211811065674,-3.490746021270752,-9.41400146484375
1776038162637451800,-1522125.26754834,4.048594951629639,-3.6343982219696045,-9.62947940826416
1776038162647553000,-1522125.2574470215,4.271255970001221,-3.9695863723754883,-9.854534149169922
1776038162657623800,-1522125.2473762208,4.666299343109131,-4.259284973144531,-10.134655952453613
1776038162667694600,-1522125.23730542,5.0469770431518555,-4.309563159942627,-10.54645824432373
1776038162677765600,-1522125.227234375,5.638344764709473,-4.1874589920043945,-11.010933876037598
1776038162687805700,-1522125.217194336,5.805939197540283,-3.804386615753174,-11.377246856689453
1776038162697815600,-1522125.2071843261,5.552153587341309,-3.5721490383148193,-11.676521301269531
1776038162707916800,-1522125.197083252,5.276820659637451,-3.3231520652770996,-11.865663528442383
1776038162748200200,-1522125.1567998047,5.286397457122803,-4.3861775398254395,-11.801020622253418
1776038162768341800,-1522125.136658203,5.279214859008789,-5.408501625061035,-12.583924293518066
1776038162778443000,-1522125.1265568847,5.183446884155273,-5.758055210113525,-12.864046096801758
1776038162788513800,-1522125.1164863282,5.183446884155273,-5.894524574279785,-12.947842597961426
1776038162798584600,-1522125.1064155274,5.070919036865234,-6.009446144104004,-12.6150484085083
1776038162808655400,-1522125.0963447266,4.728548526763916,-5.882553577423096,-11.836933135986328
1776038162828766500,-1522125.0762336426,4.017470359802246,-5.552153587341309,-10.409989356994629
1776038162838745900,-1522125.0662541504,3.6846764087677,-5.420472621917725,-10.244789123535156
1776038162848816600,-1522125.0561833496,3.3638534545898438,-5.339069843292236,-10.261548042297363
1776038162858856700,-1522125.0461433106,3.3063924312591553,-5.154716491699219,-10.508151054382324
1776038162868958200,-1522125.036041748,3.1675288677215576,-4.99669885635376,-10.99656867980957
1776038162879029000,-1522125.0259709472,3.114856481552124,-4.843470096588135,-11.487380027770996
1776038162889099800,-1522125.0159001464,3.0789434909820557,-4.618414878845215,-11.717223167419434
1776038162899140000,-1522125.0058598632,2.999934673309326,-4.503493309020996,-11.920730590820312
1776038162909211000,-1522124.9957890625,2.9496564865112305,-4.412513732910156,-11.99255657196045
1776038162959534300,-1522124.9454655761,1.9967641830444336,-3.5673606395721436,-11.238382339477539
1776038162969635600,-1522124.935364502,1.800439715385437,-3.665522813796997,-10.912771224975586
1776038162979676000,-1522124.9253239746,1.4915876388549805,-3.8139634132385254,-10.632649421691895
1776038162989777200,-1522124.9152229005,1.194706678390503,-3.8283286094665527,-10.366893768310547
1776038162999817500,-1522124.9051826173,0.9720458984375,-4.055777549743652,-10.08437728881836
1776038163009857800,-1522124.8951420898,0.7230489253997803,-3.957615375518799,-9.761159896850586
1776038163019867600,-1522124.8851323242,0.40701428055763245,-3.976768970489502,-9.497797966003418
1776038163040009200,-1522124.8649907226,-0.1412578970193863,-4.314351558685303,-9.239224433898926
1776038163050080000,-1522124.8549199218,-0.44771572947502136,-4.4723687171936035,-9.07641887664795
1776038163060089900,-1522124.8449101562,-0.7326257228851318,-4.400542736053467,-8.779537200927734
1776038163070191000,-1522124.8348088379,-0.9864110946655273,-4.290409564971924,-8.712499618530273
1776038163080262000,-1522124.824738037,-1.1875240802764893,-4.055777549743652,-8.588001251220703
1776038163090363100,-1522124.814636963,-1.2449848651885986,-3.9001545906066895,-8.49941635131836
1776038163100403500,-1522124.8045964355,-1.357512354850769,-3.794809579849243,-8.35336971282959
1776038163110504700,-1522124.7944953614,-1.2952631711959839,-3.758896589279175,-8.243236541748047
1776038163120545000,-1522124.7844550782,-1.335964560508728,-3.5913026332855225,-8.176198959350586
1776038163130615800,-1522124.7743842774,-1.3623007535934448,-3.3662476539611816,-7.994239330291748
1776038163150757400,-1522124.7542426758,-1.235408067703247,-3.24414324760437,-7.752425193786621
1776038163160828200,-1522124.744171875,-1.1971008777618408,-3.138798475265503,-7.4770917892456055
1776038163170929700,-1522124.7340703125,-1.0534487962722778,-3.090914487838745,-7.340622425079346
1776038163180939300,-1522124.724060791,-1.1971008777618408,-3.026270866394043,-7.287950038909912
1776038163191040800,-1522124.7139592285,-1.2425906658172607,-3.0142998695373535,-7.122750282287598
1776038163201080800,-1522124.7039191895,-1.1635819673538208,-3.19865345954895,-6.998251438140869
1776038163211152000,-1522124.6938481445,-0.9911994934082031,-3.2537200450897217,-6.823474884033203
1776038163221161500,-1522124.683838623,-0.7182605266571045,-3.3494882583618164,-6.607996463775635
1776038163241272600,-1522124.6637275391,-0.3208230137825012,-3.4524388313293457,-6.358999729156494
1776038163261383700,-1522124.643616211,0.2322375625371933,-3.24414324760437,-6.387730121612549
1776038163271485000,-1522124.6335151368,0.5171475410461426,-3.270479440689087,-6.615179061889648
1776038163281555700,-1522124.623444336,0.7158663272857666,-3.3925838470458984,-6.811503887176514
1776038163291626500,-1522124.6133735352,0.7565677165985107,-3.375824451446533,-6.950367450714111
1776038163301697300,-1522124.6033027344,0.7852981686592102,-3.3518824577331543,-7.050923824310303
1776038163311768300,-1522124.5932316894,0.8307880163192749,-3.40216064453125,-7.108384609222412
1776038163321839000,-1522124.5831608886,0.993593692779541,-3.4763808250427246,-7.295132637023926
1776038163331940400,-1522124.5730595703,1.335964560508728,-3.823540210723877,-7.453149795532227
1776038163362152700,-1522124.5428474122,3.5434184074401855,-5.1116204261779785,-9.246406555175781
1776038163382324700,-1522124.522675293,3.471592426300049,-4.987122058868408,-10.642226219177246
1776038163392426200,-1522124.5125737304,3.227383852005005,-4.72376012802124,-11.252747535705566
1776038163402497000,-1522124.5025029297,3.098097085952759,-4.546588897705078,-11.8225679397583
1776038163412567800,-1522124.4924321289,2.8802247047424316,-4.659116744995117,-12.526463508605957
1776038163422638600,-1522124.482361328,2.82515811920166,-5.2911858558654785,-12.823344230651855
1776038163432709400,-1522124.4722905273,2.913743495941162,-5.398924827575684,-12.734758377075195
1776038163442780200,-1522124.4622197265,3.0885202884674072,-5.331887245178223,-12.179304122924805
1776038163452820500,-1522124.4521794433,3.0885202884674072,-5.331887245178223,-12.179304122924805
1776038163462830300,-1522124.4421696777,2.9520506858825684,-5.549759387969971,-11.267112731933594
1776038163472901000,-1522124.432098877,3.114856481552124,-6.023811340332031,-10.524910926818848
1776038163482972000,-1522124.4220280761,3.0095114707946777,-6.449979305267334,-10.108319282531738
1776038163493042700,-1522124.4119572754,2.849100112915039,-6.703764915466309,-9.80904483795166
1776038163503021800,-1522124.4019782715,2.786850690841675,-6.92881965637207,-9.526528358459473
1776038163513123000,-1522124.3918769532,2.6575639247894287,-6.797138690948486,-9.327810287475586
1776038163523193900,-1522124.3818061524,2.5067291259765625,-6.528987884521484,-9.308655738830566
1776038163563355100,-1522124.3416447754,2.0470423698425293,-5.592854976654053,-10.0580415725708
1776038163573426000,-1522124.3315739746,1.9321208000183105,-5.281609058380127,-10.053253173828125
1776038163583466200,-1522124.3215336914,1.8363527059555054,-4.874594688415527,-9.885659217834473
1776038163593537000,-1522124.3114628906,1.702277421951294,-4.551377296447754,-9.66539192199707
1776038163603607800,-1522124.3013920898,1.7501614093780518,-4.4723687171936035,-9.481039047241211
1776038163613678600,-1522124.291321289,1.5418659448623657,-4.441244125366211,-9.222464561462402
1776038163623688400,-1522124.2813115234,1.3742717504501343,-4.405331134796143,-8.908824920654297
1776038163633698000,-1522124.271302002,1.1516109704971313,-4.153939723968506,-8.556877136230469
1776038163663849500,-1522124.2411506348,0.2537853717803955,-4.165910720825195,-7.079654216766357
1776038163673950700,-1522124.2310493165,0.07661445438861847,-4.443638324737549,-6.8809356689453125
1776038163684021500,-1522124.2209785157,0.0071826050989329815,-4.587290287017822,-6.8043212890625
1776038163694092500,-1522124.2109074707,-0.026336219161748886,-4.8722004890441895,-6.763619899749756
1776038163704163300,-1522124.20083667,0.09816227108240128,-4.994304656982422,-6.710947513580322
1776038163714264600,-1522124.1907353515,0.26336219906806946,-5.2265424728393555,-6.677428722381592
1776038163724305000,-1522124.1806950683,0.4620809257030487,-5.442020416259766,-6.615179061889648
1776038163734406100,-1522124.17059375,0.8595184087753296,-5.571307182312012,-6.6630635261535645
1776038163744446500,-1522124.1605534668,1.1468225717544556,-5.7772088050842285,-6.746860504150391
1776038163774598000,-1522124.1304020996,1.8195933103561401,-6.162675380706787,-7.158663272857666
1776038163784638000,-1522124.1203620606,2.0207061767578125,-6.356605529785156,-7.457938194274902
1776038163794739500,-1522124.110260498,2.27209734916687,-6.380547523498535,-7.733271598815918
1776038163804810200,-1522124.1001896972,2.1811177730560303,-6.256049156188965,-8.037335395812988
1776038163814881000,-1522124.0901188964,2.183511972427368,-6.124367713928223,-8.128314971923828
1776038163824921300,-1522124.0800786132,2.0231003761291504,-5.944802761077881,-8.14028549194336
1776038163835022600,-1522124.069977295,1.8555063009262085,-5.724536418914795,-8.135497093200684
1776038163845093400,-1522124.0599067383,1.8052281141281128,-5.652710437774658,-8.271966934204102
1776038163855164200,-1522124.0498359376,1.742978811264038,-5.480327606201172,-8.485051155090332
1776038163885376500,-1522124.0196235352,2.3343467712402344,-5.626373767852783,-8.851364135742188
1776038163895447300,-1522124.0095527344,2.559401512145996,-5.647922039031982,-8.882488250732422
1776038163905487600,-1522123.9995124512,2.580949544906616,-5.681440830230713,-8.920795440673828
1776038163915528000,-1522123.989472168,2.829946517944336,-5.7556610107421875,-8.987833023071289
1776038163925598700,-1522123.9794013673,3.1483752727508545,-5.925649166107178,-9.050082206726074
1776038163935700000,-1522123.969300049,3.5721490383148193,-5.815515995025635,-9.078812599182129
1776038163945740300,-1522123.9592597657,4.32871675491333,-5.7341132164001465,-9.258378028869629
1776038163975983400,-1522123.9290166015,5.233725070953369,-4.474762916564941,-9.093177795410156
1776038163986023700,-1522123.9189763183,5.063736438751221,-4.039018154144287,-9.023746490478516
1776038163996125000,-1522123.908875,5.125985622406006,-3.778050184249878,-9.11233139038086
1776038164006134800,-1522123.8988652343,5.161899089813232,-3.6535518169403076,-9.224859237670898
1776038164016236000,-1522123.888763916,5.48272180557251,-3.531447410583496,-9.497797966003418
1776038164026306800,-1522123.8786931152,5.566518783569336,-3.751713991165161,-9.734824180603027
1776038164036408000,-1522123.868592041,5.659893035888672,-4.393360137939453,-9.952696800231934
1776038164046418000,-1522123.8585820312,5.578489780426025,-5.018246650695801,-10.079588890075684
1776038164056519200,-1522123.8484807129,5.640739440917969,-5.2672438621521,-10.125079154968262
1776038164086701000,-1522123.818298828,4.752490520477295,-6.6630635261535645,-11.168951034545898
1776038164096771800,-1522123.8082282715,4.352658748626709,-7.204153060913086,-11.815385818481445
1776038164106842600,-1522123.7981574708,4.060565948486328,-7.723694801330566,-12.51209831237793
1776038164116883000,-1522123.7881169433,3.9240965843200684,-8.152256965637207,-13.129801750183105
1776038164126953700,-1522123.7780463868,3.801992416381836,-8.341399192810059,-13.330915451049805
1776038164137024500,-1522123.767975586,3.7397429943084717,-8.279149055480957,-13.220781326293945
1776038164147064800,-1522123.7579350586,3.3207578659057617,-7.953537940979004,-12.662932395935059
1776038164157135600,-1522123.747864502,2.827552318572998,-7.457938194274902,-11.932701110839844
1776038164217529900,-1522123.687470215,1.015141487121582,-5.738901615142822,-12.136208534240723
1776038164227600600,-1522123.6773994141,0.993593692779541,-5.389348030090332,-12.2990140914917
1776038164237671400,-1522123.6673286133,0.9433154463768005,-5.154716491699219,-12.445060729980469
1776038164247742200,-1522123.6572578126,0.9409212470054626,-5.073313236236572,-12.459425926208496
1776038164257813200,-1522123.6471867675,0.8259995579719543,-5.109226226806641,-12.349292755126953
1776038164267853300,-1522123.6371467286,0.6057330369949341,-5.288791656494141,-12.224793434143066
1776038164287934000,-1522123.6170661622,-0.16519992053508759,-5.602431774139404,-11.858481407165527
1776038164297974300,-1522123.6070256347,-0.5339069962501526,-5.612008571624756,-11.4849853515625
1776038164308045000,-1522123.596954834,-0.8331822156906128,-5.264849662780762,-11.101913452148438
1776038164318055000,-1522123.5869450683,-1.0342950820922852,-4.910507678985596,-10.666168212890625
1776038164328095200,-1522123.5769047851,-1.1827356815338135,-4.656722068786621,-10.137049674987793
1776038164338196500,-1522123.5668034668,-1.256955862045288,-4.266467571258545,-9.732429504394531
1776038164348267300,-1522123.556732666,-1.278503656387329,-3.8762125968933105,-9.363722801208496
1776038164358277000,-1522123.5467229004,-1.4245500564575195,-3.825934410095215,-8.923190116882324
1776038164368317200,-1522123.5366828614,-1.3862427473068237,-3.4835634231567383,-8.559270858764648
1776038164378388000,-1522123.5266120606,-1.3910311460494995,-3.4093432426452637,-8.26478385925293
1776038164408539400,-1522123.4964606934,-1.50355863571167,-3.426102638244629,-7.577648162841797
1776038164418610200,-1522123.4863898926,-1.3838485479354858,-3.3710360527038574,-7.376535415649414
1776038164428650500,-1522123.4763496094,-1.1348515748977661,-3.4835634231567383,-7.1706342697143555
1776038164438721300,-1522123.4662788087,-1.0414776802062988,-3.5170822143554688,-7.070077419281006
1776038164448700700,-1522123.4562993164,-0.8092401623725891,-3.5218706130981445,-7.022193431854248
1776038164458802000,-1522123.446197998,-0.8355764150619507,-3.509899616241455,-6.885724067687988
1776038164468872700,-1522123.4361271972,-0.9768342971801758,-3.3710360527038574,-6.821080684661865
1776038164478943500,-1522123.4260563964,-0.8020575642585754,-3.3518824577331543,-6.701370716094971
1776038164499115500,-1522123.4058845215,-0.2298433631658554,-3.794809579849243,-6.433219909667969
1776038164509217000,-1522123.395782959,-0.40462008118629456,-3.8379054069519043,-6.251260757446289
1776038164519318300,-1522123.3856816406,-0.768538773059845,-3.6367924213409424,-6.124367713928223
1776038164529389000,-1522123.3756108398,-0.9744400978088379,-3.426102638244629,-5.928043365478516
1776038164539429400,-1522123.3655705566,-0.9600749015808105,-3.308786630630493,-5.803544998168945
1776038164549530600,-1522123.3554694825,-0.8834604024887085,-3.2130186557769775,-5.693411827087402
1776038164559601400,-1522123.3453986817,-0.7158663272857666,-3.399766445159912,-5.626373767852783
1776038164569672200,-1522123.335327881,-0.45250412821769714,-3.7038300037384033,-5.626373767852783
1776038164579712500,-1522123.3252875977,-0.31124621629714966,-3.7038300037384033,-5.65031623840332
1776038164589783300,-1522123.315216797,-0.19632454216480255,-3.734954595565796,-5.635950565338135
1776038164619934700,-1522123.2850651855,0.6344634294509888,-3.758896589279175,-5.805939197540283
1776038164630036000,-1522123.2749641114,0.5841852426528931,-3.7397429943084717,-5.992686748504639
1776038164640106800,-1522123.2648933106,0.4836287498474121,-3.7684733867645264,-6.0836663246154785
1776038164650086100,-1522123.2549138183,0.5099649429321289,-3.8091750144958496,-6.3063273429870605
1776038164660157000,-1522123.2448430175,0.7110779285430908,-3.9384617805480957,-6.581660270690918
1776038164670258200,-1522123.2347419434,0.9481038451194763,-4.376600742340088,-6.9910688400268555
1776038164680329000,-1522123.2246711426,1.335964560508728,-4.699818134307861,-7.445967197418213
1776038164690308400,-1522123.2146916504,1.8052281141281128,-5.0254292488098145,-7.785943984985352
1776038164710419200,-1522123.1945808106,2.650381326675415,-5.114014625549316,-8.437167167663574
1776038164720520700,-1522123.184479248,2.734178304672241,-4.788403511047363,-8.918401718139648
1776038164730530300,-1522123.1744697266,2.5043349266052246,-4.240131378173828,-9.418789863586426
1776038164740540200,-1522123.164459961,2.051830768585205,-4.065354347229004,-9.873687744140625
1776038164750611000,-1522123.1543891602,1.6208745241165161,-4.225766181945801,-10.541669845581055
1776038164760651300,-1522123.1443486328,1.280897855758667,-4.213795185089111,-11.267112731933594
1776038164770691600,-1522123.1343083496,1.0630255937576294,-4.616020679473877,-12.200851440429688
1776038164780762400,-1522123.1242375488,1.4317326545715332,-5.353435039520264,-13.218387603759766
1776038164790863600,-1522123.1141364747,1.9967641830444336,-5.858611583709717,-14.12818431854248
1776038164800934400,-1522123.104065674,2.676717519760132,-6.576871871948242,-14.417882919311523
1776038164811005200,-1522123.093994873,3.404554843902588,-7.022193431854248,-14.022839546203613
1776038164831116300,-1522123.0738837891,4.46518611907959,-7.376535415649414,-12.279860496520996
1776038164841187000,-1522123.0638129883,4.46518611907959,-7.376535415649414,-12.279860496520996
1776038164851257900,-1522123.0537421876,4.620809078216553,-7.070077419281006,-11.57596492767334
1776038164861298200,-1522123.0437019044,4.620809078216553,-7.070077419281006,-10.893617630004883
1776038164871399400,-1522123.033600586,4.309563159942627,-6.66785192489624,-10.486603736877441
1776038164881501000,-1522123.0234990234,4.108449935913086,-6.124367713928223,-10.285490036010742
1776038164891571700,-1522123.0134282226,3.840299606323242,-5.394136428833008,-10.338163375854492
1776038164901642500,-1522123.0033574218,3.598485231399536,-4.546588897705078,-10.469843864440918
1776038164921814500,-1522122.983185547,3.201047658920288,-2.6575639247894287,-10.896012306213379
1776038164931885300,-1522122.9731147462,2.8826189041137695,-1.944091796875,-11.022904396057129
1776038164941986800,-1522122.9630131836,2.698265314102173,-1.6328455209732056,-11.085153579711914
1776038164952057600,-1522122.9529423828,2.7102363109588623,-1.4197616577148438,-11.152191162109375
1776038164962128400,-1522122.942871582,-0.11252748221158981,-0.002394201699644327,-11.135432243347168
1776038164972199200,-1522122.9328007812,1.3311761617660522,-1.889025092124939,-11.015722274780273
1776038164982239500,-1522122.922760498,4.599261283874512,-0.4357447028160095,-10.632649421691895
1776038164992310300,-1522122.9126896972,4.067748546600342,-0.4141969084739685,-10.63504409790039
1776038165002411500,-1522122.9025883789,1.7597382068634033,-3.028665065765381,-10.105925559997559
1776038165022553000,-1522122.8824470215,1.2665326595306396,-7.474697589874268,-8.56884765625
1776038165032623900,-1522122.8723762208,1.048660397529602,-7.522581577301025,-7.527369976043701
1776038165042694700,-1522122.86230542,0.790086567401886,-6.088454723358154,-6.9910688400268555
1776038165052704500,-1522122.8522954101,0.7134721279144287,-4.824316501617432,-6.864176273345947
1776038165062775300,-1522122.8422246093,0.871489405632019,-4.953603267669678,-7.0772600173950195
1776038165072815600,-1522122.8321843261,0.9433154463768005,-5.748478412628174,-7.194576263427734
1776038165082886400,-1522122.8221135254,0.9624691009521484,-6.701370716094971,-6.979097843170166
1776038165103028000,-1522122.8019719238,1.1444283723831177,-6.7492547035217285,-6.212953567504883
1776038165113068300,-1522122.7919316406,1.173158884048462,-6.232107162475586,-6.007051944732666
1776038165133209900,-1522122.771790039,1.2306196689605713,-5.568912982940674,-6.155492782592773
1776038165143280600,-1522122.7617192382,1.3263877630233765,-5.729324817657471,-6.332663536071777
1776038165153351400,-1522122.7516486817,1.381454348564148,-5.928043365478516,-6.497863292694092
1776038165163452700,-1522122.7415473633,1.5059528350830078,-6.100425720214844,-6.588842868804932
1776038165173493000,-1522122.7315070801,1.6663644313812256,-6.184223175048828,-6.926425457000732
1776038165183563800,-1522122.7214362794,1.824381709098816,-6.026205539703369,-7.144298076629639
1776038165193604000,-1522122.7113959962,2.030282974243164,-6.026205539703369,-7.398083209991455
1776038165203644400,-1522122.7013554687,2.75812029838562,-6.200982570648193,-7.773972988128662
1776038165213654300,-1522122.691345703,3.205836057662964,-6.200982570648193,-8.01339340209961
1776038165264038700,-1522122.6409614258,2.9735984802246094,-5.916072368621826,-8.061277389526367
1776038165274109400,-1522122.630890625,2.846705913543701,-5.717353820800781,-8.192957878112793
1776038165284180200,-1522122.6208198243,2.935291290283203,-5.722142219543457,-8.35336971282959
1776038165294251000,-1522122.6107490235,3.1699230670928955,-5.880159378051758,-8.564059257507324
1776038165304321800,-1522122.6006782227,3.5003228187561035,-6.124367713928223,-8.846575736999512
1776038165314331600,-1522122.590668457,3.928884983062744,-6.256049156188965,-9.102754592895508
1776038165324402400,-1522122.5805976563,4.333505153656006,-6.406883716583252,-9.512163162231445
1776038165344544000,-1522122.5604560548,4.467580318450928,-6.069301128387451,-10.182539939880371
1776038165354614800,-1522122.550385254,4.32871675491333,-5.477933406829834,-10.527304649353027
1776038165364685600,-1522122.5403144532,4.323928356170654,-5.398924827575684,-11.027692794799805
1776038165374756600,-1522122.5302434082,4.352658748626709,-5.492298603057861,-11.520898818969727
1776038165384857900,-1522122.5201420898,4.393360137939453,-5.612008571624756,-11.999738693237305
1776038165394928600,-1522122.510071289,4.285621166229248,-5.628767967224121,-12.083536148071289
1776038165404999400,-1522122.5000004882,4.077325344085693,-5.4659624099731445,-12.114660263061523
1776038165415070200,-1522122.4899296875,4.125209331512451,-5.48272180557251,-12.322956085205078
1776038165425110500,-1522122.4798894043,4.065354347229004,-5.729324817657471,-12.536040306091309
1776038165455353300,-1522122.4496467286,3.8355112075805664,-6.490680694580078,-11.561599731445312
1776038165465424100,-1522122.4395759278,3.7612907886505127,-6.507440090179443,-10.994174003601074
1776038165475434000,-1522122.429565918,3.450044631958008,-6.414066314697266,-10.711658477783203
1776038165485504800,-1522122.4194951172,3.0789434909820557,-6.229712963104248,-10.371682167053223
1776038165495575600,-1522122.4094245606,2.5977089405059814,-5.916072368621826,-10.144232749938965
1776038165505676800,-1522122.3993232423,2.3247697353363037,-5.758055210113525,-10.220847129821777
1776038165515747600,-1522122.3892524415,2.032677173614502,-5.604825973510742,-10.563218116760254
1776038165525818400,-1522122.3791816407,1.9800047874450684,-5.331887245178223,-10.857705116271973
1776038165535889400,-1522122.3691105957,1.86508309841156,-5.305551052093506,-11.063606262207031
1776038165545990700,-1522122.3590092773,1.8100165128707886,-5.463568210601807,-11.17852783203125
1776038165556000300,-1522122.348999756,1.800439715385437,-5.293580055236816,-11.346121788024902
1776038165566101800,-1522122.3388981933,1.7310078144073486,-5.293580055236816,-11.654973983764648
1776038165576172500,-1522122.3288273925,1.680729627609253,-5.1331682205200195,-11.949460983276367
1776038165586243300,-1522122.3187565918,1.50355863571167,-5.003881454467773,-12.018892288208008
1776038165596314000,-1522122.308685791,1.4197616577148438,-4.78122091293335,-11.93509578704834
1776038165606385000,-1522122.2986149902,1.216254472732544,-4.525041103363037,-11.66455078125
1776038165616455700,-1522122.2885444337,0.8978256583213806,-4.54419469833374,-11.231200218200684
1776038165626526500,-1522122.2784736329,0.6631938815116882,-4.438849925994873,-10.6709566116333
1776038165666809600,-1522122.2381904298,-0.21308395266532898,-3.5960910320281982,-8.655038833618164
1776038165676819500,-1522122.2281806641,-0.3280056416988373,-3.5865142345428467,-8.303091049194336
1776038165686890200,-1522122.2181098633,-0.3687070608139038,-3.603273630142212,-8.01339340209961
1776038165696961000,-1522122.2080390626,-0.4189853072166443,-3.4835634231567383,-7.692570209503174
1776038165707062300,-1522122.1979377442,-0.47884035110473633,-3.3638534545898438,-7.618350028991699
1776038165717133300,-1522122.1878666992,-0.45250412821769714,-3.313575267791748,-7.486668586730957
1776038165727234600,-1522122.1777653808,-0.47644615173339844,-3.3877954483032227,-7.433996200561523
1776038165737305300,-1522122.16769458,-0.4357447028160095,-3.3686418533325195,-7.343016624450684
1776038165767578600,-1522122.1374213868,-0.4357447028160095,-3.2417490482330322,-7.101202011108398
1776038165777619000,-1522122.1273811036,-0.38307225704193115,-3.1316158771514893,-7.117961883544922
1776038165787720400,-1522122.117279541,-0.42616790533065796,-3.0358476638793945,-7.036558628082275
1776038165797821700,-1522122.1071782226,-0.38067805767059326,-3.0550012588500977,-7.000645637512207
1776038165807831600,-1522122.097168457,-0.3280056416988373,-2.964021682739258,-6.912060260772705
1776038165817841200,-1522122.0871589356,-0.2059013396501541,-2.8778305053710938,-6.84981107711792
1776038165827942400,-1522122.0770576173,0.009576806798577309,-2.8131868839263916,-6.7708024978637695
1776038165838013400,-1522122.0669865722,0.10055647045373917,-2.698265314102173,-6.543353080749512
1776038165868164600,-1522122.0368354493,0.26336219906806946,-2.4636335372924805,-6.143521785736084
1776038165878205000,-1522122.026795166,0.6272808313369751,-2.5019407272338867,-5.9304375648498535
1776038165888245200,-1522122.0167546386,0.768538773059845,-2.425326347351074,-5.760449409484863
1776038165898285600,-1522122.0067143554,0.8810662031173706,-2.518700122833252,-5.717353820800781
1776038165908386800,-1522121.9966132813,0.9481038451194763,-2.7724854946136475,-5.808333396911621
1776038165918457600,-1522121.9865424805,0.9217676520347595,-2.920926094055176,-5.880159378051758
1776038165928558800,-1522121.9764411622,0.8403648138046265,-3.1268274784088135,-6.033388137817383
1776038165938599200,-1522121.966400879,0.8619126081466675,-3.138798475265503,-6.18182897567749
1776038165958771500,-1522121.9462285156,1.3263877630233765,-3.4955344200134277,-6.919242858886719
1776038165968842200,-1522121.9361577148,1.8746598958969116,-3.6583402156829834,-7.4770917892456055
1776038165978851800,-1522121.9261481934,2.5258827209472656,-3.8379054069519043,-8.164227485656738
1776038166009095000,-1522121.8959050293,4.256890773773193,-4.7620673179626465,-9.916783332824707
1776038166019165700,-1522121.8858342285,4.20421838760376,-4.896142482757568,-10.6709566116333
1776038166029236500,-1522121.8757634277,3.7014358043670654,-4.8482584953308105,-11.487380027770996
1776038166039276800,-1522121.8657231445,3.3518824577331543,-5.039794445037842,-12.595894813537598
1776038166049347600,-1522121.8556523437,2.851494312286377,-5.442020416259766,-13.828908920288086
1776038166069489200,-1522121.8355107422,3.0597896575927734,-6.222530364990234,-15.42823600769043
1776038166089630700,-1522121.8153693848,3.9432501792907715,-6.653486728668213,-15.030797958374023
1776038166109741800,-1522121.7952580566,4.575319290161133,-6.773196697235107,-12.531251907348633
1776038166119812600,-1522121.7851875,4.381389141082764,-6.485892295837402,-11.362881660461426
1776038166129853000,-1522121.7751469726,4.02465295791626,-5.9974751472473145,-10.536881446838379
1776038166139862800,-1522121.765137207,3.3016040325164795,-5.274426460266113,-10.307038307189941
1776038166149964000,-1522121.7550358886,2.674323320388794,-4.548983097076416,-10.47942066192627
1776038166160034800,-1522121.7449650879,1.9847931861877441,-4.005499362945557,-10.824186325073242
1776038166180146000,-1522121.7248540039,1.501164436340332,-3.3734302520751953,-11.046846389770508
1776038166190247200,-1522121.7147529298,1.4939818382263184,-3.4165258407592773,-10.84094524383545
1776038166200257000,-1522121.70474292,1.556231141090393,-3.5673606395721436,-10.673351287841797
1776038166210327800,-1522121.694672119,1.5298948287963867,-3.689464807510376,-10.500968933105469
1776038166220337700,-1522121.6846623535,1.889025092124939,-3.7924153804779053,-10.436325073242188
1776038166230408400,-1522121.6745915527,1.800439715385437,-3.845088005065918,-10.24239444732666
1776038166240479200,-1522121.664520752,1.702277421951294,-3.890577793121338,-9.914389610290527
1776038166250550000,-1522121.6544499511,1.6089035272598267,-4.077325344085693,-9.327810287475586
1776038166260590300,-1522121.644409668,1.5442601442337036,-4.19224739074707,-8.580819129943848
1776038166321045500,-1522121.58395459,0.40701428055763245,-5.018246650695801,-6.165069580078125
1776038166341156600,-1522121.563843506,0.4668693244457245,-5.236119270324707,-6.071695327758789
1776038166351257900,-1522121.5537421876,0.49799394607543945,-5.310339450836182,-5.925649166107178
1776038166361328600,-1522121.5436713868,0.5123591423034668,-5.453991413116455,-5.870582580566406
1776038166371399400,-1522121.533600586,0.5123591423034668,-5.453991413116455,-5.870582580566406
1776038166381439700,-1522121.5235603028,0.5219359993934631,-5.602431774139404,-5.813121795654297
1776038166391541200,-1522121.5134587402,0.7158663272857666,-5.671864032745361,-5.7125654220581055
1776038166401612000,-1522121.5033879394,0.811634361743927,-5.78678560256958,-5.813121795654297
1776038166411682800,-1522121.4933171386,0.950498104095459,-5.748478412628174,-5.901707172393799
1776038166421753600,-1522121.4832463379,1.0749965906143188,-5.710171222686768,-6.14831018447876
1776038166431824400,-1522121.473175537,1.2832920551300049,-5.856217384338379,-6.36378812789917
1776038166441895200,-1522121.4631047363,1.599326729774475,-6.026205539703369,-6.701370716094971
1776038166451966000,-1522121.4530339355,2.099714994430542,-6.251260757446289,-7.137115478515625
1776038166462006300,-1522121.4429936523,2.7940332889556885,-6.531382083892822,-7.565677165985107
1776038166472107500,-1522121.4328925782,3.3016040325164795,-6.751648902893066,-7.905653953552246
1776038166502289400,-1522121.4027106934,4.067748546600342,-6.332663536071777,-8.183381080627441
1776038166512360200,-1522121.3926398926,3.8307228088378906,-6.179434776306152,-8.097189903259277
1776038166522431000,-1522121.3825690919,3.5865142345428467,-6.095637321472168,-8.339004516601562
1776038166532532500,-1522121.3724675293,3.423708438873291,-6.030993938446045,-8.75080680847168
1776038166542603300,-1522121.3623967285,3.4620156288146973,-5.963956356048584,-9.150638580322266
1776038166552674000,-1522121.3523259277,3.845088005065918,-6.057330131530762,-9.493009567260742
1776038166562683600,-1522121.3423164063,4.726154327392578,-6.387730121612549,-9.823410034179688
1776038166572754400,-1522121.3322456055,5.114014625549316,-6.493074893951416,-10.067618370056152
1776038166592926700,-1522121.3120732422,5.5545477867126465,-6.323086738586426,-10.76193618774414
1776038166602967000,-1522121.302032959,5.578489780426025,-6.162675380706787,-11.195286750793457
1776038166613037800,-1522121.2919621582,5.374982833862305,-6.050147533416748,-11.640608787536621
1776038166623108600,-1522121.2818913574,5.20978307723999,-5.937620162963867,-12.02607536315918
1776038166633179400,-1522121.2718205566,5.104437828063965,-6.028599739074707,-12.284648895263672
1776038166643250200,-1522121.2617497558,5.015852451324463,-6.071695327758789,-12.354081153869629
1776038166653321000,-1522121.251678955,4.7836151123046875,-6.196194171905518,-12.284648895263672
1776038166663330800,-1522121.2416691894,4.496310710906982,-6.332663536071777,-12.078747749328613
1776038166673432000,-1522121.231567871,4.4292731285095215,-6.615179061889648,-12.073959350585938
1776038166683502800,-1522121.2214970703,4.355052947998047,-6.694188117980957,-12.20803451538086
1776038166693573600,-1522121.2114262695,4.278438568115234,-6.734889507293701,-12.339715957641602
1776038166713715200,-1522121.1912849122,3.6822822093963623,-6.5265936851501465,-11.954249382019043
1776038166723786000,-1522121.1812141114,3.141192674636841,-6.294356346130371,-11.525687217712402
1776038166733856800,-1522121.1711433106,2.5306711196899414,-6.143521785736084,-11.250353813171387
1776038166743927600,-1522121.1610725098,1.9129672050476074,-5.868188381195068,-11.05642318725586
1776038166753998300,-1522121.151001709,1.3479355573654175,-5.626373767852783,-10.984597206115723
1776038166764069000,-1522121.1409309083,0.9145850539207458,-5.432443618774414,-11.133037567138672
1776038166774140000,-1522121.1308601075,0.5530605912208557,-5.2911858558654785,-11.456254959106445
1776038166784211000,-1522121.1207890625,0.40940847992897034,-5.078101634979248,-11.654973983764648
1776038166814484200,-1522121.0905158692,0.15322890877723694,-4.845864295959473,-12.114660263061523
1776038166824524500,-1522121.0804753418,0.16519992053508759,-5.011064052581787,-12.229581832885742
1776038166834595300,-1522121.0704047852,0.12210428714752197,-4.869806289672852,-12.22000503540039
1776038166844666000,-1522121.0603339844,0.21308395266532898,-4.738125324249268,-11.987768173217773
1776038166854737000,-1522121.0502631837,0.1843535304069519,-4.661510944366455,-11.597513198852539
1776038166864777200,-1522121.0402229005,0.06224924325942993,-4.424484729766846,-11.142614364624023
1776038166874848000,-1522121.0301520997,-0.06464344263076782,-4.2760443687438965,-10.740388870239258
1776038166884857900,-1522121.0201420898,-0.1604115068912506,-4.067748546600342,-10.24000072479248
1776038166894928600,-1522121.010071289,-0.38546648621559143,-3.8570590019226074,-9.691728591918945
1776038166904999400,-1522121.0000004882,-0.5937620401382446,-3.7708675861358643,-9.299078941345215
1776038166915070200,-1522120.9899296875,-0.7254431247711182,-3.7014358043670654,-8.767566680908203
1776038166925141000,-1522120.9798588867,-0.8307880163192749,-3.6128504276275635,-8.255207061767578
1776038166935242200,-1522120.9697578126,-0.8858546018600464,-3.5673606395721436,-7.881711959838867
1776038166945313000,-1522120.9596870118,-1.0079588890075684,-3.4572272300720215,-7.6566572189331055
1776038166965454800,-1522120.939545166,-1.1516109704971313,-3.426102638244629,-7.261613845825195
1776038166975556000,-1522120.9294438476,-1.2641384601593018,-3.404554843902588,-7.000645637512207
1776038166985596400,-1522120.9194035644,-1.2401964664459229,-3.318363666534424,-6.847416877746582
1776038167005707500,-1522120.8992924804,-0.8643068075180054,-3.4332852363586426,-6.603208065032959
1776038167015778300,-1522120.8892216797,-0.6919242739677429,-3.4787750244140625,-6.447585105895996
1776038167025849000,-1522120.8791508789,-0.5267243981361389,-3.445256233215332,-6.440402507781982
1776038167035920000,-1522120.869080078,-0.48602294921875,-3.3518824577331543,-6.344634532928467
1776038167045960200,-1522120.859039795,-0.6320692300796509,-3.1699230670928955,-6.1530985832214355
1776038167056031000,-1522120.848968994,-0.4620809257030487,-2.9448680877685547,-6.09324312210083
1776038167066071300,-1522120.838928711,-0.05506663769483566,-2.9688100814819336,-5.999869346618652
1776038167076111400,-1522120.828888672,0.07900865375995636,-3.0166940689086914,-5.944802761077881
1776038167086151700,-1522120.8188483887,0.2585737705230713,-3.0095114707946777,-5.894524574279785
1776038167116364000,-1522120.7886359864,-0.2059013396501541,-2.5306711196899414,-5.56173038482666
1776038167126435000,-1522120.7785649414,-0.26575639843940735,-2.492363929748535,-5.602431774139404
1776038167136475100,-1522120.7685249024,-0.21547815203666687,-2.7269957065582275,-5.822698593139648
1776038167146546000,-1522120.7584541016,-0.05027823522686958,-2.980781078338623,-6.121973514556885
1776038167156647400,-1522120.748352539,0.10295066982507706,-3.227383852005005,-6.572083473205566
1776038167166718200,-1522120.7382817382,0.2106897532939911,-3.5649664402008057,-7.017405033111572
1776038167176819500,-1522120.7281806641,0.38307225704193115,-3.8738183975219727,-7.390900611877441
1776038167186890200,-1522120.7181098633,0.8882488012313843,-4.177882194519043,-7.793126583099365
1776038167196961000,-1522120.7080390626,1.2258312702178955,-4.240131378173828,-8.257601737976074
1776038167217072000,-1522120.6879279786,1.9632453918457031,-4.683058738708496,-9.009381294250488
1776038167227112400,-1522120.6778874511,2.343923568725586,-4.912901878356934,-9.409213066101074
1776038167237213700,-1522120.667786377,2.719813108444214,-4.793191909790039,-9.852140426635742
1776038167247254000,-1522120.6577460938,2.978386878967285,-4.730942726135254,-10.460267066955566
1776038167257324800,-1522120.647675293,2.801215887069702,-4.402936935424805,-10.967838287353516
1776038167267395600,-1522120.6376044923,2.4612393379211426,-4.302380561828613,-11.532869338989258
1776038167277466400,-1522120.6275336915,2.169146776199341,-4.5825018882751465,-12.253523826599121
1776038167287537200,-1522120.6174628907,1.9512743949890137,-4.987122058868408,-12.928689002990723
1776038167297608000,-1522120.60739209,1.8794482946395874,-5.317522048950195,-13.48414421081543
1776038167327789800,-1522120.5772102051,2.8131868839263916,-6.009446144104004,-12.887988090515137
1776038167337860600,-1522120.5671394044,3.201047658920288,-6.14831018447876,-12.131420135498047
1776038167347931600,-1522120.5570683593,3.512293815612793,-6.052541732788086,-11.370063781738281
1776038167358002400,-1522120.5469975586,3.6727054119110107,-6.00226354598999,-10.967838287353516
1776038167368073200,-1522120.5369267578,3.8115692138671875,-5.92325496673584,-10.769119262695312
1776038167378174500,-1522120.5268254394,3.6750996112823486,-5.635950565338135,-11.034875869750977
1776038167388245200,-1522120.5167546386,3.5194764137268066,-5.2480902671813965,-11.288661003112793
1776038167438630000,-1522120.4663701172,2.0901381969451904,-3.224989652633667,-10.898406028747559
1776038167448700700,-1522120.4562993164,1.968033790588379,-3.3662476539611816,-10.582371711730957
1776038167458802000,-1522120.446197998,2.0470423698425293,-3.5266590118408203,-10.316615104675293
1776038167468903200,-1522120.436096924,2.0470423698425293,-3.6104562282562256,-10.017339706420898
1776038167479004400,-1522120.4259956055,2.1308395862579346,-3.6367924213409424,-9.744400978088379
1776038167489075500,-1522120.4159245605,1.9728221893310547,-3.60566782951355,-9.375694274902344
1776038167499115500,-1522120.4058845215,1.8171991109848022,-3.8594532012939453,-8.851364135742188
1776038167539368200,-1522120.365631836,1.0007762908935547,-5.2911858558654785,-7.3238630294799805
1776038167549469700,-1522120.3555302734,0.8212111592292786,-5.449203014373779,-7.206547260284424
1776038167559510000,-1522120.3454899902,0.7134721279144287,-5.595249176025391,-7.151480674743652
1776038167569550000,-1522120.3354499512,0.8619126081466675,-5.858611583709717,-7.050923824310303
1776038167579620900,-1522120.3253791505,0.9433154463768005,-5.9735331535339355,-6.9024834632873535
1776038167589661200,-1522120.3153388673,1.0247182846069336,-6.184223175048828,-6.744466304779053
1776038167599701500,-1522120.305298584,1.1492167711257935,-6.260837554931641,-6.71334171295166
1776038167609741800,-1522120.2952580566,1.1037269830703735,-6.354211330413818,-6.63433313369751
1776038167650055700,-1522120.254944336,1.1635819673538208,-5.724536418914795,-7.06528902053833
1776038167660126500,-1522120.2448735351,1.3215993642807007,-5.770026206970215,-7.309497833251953
1776038167670136000,-1522120.2348640137,1.41257905960083,-5.568912982940674,-7.524975776672363
1776038167680237600,-1522120.2247624511,1.436521053314209,-5.473145008087158,-7.694964408874512
1776038167690308400,-1522120.2146916504,1.4317326545715332,-5.315127849578857,-7.747636795043945
1776038167700348400,-1522120.2046516114,1.4460978507995605,-5.171475887298584,-7.663839817047119
1776038167710388700,-1522120.1946113282,1.4891934394836426,-4.93923807144165,-7.680599212646484
1776038167720459500,-1522120.1845405274,1.6496049165725708,-4.879383087158203,-7.690176010131836
1776038167750672100,-1522120.1543278808,2.4636335372924805,-5.56173038482666,-8.44434928894043
1776038167760743000,-1522120.14425708,2.9161376953125,-5.585672378540039,-9.006986618041992
1776038167790955300,-1522120.1140446777,4.290409564971924,-5.2049946784973145,-9.737217903137207
1776038167801026000,-1522120.103973877,4.108449935913086,-4.922478675842285,-9.706093788146973
1776038167811127300,-1522120.0938728028,4.07014274597168,-4.754884719848633,-9.696516990661621
1776038167821198000,-1522120.083802002,4.050989151000977,-4.668693542480469,-9.832986831665039
1776038167851380000,-1522120.0536201173,3.581725835800171,-4.28322696685791,-10.350133895874023
1776038167861450800,-1522120.0435493165,3.5003228187561035,-4.292803764343262,-10.414777755737305
1776038167871521500,-1522120.0334785157,3.6128504276275635,-4.505887508392334,-10.522516250610352
1776038167881592300,-1522120.023407715,3.7181951999664307,-4.577713489532471,-10.56800651550293
1776038167891602200,-1522120.013397705,3.7181951999664307,-4.577713489532471,-10.56800651550293
1776038167901673000,-1522120.0033271485,3.7038300037384033,-4.503493309020996,-10.51054573059082
1776038167911743700,-1522119.9932563477,3.7038300037384033,-4.503493309020996,-10.393229484558105
1776038167921814500,-1522119.983185547,3.6774938106536865,-4.891354084014893,-10.577583312988281
1776038167962067200,-1522119.9429328614,4.000710964202881,-6.648698329925537,-12.550405502319336
1776038167972138000,-1522119.9328620606,3.9217023849487305,-6.540958881378174,-12.49055004119873
1776038167982208800,-1522119.9227912598,3.7852327823638916,-6.256049156188965,-12.38759994506836
1776038167992279600,-1522119.912720459,3.28963303565979,-6.13633918762207,-12.133813858032227
1776038168002350600,-1522119.902649414,2.7892448902130127,-5.963956356048584,-11.72201156616211
1776038168022461400,-1522119.8825385743,1.6280571222305298,-5.5545477867126465,-11.092336654663086
1776038168032471300,-1522119.8725288087,1.3455413579940796,-5.3797712326049805,-11.12346076965332
1776038168072785200,-1522119.8322148437,1.3838485479354858,-5.006275653839111,-11.243170738220215
1776038168082886400,-1522119.8221135254,1.3287819623947144,-5.008669853210449,-11.252747535705566
1776038168092957200,-1522119.8120427246,1.2330138683319092,-4.994304656982422,-11.288661003112793
1776038168103028000,-1522119.8019719238,0.9959878921508789,-4.898536682128906,-11.207258224487305
1776038168113098800,-1522119.7919013673,0.8643068075180054,-4.759673118591309,-10.984597206115723
1776038168123169500,-1522119.7818305665,0.7733271718025208,-4.462791919708252,-10.690110206604004
1776038168133240300,-1522119.7717597657,0.6631938815116882,-4.364629745483398,-10.366893768310547
1776038168143311000,-1522119.761688965,0.5003881454467773,-4.273650169372559,-10.077195167541504
1776038168173432000,-1522119.731567871,0.10773907601833344,-3.9001545906066895,-9.311050415039062
1776038168183502800,-1522119.7214970703,-0.08619125932455063,-3.7397429943084717,-8.992621421813965
1776038168193573600,-1522119.7114262695,-0.24660277366638184,-3.6176388263702393,-8.667010307312012
1776038168203675000,-1522119.7013251954,-0.5003881454467773,-3.641580820083618,-8.415618896484375
1776038168213684700,-1522119.6913151855,-0.5602431893348694,-3.6391866207122803,-8.147468566894531
1776038168223786000,-1522119.6812141114,-0.7422025203704834,-3.706224203109741,-7.9415669441223145
1776038168233795800,-1522119.6712041015,-0.8307880163192749,-3.754108190536499,-7.752425193786621
1776038168243866600,-1522119.6611333007,-0.8882488012313843,-3.914519786834717,-7.457938194274902
1776038168274048500,-1522119.630951416,-1.0678139925003052,-4.168305397033691,-6.9024834632873535
1776038168294068000,-1522119.610932129,-1.1061211824417114,-4.405331134796143,-6.801927089691162
1776038168304169200,-1522119.6008308106,-1.113303780555725,-4.381389141082764,-6.8593878746032715
1776038168314240000,-1522119.5907600098,-0.933738648891449,-4.2975921630859375,-7.036558628082275
1776038168324311000,-1522119.5806889648,-0.7948749661445618,-3.93367338180542,-7.132327079772949
1776038168334381800,-1522119.570618164,-0.6512228846549988,-3.7038300037384033,-7.266402244567871
1776038168344422000,-1522119.560578125,-0.43095630407333374,-3.4979286193847656,-7.283161640167236
1776038168354462200,-1522119.5505378419,-0.31124621629714966,-3.4979286193847656,-7.429207801818848
1776038168374542800,-1522119.5304570312,-0.22505496442317963,-3.5194764137268066,-7.568071365356445
1776038168394715000,-1522119.5102851563,0.17717093229293823,-3.4189200401306152,-7.726089000701904
1776038168404755200,-1522119.500244873,0.4189853072166443,-3.3423056602478027,-7.7213006019592285
1776038168414826000,-1522119.4901740723,0.6584054827690125,-3.3686418533325195,-7.817068576812744
1776038168424866300,-1522119.4801337891,0.9864110946655273,-3.5434184074401855,-7.819462776184082
1776038168434937000,-1522119.4700629883,1.1204863786697388,-3.4548330307006836,-8.006210327148438
1776038168445008000,-1522119.4599921876,1.3431471586227417,-3.203441858291626,-8.063671112060547
1776038168455078700,-1522119.4499213868,1.4915876388549805,-3.043030261993408,-8.159439086914062
1776038168465119000,-1522119.4398811036,1.6208745241165161,-2.7509377002716064,-8.101978302001953
1776038168505341200,-1522119.3996589356,1.778891921043396,-2.8586769104003906,-8.090007781982422
1776038168515412000,-1522119.3895881348,2.1930887699127197,-2.894589900970459,-8.293514251708984
1776038168525482800,-1522119.379517334,2.8203697204589844,-2.87064790725708,-8.578424453735352
1776038168535553500,-1522119.3694465333,3.533841609954834,-2.7006595134735107,-9.006986618041992
1776038168545593900,-1522119.35940625,4.129997730255127,-2.6408045291900635,-9.50498104095459
1776038168555634200,-1522119.3493657226,4.242525577545166,-2.6599581241607666,-9.95748519897461
1776038168565705000,-1522119.3392949218,4.10366153717041,-2.9065608978271484,-10.484209060668945
1776038168575775700,-1522119.3292243653,3.864241600036621,-3.0789434909820557,-11.185709953308105
1776038168595886800,-1522119.309113037,3.4955344200134277,-3.2824504375457764,-12.806585311889648
1776038168605988000,-1522119.299011963,3.4356794357299805,-3.552995204925537,-13.28063678741455
1776038168616059000,-1522119.2889411622,3.5625722408294678,-3.9480385780334473,-13.503297805786133
1776038168626129700,-1522119.2788703614,3.773261785507202,-4.278438568115234,-13.333309173583984
1776038168636200400,-1522119.2687995606,3.88818359375,-4.656722068786621,-12.631808280944824
1776038168646302000,-1522119.258697998,3.9264907836914062,-4.819528102874756,-11.870451927185059
1776038168656372700,-1522119.2486271972,4.168305397033691,-4.855441093444824,-11.295844078063965
1776038168666443500,-1522119.2385563964,4.084507942199707,-4.917690277099609,-10.735600471496582
1776038168676514300,-1522119.2284855957,3.914519786834717,-4.812345504760742,-10.273519515991211
1776038168696533800,-1522119.2084663087,3.3446998596191406,-4.908113479614258,-9.909601211547852
1776038168716675300,-1522119.188324707,2.473210334777832,-4.570530891418457,-10.527304649353027
1776038168726776800,-1522119.1782231445,1.778891921043396,-4.326322555541992,-10.81700325012207
1776038168736847600,-1522119.1681523437,1.3838485479354858,-4.0294413566589355,-11.142614364624023
1776038168746918400,-1522119.158081543,1.1994950771331787,-4.062960147857666,-11.30302619934082
1776038168756989200,-1522119.1480107422,1.0654197931289673,-4.259284973144531,-11.283872604370117
1776038168767060000,-1522119.1379399414,1.1228805780410767,-4.422090530395508,-11.152191162109375
1776038168777130800,-1522119.1278691406,1.1516109704971313,-4.6471452713012695,-10.936713218688965
1776038168787171000,-1522119.1178288574,1.3431471586227417,-4.72376012802124,-10.599130630493164
1776038168807251700,-1522119.097748291,1.6831238269805908,-4.876988887786865,-9.9000244140625
1776038168817261300,-1522119.0877387696,1.8794482946395874,-4.934449672698975,-9.423578262329102
1776038168827362600,-1522119.0776374512,1.8148049116134644,-4.8602294921875,-8.99740982055664
1776038168837433600,-1522119.0675664062,1.623268723487854,-4.797980308532715,-8.588001251220703
1776038168847534800,-1522119.0574650879,1.3503297567367554,-4.831499099731445,-8.200140953063965
1776038168857605600,-1522119.047394287,1.1803414821624756,-5.032611846923828,-7.920019149780273
1776038168867676400,-1522119.0373234863,0.9672574996948242,-5.169081687927246,-7.769184589385986
1776038168877747200,-1522119.0272526855,0.8331822156906128,-5.307945251464844,-7.671022415161133
1776038168897797400,-1522119.0072026367,0.9050082564353943,-5.43723201751709,-7.275979042053223
1776038168907898600,-1522118.9971013183,0.8667010068893433,-5.439626216888428,-7.141903877258301
1776038168917877800,-1522118.9871223145,0.8403648138046265,-5.272032260894775,-6.983886241912842
1776038168927979300,-1522118.977020752,0.8690952062606812,-5.147533416748047,-6.871358871459961
