time,seconds_elapsed,z,y,x
1776038153360372500,-1522134.5446274413,-0.18325957655906677,0.36651915311813354,0.27977627515792847
1776038153380053000,-1522134.5249470214,0.13316862285137177,-0.251676470041275,-0.6719517707824707
1776038153400033500,-1522134.5049665528,0.02076941914856434,0.06475171446800232,-0.030543262138962746
1776038153410104300,-1522134.494895752,0.02076941914856434,0.06475171446800232,-0.030543262138962746
1776038153420053000,-1522134.4849470216,0.01710422709584236,0.0757472887635231,-0.012217304669320583
1776038153430154200,-1522134.4748457032,0.019547687843441963,0.07941248267889023,-0.00366519158706069
1776038153440225000,-1522134.4647749024,0.019547687843441963,0.08307767659425735,-0.004886921960860491
1776038153450296000,-1522134.4547038574,0.024434609338641167,0.08307767659425735,-0.00733038317412138
1776038153470376400,-1522134.4346235353,0.0403171069920063,0.08429940044879913,0.0012217304902151227
1776038153480447200,-1522134.4245527345,0.04642575979232788,0.08796459436416626,0
1776038153490518000,-1522134.4144819337,0.045204028487205505,0.09040805697441101,-0.006108652334660292
1776038153500558300,-1522134.4044416505,0.05375614017248154,0.09285151958465576,-0.03298672288656235
1776038153510659600,-1522134.3943403321,0.05375614017248154,0.09285151958465576,-0.03298672288656235
1776038153520600000,-1522134.3843999023,0.059864792972803116,0.09162978827953339,-0.045204028487205505
1776038153530670800,-1522134.3743291015,0.06475171446800232,0.08429940044879913,-0.045204028487205505
1776038153540680400,-1522134.3643195801,0.06963863968849182,0.07819075137376785,-0.02932153269648552
1776038153550751200,-1522134.3542487794,0.07819075137376785,0.07696902006864548,-0.006108652334660292
1776038153560791600,-1522134.3442084962,0.09162978827953339,0.0806342139840126,0.012217304669320583
1776038153590943000,-1522134.314057129,0.12950342893600464,0.08674286305904388,-0.05497787147760391
1776038153601013800,-1522134.3039863282,0.14538592100143433,0.08796459436416626,-0.09529497474431992
1776038153611115000,-1522134.2938850098,0.1563815027475357,0.09407325088977814,-0.12461651116609573
1776038153621124900,-1522134.2838752442,0.16371189057826996,0.1062905490398407,-0.14294247329235077
1776038153631226000,-1522134.2737739258,0.17592918872833252,0.12828169763088226,-0.1514945775270462
1776038153641297000,-1522134.263703125,0.1918116807937622,0.15027284622192383,-0.15515977144241333
1776038153651368000,-1522134.25363208,0.20402899384498596,0.1771509200334549,-0.16859880089759827
1776038153661377500,-1522134.2436225587,0.22113321721553802,0.2076941877603531,-0.1966986060142517
1776038153681488600,-1522134.2235114747,0.2773328125476837,0.2785545587539673,-0.3078760802745819
1776038153691529000,-1522134.2134709472,0.3127630054950714,0.31642818450927734,-0.3982841372489929
1776038153701569300,-1522134.203430664,0.35674530267715454,0.3579670190811157,-0.5216789245605469
1776038153711670500,-1522134.19332959,0.4129449129104614,0.39584067463874817,-0.6670648455619812
1776038153721710800,-1522134.1832890625,0.47769662737846375,0.4239404797554016,-0.788016140460968
1776038153741822000,-1522134.1631779785,0.607200026512146,0.4495968222618103,-0.8283332586288452
1776038153751862300,-1522134.1531376953,0.6682865619659424,0.475253164768219,-0.6951646208763123
1776038153782013400,-1522134.1229865723,0.8576548099517822,0.607200026512146,-0.2528982162475586
1776038153792053800,-1522134.1129462891,0.9260717034339905,0.6145304441452026,-0.2724458873271942
1776038153802033200,-1522134.1029667968,0.9724974632263184,0.5937610268592834,-0.33475416898727417
1776038153812134400,-1522134.0928654785,0.998153805732727,0.5619960427284241,-0.39217549562454224
1776038153822205200,-1522134.082794922,0.9993755221366882,0.5277875661849976,-0.4031710624694824
1776038153832276000,-1522134.0727241212,0.9627236127853394,0.485027015209198,-0.34697145223617554
1776038153842316300,-1522134.0626835937,0.9126327037811279,0.4398229718208313,-0.2223549485206604
1776038153852417500,-1522134.0525825196,0.8649851679801941,0.42271876335144043,-0.06108652427792549
1776038153902771700,-1522134.0022282714,0.6047565937042236,0.35552358627319336,-0.004886921960860491
1776038153912842500,-1522133.9921574707,0.5314527750015259,0.34086281061172485,-0.18081611394882202
1776038153922882800,-1522133.9821171875,0.485027015209198,0.3274237811565399,-0.3701843321323395
1776038153932953600,-1522133.9720463867,0.46792277693748474,0.31642818450927734,-0.5583308339118958
1776038153943024400,-1522133.961975586,0.475253164768219,0.31154128909111023,-0.7525860071182251
1776038153953064700,-1522133.9519353027,0.5094616413116455,0.31154128909111023,-0.96883225440979
1776038153963104800,-1522133.9418952637,0.5742133259773254,0.31520646810531616,-1.2131783962249756
1776038153973175600,-1522133.931824463,0.6743952035903931,0.3286454975605011,-1.4856243133544922
1776038153993317400,-1522133.9116826172,0.9541715383529663,0.3384193480014801,-2.1306979656219482
1776038154003388200,-1522133.9016118164,1.1191051006317139,0.33719760179519653,-2.445904493331909
1776038154013428500,-1522133.8915715332,1.301142930984497,0.3543018400669098,-2.726902484893799
1776038154033539300,-1522133.8714606934,1.7055357694625854,0.39706242084503174,-3.1923818588256836
1776038154043579600,-1522133.8614204102,1.9144517183303833,0.42760565876960754,-3.4232888221740723
1776038154053650400,-1522133.8513496094,2.120924234390259,0.42638394236564636,-3.676187038421631
1776038154063690800,-1522133.8413093262,2.3212878704071045,0.38728857040405273,-3.930306911468506
1776038154093933800,-1522133.811066162,2.889392614364624,0.2822197377681732,-4.290717601776123
1776038154103974000,-1522133.801026123,3.045774221420288,0.26633724570274353,-4.414112091064453
1776038154124115700,-1522133.7808842773,3.313333034515381,0.09651670604944229,-4.674340724945068
1776038154134155800,-1522133.7708442383,3.4318408966064453,0.01466076634824276,-4.7329840660095215
1776038154144196000,-1522133.7608039551,3.5515706539154053,-0.05253441259264946,-4.717101573944092
1776038154154236400,-1522133.750763672,3.6444220542907715,-0.08307767659425735,-4.652349472045898
1776038154164307200,-1522133.7406928712,3.7507126331329346,-0.06841690838336945,-4.566828727722168
1776038154194458600,-1522133.7105412597,4.018271446228027,-0.05619960278272629,-4.241848468780518
1776038154204529400,-1522133.7004707032,4.114788055419922,-0.06352998316287994,-4.081801414489746
1776038154214600200,-1522133.6903999024,4.21619176864624,-0.0659734457731247,-3.8741073608398438
1776038154234711300,-1522133.6702888184,4.361577987670898,-0.05864306539297104,-3.226590156555176
1776038154244782000,-1522133.6602180176,4.429994583129883,0.010995574295520782,-2.8686232566833496
1776038154254852900,-1522133.6501472169,4.480085849761963,0.09773843735456467,-2.618168354034424
1776038154264862700,-1522133.640137207,4.506963729858398,0.18570303916931152,-2.524095296859741
1776038154274903000,-1522133.6300969238,4.532619953155518,0.2541199326515198,-2.5754079818725586
1776038154294953000,-1522133.6100471192,4.570493698120117,0.33475416898727417,-2.8356363773345947
1776038154304962800,-1522133.6000371093,4.586376190185547,0.3481931984424591,-2.8747317790985107
1776038154315033600,-1522133.5899663086,4.602258682250977,0.3628539443016052,-2.7769935131073
1776038154325104400,-1522133.5798955078,4.614476203918457,0.3885102868080139,-2.535090684890747
1776038154335175200,-1522133.5698249512,4.620584487915039,0.4129449129104614,-2.1734585762023926
1776038154345185000,-1522133.5598149414,4.620584487915039,0.4105014503002167,-1.7287486791610718
1776038154355286300,-1522133.549713623,4.598593711853027,0.3836233615875244,-1.23394775390625
1776038154365357000,-1522133.5396428222,4.5460591316223145,0.34208452701568604,-0.7086036801338196
1776038154375367000,-1522133.5296330566,4.464203357696533,0.31031954288482666,-0.16493362188339233
1776038154405579300,-1522133.4994206543,4.031710624694824,0.43127086758613586,1.2803735733032227
1776038154415680500,-1522133.4893195801,3.808133840560913,0.5314527750015259,1.6200146675109863
1776038154425690400,-1522133.4793095703,3.5613443851470947,0.6475171446800232,1.8668042421340942
1776038154435791600,-1522133.4692084962,3.2901201248168945,0.7684684991836548,1.9901989698410034
1776038154455933200,-1522133.4490668946,2.6988027095794678,0.9920451641082764,1.8203784227371216
1776038154476044300,-1522133.4289558106,2.1306979656219482,1.166752576828003,1.2082914113998413
1776038154506195700,-1522133.3988041992,1.3915510177612305,1.2302825450897217,-0.06352998316287994
1776038154526337300,-1522133.3786628419,0.998153805732727,1.2107349634170532,-0.9089674949645996
1776038154546478800,-1522133.3585212403,0.7562511563301086,1.0042624473571777,-1.7446311712265015
1776038154606812200,-1522133.298187744,0.3066543638706207,0.3591887652873993,-3.2180380821228027
1776038154616883000,-1522133.2881169433,0.21868975460529327,0.3017674386501312,-3.073873996734619
1776038154697388300,-1522133.2076118165,-0.7147123217582703,0.1612684279680252,-0.5998696684837341
1776038154717529900,-1522133.187470215,-1.0030407905578613,0.06108652427792549,-0.2968805134296417
1776038154767914500,-1522133.1370854492,-1.5442672967910767,-0.16249015927314758,0.05864306539297104
1776038154818329600,-1522133.0866704101,-2.0085248947143555,-0.2577851414680481,0.21135938167572021
1776038154898712800,-1522133.0062871093,-1.948660135269165,-0.28099802136421204,0.799011766910553
1776038154908814000,-1522132.9961860352,-1.9633208513259888,-0.22357667982578278,0.8820894360542297
1776038154918915300,-1522132.9860847169,-1.9706512689590454,-0.18081611394882202,0.9480628371238708
1776038154959168000,-1522132.9458320313,-2.0390682220458984,-0.14049901068210602,1.214400053024292
1776038154969177900,-1522132.9358222657,-2.048841953277588,-0.15271630883216858,1.2901474237442017
1776038154979279000,-1522132.9257209473,-2.052507162094116,-0.14538592100143433,1.3329079151153564
1776038154989350000,-1522132.9156501465,-2.0415115356445312,-0.14782938361167908,1.3060299158096313
1776038154999451400,-1522132.905548584,-2.001194477081299,-0.16859880089759827,1.2095131874084473
1776038155009522200,-1522132.8954777832,-1.9364428520202637,-0.18936823308467865,1.0482447147369385
1776038155019501300,-1522132.8854987794,-1.8863518238067627,-0.22113321721553802,0.8491026759147644
1776038155029602600,-1522132.875397461,-1.863139033317566,-0.26022860407829285,0.6719517707824707
1776038155059754000,-1522132.8452460938,-1.8484781980514526,-0.31031954288482666,0.5351179838180542
1776038155100006700,-1522132.8049934083,-1.9046778678894043,-0.25534167885780334,0.22846360504627228
1776038155110108200,-1522132.7948918457,-1.9462167024612427,-0.2064724564552307,0.07819075137376785
1776038155120209400,-1522132.7847905273,-2.007303237915039,-0.1319468915462494,-0.025656340643763542
1776038155130280200,-1522132.7747197265,-2.074498414993286,-0.030543262138962746,-0.08307767659425735
1776038155140351000,-1522132.7646489257,-2.1258111000061035,0.0806342139840126,-0.11850785464048386
1776038155160492500,-1522132.7445075684,-2.2211060523986816,0.21135938167572021,-0.21868975460529327
1776038155170563300,-1522132.7344367676,-2.263866662979126,0.2675589919090271,-0.2528982162475586
1776038155180634000,-1522132.7243659669,-2.2797491550445557,0.3335324227809906,-0.28099802136421204
1776038155190735400,-1522132.7142646485,-2.269975185394287,0.3982841372489929,-0.3078760802745819
1776038155200806400,-1522132.7041936035,-2.2394320964813232,0.4691445231437683,-0.3176499307155609
1776038155210877200,-1522132.6941228027,-2.1905627250671387,0.5510004758834839,-0.2883284091949463
1776038155220917200,-1522132.6840827637,-2.129476308822632,0.6291912198066711,-0.22479841113090515
1776038155230927000,-1522132.674072998,-2.0537290573120117,0.7012733221054077,-0.12950342893600464
1776038155261139500,-1522132.6438605958,-1.7446311712265015,0.8674286603927612,0.19792033731937408
1776038155271210200,-1522132.633789795,-1.6041321754455566,0.9053022861480713,0.2968805134296417
1776038155281250600,-1522132.6237495118,-1.4526375532150269,0.9236282706260681,0.39095374941825867
1776038155291291000,-1522132.6137092286,-1.303586483001709,0.9285151958465576,0.4789183437824249
1776038155301331200,-1522132.6036687011,-1.156978726387024,0.9187413454055786,0.5778785347938538
1776038155311432400,-1522132.593567627,-1.016479730606079,0.8906415104866028,0.6890559792518616
1776038155321534000,-1522132.5834660644,-0.8894197940826416,0.8429940342903137,0.807563841342926
1776038155331513000,-1522132.5734868164,-0.7660250067710876,0.7941248416900635,0.9285151958465576
1776038155341584000,-1522132.5634160156,-0.626747727394104,0.7562511563301086,1.027475357055664
1776038155351654700,-1522132.553345459,-0.49235737323760986,0.7257078886032104,1.0677924156188965
1776038155371826700,-1522132.53317334,-0.27000242471694946,0.7024950385093689,0.8772025108337402
1776038155381897500,-1522132.5231025391,-0.15393804013729095,0.6951646208763123,0.6963863968849182
1776038155391968500,-1522132.513031494,-0.0403171069920063,0.7037167549133301,0.5229006409645081
1776038155402039300,-1522132.5029606933,0.07452555745840073,0.7171558141708374,0.3885102868080139
1776038155412110000,-1522132.4928898925,0.19303341209888458,0.7220427393913269,0.2981022298336029
1776038155422211300,-1522132.4827885742,0.32009339332580566,0.7183775305747986,0.24068090319633484
1776038155432282000,-1522132.4727177734,0.45204028487205505,0.7049384713172913,0.19914206862449646
1776038155442353000,-1522132.4626472169,0.588874101638794,0.6927211880683899,0.1722639948129654
1776038155452423700,-1522132.452576416,0.7305948138237,0.6829473376274109,0.15760323405265808
1776038155482575000,-1522132.4224248047,1.1557570695877075,0.6255260109901428,0.2125810980796814
1776038155492554200,-1522132.4124458008,1.291369080543518,0.5998696684837341,0.27611109614372253
1776038155502625000,-1522132.402375,1.4208725690841675,0.5839871764183044,0.3494149148464203
1776038155512665300,-1522132.3923347169,1.5515977144241333,0.5754350423812866,0.3995058834552765
1776038155522766800,-1522132.3822331543,1.6945401430130005,0.5717698931694031,0.3982841372489929
1776038155532837600,-1522132.3721623535,1.8496999740600586,0.5338962078094482,0.36651915311813354
1776038155542877700,-1522132.3621223145,2.0561723709106445,0.49235737323760986,0.32986724376678467
1776038155562958300,-1522132.342041748,2.5277602672576904,0.47280970215797424,0.10873401165008545
1776038155583130600,-1522132.3218693847,2.872288465499878,0.41172316670417786,-0.32986724376678467
1776038155593201400,-1522132.311798584,3.070208787918091,0.3433062732219696,-0.455705463886261
1776038155603211000,-1522132.3017890626,3.2180380821228027,0.2370157092809677,-0.5277875661849976
1776038155613281800,-1522132.2917182618,3.304780960083008,0.09285151958465576,-0.5558874011039734
1776038155623322000,-1522132.2816779786,3.3512067794799805,-0.07941248267889023,-0.5290092825889587
1776038155633393000,-1522132.2716071778,3.36098051071167,-0.251676470041275,-0.41661009192466736
1776038155643463700,-1522132.261536377,3.297450542449951,-0.38240164518356323,-0.2528982162475586
1776038155653504000,-1522132.2514960938,3.163060188293457,-0.44593164324760437,-0.07330382615327835
1776038155683747000,-1522132.2212529297,2.579072952270508,-0.4349360466003418,0.3530801236629486
1776038155693817900,-1522132.2111821289,2.3457224369049072,-0.39217549562454224,0.4386012554168701
1776038155703858000,-1522132.20114209,2.120924234390259,-0.3433062732219696,0.4948008358478546
1776038155713898200,-1522132.1911018067,1.9217820167541504,-0.2981022298336029,0.49846604466438293
1776038155723999700,-1522132.181000244,1.7434093952178955,-0.26145032048225403,0.4190535545349121
1776038155734070500,-1522132.1709294433,1.578475832939148,-0.2370157092809677,0.20891591906547546
1776038155744141300,-1522132.1608586425,1.441641926765442,-0.2382374405860901,-0.1270599663257599
1776038155754212000,-1522132.1507878418,1.3353514671325684,-0.2565633952617645,-0.5693264007568359
1776038155784363500,-1522132.1206364746,1.1899654865264893,-0.27488934993743896,-1.9132299423217773
1776038155794403600,-1522132.1105964356,1.1850786209106445,-0.294437050819397,-2.2259929180145264
1776038155804413400,-1522132.10058667,1.1985175609588623,-0.3225368559360504,-2.4678955078125
1776038155814453800,-1522132.0905461425,1.1924089193344116,-0.3274237811565399,-2.648711681365967
1776038155824555000,-1522132.0804450684,1.177748203277588,-0.3127630054950714,-2.741563320159912
1776038155834625800,-1522132.0703742676,1.1899654865264893,-0.3029891550540924,-2.6988027095794678
1776038155844696600,-1522132.0603034669,1.226617455482483,-0.28466320037841797,-2.5192081928253174
1776038155854767400,-1522132.050232666,1.2473868131637573,-0.2785545587539673,-2.2430970668792725
1776038155864807700,-1522132.0401923829,1.253495454788208,-0.27122417092323303,-1.9230037927627563
1776038155874878500,-1522132.030121582,1.2583824396133423,-0.2272418737411499,-1.5968017578125
1776038155904969000,-1522132.0000310058,1.2657127380371094,-0.06719517707824707,-0.7782423496246338
1776038155914978600,-1522131.9900214844,1.253495454788208,-0.004886921960860491,-0.66584312915802
1776038155925080000,-1522131.9799199218,1.2327260971069336,0.06108652427792549,-0.6145304441452026
1776038155935089700,-1522131.9699104005,1.2046263217926025,0.14049901068210602,-0.5705481171607971
1776038155945191200,-1522131.9598088379,1.1643091440200806,0.22968533635139465,-0.5302310585975647
1776038155955231200,-1522131.949768799,1.1044443845748901,0.31642818450927734,-0.49846604466438293
1776038155965271600,-1522131.9397285157,1.0396926403045654,0.37629300355911255,-0.4911356568336487
1776038155995453400,-1522131.909546631,0.8723155856132507,0.45326200127601624,-0.6279694437980652
1776038156015564500,-1522131.889435547,0.7305948138237,0.5400048494338989,-0.6646214127540588
1776038156025635300,-1522131.8793647462,0.6487388610839844,0.5937610268592834,-0.6035348773002625
1776038156035706000,-1522131.8692939454,0.5693264007568359,0.6401867866516113,-0.44715335965156555
1776038156045777000,-1522131.8592231446,0.4789183437824249,0.6743952035903931,-0.18325957655906677
1776038156055847700,-1522131.8491523438,0.38606682419776917,0.6914994716644287,0.13927727937698364
1776038156065888000,-1522131.8391120606,0.2919935882091522,0.7000515460968018,0.475253164768219
1776038156075958800,-1522131.8290412598,0.17837265133857727,0.7183775305747986,0.7831292152404785
1776038156086029600,-1522131.818970459,0.05375614017248154,0.769690215587616,1.0531316995620728
1776038156116150500,-1522131.7888493652,-0.3127630054950714,0.7464773058891296,2.233323335647583
1776038156126221300,-1522131.7787788087,-0.44104471802711487,0.6890559792518616,2.5717427730560303
1776038156136292000,-1522131.7687080079,-0.5668829679489136,0.608421802520752,2.6951375007629395
1776038156146363000,-1522131.758637207,-0.6609562039375305,0.5326744914054871,2.648711681365967
1776038156156433700,-1522131.7485664063,-0.7049384713172913,0.46547931432724,2.4385740756988525
1776038156166535200,-1522131.7384648437,-0.7220427393913269,0.3933972120285034,2.1306979656219482
1776038156176544800,-1522131.7284553223,-0.7220427393913269,0.3933972120285034,2.1306979656219482
1776038156186646000,-1522131.718354004,-0.7183775305747986,0.30543261766433716,1.7629570960998535
1776038156196686300,-1522131.7083137208,-0.7049384713172913,0.19425514340400696,1.3842206001281738
1776038156206787800,-1522131.6982121582,-0.6695083379745483,0.06963863968849182,1.0824532508850098
1776038156216858600,-1522131.6881413574,-0.5204572081565857,-0.16004669666290283,0.8991936445236206
1776038156226960000,-1522131.678040039,-0.5204572081565857,-0.16004669666290283,0.8991936445236206
1776038156237030700,-1522131.6679692382,-0.4495968222618103,-0.2370157092809677,0.9419541954994202
1776038156247101400,-1522131.6578986817,-0.3982841372489929,-0.26145032048225403,0.9944885969161987
1776038156267182000,-1522131.637817871,-0.3799581825733185,-0.27488934993743896,1.017701506614685
1776038156277161200,-1522131.6278388673,-0.4056145250797272,-0.2981022298336029,1.016479730606079
1776038156287262500,-1522131.617737549,-0.4544837474822998,-0.3274237811565399,1.016479730606079
1776038156317383400,-1522131.587616455,-0.6646214127540588,-0.5265658497810364,0.8967501521110535
1776038156327484700,-1522131.577515381,-0.779464066028595,-0.6340781450271606,0.7721336483955383
1776038156337555500,-1522131.5674445801,-0.9004153609275818,-0.7318165898323059,0.6414085030555725
1776038156347626200,-1522131.5573737794,-1.0286970138549805,-0.799011766910553,0.5534439086914062
1776038156357697300,-1522131.5473027343,-1.1728612184524536,-0.8283332586288452,0.5387831330299377
1776038156367768000,-1522131.5372319336,-1.3084733486175537,-0.8381071090698242,0.5913175344467163
1776038156377838800,-1522131.5271611328,-1.4306464195251465,-0.8527678847312927,0.6963863968849182
1776038156387940000,-1522131.5170598144,-1.5308283567428589,-0.8796459436416626,0.8112290501594543
1776038156428223200,-1522131.4767768555,-1.6713273525238037,-0.9529497623443604,0.797789990901947
1776038156438294000,-1522131.4667060548,-1.663996934890747,-0.9737191796302795,0.598647952079773
1776038156448334300,-1522131.4566657715,-1.654223084449768,-1.017701506614685,0.3494149148464203
1776038156458374700,-1522131.446625244,-1.6481144428253174,-1.0702359676361084,0.08674286305904388
1776038156468476000,-1522131.43652417,-1.6566665172576904,-1.0983357429504395,-0.15271630883216858
1776038156478546700,-1522131.4264533692,-1.6762142181396484,-1.0958921909332275,-0.34208452701568604
1776038156488617500,-1522131.4163825684,-1.7092009782791138,-1.0751228332519531,-0.4789183437824249
1776038156498688300,-1522131.4063117676,-1.7507398128509521,-1.0494664907455444,-0.5681046843528748
1776038156508759300,-1522131.3962407226,-1.7959438562393188,-1.0238101482391357,-0.6157521605491638
1776038156528870100,-1522131.3761298829,-1.8973474502563477,-0.9578366875648499,-0.6023131608963013
1776038156538910500,-1522131.3660895997,-1.9425514936447144,-0.9077457785606384,-0.5693264007568359
1776038156548920300,-1522131.3560795898,-1.9816468954086304,-0.846659243106842,-0.5253441333770752
1776038156558960600,-1522131.3460393066,-2.012190103530884,-0.7867944240570068,-0.455705463886261
1776038156569031400,-1522131.3359685058,-2.0305161476135254,-0.7220427393913269,-0.34086281061172485
1776038156589112000,-1522131.3158879394,-2.03540301322937,-0.6023131608963013,-0.06352998316287994
1776038156609253600,-1522131.2957463379,-2.004859685897827,-0.5106833577156067,0.12339477986097336
1776038156629395200,-1522131.2756047363,-1.95965576171875,-0.4447098970413208,0.2223549485206604
1776038156639435500,-1522131.265564453,-1.919338583946228,-0.4153883755207062,0.2431243658065796
1776038156649506300,-1522131.2554936523,-1.863139033317566,-0.3885102868080139,0.2370157092809677
1776038156659516000,-1522131.245484131,-1.793500304222107,-0.35552358627319336,0.19425514340400696
1776038156669617400,-1522131.2353825683,-1.7165313959121704,-0.31520646810531616,0.08552113175392151
1776038156679688200,-1522131.2253117675,-1.6468926668167114,-0.2932153046131134,-0.07330382615327835
1776038156689697800,-1522131.2153022462,-1.577254056930542,-0.2919935882091522,-0.22846360504627228
1776038156699677200,-1522131.2053227539,-1.4880677461624146,-0.2773328125476837,-0.31520646810531616
1776038156729920000,-1522131.1750800782,-1.1398745775222778,-0.10506882518529892,-0.31031954288482666
1776038156739929900,-1522131.1650700683,-1.0152580738067627,-0.06841690838336945,-0.33719760179519653
1776038156749970200,-1522131.1550297851,-0.8967501521110535,-0.04764748737215996,-0.3677408695220947
1776038156760041000,-1522131.1449589843,-0.7672467231750488,-0.02321287989616394,-0.35552358627319336
1776038156770081300,-1522131.1349187011,-0.6304129362106323,0.021991148591041565,-0.2981022298336029
1776038156790192400,-1522131.1148076172,-0.3323107063770294,0.17104226350784302,-0.1258382350206375
1776038156800263200,-1522131.1047368164,-0.17348572611808777,0.2431243658065796,-0.06841690838336945
1776038156820404700,-1522131.0845952148,0.12461651116609573,0.3640756905078888,-0.030543262138962746
1776038156840546300,-1522131.0644536132,0.41172316670417786,0.4202753007411957,0.024434609338641167
1776038156850617000,-1522131.0543828125,0.5681046843528748,0.40194934606552124,0.06719517707824707
1776038156860657400,-1522131.0443425293,0.7195992469787598,0.3591887652873993,0.10995574295520782
1776038156870728200,-1522131.0342717285,0.8576548099517822,0.31520646810531616,0.13927727937698364
1776038156880738000,-1522131.0242619629,1.0140362977981567,0.29565876722335815,0.1417207419872284
1776038156890808800,-1522131.014191162,1.1924089193344116,0.3066543638706207,0.08307767659425735
1776038156900788000,-1522131.004211914,1.36955988407135,0.31642818450927734,-0.0354301854968071
1776038156931061500,-1522130.9739384765,1.8875735998153687,0.23335053026676178,-0.5119050741195679
1776038156941101800,-1522130.9638981933,2.0170769691467285,0.1319468915462494,-0.5668829679489136
1776038156951203000,-1522130.953796875,2.1148154735565186,0.06108652427792549,-0.5522221922874451
1776038156961273900,-1522130.9437260742,2.174680233001709,0.05742133408784866,-0.504574716091156
1776038156971375000,-1522130.933625,2.177123785018921,0.08796459436416626,-0.4434881806373596
1776038156981385000,-1522130.9236149902,2.13314151763916,0.1368338167667389,-0.3689626157283783
1776038156991486200,-1522130.9135136718,2.057394027709961,0.19058994948863983,-0.27977627515792847
1776038157001526500,-1522130.9034733886,1.9828685522079468,0.21502456068992615,-0.16004669666290283
1776038157041748700,-1522130.8632512207,1.7153096199035645,0.15393804013729095,0.08552113175392151
1776038157061920800,-1522130.8430793458,1.6811012029647827,0.1563815027475357,-0.04153883829712868
1776038157071991600,-1522130.833008545,1.6701055765151978,0.16982053220272064,-0.21135938167572021
1776038157082001400,-1522130.8229985351,1.6811012029647827,0.18814650177955627,-0.43615779280662537
1776038157092072200,-1522130.8129277343,1.7092009782791138,0.19914206862449646,-0.6743952035903931
1776038157102143000,-1522130.8028569336,1.7470746040344238,0.24068090319633484,-0.8405506014823914
1776038157112213800,-1522130.7927861328,1.7776178121566772,0.2431243658065796,-0.8845328688621521
1776038157152497000,-1522130.752503174,1.8484781980514526,0.19058994948863983,-0.6768386960029602
1776038157162537200,-1522130.7424628907,1.833817481994629,0.2370157092809677,-0.6218608021736145
1776038157172577500,-1522130.7324223632,1.8216001987457275,0.2834414839744568,-0.5375614166259766
1776038157182648300,-1522130.7223515625,1.8106045722961426,0.32620203495025635,-0.44715335965156555
1776038157192719000,-1522130.712281006,1.7910568714141846,0.36651915311813354,-0.37262779474258423
1776038157202759400,-1522130.7022404785,1.7641788721084595,0.4080579876899719,-0.32986724376678467
1776038157212830200,-1522130.6921696777,1.7299703359603882,0.4508185386657715,-0.3090978264808655
1776038157222901000,-1522130.6820991212,1.6945401430130005,0.4948008358478546,-0.29565876722335815
1776038157253113300,-1522130.6518867188,1.539380431175232,0.5656611919403076,-0.2736676335334778
1776038157263123200,-1522130.641876709,1.4624114036560059,0.5632177591323853,-0.2638937830924988
1776038157273194000,-1522130.6318059082,1.3732250928878784,0.5400048494338989,-0.251676470041275
1776038157283264800,-1522130.6217353516,1.2718214988708496,0.4948008358478546,-0.23579397797584534
1776038157293366000,-1522130.6116340333,1.1606439352035522,0.4508185386657715,-0.2321287989616394
1776038157303406300,-1522130.60159375,1.0396926403045654,0.4202753007411957,-0.2528982162475586
1776038157313507600,-1522130.5914924317,0.9101892113685608,0.4043927788734436,-0.3029891550540924
1776038157323578600,-1522130.5814213867,0.7770205736160278,0.39217549562454224,-0.37262779474258423
1776038157363831300,-1522130.5411687011,0.2785545587539673,0.34697145223617554,-0.7623597979545593
1776038157373902000,-1522130.5310979004,0.1918116807937622,0.35185837745666504,-0.8246681094169617
1776038157383911700,-1522130.521088379,0.11484266817569733,0.3530801236629486,-0.8686503767967224
1776038157393982500,-1522130.5110175782,0.04764748737215996,0.3640756905078888,-0.8881980776786804
1776038157404053200,-1522130.5009467774,-0.01466076634824276,0.3836233615875244,-0.8625417351722717
1776038157414093600,-1522130.4909064942,-0.07330382615327835,0.40072759985923767,-0.7953465580940247
1776038157424103400,-1522130.4808964843,-0.12339477986097336,0.4129449129104614,-0.6951646208763123
1776038157434174200,-1522130.4708256836,-0.1722639948129654,0.40683624148368835,-0.5656611919403076
1776038157464356000,-1522130.4406437988,-0.31642818450927734,0.304210901260376,-0.19792033731937408
1776038157484528000,-1522130.420471924,-0.4105014503002167,0.2590068578720093,-0.09529497474431992
1776038157494538000,-1522130.410461914,-0.44837507605552673,0.22968533635139465,-0.05864306539297104
1776038157504578300,-1522130.4004216308,-0.48869219422340393,0.20402899384498596,-0.009773843921720982
1776038157514618600,-1522130.3903813476,-0.5363397002220154,0.21868975460529327,0.06475171446800232
1776038157524659000,-1522130.3803410644,-0.5852088928222656,0.2480112910270691,0.17959438264369965
1776038157534699000,-1522130.3703010255,-0.6243042945861816,0.24068090319633484,0.34208452701568604
1776038157544769800,-1522130.3602302247,-0.6572909951210022,0.17470745742321014,0.5424483418464661
1776038157574890800,-1522130.3301091308,-0.7452555894851685,-0.10751228034496307,0.9101892113685608
1776038157584931000,-1522130.3200688476,-0.8234463334083557,-0.29077184200286865,0.9859365224838257
1776038157595001900,-1522130.3099980468,-0.9297369122505188,-0.4239404797554016,0.9896016716957092
1776038157605072600,-1522130.299927246,-1.0506882667541504,-0.46547931432724,0.9749409556388855
1776038157615143400,-1522130.2898566895,-1.1887437105178833,-0.4605923891067505,0.9749409556388855
1776038157625183700,-1522130.279816162,-1.4404202699661255,-0.4202753007411957,1.0396926403045654
1776038157635285000,-1522130.269715088,-1.4404202699661255,-0.4202753007411957,1.0396926403045654
1776038157645355800,-1522130.2596442872,-1.5418238639831543,-0.4080579876899719,1.1129964590072632
1776038157685608400,-1522130.2193916016,-1.7324138879776,-0.32009339332580566,1.518610954284668
1776038157705750000,-1522130.19925,-1.7739527225494385,-0.34574973583221436,1.3744467496871948
1776038157715851500,-1522130.1891484375,-1.7922786474227905,-0.37262779474258423,1.23394775390625
1776038157725922300,-1522130.1790776367,-1.803274154663086,-0.39217549562454224,1.1288789510726929
1776038157735993000,-1522130.169006836,-1.8057177066802979,-0.40194934606552124,1.0836749076843262
1776038157746094300,-1522130.1589057618,-1.8069393634796143,-0.4153883755207062,1.0885618925094604
1776038157786316500,-1522130.1186833496,-1.7727309465408325,-0.5534439086914062,1.2131783962249756
1776038157796387300,-1522130.108612793,-1.7544050216674805,-0.5815436840057373,1.2131783962249756
1776038157806458000,-1522130.0985419923,-1.7287486791610718,-0.607200026512146,1.1789699792861938
1776038157816498400,-1522130.0885014648,-1.7018705606460571,-0.636521577835083,1.0983357429504395
1776038157826538800,-1522130.0784611816,-1.6798794269561768,-0.6792821288108826,0.9908234477043152
1776038157836640000,-1522130.0683601075,-1.6517796516418457,-0.7147123217582703,0.8991936445236206
1776038157846710800,-1522130.0582893067,-1.6114624738693237,-0.7428121566772461,0.817337691783905
1776038157856781600,-1522130.048218506,-1.5613715648651123,-0.769690215587616,0.6939429044723511
1776038157886933000,-1522130.0180668945,-1.4526375532150269,-0.8698720932006836,-0.07208210229873657
1776038157897003800,-1522130.007996338,-1.4147639274597168,-0.8686503767967224,-0.29565876722335815
1776038157907044000,-1522129.9979558105,-1.3915510177612305,-0.8625417351722717,-0.4715879559516907
1776038157917145300,-1522129.9878547364,-1.3854423761367798,-0.836885392665863,-0.6206390857696533
1776038157927185700,-1522129.9778144532,-1.3878858089447021,-0.8026769161224365,-0.7672467231750488
1776038157937256400,-1522129.9677436524,-1.3976596593856812,-0.7562511563301086,-0.8955284357070923
1776038157947327200,-1522129.9576728516,-1.4184291362762451,-0.6902777552604675,-0.979827880859375
1776038157957398000,-1522129.9476020508,-1.4440854787826538,-0.6096435189247131,-1.027475357055664
1776038157967468800,-1522129.93753125,-1.4636331796646118,-0.5192354321479797,-1.0396926403045654
1776038157987610400,-1522129.9173896485,-1.480737328529358,-0.31154128909111023,-1.0018190145492554
1776038157997681400,-1522129.9073186035,-1.4746286869049072,-0.20036379992961884,-0.9712757468223572
1776038158017792300,-1522129.8872077637,-1.4245377779006958,0.018325956538319588,-0.9162978529930115
1776038158027832600,-1522129.8771674805,-1.3781119585037231,0.12217304855585098,-0.8600982427597046
1776038158037903400,-1522129.8670966798,-1.3353514671325684,0.19914206862449646,-0.7709119319915771
1776038158047913200,-1522129.85708667,-1.3048081398010254,0.24434609711170197,-0.6670648455619812
1776038158058014500,-1522129.8469855958,-1.2791517972946167,0.2675589919090271,-0.5729916095733643
1776038158068024300,-1522129.836975586,-1.215621829032898,0.29077184200286865,-0.49357911944389343
1776038158098206200,-1522129.8067937011,-0.8576548099517822,0.3836233615875244,-0.7574729323387146
1776038158118286800,-1522129.7867131347,-0.5094616413116455,0.4337143301963806,-0.9773843884468079
1776038158128296400,-1522129.7767036133,-0.304210901260376,0.44226643443107605,-0.960280179977417
1776038158138398000,-1522129.7666020507,-0.09285151958465576,0.44226643443107605,-0.8784242272377014
1776038158148468700,-1522129.75653125,0.13072516024112701,0.4386012554168701,-0.8100073337554932
1776038158158508800,-1522129.746491211,0.35552358627319336,0.4300491213798523,-0.7916813492774963
1776038158168549000,-1522129.7364509278,0.5619960427284241,0.4178318381309509,-0.7916813492774963
1776038158178620000,-1522129.726380127,0.7709119319915771,0.4031710624694824,-0.7684684991836548
1776038158208771300,-1522129.6962287598,1.5528194904327393,0.2321287989616394,-0.35063666105270386
1776038158218842000,-1522129.686157959,1.8496999740600586,0.15882496535778046,-0.19303341209888458
1776038158228943600,-1522129.6760563964,2.166128158569336,0.09407325088977814,-0.07819075137376785
1776038158239044900,-1522129.665955078,2.4544565677642822,-0.02687807008624077,0.05375614017248154
1776038158249115600,-1522129.6558842773,2.685363531112671,-0.15393804013729095,0.21991148591041565
1776038158259186400,-1522129.6458134765,2.8771753311157227,-0.24190263450145721,0.4043927788734436
1776038158269287700,-1522129.6357124024,3.039665460586548,-0.31031954288482666,0.6206390857696533
1776038158279297500,-1522129.6257023925,3.152064561843872,-0.3481931984424591,0.8637634515762329
1776038158289307400,-1522129.615692627,3.1972687244415283,-0.3384193480014801,1.1178834438323975
1776038158299378200,-1522129.6056218261,3.1801645755767822,-0.30054569244384766,1.3634512424468994
1776038158309418200,-1522129.5955817872,3.1117475032806396,-0.2626720666885376,1.5809192657470703
1776038158319489000,-1522129.5855109864,2.9993484020233154,-0.2321287989616394,1.7592918872833252
1776038158329529300,-1522129.5754707032,2.8515188694000244,-0.20402899384498596,1.919338583946228
1776038158339539200,-1522129.5654606933,2.6841418743133545,-0.17348572611808777,2.054950714111328
1776038158349640400,-1522129.5553596192,2.5057692527770996,-0.13439035415649414,2.122145891189575
1776038158359711200,-1522129.5452888184,2.328618288040161,-0.09162978827953339,2.085494041442871
1776038158410034700,-1522129.494965332,1.5943583250045776,-0.01466076634824276,0.22602014243602753
1776038158420075000,-1522129.484925049,1.4844025373458862,-0.021991148591041565,-0.3127630054950714
1776038158430084900,-1522129.474915039,1.3915510177612305,-0.018325956538319588,-0.8026769161224365
1776038158440186000,-1522129.464813965,1.3170254230499268,-0.01466076634824276,-1.2278391122817993
1776038158450257000,-1522129.4547431641,1.2510520219802856,-0.01466076634824276,-1.588249683380127
1776038158460297200,-1522129.444702881,1.1985175609588623,-0.015882495790719986,-1.8839083909988403
1776038158470337500,-1522129.4346623535,1.1545352935791016,-0.00855211354792118,-2.113593816757202
1776038158480438800,-1522129.4245612794,1.1191051006317139,0.009773843921720982,-2.2711970806121826
1776038158500550000,-1522129.4044501954,1.06657075881958,0.04642575979232788,-2.3493876457214355
1776038158510651100,-1522129.394348877,1.0445796251296997,0.06475171446800232,-2.2760839462280273
1776038158520752600,-1522129.3842473144,1.0335839986801147,0.07941248267889023,-2.1502456665039062
1776038158530823400,-1522129.3741765136,1.027475357055664,0.08429940044879913,-1.987755537033081
1776038158540894200,-1522129.3641057129,1.0152580738067627,0.09651670604944229,-1.7971655130386353
1776038158550965000,-1522129.354034912,0.9944885969161987,0.11972958594560623,-1.587027907371521
1776038158561066200,-1522129.343933838,0.970054030418396,0.15027284622192383,-1.3658946752548218
1776038158571045600,-1522129.3339543457,0.9615018963813782,0.17837265133857727,-1.1545352935791016
1776038158581116400,-1522129.323883545,0.9553932547569275,0.20036379992961884,-0.9871582388877869
1776038158601288400,-1522129.30371167,0.9321803450584412,0.2993239760398865,-0.7648032903671265
1776038158631531300,-1522129.27346875,0.8637634515762329,0.4801400899887085,-0.4251621961593628
1776038158641602300,-1522129.263397705,0.8393288254737854,0.5180137157440186,-0.32009339332580566
1776038158651673000,-1522129.2533269043,0.8148942589759827,0.5485569834709167,-0.24923302233219147
1776038158661743900,-1522129.2432561035,0.7709119319915771,0.5913175344467163,-0.19792033731937408
1776038158681885400,-1522129.223114502,0.6414085030555725,0.7024950385093689,-0.05742133408784866
1776038158702027000,-1522129.2029729004,0.46670106053352356,0.7709119319915771,0.1966986060142517
1776038158712097800,-1522129.1929020996,0.36163222789764404,0.7648032903671265,0.3433062732219696
1776038158722168600,-1522129.182831543,0.2272418737411499,0.7024950385093689,0.4715879559516907
1776038158732239400,-1522129.1727607423,0.09285151958465576,0.6206390857696533,0.5839871764183044
1776038158742340600,-1522129.162659424,-0.00366519158706069,0.5644394755363464,0.6597344875335693
1776038158752350500,-1522129.152649414,-0.08674286305904388,0.5229006409645081,0.6792821288108826
1776038158762451700,-1522129.14254834,-0.18448130786418915,0.46670106053352356,0.6475171446800232
1776038158772522500,-1522129.1324775391,-0.2785545587539673,0.39217549562454224,0.5998696684837341
1776038158782593300,-1522129.1224067383,-0.3689626157283783,0.3323107063770294,0.5497786998748779
1776038158802735000,-1522129.1022648925,-0.4495968222618103,0.28588494658470154,0.3885102868080139
1776038158842957000,-1522129.0620429688,-0.6120869517326355,0.2125810980796814,-0.2015855312347412
1776038158852997400,-1522129.0520026856,-0.66584312915802,0.16737708449363708,-0.23579397797584534
1776038158863099000,-1522129.041901123,-0.7330383062362671,0.11362093687057495,-0.21013765037059784
1776038158883240400,-1522129.0217595214,-0.836885392665863,0.09285151958465576,-0.05742133408784866
1776038158893311200,-1522129.0116887207,-0.8808676600456238,0.059864792972803116,0.02932153269648552
1776038158903412500,-1522129.0015874023,-0.9248499870300293,0.013439035043120384,0.13316862285137177
1776038158913452800,-1522128.991547119,-0.9737191796302795,-0.039095375686883926,0.2565633952617645
1776038158933564000,-1522128.9714360351,-1.0897835493087769,-0.15393804013729095,0.5216789245605469
1776038158943634700,-1522128.9613652343,-1.1630873680114746,-0.2272418737411499,0.6389650702476501
1776038158953705500,-1522128.9512944336,-1.2522737979888916,-0.2773328125476837,0.7428121566772461
1776038158963806700,-1522128.9411933594,-1.3475687503814697,-0.29077184200286865,0.8417723178863525
1776038158973816600,-1522128.9311833496,-1.4489723443984985,-0.2785545587539673,0.9419541954994202
1776038158983887400,-1522128.9211125488,-1.5515977144241333,-0.24556782841682434,1.0543533563613892
1776038159034210800,-1522128.8707890625,-1.7385225296020508,-0.18570303916931152,1.7580702304840088
1776038159044281600,-1522128.860718506,-1.7385225296020508,-0.18570303916931152,1.7580702304840088
1776038159054352400,-1522128.8506477051,-1.7360789775848389,-0.20891591906547546,1.881464958190918
1776038159064453600,-1522128.8405463868,-1.7214182615280151,-0.24556782841682434,1.9804251194000244
1776038159074494000,-1522128.8305061036,-1.683544635772705,-0.3188716471195221,2.0427334308624268
1776038159084534300,-1522128.8204658204,-1.6395623683929443,-0.4043927788734436,2.0512855052948
1776038159094605000,-1522128.8103950196,-1.598023533821106,-0.4740314185619354,2.007303237915039
1776038159114655200,-1522128.7903447265,-1.4917329549789429,-0.5522221922874451,1.7971655130386353
1776038159134796800,-1522128.770203125,-1.3744467496871948,-0.5998696684837341,1.5039502382278442
1776038159144867600,-1522128.7601323242,-1.3170254230499268,-0.616973876953125,1.341460108757019
1776038159154877400,-1522128.7501225586,-1.2657127380371094,-0.6304129362106323,1.176526427268982
1776038159164978700,-1522128.7400212402,-1.2229522466659546,-0.6340781450271606,1.0103710889816284
1776038159175049500,-1522128.7299504394,-1.1826350688934326,-0.626747727394104,0.8295549750328064
1776038159185120300,-1522128.7198796386,-1.1398745775222778,-0.6145304441452026,0.6316346526145935
1776038159205231400,-1522128.6997685547,-1.0922271013259888,-0.5852088928222656,0.16859880089759827
1776038159235382800,-1522128.6696171875,-1.1239920854568481,-0.5791002511978149,-0.5766568183898926
1776038159245453600,-1522128.6595463867,-1.1337659358978271,-0.5717698931694031,-0.7843509912490845
1776038159255524400,-1522128.649475586,-1.1325441598892212,-0.5607742667198181,-0.93095862865448
1776038159265625600,-1522128.6393745118,-1.1239920854568481,-0.5436700582504272,-1.016479730606079
1776038159275605000,-1522128.6293950195,-1.1264355182647705,-0.5155702829360962,-1.0971139669418335
1776038159285706200,-1522128.6192937011,-1.1435397863388062,-0.4813618063926697,-1.1899654865264893
1776038159295777000,-1522128.6092229004,-1.1533136367797852,-0.45204028487205505,-1.2669345140457153
1776038159315918600,-1522128.5890812988,-1.1252137422561646,-0.394618958234787,-1.2864822149276733
1776038159325989400,-1522128.5790107423,-1.0983357429504395,-0.35552358627319336,-1.2302825450897217
1776038159336029700,-1522128.5689702148,-1.0616837739944458,-0.3127630054950714,-1.1496484279632568
1776038159346100500,-1522128.558899414,-1.0140362977981567,-0.2736676335334778,-1.0653489828109741
1776038159356171300,-1522128.5488288575,-0.9615018963813782,-0.24923302233219147,-0.998153805732727
1776038159366211600,-1522128.53878833,-0.9065240025520325,-0.24190263450145721,-0.9529497623443604
1776038159376221400,-1522128.5287785644,-0.836885392665863,-0.2370157092809677,-0.911410927772522
1776038159386292200,-1522128.5187077636,-0.7562511563301086,-0.22479841113090515,-0.8723155856132507
1776038159396332300,-1522128.5086677247,-0.6670648455619812,-0.19425514340400696,-0.8356636762619019
1776038159426483700,-1522128.4785163575,-0.3445279896259308,0.013439035043120384,-0.7904596328735352
1776038159436524000,-1522128.4684760743,-0.22602014243602753,0.10262536257505417,-0.7806857824325562
1776038159446625300,-1522128.458374756,-0.09896016865968704,0.19303341209888458,-0.7415903806686401
1776038159456696000,-1522128.4483039551,0.0354301854968071,0.2834414839744568,-0.675616979598999
1776038159466736400,-1522128.438263672,0.1771509200334549,0.3689626157283783,-0.5913175344467163
1776038159476746200,-1522128.428253662,0.32986724376678467,0.44715335965156555,-0.48869219422340393
1776038159486847500,-1522128.418152588,0.4911356568336487,0.5204572081565857,-0.375071257352829
1776038159496918300,-1522128.4080817872,0.6572909951210022,0.5729916095733643,-0.2382374405860901
1776038159527161300,-1522128.377838623,1.156978726387024,0.6377432942390442,0.24068090319633484
1776038159537201700,-1522128.3677983398,1.2962560653686523,0.6279694437980652,0.394618958234787
1776038159547272400,-1522128.357727539,1.4440854787826538,0.5998696684837341,0.5497786998748779
1776038159557343200,-1522128.3476567382,1.5931365489959717,0.5387831330299377,0.6829473376274109
1776038159567444500,-1522128.33755542,1.742187738418579,0.49235737323760986,0.7525860071182251
1776038159577515300,-1522128.327484619,1.9083430767059326,0.4703662395477295,0.8148942589759827
1776038159587616500,-1522128.317383545,2.0818288326263428,0.47280970215797424,0.9492846131324768
1776038159597687300,-1522128.3073127442,2.244318962097168,0.4764748811721802,1.1997393369674683
1776038159607788800,-1522128.2972111816,2.4019222259521484,0.4239404797554016,1.5222761631011963
1776038159647980300,-1522128.2570197755,2.8881709575653076,0.43615779280662537,1.7922786474227905
1776038159658051000,-1522128.2469489747,2.8857274055480957,0.45326200127601624,1.6297885179519653
1776038159668121900,-1522128.236878174,2.8209757804870605,0.4715879559516907,1.4550809860229492
1776038159678192600,-1522128.226807373,2.6792550086975098,0.4740314185619354,1.291369080543518
1776038159688294100,-1522128.2167058105,2.4752259254455566,0.4948008358478546,1.1105530261993408
1776038159698303700,-1522128.2066962891,2.241875410079956,0.5302310585975647,0.8918632864952087
1776038159708405200,-1522128.1965947265,2.0109684467315674,0.5461135506629944,0.6279694437980652
1776038159718476000,-1522128.1865239257,1.7886134386062622,0.5229006409645081,0.3445279896259308
1776038159738617600,-1522128.1663823242,1.4037683010101318,0.4141666293144226,-0.17837265133857727
1776038159748718800,-1522128.15628125,1.254717230796814,0.35552358627319336,-0.4153883755207062
1776038159758820000,-1522128.1461799317,1.1178834438323975,0.3029891550540924,-0.6633996367454529
1776038159768860400,-1522128.1361396485,1.0030407905578613,0.26022860407829285,-0.9199630618095398
1776038159778931200,-1522128.1260688477,0.921184778213501,0.2272418737411499,-1.186300277709961
1776038159788971500,-1522128.1160285645,0.8649851679801941,0.1918116807937622,-1.4001030921936035
1776038159798981400,-1522128.1060185547,0.8210029006004333,0.14538592100143433,-1.5320500135421753
1776038159809052200,-1522128.0959477539,0.7831292152404785,0.09773843735456467,-1.568701982498169
1776038159829193700,-1522128.0758061523,0.7257078886032104,0.05009094998240471,-1.4037683010101318
1776038159849365800,-1522128.0556342774,0.6939429044723511,0.036651913076639175,-1.0604621171951294
1776038159859406000,-1522128.0455939942,0.6841690540313721,0.04398229718208313,-0.8784242272377014
1776038159869507600,-1522128.0354924316,0.675616979598999,0.059864792972803116,-0.7232644557952881
1776038159879578400,-1522128.0254216308,0.6585127115249634,0.07819075137376785,-0.6010913848876953
1776038159889679600,-1522128.0153203125,0.6426302194595337,0.09407325088977814,-0.5070181488990784
1776038159899689500,-1522128.0053105468,0.6255260109901428,0.10873401165008545,-0.43615779280662537
1776038159909760300,-1522127.995239746,0.6023131608963013,0.12950342893600464,-0.3885102868080139
1776038159919831000,-1522127.9851689453,0.5681046843528748,0.15760323405265808,-0.3591887652873993
1776038159929901800,-1522127.9750981445,0.5326744914054871,0.17837265133857727,-0.3433062732219696
1776038159960053000,-1522127.9449470215,0.39706242084503174,0.20036379992961884,-0.3591887652873993
1776038159970124000,-1522127.9348759765,0.3396410644054413,0.21380282938480377,-0.36651915311813354
1776038159980133600,-1522127.9248664551,0.28099802136421204,0.2382374405860901,-0.36163222789764404
1776038159990204400,-1522127.9147956544,0.22113321721553802,0.2565633952617645,-0.34697145223617554
1776038160000244700,-1522127.9047553712,0.1514945775270462,0.2590068578720093,-0.3286454975605011
1776038160010315500,-1522127.8946845704,0.07696902006864548,0.26022860407829285,-0.3066543638706207
1776038160020325400,-1522127.8846745605,0.00366519158706069,0.2638937830924988,-0.2773328125476837
1776038160050598700,-1522127.8544013673,-0.28099802136421204,0.2919935882091522,-0.10751228034496307
1776038160070709800,-1522127.8342902833,-0.4813618063926697,0.2834414839744568,-0.02932153269648552
1776038160080719600,-1522127.8242802734,-0.5693264007568359,0.26022860407829285,-0.028099801391363144
1776038160090820900,-1522127.8141791993,-0.646295428276062,0.2223549485206604,-0.02932153269648552
1776038160100800300,-1522127.804199707,-0.7159340381622314,0.17959438264369965,-0.00366519158706069
1776038160110901500,-1522127.7940983886,-0.7843509912490845,0.1258382350206375,0.05009094998240471
1776038160120941800,-1522127.7840581054,-0.8356636762619019,0.07941248267889023,0.12828169763088226
1776038160131043000,-1522127.7739570313,-0.8613200187683105,0.03176499158143997,0.1966986060142517
1776038160151184600,-1522127.7538154298,-0.8454375267028809,-0.09285151958465576,0.2272418737411499
1776038160171326200,-1522127.7336738282,-0.8100073337554932,-0.17959438264369965,0.10262536257505417
1776038160181366500,-1522127.723633545,-0.7648032903671265,-0.1820378452539444,0.07330382615327835
1776038160191468000,-1522127.7135319824,-0.7110471725463867,-0.17470745742321014,0.09162978827953339
1776038160201538800,-1522127.7034611816,-0.6536257863044739,-0.18325957655906677,0.1319468915462494
1776038160211609600,-1522127.6933903808,-0.5937610268592834,-0.18936823308467865,0.16371189057826996
1776038160221650000,-1522127.6833500976,-0.5400048494338989,-0.1771509200334549,0.17959438264369965
1776038160231751200,-1522127.6732487793,-0.4899139404296875,-0.12828169763088226,0.19792033731937408
1776038160251923200,-1522127.6530769044,-0.37262779474258423,-0.04642575979232788,0.32620203495025635
1776038160272034300,-1522127.6329655761,-0.3017674386501312,-0.12339477986097336,0.49235737323760986
1776038160282044200,-1522127.6229558105,-0.3078760802745819,-0.18325957655906677,0.5021312236785889
1776038160292084500,-1522127.6129155273,-0.35185837745666504,-0.23457226157188416,0.43249258399009705
1776038160302094000,-1522127.602906006,-0.4288274049758911,-0.2687807083129883,0.3286454975605011
1776038160312195300,-1522127.5928046876,-0.5351179838180542,-0.2822197377681732,0.2773328125476837
1776038160322266400,-1522127.5827336425,-0.6633996367454529,-0.27122417092323303,0.3433062732219696
1776038160332367600,-1522127.5726323242,-0.8026769161224365,-0.23945917189121246,0.5265658497810364
1776038160342408000,-1522127.562592041,-0.9419541954994202,-0.2028072625398636,0.7623597979545593
1776038160352478700,-1522127.5525212402,-1.0739010572433472,-0.19058994948863983,1.0042624473571777
1776038160362488300,-1522127.5425117188,-1.1948524713516235,-0.21013765037059784,1.243721604347229
1776038160372589800,-1522127.5324101562,-1.302364706993103,-0.24556782841682434,1.4734070301055908
1776038160382630100,-1522127.522369873,-1.3964380025863647,-0.30054569244384766,1.654223084449768
1776038160392701000,-1522127.5122990722,-1.4734070301055908,-0.36651915311813354,1.7837265729904175
1776038160402771700,-1522127.5022282714,-1.529606580734253,-0.4337143301963806,1.880243182182312
1776038160412842500,-1522127.4921574707,-1.5650367736816406,-0.5082398653030396,1.9254472255706787
1776038160422913300,-1522127.48208667,-1.5894713401794434,-0.5900958180427551,1.8851301670074463
1776038160432984000,-1522127.472015869,-1.606575608253479,-0.6670648455619812,1.7336355447769165
1776038160453095200,-1522127.4519047851,-1.6200146675109863,-0.7464773058891296,1.4782938957214355
1776038160473206300,-1522127.4317937011,-1.655444860458374,-0.8820894360542297,0.8185594081878662
1776038160483277000,-1522127.4217229004,-1.6823228597640991,-0.9248499870300293,0.46547931432724
1776038160493347800,-1522127.4116520996,-1.7153096199035645,-0.9553932547569275,0.11850785464048386
1776038160503357400,-1522127.4016425782,-1.7544050216674805,-0.9737191796302795,-0.2064724564552307
1776038160513459000,-1522127.3915410156,-1.7996090650558472,-0.9737191796302795,-0.49357911944389343
1776038160523529700,-1522127.3814702148,-1.8460347652435303,-0.9529497623443604,-0.7342600226402283
1776038160533631000,-1522127.3713691407,-1.8863518238067627,-0.921184778213501,-0.921184778213501
1776038160563873800,-1522127.3411262208,-1.9620991945266724,-0.7623597979545593,-1.1716395616531372
1776038160573944800,-1522127.3310551757,-1.9657644033432007,-0.7061602473258972,-1.147204875946045
1776038160584015600,-1522127.320984375,-1.958433985710144,-0.6401867866516113,-1.0739010572433472
1776038160594086400,-1522127.3109135742,-1.930334210395813,-0.5656611919403076,-0.950506329536438
1776038160604157200,-1522127.3008427734,-1.881464958190918,-0.49235737323760986,-0.7745771408081055
1776038160614258400,-1522127.290741455,-1.822821855545044,-0.4153883755207062,-0.5497786998748779
1776038160624298800,-1522127.2807011718,-1.7592918872833252,-0.33597588539123535,-0.2883284091949463
1776038160634400000,-1522127.2706000977,-1.6811012029647827,-0.26022860407829285,-0.02321287989616394
1776038160644470800,-1522127.260529297,-1.578475832939148,-0.19425514340400696,0.20525072515010834
1776038160664582000,-1522127.240418213,-1.341460108757019,-0.07819075137376785,0.5167919993400574
1776038160674683100,-1522127.2303168946,-1.2021827697753906,-0.018325956538319588,0.607200026512146
1776038160684754000,-1522127.2202460938,-1.047023057937622,0.04764748737215996,0.6572909951210022
1776038160694825000,-1522127.2101750488,-0.8820894360542297,0.11728613078594208,0.6719517707824707
1776038160704865000,-1522127.2001350098,-0.7122688889503479,0.1918116807937622,0.6548475623130798
1776038160714935800,-1522127.190064209,-0.5363397002220154,0.2590068578720093,0.6230825781822205
1776038160725006800,-1522127.179993164,-0.36163222789764404,0.31031954288482666,0.5803219676017761
1776038160735077600,-1522127.1699223632,-0.17348572611808777,0.3591887652873993,0.5448917746543884
1776038160765198300,-1522127.1398017579,0.46547931432724,0.48258355259895325,0.33597588539123535
1776038160775269000,-1522127.129730957,0.6902777552604675,0.5363397002220154,0.21868975460529327
1776038160785309400,-1522127.119690674,0.9162978529930115,0.5913175344467163,0.1014036312699318
1776038160795410700,-1522127.1095893555,1.1484266519546509,0.6536257863044739,-0.012217304669320583
1776038160805451000,-1522127.0995490723,1.4013248682022095,0.6988298296928406,-0.1258382350206375
1776038160815552300,-1522127.089447754,1.6420058012008667,0.7086036801338196,-0.2223549485206604
1776038160825623300,-1522127.079376709,1.86191725730896,0.7110471725463867,-0.27611109614372253
1776038160835694000,-1522127.0693059082,2.090380907058716,0.7513642311096191,-0.27000242471694946
1776038160865876000,-1522127.0391240234,2.847853660583496,1.0641272068023682,0.09896016865968704
1776038160875946800,-1522127.0290532226,3.0616567134857178,1.0103710889816284,0.4862487316131592
1776038160885987000,-1522127.0190129394,3.2339205741882324,0.9272934198379517,1.0286970138549805
1776038160896057900,-1522127.0089421386,3.3573153018951416,0.8869763612747192,1.7275269031524658
1776038160906098000,-1522126.9989020997,3.419623613357544,0.8698720932006836,2.4190263748168945
1776038160916169000,-1522126.9888310547,3.391523838043213,0.9126327037811279,3.037221908569336
1776038160926209000,-1522126.9787910157,3.2473597526550293,0.9859365224838257,3.523470640182495
1776038160936279800,-1522126.968720215,2.9944615364074707,1.0213667154312134,3.860668420791626
1776038160946350800,-1522126.95864917,2.671924591064453,1.0213667154312134,4.021936893463135
1776038160986664400,-1522126.9183354492,1.4025466442108154,0.9639453291893005,2.453234910964966
1776038160996735200,-1522126.9082646484,1.2131783962249756,0.8478809595108032,1.6212363243103027
1776038161006806000,-1522126.8981940919,1.0922271013259888,0.6841690540313721,0.7806857824325562
1776038161016907300,-1522126.8880927735,1.0238101482391357,0.5412266254425049,-0.015882495790719986
1776038161026947600,-1522126.8780524903,0.9859365224838257,0.4300491213798523,-0.8026769161224365
1776038161037049000,-1522126.8679509277,0.950506329536438,0.3078760802745819,-1.6322319507598877
1776038161047058700,-1522126.8579414063,0.9138544201850891,0.19303341209888458,-2.5106561183929443
1776038161057129500,-1522126.8478706055,0.8894197940826416,0.10873401165008545,-3.4049627780914307
1776038161067200300,-1522126.8377998048,0.8698720932006836,0.051312681287527084,-4.272391319274902
1776038161097351700,-1522126.8076484376,0.7941248416900635,-0.2480112910270691,-6.043900966644287
1776038161107392000,-1522126.7976079101,0.7525860071182251,-0.33597588539123535,-6.212499618530273
1776038161117462800,-1522126.7875371093,0.7110471725463867,-0.4141666293144226,-6.140417575836182
1776038161127472600,-1522126.7775273437,0.6719517707824707,-0.44715335965156555,-5.806885242462158
1776038161137543400,-1522126.767456543,0.6328563690185547,-0.4495968222618103,-5.254662990570068
1776038161147583700,-1522126.7574162597,0.6059783101081848,-0.4178318381309509,-4.570493698120117
1776038161157685000,-1522126.7473149414,0.5827654600143433,-0.36651915311813354,-3.8655552864074707
1776038161197968100,-1522126.7070319825,0.6120869517326355,-0.14905111491680145,-1.4758504629135132
1776038161208008400,-1522126.696991455,0.6609562039375305,-0.06719517707824707,-0.8026769161224365
1776038161218079200,-1522126.6869206543,0.6988298296928406,0.018325956538319588,-0.19425514340400696
1776038161228150000,-1522126.6768500977,0.7305948138237,0.1014036312699318,0.23335053026676178
1776038161238190300,-1522126.6668095703,0.7513642311096191,0.18325957655906677,0.44104471802711487
1776038161248200200,-1522126.6567998047,0.7672467231750488,0.24434609711170197,0.4801400899887085
1776038161258301400,-1522126.6466984863,0.7745771408081055,0.2993239760398865,0.4178318381309509
1776038161268341800,-1522126.636658203,0.759916365146637,0.36163222789764404,0.3188716471195221
1776038161318634800,-1522126.5863652343,0.4764748811721802,0.6426302194595337,0.04764748737215996
1776038161328674800,-1522126.5763251954,0.4043927788734436,0.6597344875335693,0.059864792972803116
1776038161338776300,-1522126.5662236328,0.3029891550540924,0.6719517707824707,0.10384709388017654
1776038161348877600,-1522126.5561223144,0.17837265133857727,0.6695083379745483,0.1514945775270462
1776038161358978800,-1522126.5460212403,0.02687807008624077,0.6352998614311218,0.2773328125476837
1776038161389099800,-1522126.5159001464,-0.2919935882091522,0.6194173693656921,0.7525860071182251
1776038161399170600,-1522126.5058293457,-0.3787364661693573,0.5962044596672058,0.8600982427597046
1776038161409241300,-1522126.495758545,-0.44837507605552673,0.5595525503158569,0.9272934198379517
1776038161419342600,-1522126.4856574708,-0.5192354321479797,0.49235737323760986,0.970054030418396
1776038161429444000,-1522126.4755559082,-0.5925393104553223,0.4288274049758911,1.0103710889816284
1776038161439515000,-1522126.4654851074,-0.6414085030555725,0.3885102868080139,1.0348057746887207
1776038161449585700,-1522126.4554143066,-0.6780604124069214,0.32498031854629517,1.0213667154312134
1776038161459626000,-1522126.4453740234,-0.7037167549133301,0.25045475363731384,0.978606104850769
1776038161469727200,-1522126.435272705,-0.7037167549133301,0.19547687470912933,0.8881980776786804
1776038161479828500,-1522126.425171631,-0.6939429044723511,0.15027284622192383,0.7354817390441895
1776038161499939600,-1522126.4050603027,-0.6450737118721008,0.03787364438176155,0.3836233615875244
1776038161510040800,-1522126.3949592286,-0.6145304441452026,-0.036651913076639175,0.2736676335334778
1776038161520111600,-1522126.3848884278,-0.5998696684837341,-0.12217304855585098,0.23457226157188416
1776038161530182400,-1522126.374817627,-0.6047565937042236,-0.21868975460529327,0.2577851414680481
1776038161540253200,-1522126.3647468262,-0.6401867866516113,-0.31642818450927734,0.3127630054950714
1776038161550324200,-1522126.3546757812,-0.7134906053543091,-0.40194934606552124,0.375071257352829
1776038161560395000,-1522126.3446049804,-0.8161159753799438,-0.46181413531303406,0.4386012554168701
1776038161570465800,-1522126.3345341797,-0.9370672702789307,-0.4691445231437683,0.504574716091156
1776038161580475400,-1522126.3245246583,-1.0641272068023682,-0.4349360466003418,0.5852088928222656
1776038161600647700,-1522126.304352295,-1.301142930984497,-0.36651915311813354,0.8454375267028809
1776038161610657300,-1522126.2943427735,-1.3915510177612305,-0.36529740691185,1.009149432182312
1776038161620697600,-1522126.2843024903,-1.470963478088379,-0.3897320330142975,1.156978726387024
1776038161630798800,-1522126.274201172,-1.538158655166626,-0.4202753007411957,1.2779301404953003
1776038161640870000,-1522126.264130127,-1.5906931161880493,-0.44715335965156555,1.36955988407135
1776038161650910000,-1522126.254090088,-1.633453607559204,-0.4715879559516907,1.4196507930755615
1776038161671051800,-1522126.2339482422,-1.6957619190216064,-0.5351179838180542,1.398881435394287
1776038161691193300,-1522126.2138066406,-1.7434093952178955,-0.6426302194595337,1.1655309200286865
1776038161701233400,-1522126.2037666016,-1.7727309465408325,-0.7049384713172913,0.970054030418396
1776038161711304400,-1522126.1936955566,-1.803274154663086,-0.7574729323387146,0.7452555894851685
1776038161721375200,-1522126.1836247558,-1.8362609148025513,-0.797789990901947,0.504574716091156
1776038161731384800,-1522126.1736152344,-1.8790215253829956,-0.8234463334083557,0.2541199326515198
1776038161741425200,-1522126.1635749512,-1.9266690015792847,-0.8319984674453735,0.009773843921720982
1776038161751496000,-1522126.1535041505,-1.9706512689590454,-0.8246681094169617,-0.2125810980796814
1776038161761566700,-1522126.1434333497,-2.0024163722991943,-0.8087855577468872,-0.3933972120285034
1776038161801819400,-1522126.1031806641,-1.996307611465454,-0.6316346526145935,-0.6695083379745483
1776038161811890200,-1522126.0931098633,-1.957212209701538,-0.5815436840057373,-0.6389650702476501
1776038161821991700,-1522126.0830083007,-1.9046778678894043,-0.5277875661849976,-0.5803219676017761
1776038161832062500,-1522126.0729375,-1.842369556427002,-0.4703662395477295,-0.49724429845809937
1776038161842163700,-1522126.0628361816,-1.7690657377243042,-0.4080579876899719,-0.3885102868080139
1776038161852234500,-1522126.052765625,-1.6823228597640991,-0.33719760179519653,-0.2577851414680481
1776038161862305300,-1522126.0426948243,-1.5833626985549927,-0.2675589919090271,-0.1270599663257599
1776038161872376000,-1522126.0326240235,-1.4746286869049072,-0.20525072515010834,-0.01466076634824276
1776038161892517600,-1522126.012482422,-1.2290608882904053,-0.10018189996480942,0.14416420459747314
1776038161902588400,-1522126.0024116212,-1.1007791757583618,-0.05619960278272629,0.18325957655906677
1776038161912628700,-1522125.992371338,-0.9822713136672974,-0.028099801391363144,0.18570303916931152
1776038161922699500,-1522125.9823005372,-0.8649851679801941,-0.0024434609804302454,0.18570303916931152
1776038161932739800,-1522125.972260254,-0.7330383062362671,0.024434609338641167,0.2015855312347412
1776038161942780200,-1522125.9622197265,-0.7330383062362671,0.024434609338641167,0.2015855312347412
1776038161952851000,-1522125.95214917,-0.41661009192466736,0.10751228034496307,0.23579397797584534
1776038161962952200,-1522125.9420478516,-0.41661009192466736,0.10751228034496307,0.23579397797584534
1776038161973023000,-1522125.9319770508,-0.2480112910270691,0.15027284622192383,0.21135938167572021
1776038162003235600,-1522125.9017644043,0.21624629199504852,0.20525072515010834,0.08674286305904388
1776038162013275600,-1522125.8917243653,0.3543018400669098,0.2272418737411499,0.06963863968849182
1776038162023316000,-1522125.881684082,0.5106833577156067,0.2626720666885376,0.059864792972803116
1776038162033356300,-1522125.871643799,0.6731734871864319,0.30054569244384766,0.04886921867728233
1776038162043427000,-1522125.861572998,0.8197811841964722,0.32986724376678467,0.04398229718208313
1776038162053497900,-1522125.8515021973,0.9712757468223572,0.3677408695220947,0.05864306539297104
1776038162063599400,-1522125.8414006347,1.1325441598892212,0.43249258399009705,0.0806342139840126
1776038162073670100,-1522125.831329834,1.2852604389190674,0.5070181488990784,0.10384709388017654
1776038162113922800,-1522125.7910771484,1.8484781980514526,0.7257078886032104,0.5571091175079346
1776038162123993600,-1522125.7810063476,1.9999728202819824,0.7452555894851685,0.6426302194595337
1776038162134003200,-1522125.7709968262,2.129476308822632,0.7147123217582703,0.675616979598999
1776038162144104700,-1522125.7608952636,2.2296581268310547,0.6524040699005127,0.6670648455619812
1776038162154175500,-1522125.7508244629,2.274862289428711,0.5400048494338989,0.6499606370925903
1776038162164276700,-1522125.7407231445,2.255314588546753,0.40194934606552124,0.7159340381622314
1776038162174317000,-1522125.7306828613,2.2040019035339355,0.2724458873271942,0.8869763612747192
1776038162184418300,-1522125.7205817872,2.109928607940674,0.19425514340400696,1.0910053253173828
1776038162224610000,-1522125.6803898925,1.5919147729873657,0.13805554807186127,0.7648032903671265
1776038162234680800,-1522125.6703190918,1.5601497888565063,0.12461651116609573,0.5021312236785889
1776038162244751600,-1522125.660248291,1.5430456399917603,0.08307767659425735,0.19914206862449646
1776038162254822400,-1522125.6501774902,1.5650367736816406,0.036651913076639175,-0.12217304855585098
1776038162264862700,-1522125.640137207,1.605353832244873,0.019547687843441963,-0.40683624148368835
1776038162274933500,-1522125.6300664062,1.6236798763275146,0.018325956538319588,-0.6328563690185547
1776038162285034800,-1522125.619965332,1.653001308441162,0.015882495790719986,-0.8026769161224365
1776038162295105500,-1522125.6098945313,1.7189748287200928,0.004886921960860491,-0.9627236127853394
1776038162325318000,-1522125.579682129,1.7189748287200928,-0.013439035043120384,-1.6200146675109863
1776038162335389000,-1522125.569611084,1.6566665172576904,0.00733038317412138,-1.7238616943359375
1776038162345459700,-1522125.5595402832,1.6175711154937744,0.05864306539297104,-1.7250834703445435
1776038162355530500,-1522125.5494694824,1.6016886234283447,0.12339477986097336,-1.6676621437072754
1776038162365601300,-1522125.5393986816,1.5735888481140137,0.2015855312347412,-1.5430456399917603
1776038162375672000,-1522125.5293278808,1.5247195959091187,0.2773328125476837,-1.3426817655563354
1776038162415985700,-1522125.4890144044,1.3720033168792725,0.5241223573684692,-0.08796459436416626
1776038162426056400,-1522125.4789436036,1.3145819902420044,0.607200026512146,0.024434609338641167
1776038162436035800,-1522125.4689641113,1.2571606636047363,0.6841690540313721,0.10506882518529892
1776038162446137000,-1522125.458862793,1.1814134120941162,0.7513642311096191,0.1820378452539444
1776038162456208000,-1522125.4487922364,1.1032226085662842,0.8002334833145142,0.2993239760398865
1776038162466278700,-1522125.4387214356,1.0250319242477417,0.8100073337554932,0.455705463886261
1776038162476349400,-1522125.4286506348,0.940732479095459,0.8112290501594543,0.5693264007568359
1776038162486420200,-1522125.418579834,0.8552113175392151,0.8222246170043945,0.5937610268592834
1776038162496491000,-1522125.4085090333,0.7648032903671265,0.846659243106842,0.5180137157440186
1776038162526703600,-1522125.3782963867,0.5082398653030396,0.9285151958465576,0.24190263450145721
1776038162546845200,-1522125.3581547851,0.3897320330142975,0.9834930300712585,0.19425514340400696
1776038162556916000,-1522125.3480839843,0.33597588539123535,1.0067058801651,0.1820378452539444
1776038162567017200,-1522125.337982666,0.2773328125476837,1.0103710889816284,0.1514945775270462
1776038162577088000,-1522125.3279121094,0.23945917189121246,1.0067058801651,0.09285151958465576
1776038162587189200,-1522125.317810791,0.2076941877603531,1.0152580738067627,0.030543262138962746
1776038162597260000,-1522125.3077399903,0.15515977144241333,1.037249207496643,-0.01710422709584236
1776038162627411500,-1522125.277588623,-0.0024434609804302454,1.0238101482391357,0.024434609338641167
1776038162647553000,-1522125.2574470215,-0.12095131725072861,0.9676105380058289,0.06230825558304787
1776038162657623800,-1522125.2473762208,-0.18814650177955627,0.9285151958465576,0.08918632566928864
1776038162667694600,-1522125.23730542,-0.26511552929878235,0.8747590184211731,0.1258382350206375
1776038162677765600,-1522125.227234375,-0.34086281061172485,0.8014551997184753,0.17959438264369965
1776038162687805700,-1522125.217194336,-0.4043927788734436,0.685390830039978,0.23090706765651703
1776038162697815600,-1522125.2071843261,-0.46547931432724,0.5473352670669556,0.21624629199504852
1776038162728058400,-1522125.1769416505,-0.5522221922874451,0.12828169763088226,-0.2932153046131134
1776038162748200200,-1522125.1567998047,-0.6059783101081848,-0.1111774742603302,-0.6316346526145935
1776038162768341800,-1522125.136658203,-0.6670648455619812,-0.2174680233001709,-0.5363397002220154
1776038162778443000,-1522125.1265568847,-0.7110471725463867,-0.2871066629886627,-0.35063666105270386
1776038162788513800,-1522125.1164863282,-0.759916365146637,-0.3787364661693573,-0.13927727937698364
1776038162798584600,-1522125.1064155274,-0.807563841342926,-0.4899139404296875,0.09529497474431992
1776038162828766500,-1522125.0762336426,-1.0042624473571777,-0.8344419002532959,0.7586946487426758
1776038162838745900,-1522125.0662541504,-1.1044443845748901,-0.8686503767967224,0.9358455538749695
1776038162848816600,-1522125.0561833496,-1.2131783962249756,-0.8710938692092896,1.0922271013259888
1776038162858856700,-1522125.0461433106,-1.3170254230499268,-0.8686503767967224,1.2510520219802856
1776038162868958200,-1522125.036041748,-1.4062118530273438,-0.8662069439888,1.4269812107086182
1776038162879029000,-1522125.0259709472,-1.470963478088379,-0.8820894360542297,1.607797384262085
1776038162889099800,-1522125.0159001464,-1.5125023126602173,-0.9224064946174622,1.7678439617156982
1776038162899140000,-1522125.0058598632,-1.5332717895507812,-0.9871582388877869,1.8949040174484253
1776038162909211000,-1522124.9957890625,-1.538158655166626,-1.0555751323699951,1.977981686592102
1776038162949463600,-1522124.955536377,-1.4404202699661255,-1.3365731239318848,1.3536773920059204
1776038162959534300,-1522124.9454655761,-1.4220943450927734,-1.4196507930755615,0.8674286603927612
1776038162969635600,-1522124.935364502,-1.4159855842590332,-1.4795156717300415,0.35674530267715454
1776038162979676000,-1522124.9253239746,-1.4159855842590332,-1.5332717895507812,-0.10873401165008545
1776038162989777200,-1522124.9152229005,-1.4269812107086182,-1.5699236392974854,-0.5119050741195679
1776038162999817500,-1522124.9051826173,-1.4453071355819702,-1.5968017578125,-0.8405506014823914
1776038163009857800,-1522124.8951420898,-1.4697418212890625,-1.6102408170700073,-1.1032226085662842
1776038163019867600,-1522124.8851323242,-1.508837103843689,-1.5992451906204224,-1.3267992734909058
1776038163040009200,-1522124.8649907226,-1.6224581003189087,-1.540602207183838,-1.6139060258865356
1776038163050080000,-1522124.8549199218,-1.6725490093231201,-1.4953981637954712,-1.607797384262085
1776038163060089900,-1522124.8449101562,-1.712866187095642,-1.4477506875991821,-1.5039502382278442
1776038163070191000,-1522124.8348088379,-1.7409659624099731,-1.389107584953308,-1.3683381080627441
1776038163080262000,-1522124.824738037,-1.7605136632919312,-1.320690631866455,-1.2522737979888916
1776038163090363100,-1522124.814636963,-1.7800613641738892,-1.2510520219802856,-1.1801916360855103
1776038163100403500,-1522124.8045964355,-1.793500304222107,-1.1838568449020386,-1.1398745775222778
1776038163110504700,-1522124.7944953614,-1.7886134386062622,-1.1093312501907349,-1.0946705341339111
1776038163130615800,-1522124.7743842774,-1.7458528280258179,-0.9578366875648499,-0.979827880859375
1776038163150757400,-1522124.7542426758,-1.6688838005065918,-0.7953465580940247,-0.9358455538749695
1776038163160828200,-1522124.744171875,-1.6126842498779297,-0.7147123217582703,-0.9321803450584412
1776038163170929700,-1522124.7340703125,-1.5430456399917603,-0.6450737118721008,-0.9285151958465576
1776038163180939300,-1522124.724060791,-1.4672982692718506,-0.5583308339118958,-0.9199630618095398
1776038163191040800,-1522124.7139592285,-1.380555510520935,-0.46547931432724,-0.9053022861480713
1776038163201080800,-1522124.7039191895,-1.2852604389190674,-0.37751471996307373,-0.8869763612747192
1776038163211152000,-1522124.6938481445,-1.1838568449020386,-0.29565876722335815,-0.8600982427597046
1776038163221161500,-1522124.683838623,-1.0787880420684814,-0.2223549485206604,-0.8051204085350037
1776038163241272600,-1522124.6637275391,-0.8698720932006836,-0.06963863968849182,-0.5668829679489136
1776038163261383700,-1522124.643616211,-0.6646214127540588,0.09651670604944229,-0.3139847218990326
1776038163271485000,-1522124.6335151368,-0.5558874011039734,0.15760323405265808,-0.2626720666885376
1776038163281555700,-1522124.623444336,-0.4447098970413208,0.19914206862449646,-0.2431243658065796
1776038163291626500,-1522124.6133735352,-0.33475416898727417,0.23579397797584534,-0.2370157092809677
1776038163301697300,-1522124.6033027344,-0.21624629199504852,0.26633724570274353,-0.23090706765651703
1776038163311768300,-1522124.5932316894,-0.07941248267889023,0.3078760802745819,-0.23457226157188416
1776038163321839000,-1522124.5831608886,0.0659734457731247,0.35674530267715454,-0.27000242471694946
1776038163331940400,-1522124.5730595703,0.2272418737411499,0.4092797040939331,-0.3188716471195221
1776038163372254000,-1522124.5327460938,0.8649851679801941,0.5229006409645081,-0.10506882518529892
1776038163382324700,-1522124.522675293,1.0213667154312134,0.5009095072746277,-0.0024434609804302454
1776038163392426200,-1522124.5125737304,1.1691961288452148,0.48380526900291443,0.030543262138962746
1776038163402497000,-1522124.5025029297,1.3194689750671387,0.45814892649650574,-0.04764748737215996
1776038163412567800,-1522124.4924321289,1.4782938957214355,0.42638394236564636,-0.22602014243602753
1776038163422638600,-1522124.482361328,1.644449234008789,0.33108896017074585,-0.3701843321323395
1776038163442780200,-1522124.4622197265,1.8411478996276855,0.08429940044879913,-0.5497786998748779
1776038163452820500,-1522124.4521794433,1.9608774185180664,-0.05497787147760391,-0.5827654600143433
1776038163462830300,-1522124.4421696777,2.0305161476135254,-0.1270599663257599,-0.675616979598999
1776038163472901000,-1522124.432098877,2.0305161476135254,-0.1270599663257599,-0.675616979598999
1776038163482972000,-1522124.4220280761,1.9853121042251587,-0.15271630883216858,-0.8185594081878662
1776038163493042700,-1522124.4119572754,1.8985692262649536,-0.1661553531885147,-0.8943067193031311
1776038163503021800,-1522124.4019782715,1.8252654075622559,-0.16737708449363708,-0.8332201838493347
1776038163513123000,-1522124.3918769532,1.7275269031524658,-0.14416420459747314,-0.6731734871864319
1776038163523193900,-1522124.3818061524,1.5809192657470703,-0.09040805697441101,-0.4862487316131592
1776038163563355100,-1522124.3416447754,1.0250319242477417,0.10506882518529892,0.1368338167667389
1776038163573426000,-1522124.3315739746,0.9566149711608887,0.12095131725072861,0.27611109614372253
1776038163583466200,-1522124.3215336914,0.9260717034339905,0.11728613078594208,0.38240164518356323
1776038163593537000,-1522124.3114628906,0.9248499870300293,0.1062905490398407,0.44104471802711487
1776038163603607800,-1522124.3013920898,0.9468411207199097,0.09773843735456467,0.45326200127601624
1776038163613678600,-1522124.291321289,0.9773843884468079,0.08918632566928864,0.4300491213798523
1776038163623688400,-1522124.2813115234,1.016479730606079,0.08429940044879913,0.3982841372489929
1776038163633698000,-1522124.271302002,1.0702359676361084,0.07208210229873657,0.36163222789764404
1776038163663849500,-1522124.2411506348,1.2657127380371094,0.09651670604944229,0.14905111491680145
1776038163673950700,-1522124.2310493165,1.3231340646743774,0.15393804013729095,0.08918632566928864
1776038163684021500,-1522124.2209785157,1.3854423761367798,0.22968533635139465,0.08307767659425735
1776038163694092500,-1522124.2109074707,1.4526375532150269,0.31031954288482666,0.13072516024112701
1776038163704163300,-1522124.20083667,1.5173892974853516,0.3897320330142975,0.21380282938480377
1776038163714264600,-1522124.1907353515,1.5748106241226196,0.46303585171699524,0.31642818450927734
1776038163724305000,-1522124.1806950683,1.6175711154937744,0.5290092825889587,0.43737950921058655
1776038163734406100,-1522124.17059375,1.645671010017395,0.598647952079773,0.5729916095733643
1776038163774598000,-1522124.1304020996,1.5699236392974854,0.7831292152404785,1.2718214988708496
1776038163784638000,-1522124.1203620606,1.508837103843689,0.8051204085350037,1.4379768371582031
1776038163794739500,-1522124.110260498,1.4245377779006958,0.8100073337554932,1.5638149976730347
1776038163814881000,-1522124.0901188964,1.2021827697753906,0.7623597979545593,1.6187928915023804
1776038163824921300,-1522124.0800786132,1.0958921909332275,0.7367035150527954,1.539380431175232
1776038163835022600,-1522124.069977295,0.979827880859375,0.7159340381622314,1.3854423761367798
1776038163845093400,-1522124.0599067383,0.8600982427597046,0.7147123217582703,1.1850786209106445
1776038163875305700,-1522124.029694336,0.5314527750015259,0.720820963382721,0.5192354321479797
1776038163885376500,-1522124.0196235352,0.4141666293144226,0.7220427393913269,0.31642818450927734
1776038163895447300,-1522124.0095527344,0.294437050819397,0.7195992469787598,0.14416420459747314
1776038163905487600,-1522123.9995124512,0.17959438264369965,0.7195992469787598,0.015882495790719986
1776038163915528000,-1522123.989472168,0.06719517707824707,0.7232644557952881,-0.07819075137376785
1776038163925598700,-1522123.9794013673,-0.04153883829712868,0.7269296646118164,-0.13805554807186127
1776038163935700000,-1522123.969300049,-0.16249015927314758,0.7220427393913269,-0.16493362188339233
1776038163945740300,-1522123.9592597657,-0.28588494658470154,0.7012733221054077,-0.16982053220272064
1776038163965881900,-1522123.9391181641,-0.47769662737846375,0.5546656250953674,-0.16493362188339233
1776038163975983400,-1522123.9290166015,-0.5180137157440186,0.48258355259895325,-0.17837265133857727
1776038163986023700,-1522123.9189763183,-0.5082398653030396,0.41172316670417786,-0.251676470041275
1776038163996125000,-1522123.908875,-0.4801400899887085,0.33597588539123535,-0.43127086758613586
1776038164006134800,-1522123.8988652343,-0.43737950921058655,0.2626720666885376,-0.7000515460968018
1776038164016236000,-1522123.888763916,-0.36651915311813354,0.18814650177955627,-1.0042624473571777
1776038164026306800,-1522123.8786931152,-0.2736676335334778,0.09529497474431992,-1.2779301404953003
1776038164036408000,-1522123.868592041,-0.17837265133857727,-0.006108652334660292,-1.4391984939575195
1776038164046418000,-1522123.8585820312,-0.08552113175392151,-0.10873401165008545,-1.4428637027740479
1776038164086701000,-1522123.818298828,-0.05864306539297104,-0.4251621961593628,-1.1142182350158691
1776038164096771800,-1522123.8082282715,-0.12339477986097336,-0.4434881806373596,-0.9346238374710083
1776038164106842600,-1522123.7981574708,-0.19303341209888458,-0.45204028487205505,-0.6988298296928406
1776038164116883000,-1522123.7881169433,-0.26511552929878235,-0.4801400899887085,-0.4080579876899719
1776038164126953700,-1522123.7780463868,-0.34697145223617554,-0.5204572081565857,-0.05375614017248154
1776038164137024500,-1522123.767975586,-0.44593164324760437,-0.5644394755363464,0.304210901260376
1776038164147064800,-1522123.7579350586,-0.5705481171607971,-0.6230825781822205,0.5974262356758118
1776038164157135600,-1522123.747864502,-0.7305948138237,-0.6780604124069214,0.7867944240570068
1776038164207459000,-1522123.6975410157,-1.683544635772705,-0.513126790523529,0.9920451641082764
1776038164227600600,-1522123.6773994141,-1.938886284828186,-0.45692721009254456,1.2596040964126587
1776038164247742200,-1522123.6572578126,-2.0610592365264893,-0.5094616413116455,1.3903292417526245
1776038164257813200,-1522123.6471867675,-2.0916025638580322,-0.5632177591323853,1.3487904071807861
1776038164267853300,-1522123.6371467286,-2.118480682373047,-0.6255260109901428,1.23394775390625
1776038164287934000,-1522123.6170661622,-2.14902400970459,-0.7476990818977356,0.9480628371238708
1776038164297974300,-1522123.6070256347,-2.1563544273376465,-0.8063421249389648,0.7721336483955383
1776038164308045000,-1522123.596954834,-2.1563544273376465,-0.8588765263557434,0.5607742667198181
1776038164318055000,-1522123.5869450683,-2.1514673233032227,-0.901637077331543,0.3066543638706207
1776038164328095200,-1522123.5769047851,-2.1478021144866943,-0.9297369122505188,0.04153883829712868
1776038164338196500,-1522123.5668034668,-2.146580457687378,-0.9370672702789307,-0.19914206862449646
1776038164348267300,-1522123.556732666,-2.146580457687378,-0.921184778213501,-0.41172316670417786
1776038164358277000,-1522123.5467229004,-2.1478021144866943,-0.8918632864952087,-0.5852088928222656
1776038164368317200,-1522123.5366828614,-2.146580457687378,-0.846659243106842,-0.7281513810157776
1776038164378388000,-1522123.5266120606,-2.14902400970459,-0.789237916469574,-0.8527678847312927
1776038164408539400,-1522123.4964606934,-2.1392500400543213,-0.5424483418464661,-1.0115928649902344
1776038164418610200,-1522123.4863898926,-2.124589204788208,-0.45326200127601624,-0.9908234477043152
1776038164428650500,-1522123.4763496094,-2.1038198471069336,-0.3701843321323395,-0.9492846131324768
1776038164438721300,-1522123.4662788087,-2.0781636238098145,-0.2993239760398865,-0.8943067193031311
1776038164448700700,-1522123.4562993164,-2.0451767444610596,-0.23945917189121246,-0.8185594081878662
1776038164458802000,-1522123.446197998,-1.996307611465454,-0.1820378452539444,-0.7220427393913269
1776038164468872700,-1522123.4361271972,-1.930334210395813,-0.1368338167667389,-0.6279694437980652
1776038164499115500,-1522123.4058845215,-1.6627751588821411,-0.0354301854968071,-0.4141666293144226
1776038164509217000,-1522123.395782959,-1.5943583250045776,-0.018325956538319588,-0.3995058834552765
1776038164519318300,-1522123.3856816406,-1.510058879852295,0.012217304669320583,-0.38117989897727966
1776038164529389000,-1522123.3756108398,-1.4025466442108154,0.05742133408784866,-0.3738495409488678
1776038164539429400,-1522123.3655705566,-1.2901474237442017,0.09651670604944229,-0.37140607833862305
1776038164549530600,-1522123.3554694825,-1.1606439352035522,0.14538592100143433,-0.3799581825733185
1776038164559601400,-1522123.3453986817,-1.0201449394226074,0.21380282938480377,-0.375071257352829
1776038164569672200,-1522123.335327881,-0.8991936445236206,0.294437050819397,-0.3530801236629486
1776038164579712500,-1522123.3252875977,-0.7867944240570068,0.3628539443016052,-0.3274237811565399
1776038164619934700,-1522123.2850651855,-0.24678955972194672,0.5302310585975647,-0.24678955972194672
1776038164630036000,-1522123.2749641114,-0.09651670604944229,0.5461135506629944,-0.24068090319633484
1776038164640106800,-1522123.2648933106,0.06719517707824707,0.5607742667198181,-0.22479841113090515
1776038164650086100,-1522123.2549138183,0.2382374405860901,0.5693264007568359,-0.2028072625398636
1776038164660157000,-1522123.2448430175,0.4178318381309509,0.5864306092262268,-0.1771509200334549
1776038164670258200,-1522123.2347419434,0.6096435189247131,0.6023131608963013,-0.14416420459747314
1776038164680329000,-1522123.2246711426,0.807563841342926,0.6133087277412415,-0.10751228034496307
1776038164710419200,-1522123.1945808106,1.3768903017044067,0.49357911944389343,0.1466076523065567
1776038164720520700,-1522123.184479248,1.5613715648651123,0.4398229718208313,0.29077184200286865
1776038164730530300,-1522123.1744697266,1.7531832456588745,0.3897320330142975,0.4239404797554016
1776038164740540200,-1522123.164459961,1.9730947017669678,0.3433062732219696,0.5253441333770752
1776038164750611000,-1522123.1543891602,2.2003366947174072,0.304210901260376,0.608421802520752
1776038164760651300,-1522123.1443486328,2.4214699268341064,0.3029891550540924,0.6780604124069214
1776038164770691600,-1522123.1343083496,2.66337251663208,0.32986724376678467,0.769690215587616
1776038164780762400,-1522123.1242375488,2.917492389678955,0.3701843321323395,0.8943067193031311
1776038164790863600,-1522123.1141364747,3.141069173812866,0.394618958234787,1.0396926403045654
1776038164811005200,-1522123.093994873,3.525914192199707,0.2968805134296417,1.5540411472320557
1776038164831116300,-1522123.0738837891,3.5772268772125244,0.18448130786418915,2.129476308822632
1776038164841187000,-1522123.0638129883,3.4917056560516357,0.17470745742321014,2.4715607166290283
1776038164851257900,-1522123.0537421876,3.3402111530303955,0.20891591906547546,2.850297212600708
1776038164861298200,-1522123.0437019044,3.3402111530303955,0.20891591906547546,2.850297212600708
1776038164871399400,-1522123.033600586,2.8344147205352783,0.3604104816913605,3.517362117767334
1776038164881501000,-1522123.0234990234,2.8344147205352783,0.3604104816913605,3.517362117767334
1776038164891571700,-1522123.0134282226,2.5338690280914307,0.4691445231437683,3.6884043216705322
1776038164921814500,-1522122.983185547,1.6847662925720215,0.6218608021736145,3.238807439804077
1776038164931885300,-1522122.9731147462,1.4746286869049072,0.6194173693656921,2.813645362854004
1776038164941986800,-1522122.9630131836,1.3060299158096313,0.5998696684837341,2.2516493797302246
1776038164952057600,-1522122.9529423828,1.166752576828003,0.5632177591323853,1.55892813205719
1776038164962128400,-1522122.942871582,1.0506882667541504,0.4703662395477295,0.7293730974197388
1776038164972199200,-1522122.9328007812,0.9492846131324768,0.30543261766433716,-0.940732479095459
1776038164982239500,-1522122.922760498,0.9492846131324768,0.30543261766433716,-0.940732479095459
1776038164992310300,-1522122.9126896972,1.018923282623291,0.1319468915462494,-2.4801127910614014
1776038165022553000,-1522122.8824470215,0.7806857824325562,-0.21991148591041565,-4.756196975708008
1776038165032623900,-1522122.8723762208,0.8576548099517822,-0.3323107063770294,-3.7006216049194336
1776038165042694700,-1522122.86230542,0.9138544201850891,-0.26022860407829285,-2.4801127910614014
1776038165052704500,-1522122.8522954101,0.8845328688621521,-0.16249015927314758,-1.86191725730896
1776038165062775300,-1522122.8422246093,0.8405506014823914,-0.09162978827953339,-1.9938641786575317
1776038165072815600,-1522122.8321843261,0.8222246170043945,-0.06841690838336945,-2.484999895095825
1776038165082886400,-1522122.8221135254,0.7953465580940247,-0.09773843735456467,-2.824640989303589
1776038165103028000,-1522122.8019719238,0.7831292152404785,-0.09773843735456467,-2.3188445568084717
1776038165133209900,-1522122.771790039,0.7941248416900635,0.12828169763088226,-0.9370672702789307
1776038165143280600,-1522122.7617192382,0.759916365146637,0.18570303916931152,-0.769690215587616
1776038165153351400,-1522122.7516486817,0.7159340381622314,0.2272418737411499,-0.6792821288108826
1776038165163452700,-1522122.7415473633,0.6572909951210022,0.2638937830924988,-0.5974262356758118
1776038165173493000,-1522122.7315070801,0.5827654600143433,0.31154128909111023,-0.48747047781944275
1776038165183563800,-1522122.7214362794,0.5070181488990784,0.3604104816913605,-0.36163222789764404
1776038165193604000,-1522122.7113959962,0.4434881806373596,0.3885102868080139,-0.251676470041275
1776038165203644400,-1522122.7013554687,0.38240164518356323,0.4056145250797272,-0.1869247704744339
1776038165243866600,-1522122.6611333007,0.06230825558304787,0.28955012559890747,-0.24556782841682434
1776038165274109400,-1522122.630890625,-0.10384709388017654,0.2785545587539673,-0.5277875661849976
1776038165284180200,-1522122.6208198243,-0.16249015927314758,0.2981022298336029,-0.5803219676017761
1776038165294251000,-1522122.6107490235,-0.19547687470912933,0.32986724376678467,-0.5143485069274902
1776038165304321800,-1522122.6006782227,-0.2223549485206604,0.35674530267715454,-0.3677408695220947
1776038165324402400,-1522122.5805976563,-0.34574973583221436,0.3628539443016052,0.059864792972803116
1776038165334473200,-1522122.5705268555,-0.4288274049758911,0.34574973583221436,0.2932153046131134
1776038165344544000,-1522122.5604560548,-0.5094616413116455,0.3188716471195221,0.5106833577156067
1776038165354614800,-1522122.550385254,-0.5778785347938538,0.2968805134296417,0.6646214127540588
1776038165364685600,-1522122.5403144532,-0.626747727394104,0.26145032048225403,0.7183775305747986
1776038165374756600,-1522122.5302434082,-0.6780604124069214,0.21868975460529327,0.6768386960029602
1776038165384857900,-1522122.5201420898,-0.7318165898323059,0.16859880089759827,0.5913175344467163
1776038165394928600,-1522122.510071289,-0.7709119319915771,0.09651670604944229,0.504574716091156
1776038165404999400,-1522122.5000004882,-0.7965682744979858,0.012217304669320583,0.4141666293144226
1776038165415070200,-1522122.4899296875,-0.8197811841964722,-0.04398229718208313,0.28466320037841797
1776038165455353300,-1522122.4496467286,-0.9334021210670471,-0.2528982162475586,0.018325956538319588
1776038165465424100,-1522122.4395759278,-1.0018190145492554,-0.28466320037841797,0.1563815027475357
1776038165475434000,-1522122.429565918,-1.0873401165008545,-0.29077184200286865,0.3481931984424591
1776038165485504800,-1522122.4194951172,-1.1789699792861938,-0.294437050819397,0.5644394755363464
1776038165495575600,-1522122.4094245606,-1.2779301404953003,-0.2932153046131134,0.788016140460968
1776038165505676800,-1522122.3993232423,-1.3781119585037231,-0.26511552929878235,1.0030407905578613
1776038165515747600,-1522122.3892524415,-1.4660766124725342,-0.22113321721553802,1.2046263217926025
1776038165525818400,-1522122.3791816407,-1.5247195959091187,-0.18448130786418915,1.3829989433288574
1776038165545990700,-1522122.3590092773,-1.5699236392974854,-0.1869247704744339,1.6468926668167114
1776038165556000300,-1522122.348999756,-1.5748106241226196,-0.20525072515010834,1.7446311712265015
1776038165566101800,-1522122.3388981933,-1.567480206489563,-0.21991148591041565,1.82404363155365
1776038165576172500,-1522122.3288273925,-1.5528194904327393,-0.24068090319633484,1.8643606901168823
1776038165586243300,-1522122.3187565918,-1.5271631479263306,-0.2871066629886627,1.8399261236190796
1776038165596314000,-1522122.308685791,-1.4941763877868652,-0.3640756905078888,1.7385225296020508
1776038165606385000,-1522122.2986149902,-1.4660766124725342,-0.45692721009254456,1.5650367736816406
1776038165616455700,-1522122.2885444337,-1.4428637027740479,-0.5497786998748779,1.3536773920059204
1776038165626526500,-1522122.2784736329,-1.4330898523330688,-0.6328563690185547,1.1362093687057495
1776038165666809600,-1522122.2381904298,-1.539380431175232,-0.7782423496246338,0.3127630054950714
1776038165676819500,-1522122.2281806641,-1.5906931161880493,-0.7672467231750488,0.11850785464048386
1776038165686890200,-1522122.2181098633,-1.6468926668167114,-0.7440338730812073,-0.045204028487205505
1776038165696961000,-1522122.2080390626,-1.7055357694625854,-0.7061602473258972,-0.1612684279680252
1776038165707062300,-1522122.1979377442,-1.7641788721084595,-0.6487388610839844,-0.24068090319633484
1776038165717133300,-1522122.1878666992,-1.8118263483047485,-0.5803219676017761,-0.3078760802745819
1776038165727234600,-1522122.1777653808,-1.8496999740600586,-0.5155702829360962,-0.3628539443016052
1776038165737305300,-1522122.16769458,-1.872912883758545,-0.45692721009254456,-0.38606682419776917
1776038165767578600,-1522122.1374213868,-1.8472565412521362,-0.3127630054950714,-0.2565633952617645
1776038165777619000,-1522122.1273811036,-1.804495930671692,-0.27000242471694946,-0.21135938167572021
1776038165787720400,-1522122.117279541,-1.742187738418579,-0.23457226157188416,-0.18570303916931152
1776038165797821700,-1522122.1071782226,-1.6676621437072754,-0.20891591906547546,-0.18081611394882202
1776038165807831600,-1522122.097168457,-1.585806131362915,-0.1966986060142517,-0.18570303916931152
1776038165817841200,-1522122.0871589356,-1.4917329549789429,-0.17959438264369965,-0.21380282938480377
1776038165827942400,-1522122.0770576173,-1.3903292417526245,-0.16737708449363708,-0.27977627515792847
1776038165838013400,-1522122.0669865722,-1.284038782119751,-0.16493362188339233,-0.38240164518356323
1776038165868164600,-1522122.0368354493,-0.8894197940826416,-0.1722639948129654,-0.6743952035903931
1776038165878205000,-1522122.026795166,-0.7318165898323059,-0.16371189057826996,-0.7281513810157776
1776038165888245200,-1522122.0167546386,-0.5778785347938538,-0.15882496535778046,-0.7867944240570068
1776038165898285600,-1522122.0067143554,-0.4239404797554016,-0.15760323405265808,-0.8539896011352539
1776038165908386800,-1522121.9966132813,-0.25534167885780334,-0.14294247329235077,-0.8967501521110535
1776038165918457600,-1522121.9865424805,-0.07452555745840073,-0.11728613078594208,-0.9040805697441101
1776038165928558800,-1522121.9764411622,0.12339477986097336,-0.08307767659425735,-0.8576548099517822
1776038165938599200,-1522121.966400879,0.33475416898727417,-0.0354301854968071,-0.7733554244041443
1776038165958771500,-1522121.9462285156,0.7953465580940247,0.09773843735456467,-0.5644394755363464
1776038165968842200,-1522121.9361577148,1.0286970138549805,0.17470745742321014,-0.4605923891067505
1776038165978851800,-1522121.9261481934,1.2596040964126587,0.2480112910270691,-0.36651915311813354
1776038166009095000,-1522121.8959050293,1.9364428520202637,0.33597588539123535,-0.0354301854968071
1776038166019165700,-1522121.8858342285,2.1306979656219482,0.33719760179519653,0.09162978827953339
1776038166029236500,-1522121.8757634277,2.3273966312408447,0.3604104816913605,0.2015855312347412
1776038166039276800,-1522121.8657231445,2.5387558937072754,0.40194934606552124,0.2919935882091522
1776038166049347600,-1522121.8556523437,2.752558708190918,0.4386012554168701,0.3982841372489929
1776038166069489200,-1522121.8355107422,3.11785626411438,0.43615779280662537,0.6976081132888794
1776038166079560000,-1522121.8254401856,3.2485814094543457,0.394618958234787,0.8735373020172119
1776038166109741800,-1522121.7952580566,3.199712038040161,0.08674286305904388,1.4001030921936035
1776038166119812600,-1522121.7851875,3.0103440284729004,0.030543262138962746,1.5320500135421753
1776038166129853000,-1522121.7751469726,2.7488934993743896,0.02321287989616394,1.6236798763275146
1776038166139862800,-1522121.765137207,2.426356792449951,0.06963863968849182,1.6407840251922607
1776038166149964000,-1522121.7550358886,2.0781636238098145,0.14416420459747314,1.5821410417556763
1776038166170105600,-1522121.734894287,1.4734070301055908,0.1966986060142517,1.284038782119751
1776038166180146000,-1522121.7248540039,1.2791517972946167,0.17837265133857727,1.0702359676361084
1776038166190247200,-1522121.7147529298,1.1203268766403198,0.16004669666290283,0.8246681094169617
1776038166200257000,-1522121.70474292,0.988379955291748,0.14538592100143433,0.5644394755363464
1776038166210327800,-1522121.694672119,0.8979719281196594,0.14049901068210602,0.28466320037841797
1776038166220337700,-1522121.6846623535,0.8429940342903137,0.14294247329235077,-0.015882495790719986
1776038166230408400,-1522121.6745915527,0.8002334833145142,0.1258382350206375,-0.34086281061172485
1776038166250550000,-1522121.6544499511,0.7428121566772461,0.01466076634824276,-0.9615018963813782
1776038166260590300,-1522121.644409668,0.7440338730812073,-0.04642575979232788,-1.2583824396133423
1776038166321045500,-1522121.58395459,0.7929030656814575,0.05619960278272629,-2.0586159229278564
1776038166341156600,-1522121.563843506,0.8222246170043945,0.18936823308467865,-1.938886284828186
1776038166351257900,-1522121.5537421876,0.8429940342903137,0.24434609711170197,-1.842369556427002
1776038166361328600,-1522121.5436713868,0.8662069439888,0.29077184200286865,-1.7238616943359375
1776038166371399400,-1522121.533600586,0.8662069439888,0.29077184200286865,-1.7238616943359375
1776038166381439700,-1522121.5235603028,0.8894197940826416,0.40683624148368835,-1.3756685256958008
1776038166391541200,-1522121.5134587402,0.8894197940826416,0.40683624148368835,-1.3756685256958008
1776038166401612000,-1522121.5033879394,0.8955284357070923,0.46670106053352356,-1.1349875926971436
1776038166411682800,-1522121.4933171386,0.8845328688621521,0.5338962078094482,-0.8747590184211731
1776038166421753600,-1522121.4832463379,0.8613200187683105,0.5962044596672058,-0.6291912198066711
1776038166431824400,-1522121.473175537,0.8332201838493347,0.6450737118721008,-0.42760565876960754
1776038166441895200,-1522121.4631047363,0.7953465580940247,0.6878342628479004,-0.2675589919090271
1776038166451966000,-1522121.4530339355,0.7428121566772461,0.7293730974197388,-0.14416420459747314
1776038166462006300,-1522121.4429936523,0.6768386960029602,0.7538077235221863,-0.05253441259264946
1776038166472107500,-1522121.4328925782,0.5913175344467163,0.740368664264679,0.01466076634824276
1776038166502289400,-1522121.4027106934,0.27488934993743896,0.6010913848876953,0.04398229718208313
1776038166512360200,-1522121.3926398926,0.17104226350784302,0.5607742667198181,-0.0403171069920063
1776038166522431000,-1522121.3825690919,0.06108652427792549,0.5375614166259766,-0.09896016865968704
1776038166542603300,-1522121.3623967285,-0.07208210229873657,0.5632177591323853,0.042760565876960754
1776038166552674000,-1522121.3523259277,-0.13561208546161652,0.5607742667198181,0.16737708449363708
1776038166562683600,-1522121.3423164063,-0.20036379992961884,0.5363397002220154,0.2590068578720093
1776038166572754400,-1522121.3322456055,-0.28099802136421204,0.4801400899887085,0.3237585723400116
1776038166592926700,-1522121.3120732422,-0.43737950921058655,0.3701843321323395,0.4642575979232788
1776038166613037800,-1522121.2919621582,-0.5644394755363464,0.21991148591041565,0.4862487316131592
1776038166623108600,-1522121.2818913574,-0.6291912198066711,0.1514945775270462,0.4349360466003418
1776038166633179400,-1522121.2718205566,-0.6890559792518616,0.07819075137376785,0.3530801236629486
1776038166643250200,-1522121.2617497558,-0.7379252314567566,-0.00855211354792118,0.2675589919090271
1776038166653321000,-1522121.251678955,-0.7757988572120667,-0.1014036312699318,0.19058994948863983
1776038166663330800,-1522121.2416691894,-0.8161159753799438,-0.1869247704744339,0.12095131725072861
1776038166673432000,-1522121.231567871,-0.8662069439888,-0.2431243658065796,0.07452555745840073
1776038166693573600,-1522121.2114262695,-0.9810495972633362,-0.2981022298336029,0.17837265133857727
1776038166713715200,-1522121.1912849122,-1.1068878173828125,-0.4337143301963806,0.485027015209198
1776038166723786000,-1522121.1812141114,-1.1740829944610596,-0.4948008358478546,0.6401867866516113
1776038166733856800,-1522121.1711433106,-1.2510520219802856,-0.5387831330299377,0.7782423496246338
1776038166743927600,-1522121.1610725098,-1.3329079151153564,-0.5656611919403076,0.9028588533401489
1776038166753998300,-1522121.151001709,-1.4110987186431885,-0.5729916095733643,1.0103710889816284
1776038166764069000,-1522121.1409309083,-1.4868459701538086,-0.5571091175079346,1.0836749076843262
1776038166774140000,-1522121.1308601075,-1.5540411472320557,-0.5363397002220154,1.1362093687057495
1776038166784211000,-1522121.1207890625,-1.6004669666290283,-0.5241223573684692,1.1838568449020386
1776038166814484200,-1522121.0905158692,-1.655444860458374,-0.5510004758834839,1.205847978591919
1776038166824524500,-1522121.0804753418,-1.6517796516418457,-0.5558874011039734,1.1789699792861938
1776038166834595300,-1522121.0704047852,-1.6420058012008667,-0.5827654600143433,1.1459832191467285
1776038166844666000,-1522121.0603339844,-1.6322319507598877,-0.6316346526145935,1.0739010572433472
1776038166854737000,-1522121.0502631837,-1.635897159576416,-0.6976081132888794,0.9492846131324768
1776038166864777200,-1522121.0402229005,-1.6615535020828247,-0.7550294399261475,0.7831292152404785
1776038166874848000,-1522121.0301520997,-1.6945401430130005,-0.7941248416900635,0.5925393104553223
1776038166884857900,-1522121.0201420898,-1.7287486791610718,-0.8222246170043945,0.375071257352829
1776038166894928600,-1522121.010071289,-1.7641788721084595,-0.8381071090698242,0.13927727937698364
1776038166904999400,-1522121.0000004882,-1.803274154663086,-0.8393288254737854,-0.10995574295520782
1776038166915070200,-1522120.9899296875,-1.8472565412521362,-0.8258898258209229,-0.35674530267715454
1776038166925141000,-1522120.9798588867,-1.8936822414398193,-0.799011766910553,-0.5656611919403076
1776038166935242200,-1522120.9697578126,-1.9339994192123413,-0.7562511563301086,-0.7159340381622314
1776038166945313000,-1522120.9596870118,-1.9657644033432007,-0.6927211880683899,-0.807563841342926
1776038166955383800,-1522120.949616211,-1.987755537033081,-0.618195652961731,-0.8417723178863525
1776038166965454800,-1522120.939545166,-1.99752938747406,-0.5461135506629944,-0.8356636762619019
1776038166975556000,-1522120.9294438476,-1.9926424026489258,-0.4703662395477295,-0.797789990901947
1776038166985596400,-1522120.9194035644,-1.976759910583496,-0.39217549562454224,-0.7391469478607178
1776038167005707500,-1522120.8992924804,-1.9254472255706787,-0.24678955972194672,-0.6243042945861816
1776038167015778300,-1522120.8892216797,-1.8875735998153687,-0.19547687470912933,-0.5436700582504272
1776038167025849000,-1522120.8791508789,-1.8448129892349243,-0.1466076523065567,-0.4251621961593628
1776038167035920000,-1522120.869080078,-1.7898352146148682,-0.1062905490398407,-0.2834414839744568
1776038167045960200,-1522120.859039795,-1.7116444110870361,-0.08185594528913498,-0.1514945775270462
1776038167056031000,-1522120.848968994,-1.6187928915023804,-0.059864792972803116,-0.06108652427792549
1776038167066071300,-1522120.838928711,-1.5222761631011963,-0.036651913076639175,-0.042760565876960754
1776038167076111400,-1522120.828888672,-1.4343116283416748,-0.028099801391363144,-0.09407325088977814
1776038167086151700,-1522120.8188483887,-1.3365731239318848,-0.024434609338641167,-0.1466076523065567
1776038167116364000,-1522120.7886359864,-0.9248499870300293,0.01466076634824276,-0.22602014243602753
1776038167126435000,-1522120.7785649414,-0.7489207983016968,0.04398229718208313,-0.28099802136421204
1776038167136475100,-1522120.7685249024,-0.5534439086914062,0.08552113175392151,-0.33597588539123535
1776038167146546000,-1522120.7584541016,-0.3396410644054413,0.13072516024112701,-0.36529740691185
1776038167156647400,-1522120.748352539,-0.11972958594560623,0.17837265133857727,-0.35185837745666504
1776038167166718200,-1522120.7382817382,0.10506882518529892,0.22602014243602753,-0.3029891550540924
1776038167176819500,-1522120.7281806641,0.3384193480014801,0.2675589919090271,-0.2321287989616394
1776038167186890200,-1522120.7181098633,0.5729916095733643,0.294437050819397,-0.15271630883216858
1776038167217072000,-1522120.6879279786,1.2205088138580322,0.3237585723400116,-0.02932153269648552
1776038167227112400,-1522120.6778874511,1.389107584953308,0.31154128909111023,0.018325956538319588
1776038167237213700,-1522120.667786377,1.5540411472320557,0.29565876722335815,0.13316862285137177
1776038167247254000,-1522120.6577460938,1.7299703359603882,0.29565876722335815,0.29077184200286865
1776038167257324800,-1522120.647675293,1.8777997493743896,0.2822197377681732,0.40072759985923767
1776038167267395600,-1522120.6376044923,2.012190103530884,0.2638937830924988,0.44837507605552673
1776038167277466400,-1522120.6275336915,2.174680233001709,0.27488934993743896,0.4495968222618103
1776038167287537200,-1522120.6174628907,2.3493876457214355,0.2981022298336029,0.4153883755207062
1776038167327789800,-1522120.5772102051,2.8710665702819824,0.2064724564552307,0.5204572081565857
1776038167337860600,-1522120.5671394044,2.8991663455963135,0.17470745742321014,0.6316346526145935
1776038167347931600,-1522120.5570683593,2.867401361465454,0.16249015927314758,0.7672467231750488
1776038167358002400,-1522120.5469975586,2.7672195434570312,0.17959438264369965,0.8906415104866028
1776038167368073200,-1522120.5369267578,2.6059510707855225,0.22113321721553802,0.9871582388877869
1776038167378174500,-1522120.5268254394,2.400700330734253,0.2785545587539673,1.0519099235534668
1776038167388245200,-1522120.5167546386,2.194227933883667,0.31642818450927734,1.1276572942733765
1776038167438630000,-1522120.4663701172,1.4978415966033936,0.2687807083129883,0.9053022861480713
1776038167448700700,-1522120.4562993164,1.4282029867172241,0.2382374405860901,0.6243042945861816
1776038167458802000,-1522120.446197998,1.3768903017044067,0.20036379992961884,0.31520646810531616
1776038167468903200,-1522120.436096924,1.3439035415649414,0.1771509200334549,-0.012217304669320583
1776038167479004400,-1522120.4259956055,1.320690631866455,0.15760323405265808,-0.34574973583221436
1776038167489075500,-1522120.4159245605,1.2962560653686523,0.1258382350206375,-0.6878342628479004
1776038167499115500,-1522120.4058845215,1.2767083644866943,0.09040805697441101,-1.017701506614685
1776038167539368200,-1522120.365631836,1.1117748022079468,0.06963863968849182,-1.7507398128509521
1776038167549469700,-1522120.3555302734,1.0726794004440308,0.10873401165008545,-1.7507398128509521
1776038167559510000,-1522120.3454899902,1.0396926403045654,0.14905111491680145,-1.683544635772705
1776038167569550000,-1522120.3354499512,1.0115928649902344,0.17470745742321014,-1.5552629232406616
1776038167579620900,-1522120.3253791505,0.9859365224838257,0.1918116807937622,-1.3842206001281738
1776038167589661200,-1522120.3153388673,0.9553932547569275,0.21135938167572021,-1.1789699792861938
1776038167599701500,-1522120.305298584,0.9187413454055786,0.23335053026676178,-0.9419541954994202
1776038167650055700,-1522120.254944336,0.6695083379745483,0.3689626157283783,0.02321287989616394
1776038167660126500,-1522120.2448735351,0.5925393104553223,0.39217549562454224,0.0757472887635231
1776038167670136000,-1522120.2348640137,0.5082398653030396,0.40683624148368835,0.10018189996480942
1776038167680237600,-1522120.2247624511,0.4300491213798523,0.4190535545349121,0.1062905490398407
1776038167690308400,-1522120.2146916504,0.3604104816913605,0.4288274049758911,0.0806342139840126
1776038167700348400,-1522120.2046516114,0.28955012559890747,0.43737950921058655,0.024434609338641167
1776038167710388700,-1522120.1946113282,0.21624629199504852,0.44715335965156555,-0.045204028487205505
1776038167750672100,-1522120.1543278808,-0.02687807008624077,0.5693264007568359,-0.16737708449363708
1776038167760743000,-1522120.14425708,-0.08674286305904388,0.5900958180427551,-0.08796459436416626
1776038167790955300,-1522120.1140446777,-0.24434609711170197,0.45814892649650574,0.18570303916931152
1776038167801026000,-1522120.103973877,-0.29077184200286865,0.3701843321323395,0.22113321721553802
1776038167811127300,-1522120.0938728028,-0.32620203495025635,0.31520646810531616,0.2028072625398636
1776038167821198000,-1522120.083802002,-0.35552358627319336,0.27611109614372253,0.12828169763088226
1776038167851380000,-1522120.0536201173,-0.4386012554168701,0.1514945775270462,-0.19914206862449646
1776038167861450800,-1522120.0435493165,-0.45692721009254456,0.11850785464048386,-0.2773328125476837
1776038167871521500,-1522120.0334785157,-0.48380526900291443,0.09773843735456467,-0.3225368559360504
1776038167881592300,-1522120.023407715,-0.5094616413116455,0.0806342139840126,-0.32009339332580566
1776038167891602200,-1522120.013397705,-0.5400048494338989,0.05864306539297104,-0.27977627515792847
1776038167901673000,-1522120.0033271485,-0.5778785347938538,0.036651913076639175,-0.2076941877603531
1776038167911743700,-1522119.9932563477,-0.5778785347938538,0.036651913076639175,-0.2076941877603531
1776038167921814500,-1522119.983185547,-0.6194173693656921,0.03298672288656235,-0.1270599663257599
1776038167962067200,-1522119.9429328614,-0.7037167549133301,0.06108652427792549,0.8344419002532959
1776038167972138000,-1522119.9328620606,-0.7000515460968018,0.009773843921720982,1.19607412815094
1776038167982208800,-1522119.9227912598,-0.7122688889503479,-0.0354301854968071,1.4795156717300415
1776038167992279600,-1522119.912720459,-0.799011766910553,-0.1563815027475357,1.7434093952178955
1776038168002350600,-1522119.902649414,-0.799011766910553,-0.1563815027475357,1.7434093952178955
1776038168022461400,-1522119.8825385743,-0.9615018963813782,-0.24068090319633484,1.8191566467285156
1776038168042572500,-1522119.8624274903,-1.1533136367797852,-0.2321287989616394,1.842369556427002
1776038168072785200,-1522119.8322148437,-1.3671164512634277,-0.34208452701568604,1.6566665172576904
1776038168082886400,-1522119.8221135254,-1.4110987186431885,-0.39217549562454224,1.6029103994369507
1776038168092957200,-1522119.8120427246,-1.4465289115905762,-0.44593164324760437,1.5454890727996826
1776038168103028000,-1522119.8019719238,-1.4770721197128296,-0.5167919993400574,1.4672982692718506
1776038168113098800,-1522119.7919013673,-1.5015068054199219,-0.6023131608963013,1.3744467496871948
1776038168123169500,-1522119.7818305665,-1.519832730293274,-0.6902777552604675,1.246165156364441
1776038168133240300,-1522119.7717597657,-1.5332717895507812,-0.779464066028595,1.0653489828109741
1776038168173432000,-1522119.731567871,-1.5748106241226196,-1.0445796251296997,0.27611109614372253
1776038168183502800,-1522119.7214970703,-1.578475832939148,-1.0885618925094604,0.08796459436416626
1776038168193573600,-1522119.7114262695,-1.576032280921936,-1.1178834438323975,-0.10262536257505417
1776038168203675000,-1522119.7013251954,-1.5638149976730347,-1.1301007270812988,-0.2736676335334778
1776038168213684700,-1522119.6913151855,-1.5442672967910767,-1.1252137422561646,-0.40194934606552124
1776038168223786000,-1522119.6812141114,-1.5112806558609009,-1.1093312501907349,-0.47280970215797424
1776038168233795800,-1522119.6712041015,-1.4636331796646118,-1.0836749076843262,-0.4899139404296875
1776038168243866600,-1522119.6611333007,-1.4135421514511108,-1.0531316995620728,-0.4642575979232788
1776038168274048500,-1522119.630951416,-1.2473868131637573,-0.8894197940826416,-0.3017674386501312
1776038168294068000,-1522119.610932129,-1.1496484279632568,-0.7257078886032104,-0.17348572611808777
1776038168304169200,-1522119.6008308106,-1.1154398918151855,-0.6304129362106323,-0.09896016865968704
1776038168314240000,-1522119.5907600098,-1.0873401165008545,-0.5290092825889587,-0.010995574295520782
1776038168324311000,-1522119.5806889648,-1.0641272068023682,-0.4300491213798523,0.0708603709936142
1776038168334381800,-1522119.570618164,-1.0433578491210938,-0.33475416898727417,0.1111774742603302
1776038168344422000,-1522119.560578125,-1.0225883722305298,-0.2431243658065796,0.09285151958465576
1776038168374542800,-1522119.5304570312,-1.0128145217895508,0.01710422709584236,-0.1417207419872284
1776038168394715000,-1522119.5102851563,-0.9871582388877869,0.1869247704744339,-0.18448130786418915
1776038168404755200,-1522119.500244873,-0.9724974632263184,0.25045475363731384,-0.22602014243602753
1776038168414826000,-1522119.4901740723,-0.9566149711608887,0.30054569244384766,-0.2968805134296417
1776038168424866300,-1522119.4801337891,-0.9321803450584412,0.35185837745666504,-0.3604104816913605
1776038168434937000,-1522119.4700629883,-0.9028588533401489,0.3885102868080139,-0.38728857040405273
1776038168445008000,-1522119.4599921876,-0.8600982427597046,0.4178318381309509,-0.36651915311813354
1776038168455078700,-1522119.4499213868,-0.7831292152404785,0.4495968222618103,-0.3188716471195221
1776038168485199600,-1522119.419800293,-0.44715335965156555,0.4801400899887085,-0.3396410644054413
1776038168505341200,-1522119.3996589356,-0.10018189996480942,0.5265658497810364,-0.36651915311813354
1776038168515412000,-1522119.3895881348,0.10262536257505417,0.5571091175079346,-0.31031954288482666
1776038168525482800,-1522119.379517334,0.3090978264808655,0.5852088928222656,-0.2321287989616394
1776038168535553500,-1522119.3694465333,0.5192354321479797,0.5937610268592834,-0.14782938361167908
1776038168545593900,-1522119.35940625,0.740368664264679,0.5864306092262268,-0.05253441259264946
1776038168555634200,-1522119.3493657226,0.9712757468223572,0.5583308339118958,0.04886921867728233
1776038168565705000,-1522119.3392949218,1.2021827697753906,0.5277875661849976,0.14416420459747314
1776038168575775700,-1522119.3292243653,1.4294246435165405,0.5253441333770752,0.20036379992961884
1776038168595886800,-1522119.309113037,1.9071213006973267,0.5204572081565857,0.2577851414680481
1776038168605988000,-1522119.299011963,2.14902400970459,0.5021312236785889,0.2919935882091522
1776038168616059000,-1522119.2889411622,2.3738224506378174,0.4813618063926697,0.304210901260376
1776038168626129700,-1522119.2788703614,2.568077564239502,0.42760565876960754,0.30543261766433716
1776038168636200400,-1522119.2687995606,2.724458932876587,0.35552358627319336,0.33719760179519653
1776038168646302000,-1522119.258697998,2.8160886764526367,0.2981022298336029,0.38117989897727966
1776038168656372700,-1522119.2486271972,2.83074951171875,0.2785545587539673,0.4129449129104614
1776038168676514300,-1522119.2284855957,2.715906858444214,0.2638937830924988,0.46670106053352356
1776038168696533800,-1522119.2084663087,2.4544565677642822,0.25534167885780334,0.5155702829360962
1776038168716675300,-1522119.188324707,2.1453588008880615,0.27122417092323303,0.5595525503158569
1776038168726776800,-1522119.1782231445,2.0231857299804688,0.26022860407829285,0.6120869517326355
1776038168736847600,-1522119.1681523437,1.9266690015792847,0.2577851414680481,0.6304129362106323
1776038168746918400,-1522119.158081543,1.8692476749420166,0.2626720666885376,0.5778785347938538
1776038168756989200,-1522119.1480107422,1.8154915571212769,0.251676470041275,0.475253164768219
1776038168767060000,-1522119.1379399414,1.7409659624099731,0.23090706765651703,0.3384193480014801
1776038168787171000,-1522119.1178288574,1.588249683380127,0.20036379992961884,-0.0403171069920063
1776038168807251700,-1522119.097748291,1.4526375532150269,0.1869247704744339,-0.4960225820541382
1776038168817261300,-1522119.0877387696,1.379333734512329,0.16982053220272064,-0.6939429044723511
1776038168827362600,-1522119.0776374512,1.2974777221679688,0.16004669666290283,-0.8735373020172119
1776038168837433600,-1522119.0675664062,1.215621829032898,0.16371189057826996,-1.047023057937622
1776038168847534800,-1522119.0574650879,1.1410962343215942,0.17104226350784302,-1.2217304706573486
1776038168857605600,-1522119.047394287,1.0653489828109741,0.18570303916931152,-1.3927727937698364
1776038168867676400,-1522119.0373234863,0.988379955291748,0.21868975460529327,-1.519832730293274
1776038168897797400,-1522119.0072026367,0.7941248416900635,0.2993239760398865,-1.4734070301055908
1776038168907898600,-1522118.9971013183,0.7440338730812073,0.3396410644054413,-1.3426817655563354
1776038168917877800,-1522118.9871223145,0.7134906053543091,0.375071257352829,-1.1801916360855103
1776038168927979300,-1522118.977020752,0.6951646208763123,0.4043927788734436,-1.0054842233657837
1776038168938019300,-1522118.966980713,0.6719517707824707,0.4337143301963806,-0.817337691783905
1776038168948120800,-1522118.9568791504,0.6426302194595337,0.46181413531303406,-0.6316346526145935
1776038168958130400,-1522118.946869629,0.6059783101081848,0.49357911944389343,-0.46670106053352356
1776038168968232000,-1522118.9367680664,0.5717698931694031,0.5253441333770752,-0.3237585723400116
1776038169008515000,-1522118.8964848632,0.4349360466003418,0.5656611919403076,-0.18325957655906677
1776038169018585900,-1522118.8864140625,0.37751471996307373,0.5815436840057373,-0.1820378452539444
1776038169028656600,-1522118.8763432617,0.3176499307155609,0.5962044596672058,-0.17959438264369965
1776038169038727400,-1522118.866272461,0.2590068578720093,0.6059783101081848,-0.1820378452539444
1776038169048798200,-1522118.8562019044,0.19914206862449646,0.608421802520752,-0.19303341209888458
1776038169058869000,-1522118.8461311036,0.12950342893600464,0.598647952079773,-0.2076941877603531
1776038169068909300,-1522118.8360905761,0.04398229718208313,0.588874101638794,-0.20402899384498596
1776038169078949600,-1522118.826050293,-0.039095375686883926,0.5791002511978149,-0.1771509200334549
1776038169109070300,-1522118.7959296876,-0.25045475363731384,0.48380526900291443,-0.07941248267889023
1776038169129151000,-1522118.7758491212,-0.35063666105270386,0.3591887652873993,0.00855211354792118
1776038169139160800,-1522118.7658391113,-0.39095374941825867,0.28955012559890747,0.04886921867728233
1776038169149231600,-1522118.7557683105,-0.4239404797554016,0.22968533635139465,0.04398229718208313
1776038169159302400,-1522118.7456975097,-0.4508185386657715,0.16859880089759827,0
1776038169169373200,-1522118.735626709,-0.4764748811721802,0.1014036312699318,-0.042760565876960754
1776038169179413500,-1522118.7255864257,-0.5070181488990784,0.0354301854968071,-0.04764748737215996
1776038169199494100,-1522118.7055058593,-0.5583308339118958,-0.0757472887635231,0.004886921960860491
1776038169219574500,-1522118.6854255372,-0.6157521605491638,-0.18936823308467865,0.045204028487205505
1776038169229645300,-1522118.6753547364,-0.6621779203414917,-0.2272418737411499,0.08429940044879913
1776038169239685600,-1522118.6653144532,-0.7049384713172913,-0.2382374405860901,0.16982053220272064
1776038169249726000,-1522118.65527417,-0.7476990818977356,-0.24678955972194672,0.30543261766433716
1776038169259735800,-1522118.6452641601,-0.7867944240570068,-0.2785545587539673,0.4911356568336487
1776038169269837000,-1522118.6351628418,-0.8222246170043945,-0.32986724376678467,0.7122688889503479
1776038169279907800,-1522118.625092041,-0.8613200187683105,-0.39217549562454224,0.93095862865448
1776038169290009000,-1522118.6149909669,-0.8613200187683105,-0.39217549562454224,0.93095862865448
1776038169310120200,-1522118.5948798829,-0.9896016716957092,-0.5546656250953674,1.2205088138580322
1776038169330261800,-1522118.5747382813,-1.1557570695877075,-0.6719517707824707,1.2229522466659546
1776038169340241200,-1522118.564758789,-1.2583824396133423,-0.6707300543785095,1.1252137422561646
1776038169350342400,-1522118.554657715,-1.361007809638977,-0.636521577835083,0.9993755221366882
1776038169360413200,-1522118.5445869141,-1.4379768371582031,-0.5925393104553223,0.8894197940826416
1776038169370453500,-1522118.5345463867,-1.4880677461624146,-0.5571091175079346,0.8087855577468872
1776038169380432600,-1522118.5245673829,-1.5161675214767456,-0.5497786998748779,0.759916365146637
1776038169390534100,-1522118.5144658203,-1.5259413719177246,-0.5644394755363464,0.7464773058891296
1776038169410645200,-1522118.4943547363,-1.518610954284668,-0.6059783101081848,0.7721336483955383
1776038169430756400,-1522118.4742436523,-1.4844025373458862,-0.6707300543785095,0.7721336483955383
1776038169440827100,-1522118.4641728515,-1.4758504629135132,-0.7147123217582703,0.7354817390441895
1776038169450898000,-1522118.4541020507,-1.4831807613372803,-0.7635815739631653,0.6120869517326355
1776038169460938200,-1522118.4440617675,-1.5076154470443726,-0.8234463334083557,0.45204028487205505
1776038169471039500,-1522118.4339604492,-1.5308283567428589,-0.8796459436416626,0.33475416898727417
1776038169481018600,-1522118.4239814454,-1.5552629232406616,-0.9187413454055786,0.2883284091949463
1776038169491120000,-1522118.4138798828,-1.588249683380127,-0.9224064946174622,0.2736676335334778
1776038169501191000,-1522118.403809082,-1.6322319507598877,-0.9101892113685608,0.2370157092809677
1776038169511261700,-1522118.3937382812,-1.6847662925720215,-0.901637077331543,0.1466076523065567
1776038169521302000,-1522118.383697998,-1.7397441864013672,-0.8881980776786804,0.028099801391363144
1776038169531372800,-1522118.3736271972,-1.7959438562393188,-0.8600982427597046,-0.07819075137376785
1776038169541412900,-1522118.3635871583,-1.8484781980514526,-0.8100073337554932,-0.12828169763088226
