time,seconds_elapsed,z,y,x
1776038153360372500,-1522134.5446274413,9.65694808959961,1.5105308294296265,0.795012891292572
1776038153380053000,-1522134.5249470214,9.649965286254883,1.6039609909057617,0.6898377537727356
1776038153400033500,-1522134.5049665528,9.664346694946289,1.496612310409546,0.7286529541015625
1776038153410104300,-1522134.494895752,9.66526985168457,1.4935160875320435,0.7227503061294556
1776038153420053000,-1522134.4849470216,9.666077613830566,1.4913623332977295,0.7163520455360413
1776038153430154200,-1522134.4748457032,9.66675853729248,1.4903743267059326,0.7091914415359497
1776038153440225000,-1522134.4647749024,9.667436599731445,1.4895519018173218,0.7016356587409973
1776038153450296000,-1522134.4547038574,9.66783332824707,1.4887299537658691,0.6979064345359802
1776038153470376400,-1522134.4346235353,9.669310569763184,1.4863286018371582,0.6823766231536865
1776038153480447200,-1522134.4245527345,9.66997241973877,1.4856398105621338,0.6744492053985596
1776038153490518000,-1522134.4144819337,9.670669555664062,1.4848371744155884,0.6661844849586487
1776038153500558300,-1522134.4044416505,9.671513557434082,1.483237862586975,0.6574296951293945
1776038153510659600,-1522134.3943403321,9.672713279724121,1.4793130159378052,0.6485758423805237
1776038153520600000,-1522134.3843999023,9.674506187438965,1.4731717109680176,0.6356802582740784
1776038153530670800,-1522134.3743291015,9.67577075958252,1.4683128595352173,0.627621054649353
1776038153540680400,-1522134.3643195801,9.67639446258545,1.4658046960830688,0.6238545775413513
1776038153550751200,-1522134.3542487794,9.677276611328125,1.4628777503967285,0.6170105934143066
1776038153560791600,-1522134.3442084962,9.677911758422852,1.4627782106399536,0.607203483581543
1776038153590943000,-1522134.314057129,9.678428649902344,1.4662814140319824,0.5902869701385498
1776038153601013800,-1522134.3039863282,9.679547309875488,1.4614994525909424,0.5837475061416626
1776038153611115000,-1522134.2938850098,9.68246078491211,1.445909023284912,0.574188232421875
1776038153621124900,-1522134.2838752442,9.684783935546875,1.4330801963806152,0.5671287775039673
1776038153631226000,-1522134.2737739258,9.68733024597168,1.4191316366195679,0.5586473345756531
1776038153641297000,-1522134.263703125,9.690027236938477,1.4046604633331299,0.5483457446098328
1776038153651368000,-1522134.25363208,9.692864418029785,1.3897324800491333,0.5361054539680481
1776038153681488600,-1522134.2235114747,9.701628684997559,1.343277931213379,0.4943467974662781
1776038153691529000,-1522134.2134709472,9.706724166870117,1.314388394355774,0.4714703857898712
1776038153701569300,-1522134.203430664,9.717055320739746,1.2506718635559082,0.4301694929599762
1776038153711670500,-1522134.19332959,9.725608825683594,1.193406343460083,0.3983658254146576
1776038153721710800,-1522134.1832890625,9.730056762695312,1.1621379852294922,0.3818657696247101
1776038153741822000,-1522134.1631779785,9.755366325378418,0.9589694142341614,0.2891104221343994
1776038153751862300,-1522134.1531376953,9.763631820678711,0.8829483389854431,0.24954533576965332
1776038153782013400,-1522134.1229865723,9.775469779968262,0.770210862159729,0.13176918029785156
1776038153792053800,-1522134.1129462891,9.777703285217285,0.7488347887992859,0.07843290269374847
1776038153802033200,-1522134.1029667968,9.779632568359375,0.7270162105560303,0.024853870272636414
1776038153812134400,-1522134.0928654785,9.783050537109375,0.6780349612236023,-0.050734929740428925
1776038153822205200,-1522134.082794922,9.785346031188965,0.6386433839797974,-0.09757761657238007
1776038153832276000,-1522134.0727241212,9.786479949951172,0.6170154213905334,-0.1204352006316185
1776038153842316300,-1522134.0626835937,9.788352012634277,0.570667028427124,-0.18133531510829926
1776038153852417500,-1522134.0525825196,9.78849983215332,0.5549514889717102,-0.21836449205875397
1776038153902771700,-1522134.0022282714,9.781038284301758,0.6142376065254211,-0.35269537568092346
1776038153912842500,-1522133.9921574707,9.78027057647705,0.6130852103233337,-0.37527114152908325
1776038153922882800,-1522133.9821171875,9.781277656555176,0.5778241753578186,-0.40388888120651245
1776038153932953600,-1522133.9720463867,9.7818603515625,0.5624439120292664,-0.4114057719707489
1776038153943024400,-1522133.961975586,9.784728050231934,0.47516849637031555,-0.45134028792381287
1776038153953064700,-1522133.9519353027,9.786979675292969,0.39495980739593506,-0.47897619009017944
1776038153963104800,-1522133.9418952637,9.78911018371582,0.29251542687416077,-0.5080878138542175
1776038153973175600,-1522133.931824463,9.78982162475586,0.23604156076908112,-0.5235060453414917
1776038153993317400,-1522133.9116826172,9.788538932800293,-0.07632602751255035,-0.5908176898956299
1776038154003388200,-1522133.9016118164,9.78258991241455,-0.2793973386287689,-0.6271008253097534
1776038154013428500,-1522133.8915715332,9.770588874816895,-0.5120519399642944,-0.6661621928215027
1776038154033539300,-1522133.8714606934,9.720441818237305,-1.0487656593322754,-0.7638705372810364
1776038154043579600,-1522133.8614204102,9.678923606872559,-1.3443431854248047,-0.825562596321106
1776038154053650400,-1522133.8513496094,9.62322998046875,-1.6596870422363281,-0.8995999693870544
1776038154063690800,-1522133.8413093262,9.508307456970215,-2.16972017288208,-1.0270285606384277
1776038154093933800,-1522133.811066162,9.22473430633545,-3.067368745803833,-1.2907029390335083
1776038154103974000,-1522133.801026123,9.079816818237305,-3.4219932556152344,-1.420312523841858
1776038154114075400,-1522133.7909245605,8.822954177856445,-3.954834222793579,-1.6386436223983765
1776038154124115700,-1522133.7808842773,8.725462913513184,-4.128332614898682,-1.730191707611084
1776038154134155800,-1522133.7708442383,8.516287803649902,-4.4738545417785645,-1.9046903848648071
1776038154144196000,-1522133.7608039551,8.170681953430176,-4.963661193847656,-2.1845860481262207
1776038154154236400,-1522133.750763672,7.917757034301758,-5.261501312255859,-2.4075140953063965
1776038154164307200,-1522133.7406928712,7.63218879699707,-5.532128810882568,-2.7047436237335205
1776038154194458600,-1522133.7105412597,6.80685567855835,-6.1287078857421875,-3.503718852996826
1776038154204529400,-1522133.7004707032,6.668882369995117,-6.199406623840332,-3.641944169998169
1776038154214600200,-1522133.6903999024,6.408472537994385,-6.311085224151611,-3.9079501628875732
1776038154234711300,-1522133.6702888184,5.930383682250977,-6.413315773010254,-4.457613468170166
1776038154244782000,-1522133.6602180176,5.629611015319824,-6.3731369972229,-4.884773254394531
1776038154254852900,-1522133.6501472169,5.449174880981445,-6.297675132751465,-5.178433895111084
1776038154264862700,-1522133.640137207,5.362882614135742,-6.2480149269104,-5.326555252075195
1776038154274903000,-1522133.6300969238,5.192087173461914,-6.12966775894165,-5.624926567077637
1776038154294953000,-1522133.6100471192,4.835544586181641,-5.849531650543213,-6.210545063018799
1776038154304962800,-1522133.6000371093,4.6481733322143555,-5.691628932952881,-6.493862152099609
1776038154315033600,-1522133.5899663086,4.460043907165527,-5.515538215637207,-6.7717976570129395
1776038154325104400,-1522133.5798955078,4.2810282707214355,-5.316669940948486,-7.041036128997803
1776038154335175200,-1522133.5698249512,4.047827243804932,-4.963439464569092,-7.426287651062012
1776038154345185000,-1522133.5598149414,3.9205658435821533,-4.69193172454834,-7.667160511016846
1776038154355286300,-1522133.549713623,3.8625118732452393,-4.545330047607422,-7.784046173095703
1776038154375367000,-1522133.5296330566,3.7178382873535156,-3.885348320007324,-8.200738906860352
1776038154405579300,-1522133.4994206543,3.658363103866577,-2.542114734649658,-8.736384391784668
1776038154415680500,-1522133.4893195801,3.64750599861145,-2.143254041671753,-8.84717845916748
1776038154435791600,-1522133.4692084962,3.6096231937408447,-1.5641814470291138,-8.983002662658691
1776038154455933200,-1522133.4490668946,3.4998652935028076,-0.8616488575935364,-9.120246887207031
1776038154476044300,-1522133.4289558106,3.367704153060913,-0.43049219250679016,-9.200197219848633
1776038154506195700,-1522133.3988041992,2.9779865741729736,0.2770407199859619,-9.339445114135742
1776038154526337300,-1522133.3786628419,2.6942782402038574,0.5171696543693542,-9.415083885192871
1776038154546478800,-1522133.3585212403,2.546215295791626,0.575240433216095,-9.452845573425293
1776038154606812200,-1522133.298187744,2.2817816734313965,0.3475070297718048,-9.531164169311523
1776038154616883000,-1522133.2881169433,2.2667601108551025,0.2681862413883209,-9.537310600280762
1776038154697388300,-1522133.2076118165,2.116957187652588,-0.42708179354667664,-9.565901756286621
1776038154717529900,-1522133.187470215,2.1088790893554688,-0.5840329527854919,-9.559388160705566
1776038154767914500,-1522133.1370854492,2.164134979248047,-1.3267101049423218,-9.472420692443848
1776038154828400400,-1522133.0765996093,2.3265905380249023,-2.2960104942321777,-9.245847702026367
1776038154898712800,-1522133.0062871093,2.624446153640747,-3.4937832355499268,-8.779301643371582
1776038154908814000,-1522132.9961860352,2.69758939743042,-3.721550941467285,-8.662762641906738
1776038154918915300,-1522132.9860847169,2.717195987701416,-3.7975707054138184,-8.623554229736328
1776038154959168000,-1522132.9458320313,2.9198479652404785,-4.359595775604248,-8.284854888916016
1776038154969177900,-1522132.9358222657,2.981163501739502,-4.490499973297119,-8.192584991455078
1776038154979279000,-1522132.9257209473,3.0477137565612793,-4.617810249328613,-8.09676742553711
1776038154989350000,-1522132.9156501465,3.115902900695801,-4.740968704223633,-7.999046802520752
1776038154999451400,-1522132.905548584,3.1837329864501953,-4.861878871917725,-7.899137020111084
1776038155009522200,-1522132.8954777832,3.249824285507202,-4.980081081390381,-7.797937870025635
1776038155019501300,-1522132.8854987794,3.310112953186035,-5.096055030822754,-7.696997165679932
1776038155029602600,-1522132.875397461,3.3629064559936523,-5.211764812469482,-7.595969200134277
1776038155059754000,-1522132.8452460938,3.5179853439331055,-5.621349334716797,-7.224584102630615
1776038155100006700,-1522132.8049934083,3.612569570541382,-6.007535934448242,-6.857787609100342
1776038155110108200,-1522132.7948918457,3.6174397468566895,-6.124804496765137,-6.750650405883789
1776038155120209400,-1522132.7847905273,3.603969097137451,-6.248187065124512,-6.643941402435303
1776038155130280200,-1522132.7747197265,3.577178716659546,-6.374755382537842,-6.537330150604248
1776038155160492500,-1522132.7445075684,3.3979403972625732,-6.735383987426758,-6.26569938659668
1776038155170563300,-1522132.7344367676,3.303468704223633,-6.931668758392334,-6.099954605102539
1776038155180634000,-1522132.7243659669,3.2420854568481445,-7.066727638244629,-5.976675033569336
1776038155190735400,-1522132.7142646485,3.2075788974761963,-7.133438587188721,-5.915731430053711
1776038155200806400,-1522132.7041936035,3.1522719860076904,-7.272430896759033,-5.774540424346924
1776038155210877200,-1522132.6941228027,3.0938875675201416,-7.407473087310791,-5.632724761962891
1776038155220917200,-1522132.6840827637,3.035429000854492,-7.536016464233398,-5.492269039154053
1776038155230927000,-1522132.674072998,2.9798331260681152,-7.656216144561768,-5.354750156402588
1776038155261139500,-1522132.6438605958,2.8375980854034424,-7.997880458831787,-4.914505958557129
1776038155271210200,-1522132.633789795,2.823150873184204,-8.03650951385498,-4.859495639801025
1776038155281250600,-1522132.6237495118,2.802934408187866,-8.104522705078125,-4.757171630859375
1776038155291291000,-1522132.6137092286,2.7910537719726562,-8.160680770874023,-4.667298793792725
1776038155301331200,-1522132.6036687011,2.7877557277679443,-8.206365585327148,-4.588504791259766
1776038155311432400,-1522132.593567627,2.7947604656219482,-8.24094009399414,-4.521792888641357
1776038155321534000,-1522132.5834660644,2.813209295272827,-8.26546859741211,-4.465230464935303
1776038155331513000,-1522132.5734868164,2.8434879779815674,-8.280489921569824,-4.417968273162842
1776038155351654700,-1522132.553345459,2.9387738704681396,-8.282792091369629,-4.350789546966553
1776038155371826700,-1522132.53317334,3.050633192062378,-8.256299018859863,-4.324065685272217
1776038155381897500,-1522132.5231025391,3.0936641693115234,-8.240001678466797,-4.324584007263184
1776038155391968500,-1522132.513031494,3.1222825050354004,-8.223730087280273,-4.3349761962890625
1776038155402039300,-1522132.5029606933,3.1367385387420654,-8.207244873046875,-4.355731964111328
1776038155412110000,-1522132.4928898925,3.139955520629883,-8.189318656921387,-4.3870415687561035
1776038155422211300,-1522132.4827885742,3.1363461017608643,-8.16804027557373,-4.429089069366455
1776038155432282000,-1522132.4727177734,3.128995656967163,-8.14185905456543,-4.482178211212158
1776038155442353000,-1522132.4626472169,3.1204683780670166,-8.108848571777344,-4.547488212585449
1776038155452423700,-1522132.452576416,3.1146135330200195,-8.065770149230957,-4.627408981323242
1776038155482575000,-1522132.4224248047,3.1542091369628906,-7.822877407073975,-5.0023932456970215
1776038155492554200,-1522132.4124458008,3.1561481952667236,-7.732598781585693,-5.139655113220215
1776038155502625000,-1522132.402375,3.155247688293457,-7.636099338531494,-5.282497882843018
1776038155512665300,-1522132.3923347169,3.1573688983917236,-7.527255535125732,-5.435240745544434
1776038155522766800,-1522132.3822331543,3.1599695682525635,-7.407954216003418,-5.5952839851379395
1776038155532837600,-1522132.3721623535,3.16058611869812,-7.270543098449707,-5.772373676300049
1776038155542877700,-1522132.3621223145,3.1584877967834473,-7.114292621612549,-5.964996814727783
1776038155562958300,-1522132.342041748,3.1428563594818115,-6.782805919647217,-6.3471574783325195
1776038155583130600,-1522132.3218693847,3.0801336765289307,-6.4208221435546875,-6.74212121963501
1776038155593201400,-1522132.311798584,3.030027151107788,-6.228265762329102,-6.942480564117432
1776038155603211000,-1522132.3017890626,2.9768388271331787,-6.021059989929199,-7.14532470703125
1776038155613281800,-1522132.2917182618,2.927722215652466,-5.800920486450195,-7.344939708709717
1776038155623322000,-1522132.2816779786,2.888256549835205,-5.568395137786865,-7.537993431091309
1776038155633393000,-1522132.2716071778,2.864240884780884,-5.324847221374512,-7.720914840698242
1776038155643463700,-1522132.261536377,2.8606793880462646,-5.071862697601318,-7.890697956085205
1776038155653504000,-1522132.2514960938,2.893054246902466,-4.687778949737549,-8.11328411102295
1776038155683747000,-1522132.2212529297,3.014324426651001,-3.9521145820617676,-8.45370101928711
1776038155693817900,-1522132.2111821289,3.031120777130127,-3.836130142211914,-8.500988006591797
1776038155703858000,-1522132.20114209,3.0705881118774414,-3.6175217628479004,-8.582273483276367
1776038155713898200,-1522132.1911018067,3.106095552444458,-3.412994384765625,-8.652978897094727
1776038155723999700,-1522132.181000244,3.1376609802246094,-3.2222421169281006,-8.714507102966309
1776038155734070500,-1522132.1709294433,3.1627731323242188,-3.049511432647705,-8.767425537109375
1776038155744141300,-1522132.1608586425,3.177361011505127,-2.898359775543213,-8.813302040100098
1776038155754212000,-1522132.1507878418,3.179626703262329,-2.7725813388824463,-8.852862358093262
1776038155784363500,-1522132.1206364746,3.0992257595062256,-2.5475916862487793,-8.94846248626709
1776038155794403600,-1522132.1105964356,3.023153781890869,-2.496159553527832,-8.988887786865234
1776038155804413400,-1522132.10058667,2.9609768390655518,-2.5063486099243164,-9.006731986999512
1776038155814453800,-1522132.0905461425,2.87727689743042,-2.5153281688690186,-9.03132438659668
1776038155824555000,-1522132.0804450684,2.7917892932891846,-2.5372798442840576,-9.051989555358887
1776038155834625800,-1522132.0703742676,2.6953163146972656,-2.5811288356781006,-9.068817138671875
1776038155844696600,-1522132.0603034669,2.5615556240081787,-2.6404292583465576,-9.090486526489258
1776038155854767400,-1522132.050232666,2.5029964447021484,-2.6947412490844727,-9.090862274169922
1776038155864807700,-1522132.0401923829,2.4466776847839355,-2.6898510456085205,-9.107625961303711
1776038155874878500,-1522132.030121582,2.4049019813537598,-2.659055471420288,-9.127774238586426
1776038155904969000,-1522132.0000310058,2.329678773880005,-2.463648796081543,-9.20181655883789
1776038155914978600,-1522131.9900214844,2.3116648197174072,-2.3780112266540527,-9.228848457336426
1776038155925080000,-1522131.9799199218,2.2914011478424072,-2.2917861938476562,-9.255678176879883
1776038155935089700,-1522131.9699104005,2.2672271728515625,-2.208392858505249,-9.281867980957031
1776038155945191200,-1522131.9598088379,2.236172676086426,-2.135716438293457,-9.306376457214355
1776038155955231200,-1522131.949768799,2.176609992980957,-2.0335400104522705,-9.34331226348877
1776038155965271600,-1522131.9397285157,2.1264188289642334,-2.005209445953369,-9.360976219177246
1776038155995453400,-1522131.909546631,1.997382640838623,-2.068681240081787,-9.375576972961426
1776038156015564500,-1522131.889435547,1.8911890983581543,-2.0790672302246094,-9.395279884338379
1776038156025635300,-1522131.8793647462,1.8321850299835205,-2.0590884685516357,-9.411358833312988
1776038156035706000,-1522131.8692939454,1.7686995267868042,-2.0356361865997314,-9.4285888671875
1776038156045777000,-1522131.8592231446,1.7053875923156738,-2.012784242630005,-9.445143699645996
1776038156055847700,-1522131.8491523438,1.6462048292160034,-1.993373155593872,-9.459748268127441
1776038156065888000,-1522131.8391120606,1.5936434268951416,-1.97742760181427,-9.472089767456055
1776038156075958800,-1522131.8290412598,1.5487802028656006,-1.9631813764572144,-9.482488632202148
1776038156086029600,-1522131.818970459,1.507577896118164,-1.9508423805236816,-9.491670608520508
1776038156116150500,-1522131.7888493652,1.395049810409546,-1.9430779218673706,-9.51045036315918
1776038156126221300,-1522131.7787788087,1.3805817365646362,-1.9503289461135864,-9.511079788208008
1776038156136292000,-1522131.7687080079,1.3792600631713867,-1.9643712043762207,-9.508380889892578
1776038156146363000,-1522131.758637207,1.386919617652893,-1.986336350440979,-9.502700805664062
1776038156156433700,-1522131.7485664063,1.4018635749816895,-2.0328075885772705,-9.49067211151123
1776038156166535200,-1522131.7384648437,1.4136995077133179,-2.052100419998169,-9.484764099121094
1776038156176544800,-1522131.7284553223,1.431943655014038,-2.1121673583984375,-9.468828201293945
1776038156196686300,-1522131.7083137208,1.4640905857086182,-2.20225191116333,-9.443353652954102
1776038156206787800,-1522131.6982121582,1.4763339757919312,-2.228015184402466,-9.435400009155273
1776038156216858600,-1522131.6881413574,1.5008972883224487,-2.2771921157836914,-9.41977310180664
1776038156226960000,-1522131.678040039,1.5449573993682861,-2.314162015914917,-9.40362548828125
1776038156237030700,-1522131.6679692382,1.5904384851455688,-2.349929094314575,-9.387158393859863
1776038156247101400,-1522131.6578986817,1.643832802772522,-2.3770837783813477,-9.371109008789062
1776038156257111300,-1522131.6478886718,1.6993412971496582,-2.3979294300079346,-9.355883598327637
1776038156267182000,-1522131.637817871,1.7797365188598633,-2.424344062805176,-9.334102630615234
1776038156277161200,-1522131.6278388673,1.8095149993896484,-2.4335711002349854,-9.325973510742188
1776038156287262500,-1522131.617737549,1.8932489156723022,-2.4657466411590576,-9.300865173339844
1776038156317383400,-1522131.587616455,2.094893217086792,-2.5649890899658203,-9.2305269241333
1776038156327484700,-1522131.577515381,2.136105537414551,-2.5890185832977295,-9.214359283447266
1776038156337555500,-1522131.5674445801,2.2207114696502686,-2.648186445236206,-9.177468299865723
1776038156347626200,-1522131.5573737794,2.3550493717193604,-2.7626209259033203,-9.10999870300293
1776038156357697300,-1522131.5473027343,2.4037725925445557,-2.80879545211792,-9.083111763000488
1776038156367768000,-1522131.5372319336,2.542630434036255,-2.9601924419403076,-8.99681568145752
1776038156377838800,-1522131.5271611328,2.59018611907959,-3.0153350830078125,-8.964879989624023
1776038156387940000,-1522131.5170598144,2.7386839389801025,-3.186159133911133,-8.861061096191406
1776038156428223200,-1522131.4767768555,3.1119349002838135,-3.5939574241638184,-8.577279090881348
1776038156438294000,-1522131.4667060548,3.2172582149505615,-3.7111611366271973,-8.488045692443848
1776038156448334300,-1522131.4566657715,3.315948963165283,-3.8319051265716553,-8.395913124084473
1776038156458374700,-1522131.446625244,3.405930280685425,-3.9579923152923584,-8.300864219665527
1776038156468476000,-1522131.43652417,3.4878077507019043,-4.092220783233643,-8.201178550720215
1776038156478546700,-1522131.4264533692,3.558518648147583,-4.23370361328125,-8.098339080810547
1776038156488617500,-1522131.4163825684,3.6176161766052246,-4.381664276123047,-7.992761611938477
1776038156498688300,-1522131.4063117676,3.664832592010498,-4.535079002380371,-7.884950637817383
1776038156508759300,-1522131.3962407226,3.7008285522460938,-4.692305088043213,-7.775379657745361
1776038156528870100,-1522131.3761298829,3.7382700443267822,-5.009472370147705,-7.556515216827393
1776038156538910500,-1522131.3660895997,3.7585368156433105,-5.248988151550293,-7.381863117218018
1776038156548920300,-1522131.3560795898,3.726440191268921,-5.318992614746094,-7.347949504852295
1776038156558960600,-1522131.3460393066,3.703540086746216,-5.46735954284668,-7.24997615814209
1776038156569031400,-1522131.3359685058,3.6669921875,-5.611232757568359,-7.158046245574951
1776038156579010600,-1522131.325989502,3.574892044067383,-5.6552276611328125,-7.1700029373168945
1776038156589112000,-1522131.3158879394,3.5729713439941406,-5.863439083099365,-7.001739025115967
1776038156609253600,-1522131.2957463379,3.616482973098755,-6.182945728302002,-6.6979570388793945
1776038156629395200,-1522131.2756047363,3.671908140182495,-6.413321495056152,-6.446455478668213
1776038156639435500,-1522131.265564453,3.682727098464966,-6.4648261070251465,-6.388577461242676
1776038156649506300,-1522131.2554936523,3.717390298843384,-6.572708606719971,-6.257068634033203
1776038156659516000,-1522131.245484131,3.769589424133301,-6.726646900177002,-6.059110164642334
1776038156669617400,-1522131.2353825683,3.783590078353882,-6.774546146392822,-5.996695518493652
1776038156679688200,-1522131.2253117675,3.8059027194976807,-6.870850563049316,-5.8717041015625
1776038156689697800,-1522131.2153022462,3.8163273334503174,-6.967743396759033,-5.749486446380615
1776038156699677200,-1522131.2053227539,3.8155665397644043,-7.06431245803833,-5.630928039550781
1776038156729920000,-1522131.1750800782,3.7802531719207764,-7.325314998626709,-5.312234878540039
1776038156739929900,-1522131.1650700683,3.7624058723449707,-7.396238327026367,-5.225930690765381
1776038156749970200,-1522131.1550297851,3.740543842315674,-7.460292816162109,-5.150025844573975
1776038156760041000,-1522131.1449589843,3.7148990631103516,-7.518856048583984,-5.082984924316406
1776038156770081300,-1522131.1349187011,3.676649808883667,-7.591283321380615,-5.002503395080566
1776038156790192400,-1522131.1148076172,3.6420271396636963,-7.641448497772217,-4.951189994812012
1776038156800263200,-1522131.1047368164,3.6225786209106445,-7.65985107421875,-4.937001705169678
1776038156820404700,-1522131.0845952148,3.5823795795440674,-7.656776428222656,-4.9709882736206055
1776038156830475500,-1522131.074524414,3.5626752376556396,-7.620672702789307,-5.040146827697754
1776038156840546300,-1522131.0644536132,3.5560474395751953,-7.544226169586182,-5.158447265625
1776038156850617000,-1522131.0543828125,3.5473434925079346,-7.492827892303467,-5.23872709274292
1776038156860657400,-1522131.0443425293,3.5340688228607178,-7.417337894439697,-5.3538618087768555
1776038156870728200,-1522131.0342717285,3.5327770709991455,-7.376233100891113,-5.411196708679199
1776038156880738000,-1522131.0242619629,3.52331805229187,-7.277209758758545,-5.549668788909912
1776038156890808800,-1522131.014191162,3.5123956203460693,-7.198486328125,-5.658202171325684
1776038156900788000,-1522131.004211914,3.4931488037109375,-7.114875793457031,-5.774672031402588
1776038156931061500,-1522130.9739384765,3.4008421897888184,-6.875800132751465,-6.10966682434082
1776038156941101800,-1522130.9638981933,3.349518299102783,-6.76875114440918,-6.255808353424072
1776038156951203000,-1522130.953796875,3.2811949253082275,-6.59089469909668,-6.477983474731445
1776038156961273900,-1522130.9437260742,3.260268211364746,-6.520204067230225,-6.559571266174316
1776038156971375000,-1522130.933625,3.2236826419830322,-6.380113124847412,-6.713600158691406
1776038156981385000,-1522130.9236149902,3.1897661685943604,-6.237116813659668,-6.862517833709717
1776038156991486200,-1522130.9135136718,3.1568610668182373,-6.091551780700684,-7.006970405578613
1776038157001526500,-1522130.9034733886,3.1255130767822266,-5.946194171905518,-7.144532680511475
1776038157041748700,-1522130.8632512207,3.0414915084838867,-5.335026741027832,-7.645732402801514
1776038157061920800,-1522130.8430793458,2.9856069087982178,-4.938883304595947,-7.928681373596191
1776038157071991600,-1522130.833008545,2.9479002952575684,-4.776754856109619,-8.0413236618042
1776038157082001400,-1522130.8229985351,2.9193472862243652,-4.684767246246338,-8.10560131072998
1776038157092072200,-1522130.8129277343,2.8444406986236572,-4.477210998535156,-8.248282432556152
1776038157102143000,-1522130.8028569336,2.7788188457489014,-4.3449296951293945,-8.34087085723877
1776038157112213800,-1522130.7927861328,2.7093560695648193,-4.218233585357666,-8.428302764892578
1776038157152497000,-1522130.752503174,2.482935667037964,-3.8259637355804443,-8.681442260742188
1776038157162537200,-1522130.7424628907,2.4326305389404297,-3.710228204727173,-8.745681762695312
1776038157172577500,-1522130.7324223632,2.3804333209991455,-3.6029040813446045,-8.804716110229492
1776038157182648300,-1522130.7223515625,2.3310699462890625,-3.4855458736419678,-8.864957809448242
1776038157192719000,-1522130.712281006,2.2845160961151123,-3.3644192218780518,-8.923680305480957
1776038157202759400,-1522130.7022404785,2.23830509185791,-3.239769220352173,-8.981329917907715
1776038157212830200,-1522130.6921696777,2.1931097507476807,-3.1312856674194336,-9.030820846557617
1776038157222901000,-1522130.6820991212,2.1209821701049805,-2.950523614883423,-9.108579635620117
1776038157232971800,-1522130.6720283204,2.1133506298065186,-2.998922824859619,-9.094536781311035
1776038157263123200,-1522130.641876709,1.970214605331421,-2.7012248039245605,-9.219112396240234
1776038157273194000,-1522130.6318059082,1.9195208549499512,-2.6012256145477295,-9.258480072021484
1776038157283264800,-1522130.6217353516,1.8722096681594849,-2.5123894214630127,-9.292637825012207
1776038157293366000,-1522130.6116340333,1.8310394287109375,-2.4402787685394287,-9.320016860961914
1776038157303406300,-1522130.60159375,1.7756425142288208,-2.348314046859741,-9.354299545288086
1776038157313507600,-1522130.5914924317,1.7453835010528564,-2.3253843784332275,-9.365715026855469
1776038157323578600,-1522130.5814213867,1.7397581338882446,-2.3430771827697754,-9.362351417541504
1776038157363831300,-1522130.5411687011,1.615680456161499,-2.3113601207733154,-9.39242172241211
1776038157373902000,-1522130.5310979004,1.576265573501587,-2.3217966556549072,-9.396543502807617
1776038157393982500,-1522130.5110175782,1.4896931648254395,-2.3579344749450684,-9.401666641235352
1776038157404053200,-1522130.5009467774,1.4418355226516724,-2.380314350128174,-9.403489112854004
1776038157414093600,-1522130.4909064942,1.3915706872940063,-2.4051451683044434,-9.404743194580078
1776038157424103400,-1522130.4808964843,1.340954065322876,-2.431809902191162,-9.405240058898926
1776038157434174200,-1522130.4708256836,1.2909674644470215,-2.4598324298858643,-9.404946327209473
1776038157464356000,-1522130.4406437988,1.1702227592468262,-2.5600340366363525,-9.393997192382812
1776038157484528000,-1522130.420471924,1.1182085275650024,-2.6389615535736084,-9.378480911254883
1776038157494538000,-1522130.410461914,1.0969722270965576,-2.6841721534729004,-9.368152618408203
1776038157504578300,-1522130.4004216308,1.0692787170410156,-2.7548482418060303,-9.350821495056152
1776038157514618600,-1522130.3903813476,1.054345965385437,-2.8065054416656494,-9.337145805358887
1776038157524659000,-1522130.3803410644,1.0486036539077759,-2.8339312076568604,-9.32950496673584
1776038157534699000,-1522130.3703010255,1.0327397584915161,-2.888868570327759,-9.314412117004395
1776038157544769800,-1522130.3602302247,1.022175669670105,-2.944993257522583,-9.29798698425293
1776038157574890800,-1522130.3301091308,1.0836563110351562,-3.1483466625213623,-9.224100112915039
1776038157584931000,-1522130.3200688476,1.1070307493209839,-3.180107831954956,-9.210418701171875
1776038157595001900,-1522130.3099980468,1.1716548204421997,-3.248565196990967,-9.178478240966797
1776038157605072600,-1522130.299927246,1.2503560781478882,-3.326416015625,-9.140129089355469
1776038157615143400,-1522130.2898566895,1.332532286643982,-3.4137165546417236,-9.096224784851074
1776038157625183700,-1522130.279816162,1.4128011465072632,-3.510525703430176,-9.047131538391113
1776038157635285000,-1522130.269715088,1.4924182891845703,-3.6280555725097656,-8.987786293029785
1776038157645355800,-1522130.2596442872,1.6112240552902222,-3.8028228282928467,-8.894543647766113
1776038157685608400,-1522130.2193916016,1.9136755466461182,-4.228457927703857,-8.638771057128906
1776038157705750000,-1522130.19925,2.143425941467285,-4.524980545043945,-8.432123184204102
1776038157715851500,-1522130.1891484375,2.1868162155151367,-4.583405494689941,-8.389314651489258
1776038157725922300,-1522130.1790776367,2.314681053161621,-4.765777587890625,-8.252273559570312
1776038157735993000,-1522130.169006836,2.395406484603882,-4.885523319244385,-8.15868091583252
1776038157746094300,-1522130.1589057618,2.432229995727539,-4.941908359527588,-8.1137056350708
1776038157786316500,-1522130.1186833496,2.823221445083618,-5.413522720336914,-7.6742167472839355
1776038157796387300,-1522130.108612793,2.8522274494171143,-5.450988292694092,-7.636878967285156
1776038157806458000,-1522130.0985419923,2.9869043827056885,-5.583462715148926,-7.488241672515869
1776038157816498400,-1522130.0885014648,2.9958181381225586,-5.61151123046875,-7.463671684265137
1776038157826538800,-1522130.0784611816,3.097456693649292,-5.731746196746826,-7.32961368560791
1776038157836640000,-1522130.0683601075,3.10025691986084,-5.7920403480529785,-7.280869007110596
1776038157846710800,-1522130.0582893067,3.1070103645324707,-5.820771217346191,-7.25503396987915
1776038157856781600,-1522130.048218506,3.175802707672119,-5.89906120300293,-7.161406993865967
1776038157886933000,-1522130.0180668945,3.3646059036254883,-6.157766342163086,-6.850674629211426
1776038157897003800,-1522130.007996338,3.400860071182251,-6.256600379943848,-6.742364406585693
1776038157907044000,-1522129.9979558105,3.423719882965088,-6.359659671783447,-6.633495330810547
1776038157917145300,-1522129.9878547364,3.442706823348999,-6.52313756942749,-6.462728977203369
1776038157927185700,-1522129.9778144532,3.4359257221221924,-6.635112762451172,-6.351384162902832
1776038157937256400,-1522129.9677436524,3.4164021015167236,-6.751339435577393,-6.238428592681885
1776038157947327200,-1522129.9576728516,3.3971352577209473,-6.809676647186279,-6.185319423675537
1776038157957398000,-1522129.9476020508,3.3607873916625977,-6.929704666137695,-6.070807456970215
1776038157967468800,-1522129.93753125,3.3153369426727295,-7.050706386566162,-5.955373287200928
1776038157997681400,-1522129.9073186035,3.1398985385894775,-7.404175281524658,-5.6115617752075195
1776038158017792300,-1522129.8872077637,2.996926784515381,-7.622057914733887,-5.393795490264893
1776038158027832600,-1522129.8771674805,2.9184086322784424,-7.723217487335205,-5.291994571685791
1776038158037903400,-1522129.8670966798,2.839306592941284,-7.816649436950684,-5.196991443634033
1776038158047913200,-1522129.85708667,2.7636876106262207,-7.901638507843018,-5.108475685119629
1776038158058014500,-1522129.8469855958,2.695160150527954,-7.981122016906738,-5.02077579498291
1776038158068024300,-1522129.836975586,2.6335766315460205,-8.055395126342773,-4.934093952178955
1776038158098206200,-1522129.8067937011,2.4526357650756836,-8.245018005371094,-4.708995819091797
1776038158118286800,-1522129.7867131347,2.27557110786438,-8.348291397094727,-4.614995956420898
1776038158128296400,-1522129.7767036133,2.1745595932006836,-8.38754653930664,-4.592465400695801
1776038158138398000,-1522129.7666020507,2.075731039047241,-8.41425609588623,-4.589338302612305
1776038158148468700,-1522129.75653125,1.9862492084503174,-8.425651550292969,-4.6079936027526855
1776038158158508800,-1522129.746491211,1.9077842235565186,-8.418384552001953,-4.654196739196777
1776038158168549000,-1522129.7364509278,1.8513407707214355,-8.369253158569336,-4.7642974853515625
1776038158178620000,-1522129.726380127,1.790872573852539,-8.316473960876465,-4.8784661293029785
1776038158208771300,-1522129.6962287598,1.5959254503250122,-8.157051086425781,-5.204415321350098
1776038158218842000,-1522129.686157959,1.559043288230896,-8.07243824005127,-5.345605850219727
1776038158228943600,-1522129.6760563964,1.5377941131591797,-7.967686176300049,-5.506502151489258
1776038158239044900,-1522129.665955078,1.5289266109466553,-7.840887069702148,-5.687992572784424
1776038158249115600,-1522129.6558842773,1.5375816822052002,-7.6920270919799805,-5.885487079620361
1776038158259186400,-1522129.6458134765,1.589529037475586,-7.429823875427246,-6.2001214027404785
1776038158269287700,-1522129.6357124024,1.615781307220459,-7.331259727478027,-6.30969762802124
1776038158279297500,-1522129.6257023925,1.6847543716430664,-7.120668411254883,-6.529016494750977
1776038158289307400,-1522129.615692627,1.8216561079025269,-6.774726867675781,-6.8523736000061035
1776038158299378200,-1522129.6056218261,1.8753798007965088,-6.649147033691406,-6.9600443840026855
1776038158309418200,-1522129.5955817872,2.049168348312378,-6.2656965255737305,-7.2603254318237305
1776038158319489000,-1522129.5855109864,2.11175274848938,-6.131465911865234,-7.356359481811523
1776038158329529300,-1522129.5754707032,2.302398920059204,-5.734612941741943,-7.614693641662598
1776038158339539200,-1522129.5654606933,2.3683197498321533,-5.59800386428833,-7.695700645446777
1776038158349640400,-1522129.5553596192,2.5589237213134766,-5.2070841789245605,-7.90623664855957
1776038158359711200,-1522129.5452888184,2.6771132946014404,-4.951736927032471,-8.030179023742676
1776038158410034700,-1522129.494965332,2.9721601009368896,-3.9874300956726074,-8.452044486999512
1776038158420075000,-1522129.484925049,2.9716532230377197,-3.838841199874878,-8.52073860168457
1776038158430084900,-1522129.474915039,2.9463562965393066,-3.71869158744812,-8.5825834274292
1776038158440186000,-1522129.464813965,2.8968987464904785,-3.6253507137298584,-8.639166831970215
1776038158450257000,-1522129.4547431641,2.819091320037842,-3.560373544692993,-8.691768646240234
1776038158460297200,-1522129.444702881,2.6875836849212646,-3.4981391429901123,-8.758441925048828
1776038158470337500,-1522129.4346623535,2.6279706954956055,-3.4980010986328125,-8.776568412780762
1776038158480438800,-1522129.4245612794,2.51804256439209,-3.495535135269165,-8.809715270996094
1776038158500550000,-1522129.4044501954,2.2265024185180664,-3.528233289718628,-8.874944686889648
1776038158510651100,-1522129.394348877,2.1399784088134766,-3.592970848083496,-8.870255470275879
1776038158520752600,-1522129.3842473144,2.012580156326294,-3.6441237926483154,-8.879205703735352
1776038158530823400,-1522129.3741765136,1.909733533859253,-3.647280216217041,-8.90060043334961
1776038158540894200,-1522129.3641057129,1.8145816326141357,-3.650614023208618,-8.919119834899902
1776038158550965000,-1522129.354034912,1.7308658361434937,-3.6340317726135254,-8.942500114440918
1776038158561066200,-1522129.343933838,1.6239737272262573,-3.5672481060028076,-8.98931884765625
1776038158571045600,-1522129.3339543457,1.5599164962768555,-3.5203006267547607,-9.019120216369629
1776038158581116400,-1522129.323883545,1.5017138719558716,-3.4645628929138184,-9.050527572631836
1776038158621430000,-1522129.2835700684,1.3094260692596436,-3.275742530822754,-9.150153160095215
1776038158631531300,-1522129.27346875,1.2525246143341064,-3.234506845474243,-9.172760009765625
1776038158641602300,-1522129.263397705,1.1944628953933716,-3.1900734901428223,-9.196036338806152
1776038158651673000,-1522129.2533269043,1.13620126247406,-3.148481607437134,-9.217727661132812
1776038158661743900,-1522129.2432561035,1.0784125328063965,-3.109812021255493,-9.237774848937988
1776038158681885400,-1522129.223114502,0.9551263451576233,-3.1494104862213135,-9.237929344177246
1776038158702027000,-1522129.2029729004,0.888116717338562,-3.1473543643951416,-9.24531364440918
1776038158712097800,-1522129.1929020996,0.835117518901825,-3.117335081100464,-9.26041030883789
1776038158722168600,-1522129.182831543,0.7860656380653381,-3.0927443504333496,-9.272942543029785
1776038158732239400,-1522129.1727607423,0.7472668290138245,-3.0800464153289795,-9.280370712280273
1776038158742340600,-1522129.162659424,0.7196201086044312,-3.0788323879241943,-9.282960891723633
1776038158752350500,-1522129.152649414,0.685890257358551,-3.087287425994873,-9.282705307006836
1776038158762451700,-1522129.14254834,0.6717126965522766,-3.1046040058135986,-9.27796459197998
1776038158772522500,-1522129.1324775391,0.6708224415779114,-3.1190247535705566,-9.27319049835205
1776038158782593300,-1522129.1224067383,0.6558511257171631,-3.163141965866089,-9.259306907653809
1776038158802735000,-1522129.1022648925,0.6455050706863403,-3.2446372509002686,-9.231797218322754
1776038158842957000,-1522129.0620429688,0.6032826900482178,-3.420745849609375,-9.170873641967773
1776038158852997400,-1522129.0520026856,0.5819693207740784,-3.4804270267486572,-9.149772644042969
1776038158863099000,-1522129.041901123,0.563249409198761,-3.545281410217285,-9.12601375579834
1776038158883240400,-1522129.0217595214,0.5352315306663513,-3.7281339168548584,-9.05455493927002
1776038158903412500,-1522129.0015874023,0.5339689254760742,-3.8485045433044434,-9.00412654876709
1776038158913452800,-1522128.991547119,0.5421499013900757,-3.932088851928711,-8.967450141906738
1776038158933564000,-1522128.9714360351,0.6073837280273438,-4.156956195831299,-8.86121940612793
1776038158943634700,-1522128.9613652343,0.6318342685699463,-4.205005645751953,-8.836804389953613
1776038158953705500,-1522128.9512944336,0.7160971760749817,-4.358053684234619,-8.755853652954102
1776038158963806700,-1522128.9411933594,0.754063069820404,-4.412239074707031,-8.725476264953613
1776038158973816600,-1522128.9311833496,0.8278384804725647,-4.524307727813721,-8.661160469055176
1776038158983887400,-1522128.9211125488,0.9043693542480469,-4.640912055969238,-8.591533660888672
1776038159034210800,-1522128.8707890625,1.3320932388305664,-5.247772216796875,-8.176600456237793
1776038159044281600,-1522128.860718506,1.4429805278778076,-5.3592658042907715,-8.084953308105469
1776038159054352400,-1522128.8506477051,1.5548639297485352,-5.467539310455322,-7.991168975830078
1776038159064453600,-1522128.8405463868,1.7423697710037231,-5.621140003204346,-7.844574928283691
1776038159074494000,-1522128.8305061036,1.877885341644287,-5.710710525512695,-7.748013496398926
1776038159084534300,-1522128.8204658204,1.946587085723877,-5.746904373168945,-7.704171657562256
1776038159094605000,-1522128.8103950196,2.091642141342163,-5.818696975708008,-7.6117143630981445
1776038159114655200,-1522128.7903447265,2.3758904933929443,-5.928959846496582,-7.441302299499512
1776038159134796800,-1522128.770203125,2.6030304431915283,-5.971451759338379,-7.330512046813965
1776038159144867600,-1522128.7601323242,2.764834403991699,-6.018453598022461,-7.232170104980469
1776038159154877400,-1522128.7501225586,2.86319899559021,-6.05267333984375,-7.165029048919678
1776038159164978700,-1522128.7400212402,2.9066131114959717,-6.066768169403076,-7.135567665100098
1776038159175049500,-1522128.7299504394,3.0507867336273193,-6.142894268035889,-7.00913143157959
1776038159185120300,-1522128.7198796386,3.0874059200286865,-6.162197113037109,-6.976076126098633
1776038159205231400,-1522128.6997685547,3.2393057346343994,-6.30388069152832,-6.777786731719971
1776038159235382800,-1522128.6696171875,3.276589870452881,-6.481479167938232,-6.589749813079834
1776038159245453600,-1522128.6595463867,3.263455867767334,-6.569273948669434,-6.5088324546813965
1776038159255524400,-1522128.649475586,3.2355148792266846,-6.663794040679932,-6.426172733306885
1776038159265625600,-1522128.6393745118,3.1952085494995117,-6.762495994567871,-6.342688083648682
1776038159275605000,-1522128.6293950195,3.145413637161255,-6.861075401306152,-6.26118278503418
1776038159285706200,-1522128.6192937011,3.060692548751831,-7.01576042175293,-6.1303887367248535
1776038159295777000,-1522128.6092229004,2.9862303733825684,-7.119322299957275,-6.047154903411865
1776038159325989400,-1522128.5790107423,2.736985206604004,-7.419661045074463,-5.798959732055664
1776038159336029700,-1522128.5689702148,2.6921236515045166,-7.463590621948242,-5.7634782791137695
1776038159346100500,-1522128.558899414,2.61651873588562,-7.550070762634277,-5.685125827789307
1776038159356171300,-1522128.5488288575,2.5453271865844727,-7.630260467529297,-5.609887599945068
1776038159366211600,-1522128.53878833,2.478429079055786,-7.704915523529053,-5.537331581115723
1776038159376221400,-1522128.5287785644,2.3859798908233643,-7.807637691497803,-5.433072090148926
1776038159386292200,-1522128.5187077636,2.3253917694091797,-7.868926525115967,-5.3705620765686035
1776038159396332300,-1522128.5086677247,2.2665014266967773,-7.924327373504639,-5.313980579376221
1776038159436524000,-1522128.4684760743,2.047092914581299,-8.066582679748535,-5.187489986419678
1776038159446625300,-1522128.458374756,1.9764704704284668,-8.091089248657227,-5.176700115203857
1776038159456696000,-1522128.4483039551,1.9047306776046753,-8.106104850769043,-5.180100917816162
1776038159466736400,-1522128.438263672,1.8009315729141235,-8.110575675964355,-5.210144519805908
1776038159476746200,-1522128.428253662,1.768783688545227,-8.09997272491455,-5.23757791519165
1776038159486847500,-1522128.418152588,1.7113316059112549,-8.068838119506836,-5.304298400878906
1776038159496918300,-1522128.4080817872,1.643048644065857,-7.993276596069336,-5.438595294952393
1776038159527161300,-1522128.377838623,1.6203397512435913,-7.751701831817627,-5.784115791320801
1776038159537201700,-1522128.3677983398,1.6087048053741455,-7.626174449920654,-5.951801300048828
1776038159547272400,-1522128.357727539,1.6168477535247803,-7.52542781829834,-6.076521873474121
1776038159557343200,-1522128.3476567382,1.626628041267395,-7.467066287994385,-6.1455183029174805
1776038159567444500,-1522128.33755542,1.6617741584777832,-7.285702705383301,-6.350389003753662
1776038159577515300,-1522128.327484619,1.6906285285949707,-7.147022724151611,-6.498633861541748
1776038159587616500,-1522128.317383545,1.7233774662017822,-6.993660926818848,-6.655004978179932
1776038159597687300,-1522128.3073127442,1.765882134437561,-6.823025703430176,-6.818971633911133
1776038159607788800,-1522128.2972111816,1.826042890548706,-6.631433486938477,-6.989995002746582
1776038159647980300,-1522128.2570197755,2.149500846862793,-5.663450717926025,-7.712028980255127
1776038159658051000,-1522128.2469489747,2.185102939605713,-5.525153636932373,-7.801821708679199
1776038159668121900,-1522128.236878174,2.2410967350006104,-5.25421142578125,-7.9712700843811035
1776038159678192600,-1522128.226807373,2.2831366062164307,-4.986479759216309,-8.129740715026855
1776038159688294100,-1522128.2167058105,2.3175978660583496,-4.61216926574707,-8.338287353515625
1776038159698303700,-1522128.2066962891,2.3264410495758057,-4.489352703094482,-8.402605056762695
1776038159708405200,-1522128.1965947265,2.3133785724639893,-4.178264141082764,-8.56509017944336
1776038159718476000,-1522128.1865239257,2.3045897483825684,-4.07950496673584,-8.614922523498535
1776038159738617600,-1522128.1663823242,2.236421585083008,-3.76806902885437,-8.77328109741211
1776038159748718800,-1522128.15628125,2.1940252780914307,-3.645437479019165,-8.835578918457031
1776038159758820000,-1522128.1461799317,2.1477975845336914,-3.5414819717407227,-8.889054298400879
1776038159768860400,-1522128.1361396485,2.098033905029297,-3.4563779830932617,-8.934320449829102
1776038159778931200,-1522128.1260688477,2.0441887378692627,-3.3882977962493896,-8.972799301147461
1776038159788971500,-1522128.1160285645,1.985164999961853,-3.3367319107055664,-9.005315780639648
1776038159798981400,-1522128.1060185547,1.9243133068084717,-3.3005993366241455,-9.031803131103516
1776038159809052200,-1522128.0959477539,1.8638362884521484,-3.283649444580078,-9.050644874572754
1776038159829193700,-1522128.0758061523,1.7575527429580688,-3.338723659515381,-9.0517578125
1776038159859406000,-1522128.0455939942,1.6295886039733887,-3.2851815223693848,-9.095187187194824
1776038159869507600,-1522128.0354924316,1.584274172782898,-3.223989963531494,-9.125040054321289
1776038159879578400,-1522128.0254216308,1.5718711614608765,-3.2092530727386475,-9.132375717163086
1776038159889679600,-1522128.0153203125,1.5475252866744995,-3.1674492359161377,-9.15110969543457
1776038159899689500,-1522128.0053105468,1.5255829095840454,-3.1256263256073,-9.169157028198242
1776038159909760300,-1522127.995239746,1.5049200057983398,-3.0831422805786133,-9.186939239501953
1776038159919831000,-1522127.9851689453,1.4846470355987549,-3.0430376529693604,-9.203593254089355
1776038159929901800,-1522127.9750981445,1.4506138563156128,-2.9850363731384277,-9.227980613708496
1776038159960053000,-1522127.9449470215,1.399255394935608,-2.9289534091949463,-9.253847122192383
1776038159970124000,-1522127.9348759765,1.3781933784484863,-2.918257236480713,-9.26038646697998
1776038159980133600,-1522127.9248664551,1.357696533203125,-2.9186575412750244,-9.263288497924805
1776038159990204400,-1522127.9147956544,1.323482632637024,-2.929279088973999,-9.264884948730469
1776038160000244700,-1522127.9047553712,1.3279478549957275,-2.9753386974334717,-9.249558448791504
1776038160010315500,-1522127.8946845704,1.3381413221359253,-3.0671706199645996,-9.218037605285645
1776038160020325400,-1522127.8846745605,1.3671867847442627,-3.1994922161102295,-9.168664932250977
1776038160050598700,-1522127.8544013673,1.3362456560134888,-3.331151247024536,-9.126241683959961
1776038160070709800,-1522127.8342902833,1.3118220567703247,-3.4180123805999756,-9.09762191772461
1776038160080719600,-1522127.8242802734,1.3015285730361938,-3.4696991443634033,-9.07951545715332
1776038160090820900,-1522127.8141791993,1.2931500673294067,-3.52781081199646,-9.058295249938965
1776038160100800300,-1522127.804199707,1.2861275672912598,-3.5909571647644043,-9.034451484680176
1776038160110901500,-1522127.7940983886,1.2824814319610596,-3.658566474914551,-9.007804870605469
1776038160120941800,-1522127.7840581054,1.2837550640106201,-3.730492115020752,-8.978072166442871
1776038160131043000,-1522127.7739570313,1.2919167280197144,-3.8049304485321045,-8.945605278015137
1776038160151184600,-1522127.7538154298,1.3292208909988403,-3.952368974685669,-8.875940322875977
1776038160171326200,-1522127.7336738282,1.3879226446151733,-4.091171741485596,-8.803770065307617
1776038160181366500,-1522127.723633545,1.4179998636245728,-4.157905578613281,-8.767638206481934
1776038160191468000,-1522127.7135319824,1.4464111328125,-4.220728874206543,-8.732911109924316
1776038160201538800,-1522127.7034611816,1.475218653678894,-4.27821683883667,-8.700057029724121
1776038160211609600,-1522127.6933903808,1.5074656009674072,-4.329659461975098,-8.669025421142578
1776038160221650000,-1522127.6833500976,1.5401321649551392,-4.376059532165527,-8.639935493469238
1776038160231751200,-1522127.6732487793,1.570505142211914,-4.418106555938721,-8.613027572631836
1776038160251923200,-1522127.6530769044,1.6256991624832153,-4.501865863800049,-8.559247016906738
1776038160272034300,-1522127.6329655761,1.6846827268600464,-4.5438337326049805,-8.525598526000977
1776038160282044200,-1522127.6229558105,1.7251415252685547,-4.560882091522217,-8.50838565826416
1776038160292084500,-1522127.6129155273,1.769579291343689,-4.580801486968994,-8.488533020019531
1776038160302094000,-1522127.602906006,1.7941514253616333,-4.592655658721924,-8.476964950561523
1776038160312195300,-1522127.5928046876,1.8360060453414917,-4.624601364135742,-8.450594902038574
1776038160322266400,-1522127.5827336425,1.8750609159469604,-4.666572570800781,-8.418886184692383
1776038160332367600,-1522127.5726323242,1.915509819984436,-4.717344760894775,-8.381401062011719
1776038160342408000,-1522127.562592041,1.987894058227539,-4.806451797485352,-8.313645362854004
1776038160352478700,-1522127.5525212402,2.0472915172576904,-4.871965408325195,-8.260930061340332
1776038160362488300,-1522127.5425117188,2.0793097019195557,-4.904997825622559,-8.233339309692383
1776038160372589800,-1522127.5324101562,2.157728672027588,-4.97575569152832,-8.170464515686035
1776038160382630100,-1522127.522369873,2.2508974075317383,-5.047945022583008,-8.100747108459473
1776038160392701000,-1522127.5122990722,2.3573920726776123,-5.120346546173096,-8.024657249450684
1776038160402771700,-1522127.5022282714,2.476344585418701,-5.1922688484191895,-7.942194938659668
1776038160412842500,-1522127.4921574707,2.6049540042877197,-5.261001110076904,-7.855347156524658
1776038160422913300,-1522127.48208667,2.7408318519592285,-5.32550048828125,-7.76513147354126
1776038160432984000,-1522127.472015869,2.879246234893799,-5.386439800262451,-7.67245626449585
1776038160453095200,-1522127.4519047851,3.135509967803955,-5.51037073135376,-7.481630325317383
1776038160473206300,-1522127.4317937011,3.3491666316986084,-5.623893737792969,-7.302417278289795
1776038160483277000,-1522127.4217229004,3.407104969024658,-5.677127361297607,-7.234102725982666
1776038160493347800,-1522127.4116520996,3.4251885414123535,-5.728311061859131,-7.185047626495361
1776038160503357400,-1522127.4016425782,3.4661991596221924,-5.824285507202148,-7.087563991546631
1776038160513459000,-1522127.3915410156,3.51998233795166,-6.014099597930908,-6.900051116943359
1776038160523529700,-1522127.3814702148,3.5223143100738525,-6.076200008392334,-6.844229698181152
1776038160533631000,-1522127.3713691407,3.5282435417175293,-6.221743583679199,-6.709084987640381
1776038160563873800,-1522127.3411262208,3.4528136253356934,-6.698940277099609,-6.274765491485596
1776038160573944800,-1522127.3310551757,3.412247657775879,-6.858869552612305,-6.122326374053955
1776038160584015600,-1522127.320984375,3.368194341659546,-7.014975547790527,-5.967895984649658
1776038160594086400,-1522127.3109135742,3.323875665664673,-7.165002822875977,-5.812483787536621
1776038160604157200,-1522127.3008427734,3.282510995864868,-7.306083679199219,-5.658325672149658
1776038160614258400,-1522127.290741455,3.2486205101013184,-7.435969829559326,-5.506650924682617
1776038160624298800,-1522127.2807011718,3.2263906002044678,-7.551898956298828,-5.360000133514404
1776038160634400000,-1522127.2706000977,3.219160795211792,-7.653387069702148,-5.218531608581543
1776038160644470800,-1522127.260529297,3.2282469272613525,-7.7399091720581055,-5.083562850952148
1776038160664582000,-1522127.240418213,3.2863988876342773,-7.869981288909912,-4.840802192687988
1776038160674683100,-1522127.2303168946,3.3293867111206055,-7.9166765213012695,-4.7341108322143555
1776038160684754000,-1522127.2202460938,3.3769216537475586,-7.952120780944824,-4.640105724334717
1776038160694825000,-1522127.2101750488,3.425596237182617,-7.977379322052002,-4.560385704040527
1776038160704865000,-1522127.2001350098,3.472752332687378,-7.99338960647583,-4.496232032775879
1776038160714935800,-1522127.190064209,3.5156309604644775,-8.00135612487793,-4.448485851287842
1776038160725006800,-1522127.179993164,3.5531139373779297,-8.00175952911377,-4.417874813079834
1776038160735077600,-1522127.1699223632,3.585069179534912,-7.995081424713135,-4.404128551483154
1776038160765198300,-1522127.1398017579,3.646533250808716,-7.927405834197998,-4.475424766540527
1776038160775269000,-1522127.129730957,3.6459438800811768,-7.867329120635986,-4.580679416656494
1776038160785309400,-1522127.119690674,3.6397106647491455,-7.836018085479736,-4.6389336585998535
1776038160795410700,-1522127.1095893555,3.6172690391540527,-7.761931896209717,-4.778930187225342
1776038160805451000,-1522127.0995490723,3.561615467071533,-7.5598955154418945,-5.131595611572266
1776038160815552300,-1522127.089447754,3.5127272605895996,-7.445915699005127,-5.328178882598877
1776038160825623300,-1522127.079376709,3.4860475063323975,-7.3830084800720215,-5.432222843170166
1776038160835694000,-1522127.0693059082,3.425534248352051,-7.275826454162598,-5.612347602844238
1776038160865876000,-1522127.0391240234,3.2273812294006348,-6.864734649658203,-6.215289115905762
1776038160875946800,-1522127.0290532226,3.148430824279785,-6.569600582122803,-6.564918518066406
1776038160885987000,-1522127.0190129394,3.1300177574157715,-6.4590888023376465,-6.682331562042236
1776038160896057900,-1522127.0089421386,3.1534523963928223,-6.058629035949707,-7.036984443664551
1776038160906098000,-1522126.9989020997,3.213134527206421,-5.747491836547852,-7.267220497131348
1776038160916169000,-1522126.9888310547,3.300666570663452,-5.403249263763428,-7.488717079162598
1776038160926209000,-1522126.9787910157,3.3495676517486572,-5.221210479736328,-7.595376491546631
1776038160936279800,-1522126.968720215,3.454397678375244,-4.847011566162109,-7.793844699859619
1776038160946350800,-1522126.95864917,3.6057326793670654,-4.288657188415527,-8.048385620117188
1776038160956421600,-1522126.948578369,3.6551480293273926,-4.098023891448975,-8.125052452087402
1776038160986664400,-1522126.9183354492,3.8015077114105225,-3.038419723510742,-8.51392650604248
1776038160996735200,-1522126.9082646484,3.7937428951263428,-2.9167072772979736,-8.559831619262695
1776038161006806000,-1522126.8981940919,3.760767698287964,-2.734250545501709,-8.634286880493164
1776038161016907300,-1522126.8880927735,3.7135629653930664,-2.5914313793182373,-8.698524475097656
1776038161026947600,-1522126.8780524903,3.6244115829467773,-2.453021764755249,-8.775917053222656
1776038161037049000,-1522126.8679509277,3.548022747039795,-2.3861618041992188,-8.82542610168457
1776038161047058700,-1522126.8579414063,3.4946155548095703,-2.3447680473327637,-8.857772827148438
1776038161057129500,-1522126.8478706055,3.3857555389404297,-2.315580129623413,-8.907588958740234
1776038161067200300,-1522126.8377998048,3.256788730621338,-2.325895309448242,-8.952873229980469
1776038161097351700,-1522126.8076484376,2.7746598720550537,-2.6204938888549805,-9.033529281616211
1776038161107392000,-1522126.7976079101,2.5355045795440674,-2.8143296241760254,-9.04550552368164
1776038161117462800,-1522126.7875371093,2.429140329360962,-2.9429073333740234,-9.033768653869629
1776038161127472600,-1522126.7775273437,2.2372522354125977,-3.16804575920105,-9.007139205932617
1776038161137543400,-1522126.767456543,2.0583248138427734,-3.3455073833465576,-8.985614776611328
1776038161147583700,-1522126.7574162597,1.897942066192627,-3.4712073802948,-8.973235130310059
1776038161157685000,-1522126.7473149414,1.7618682384490967,-3.5446994304656982,-8.972253799438477
1776038161197968100,-1522126.7070319825,1.415786862373352,-3.6253597736358643,-9.001260757446289
1776038161208008400,-1522126.696991455,1.374319076538086,-3.608313798904419,-9.014527320861816
1776038161218079200,-1522126.6869206543,1.3511860370635986,-3.5720386505126953,-9.032454490661621
1776038161228150000,-1522126.6768500977,1.3431892395019531,-3.5206215381622314,-9.05380916595459
1776038161238190300,-1522126.6668095703,1.3433780670166016,-3.458524703979492,-9.077682495117188
1776038161248200200,-1522126.6567998047,1.3432739973068237,-3.3914809226989746,-9.102959632873535
1776038161258301400,-1522126.6466984863,1.332471489906311,-3.284876585006714,-9.143549919128418
1776038161298462500,-1522126.6065375977,1.2804869413375854,-3.1971068382263184,-9.1820068359375
1776038161318634800,-1522126.5863652343,1.2005267143249512,-3.162480592727661,-9.204774856567383
1776038161328674800,-1522126.5763251954,1.1554378271102905,-3.1405200958251953,-9.218052864074707
1776038161338776300,-1522126.5662236328,1.1074199676513672,-3.117250680923462,-9.231834411621094
1776038161348877600,-1522126.5561223144,1.059485673904419,-3.099203109741211,-9.243529319763184
1776038161358978800,-1522126.5460212403,0.9866191744804382,-3.086930990219116,-9.255692481994629
1776038161389099800,-1522126.5159001464,0.9013070464134216,-3.122188091278076,-9.252567291259766
1776038161399170600,-1522126.5058293457,0.8589695692062378,-3.160491704940796,-9.243584632873535
1776038161409241300,-1522126.495758545,0.8396715521812439,-3.1946349143981934,-9.23361587524414
1776038161419342600,-1522126.4856574708,0.8342583179473877,-3.2144999504089355,-9.22721004486084
1776038161429444000,-1522126.4755559082,0.8260136246681213,-3.256906270980835,-9.2130708694458
1776038161439515000,-1522126.4654851074,0.8258809447288513,-3.305018663406372,-9.19593334197998
1776038161449585700,-1522126.4554143066,0.8312766551971436,-3.356544256210327,-9.176763534545898
1776038161459626000,-1522126.4453740234,0.8487170338630676,-3.438431978225708,-9.144794464111328
1776038161479828500,-1522126.425171631,0.888563871383667,-3.5501677989959717,-9.09819507598877
1776038161499939600,-1522126.4050603027,0.9183967113494873,-3.6343116760253906,-9.061938285827637
1776038161510040800,-1522126.3949592286,0.9350205063819885,-3.689750909805298,-9.037801742553711
1776038161520111600,-1522126.3848884278,0.9645838737487793,-3.76973819732666,-9.00161361694336
1776038161530182400,-1522126.374817627,0.9809691905975342,-3.7969067096710205,-8.98841381072998
1776038161540253200,-1522126.3647468262,1.0181465148925781,-3.8509130477905273,-8.961263656616211
1776038161550324200,-1522126.3546757812,1.0671002864837646,-3.907545566558838,-8.931001663208008
1776038161560395000,-1522126.3446049804,1.127248764038086,-3.9706082344055176,-8.895729064941406
1776038161570465800,-1522126.3345341797,1.2253811359405518,-4.0798726081848145,-8.833089828491211
1776038161590577000,-1522126.3144230957,1.3603051900863647,-4.254829406738281,-8.730199813842773
1776038161610657300,-1522126.2943427735,1.4643670320510864,-4.402248859405518,-8.63980484008789
1776038161620697600,-1522126.2843024903,1.5414906740188599,-4.505818843841553,-8.572734832763672
1776038161630798800,-1522126.274201172,1.675235629081726,-4.666999340057373,-8.46068000793457
1776038161640870000,-1522126.264130127,1.7215467691421509,-4.71952486038208,-8.422160148620605
1776038161650910000,-1522126.254090088,1.8215017318725586,-4.826255798339844,-8.340250968933105
1776038161660950300,-1522126.2440498048,1.9257296323776245,-4.931975364685059,-8.254549026489258
1776038161671051800,-1522126.2339482422,2.032479763031006,-5.036450386047363,-8.165389060974121
1776038161691193300,-1522126.2138066406,2.2450480461120605,-5.2404561042785645,-7.979208469390869
1776038161701233400,-1522126.2037666016,2.39615797996521,-5.397642612457275,-7.829065799713135
1776038161711304400,-1522126.1936955566,2.475630760192871,-5.498007297515869,-7.733924388885498
1776038161721375200,-1522126.1836247558,2.472322463989258,-5.517198085784912,-7.7213029861450195
1776038161731384800,-1522126.1736152344,2.518975019454956,-5.612771034240723,-7.636881351470947
1776038161741425200,-1522126.1635749512,2.578192710876465,-5.736780643463135,-7.524138927459717
1776038161751496000,-1522126.1535041505,2.629173755645752,-5.8731207847595215,-7.400289058685303
1776038161761566700,-1522126.1434333497,2.668431282043457,-6.019576072692871,-7.267364501953125
1776038161781677800,-1522126.1233222657,2.7152936458587646,-6.404207706451416,-6.912575721740723
1776038161801819400,-1522126.1031806641,2.708923578262329,-6.709181308746338,-6.619591236114502
1776038161811890200,-1522126.0931098633,2.7015812397003174,-6.782135009765625,-6.547863483428955
1776038161821991700,-1522126.0830083007,2.6903140544891357,-6.925475597381592,-6.400811672210693
1776038161832062500,-1522126.0729375,2.6787030696868896,-7.06091833114624,-6.256069660186768
1776038161842163700,-1522126.0628361816,2.6681602001190186,-7.1878981590271,-6.11436128616333
1776038161852234500,-1522126.052765625,2.660320520401001,-7.304261684417725,-5.978363037109375
1776038161862305300,-1522126.0426948243,2.6573352813720703,-7.4095587730407715,-5.848710536956787
1776038161872376000,-1522126.0326240235,2.664700984954834,-7.545968055725098,-5.6681671142578125
1776038161892517600,-1522126.012482422,2.6767525672912598,-7.6576666831970215,-5.510493755340576
1776038161902588400,-1522126.0024116212,2.6992552280426025,-7.746371746063232,-5.373839855194092
1776038161912628700,-1522125.992371338,2.70554780960083,-7.770837306976318,-5.3352131843566895
1776038161922699500,-1522125.9823005372,2.71960186958313,-7.815423488616943,-5.2624430656433105
1776038161932739800,-1522125.972260254,2.7394514083862305,-7.869051456451416,-5.171445846557617
1776038161942780200,-1522125.9622197265,2.7445662021636963,-7.882227420806885,-5.148615837097168
1776038161952851000,-1522125.95214917,2.7633352279663086,-7.91878080368042,-5.082055568695068
1776038161962952200,-1522125.9420478516,2.7740745544433594,-7.929829120635986,-5.058923244476318
1776038161973023000,-1522125.9319770508,2.7780330181121826,-7.93145227432251,-5.054203987121582
1776038162003235600,-1522125.9017644043,2.7842533588409424,-7.898219108581543,-5.102594375610352
1776038162023316000,-1522125.881684082,2.769406795501709,-7.801263809204102,-5.257477760314941
1776038162033356300,-1522125.871643799,2.749960422515869,-7.689770698547363,-5.429137229919434
1776038162043427000,-1522125.861572998,2.726956605911255,-7.5639495849609375,-5.6143364906311035
1776038162053497900,-1522125.8515021973,2.6989731788635254,-7.4348907470703125,-5.79727029800415
1776038162063599400,-1522125.8414006347,2.6833336353302,-7.3376898765563965,-5.926924228668213
1776038162073670100,-1522125.831329834,2.666501760482788,-7.246011257171631,-6.046112537384033
1776038162113922800,-1522125.7910771484,2.598897695541382,-6.865170001983643,-6.502735614776611
1776038162123993600,-1522125.7810063476,2.5871715545654297,-6.723879337310791,-6.653299331665039
1776038162134003200,-1522125.7709968262,2.578068971633911,-6.5691070556640625,-6.809609889984131
1776038162144104700,-1522125.7608952636,2.5687849521636963,-6.314349174499512,-7.049875259399414
1776038162154175500,-1522125.7508244629,2.5672919750213623,-6.223308086395264,-7.1309075355529785
1776038162164276700,-1522125.7407231445,2.5742852687835693,-5.946533203125,-7.360854625701904
1776038162174317000,-1522125.7306828613,2.5980331897735596,-5.75620698928833,-7.50244665145874
1776038162184418300,-1522125.7205817872,2.639453649520874,-5.559765338897705,-7.634964942932129
1776038162224610000,-1522125.6803898925,2.805356740951538,-4.812131404876709,-8.071167945861816
1776038162234680800,-1522125.6703190918,2.814379930496216,-4.645068168640137,-8.165352821350098
1776038162244751600,-1522125.660248291,2.8122196197509766,-4.549548625946045,-8.219696998596191
1776038162254822400,-1522125.6501774902,2.8027913570404053,-4.392536163330078,-8.307849884033203
1776038162264862700,-1522125.640137207,2.7807629108428955,-4.244143486022949,-8.391960144042969
1776038162274933500,-1522125.6300664062,2.7456319332122803,-4.099236965179443,-8.475149154663086
1776038162285034800,-1522125.619965332,2.677732229232788,-3.89905047416687,-8.590548515319824
1776038162325318000,-1522125.579682129,2.425478219985962,-3.4064781665802,-8.870363235473633
1776038162335389000,-1522125.569611084,2.393390417098999,-3.3749237060546875,-8.89111614227295
1776038162345459700,-1522125.5595402832,2.295461416244507,-3.240912675857544,-8.966479301452637
1776038162355530500,-1522125.5494694824,2.225605010986328,-3.1570143699645996,-9.013896942138672
1776038162365601300,-1522125.5393986816,2.154039144515991,-3.0799925327301025,-9.057822227478027
1776038162375672000,-1522125.5293278808,2.1114912033081055,-3.06701397895813,-9.072235107421875
1776038162385773300,-1522125.5192268067,2.0355045795440674,-3.0044500827789307,-9.110454559326172
1776038162415985700,-1522125.4890144044,1.8612288236618042,-2.691528081893921,-9.244560241699219
1776038162436035800,-1522125.4689641113,1.750350832939148,-2.481170415878296,-9.324723243713379
1776038162446137000,-1522125.458862793,1.6887118816375732,-2.3935060501098633,-9.358942031860352
1776038162456208000,-1522125.4487922364,1.6228952407836914,-2.3457932472229004,-9.382637023925781
1776038162466278700,-1522125.4387214356,1.5566297769546509,-2.297058343887329,-9.405892372131348
1776038162476349400,-1522125.4286506348,1.490715503692627,-2.230550527572632,-9.432539939880371
1776038162486420200,-1522125.418579834,1.39436936378479,-2.1221566200256348,-9.47220230102539
1776038162496491000,-1522125.4085090333,1.3295085430145264,-2.071078300476074,-9.492809295654297
1776038162526703600,-1522125.3782963867,1.1396522521972656,-2.0038957595825195,-9.531840324401855
1776038162546845200,-1522125.3581547851,0.9799597263336182,-1.9916208982467651,-9.552146911621094
1776038162556916000,-1522125.3480839843,0.9068097472190857,-1.9980037212371826,-9.558037757873535
1776038162567017200,-1522125.337982666,0.7911100387573242,-1.9844273328781128,-9.571133613586426
1776038162577088000,-1522125.3279121094,0.7701210379600525,-1.9956334829330444,-9.570514678955078
1776038162587189200,-1522125.317810791,0.6779682636260986,-2.00060772895813,-9.576446533203125
1776038162597260000,-1522125.3077399903,0.6791530847549438,-2.0217392444610596,-9.571924209594727
1776038162627411500,-1522125.277588623,0.4202636480331421,-2.0339274406433105,-9.584200859069824
1776038162647553000,-1522125.2574470215,0.31568390130996704,-2.0541419982910156,-9.583903312683105
1776038162657623800,-1522125.2473762208,0.23845279216766357,-2.0710887908935547,-9.582490921020508
1776038162667694600,-1522125.23730542,0.16306115686893463,-2.0929551124572754,-9.579319953918457
1776038162677765600,-1522125.227234375,0.09177344292402267,-2.1208176612854004,-9.574138641357422
1776038162687805700,-1522125.217194336,-0.001897358102723956,-2.1741724014282227,-9.562602996826172
1776038162697815600,-1522125.2071843261,-0.023377368226647377,-2.194579839706421,-9.55791187286377
1776038162707916800,-1522125.197083252,-0.08027239143848419,-2.264228343963623,-9.541343688964844
1776038162748200200,-1522125.1567998047,-0.12050269544124603,-2.450563669204712,-9.494768142700195
1776038162758271000,-1522125.1467290039,-0.11890695244073868,-2.5386009216308594,-9.471630096435547
1776038162768341800,-1522125.136658203,-0.11341185867786407,-2.5693979263305664,-9.46338939666748
1776038162778443000,-1522125.1265568847,-0.09233575314283371,-2.6670520305633545,-9.436562538146973
1776038162788513800,-1522125.1164863282,-0.07914602011442184,-2.702148199081421,-9.426692008972168
1776038162798584600,-1522125.1064155274,-0.042084407061338425,-2.775606870651245,-9.405563354492188
1776038162828766500,-1522125.0762336426,0.18812428414821625,-3.0283143520355225,-9.325468063354492
1776038162838745900,-1522125.0662541504,0.2996644973754883,-3.124591112136841,-9.29072093963623
1776038162848816600,-1522125.0561833496,0.4206365644931793,-3.228839874267578,-9.250301361083984
1776038162858856700,-1522125.0461433106,0.5456488728523254,-3.338719129562378,-9.204651832580566
1776038162868958200,-1522125.036041748,0.675544798374176,-3.454589605331421,-9.153133392333984
1776038162879029000,-1522125.0259709472,0.8802122473716736,-3.6336050033569336,-9.066010475158691
1776038162889099800,-1522125.0159001464,1.0291905403137207,-3.7524256706237793,-9.001691818237305
1776038162899140000,-1522125.0058598632,1.1076748371124268,-3.8103113174438477,-8.967997550964355
1776038162909211000,-1522124.9957890625,1.3595417737960815,-3.978656530380249,-8.859588623046875
1776038162959534300,-1522124.9454655761,2.1766934394836426,-4.400139808654785,-8.489474296569824
1776038162969635600,-1522124.935364502,2.3336703777313232,-4.493895530700684,-8.398171424865723
1776038162979676000,-1522124.9253239746,2.4682133197784424,-4.596424579620361,-8.303685188293457
1776038162989777200,-1522124.9152229005,2.633134365081787,-4.772984981536865,-8.152030944824219
1776038162999817500,-1522124.9051826173,2.6698195934295654,-4.829850673675537,-8.106477737426758
1776038163009857800,-1522124.8951420898,2.7720553874969482,-5.0318474769592285,-7.947742462158203
1776038163019867600,-1522124.8851323242,2.773305654525757,-5.091604232788086,-7.909155368804932
1776038163040009200,-1522124.8649907226,2.7950990200042725,-5.468569278717041,-7.64542818069458
1776038163060089900,-1522124.8449101562,2.6548855304718018,-5.684655666351318,-7.5370192527771
1776038163070191000,-1522124.8348088379,2.562614679336548,-5.824398994445801,-7.461889266967773
1776038163080262000,-1522124.824738037,2.5300493240356445,-6.051546096801758,-7.290269374847412
1776038163090363100,-1522124.814636963,2.490614414215088,-6.115396499633789,-7.250458717346191
1776038163100403500,-1522124.8045964355,2.4688189029693604,-6.2603936195373535,-7.133217811584473
1776038163110504700,-1522124.7944953614,2.4522359371185303,-6.480865955352783,-6.939400672912598
1776038163130615800,-1522124.7743842774,2.4103426933288574,-6.683485984802246,-6.759561061859131
1776038163150757400,-1522124.7542426758,2.369889736175537,-6.947172164916992,-6.503138065338135
1776038163160828200,-1522124.744171875,2.344890832901001,-7.0731520652771,-6.3751397132873535
1776038163170929700,-1522124.7340703125,2.3147144317626953,-7.1939616203308105,-6.249754428863525
1776038163180939300,-1522124.724060791,2.278718948364258,-7.307399272918701,-6.130231857299805
1776038163191040800,-1522124.7139592285,2.2371604442596436,-7.4147257804870605,-6.015592098236084
1776038163201080800,-1522124.7039191895,2.1901631355285645,-7.514464855194092,-5.908162593841553
1776038163211152000,-1522124.6938481445,2.1390063762664795,-7.607187747955322,-5.807385444641113
1776038163221161500,-1522124.683838623,2.085327386856079,-7.692055702209473,-5.714375972747803
1776038163241272600,-1522124.6637275391,1.9807372093200684,-7.836470127105713,-5.553091526031494
1776038163261383700,-1522124.643616211,1.8996716737747192,-7.9434614181518555,-5.427989482879639
1776038163271485000,-1522124.6335151368,1.867162823677063,-7.983043193817139,-5.380997657775879
1776038163281555700,-1522124.623444336,1.8204542398452759,-8.028609275817871,-5.328957557678223
1776038163291626500,-1522124.6133735352,1.8034745454788208,-8.038515090942383,-5.319789409637451
1776038163301697300,-1522124.6033027344,1.7699527740478516,-8.05586051940918,-5.304786205291748
1776038163311768300,-1522124.5932316894,1.7352946996688843,-8.066277503967285,-5.300408363342285
1776038163321839000,-1522124.5831608886,1.69834303855896,-8.067927360534668,-5.309857368469238
1776038163331940400,-1522124.5730595703,1.6567782163619995,-8.059612274169922,-5.335555076599121
1776038163362152700,-1522124.5428474122,1.538902997970581,-7.936198711395264,-5.551477909088135
1776038163382324700,-1522124.522675293,1.4651333093643188,-7.831559658050537,-5.717556953430176
1776038163392426200,-1522124.5125737304,1.439143180847168,-7.763840198516846,-5.815670967102051
1776038163402497000,-1522124.5025029297,1.4154425859451294,-7.686995506286621,-5.922584056854248
1776038163412567800,-1522124.4924321289,1.3639953136444092,-7.558798789978027,-6.0970869064331055
1776038163422638600,-1522124.482361328,1.3433148860931396,-7.51012659072876,-6.1614837646484375
1776038163442780200,-1522124.4622197265,1.2477941513061523,-7.296022415161133,-6.4328436851501465
1776038163452820500,-1522124.4521794433,1.1849726438522339,-7.115965366363525,-6.642986297607422
1776038163462830300,-1522124.4421696777,1.1485404968261719,-6.983813762664795,-6.788049221038818
1776038163472901000,-1522124.432098877,1.1342781782150269,-6.911922454833984,-6.863611221313477
1776038163482972000,-1522124.4220280761,1.0780454874038696,-6.707577228546143,-7.072243690490723
1776038163493042700,-1522124.4119572754,1.0613040924072266,-6.636776447296143,-7.141234397888184
1776038163503021800,-1522124.4019782715,0.9979150891304016,-6.444182872772217,-7.32441520690918
1776038163513123000,-1522124.3918769532,0.9664753675460815,-6.316514492034912,-7.4389495849609375
1776038163523193900,-1522124.3818061524,0.9445061683654785,-6.194301128387451,-7.543801784515381
1776038163553345300,-1522124.3516547852,0.91129070520401,-5.879138946533203,-7.79587459564209
1776038163573426000,-1522124.3315739746,0.9184387922286987,-5.702630519866943,-7.925078392028809
1776038163583466200,-1522124.3215336914,0.9256207942962646,-5.655498504638672,-7.957950115203857
1776038163593537000,-1522124.3114628906,0.9430875182151794,-5.566430568695068,-8.018467903137207
1776038163603607800,-1522124.3013920898,0.9661977291107178,-5.474969863891602,-8.078463554382324
1776038163613678600,-1522124.291321289,0.9902560710906982,-5.378775596618652,-8.139936447143555
1776038163623688400,-1522124.2813115234,1.0205320119857788,-5.23156213760376,-8.231624603271484
1776038163633698000,-1522124.271302002,1.0367302894592285,-5.125338077545166,-8.296172142028809
1776038163663849500,-1522124.2411506348,1.052741527557373,-4.81634521484375,-8.47731876373291
1776038163673950700,-1522124.2310493165,1.04829740524292,-4.7630815505981445,-8.507909774780273
1776038163684021500,-1522124.2209785157,1.0350059270858765,-4.6511993408203125,-8.57120132446289
1776038163694092500,-1522124.2109074707,1.0140262842178345,-4.53476619720459,-8.635857582092285
1776038163714264600,-1522124.1907353515,0.9594313502311707,-4.283421039581299,-8.769390106201172
1776038163724305000,-1522124.1806950683,0.9289584159851074,-4.150699615478516,-8.8362398147583
1776038163734406100,-1522124.17059375,0.8991069197654724,-4.01375150680542,-8.902347564697266
1776038163744446500,-1522124.1605534668,0.870029866695404,-3.878383159637451,-8.965020179748535
1776038163774598000,-1522124.1304020996,0.8156038522720337,-3.528040647506714,-9.11362075805664
1776038163784638000,-1522124.1203620606,0.8147943019866943,-3.43678879737854,-9.148494720458984
1776038163794739500,-1522124.110260498,0.8090022802352905,-3.3244364261627197,-9.190430641174316
1776038163804810200,-1522124.1001896972,0.7895640134811401,-3.143897533416748,-9.255425453186035
1776038163814881000,-1522124.0901188964,0.7832014560699463,-3.045091390609741,-9.288939476013184
1776038163824921300,-1522124.0800786132,0.7767302393913269,-2.9618537425994873,-9.316356658935547
1776038163835022600,-1522124.069977295,0.7822340726852417,-2.948467493057251,-9.320140838623047
1776038163845093400,-1522124.0599067383,0.7700503468513489,-2.8851397037506104,-9.340950965881348
1776038163875305700,-1522124.029694336,0.6822013258934021,-2.7360260486602783,-9.39250373840332
1776038163885376500,-1522124.0196235352,0.6405869126319885,-2.7021594047546387,-9.405232429504395
1776038163895447300,-1522124.0095527344,0.5942366719245911,-2.679382085800171,-9.414786338806152
1776038163905487600,-1522123.9995124512,0.5095090270042419,-2.659884214401245,-9.425275802612305
1776038163915528000,-1522123.989472168,0.4892313778400421,-2.6670420169830322,-9.42432689666748
1776038163925598700,-1522123.9794013673,0.43212828040122986,-2.6747548580169678,-9.424933433532715
1776038163935700000,-1522123.969300049,0.3742530047893524,-2.691387891769409,-9.422672271728516
1776038163945740300,-1522123.9592597657,0.28106793761253357,-2.7299087047576904,-9.414828300476074
1776038163965881900,-1522123.9391181641,0.2175678163766861,-2.795313596725464,-9.397300720214844
1776038163975983400,-1522123.9290166015,0.18468904495239258,-2.846090078353882,-9.382753372192383
1776038163986023700,-1522123.9189763183,0.16394144296646118,-2.899265766143799,-9.366844177246094
1776038163996125000,-1522123.908875,0.12557166814804077,-2.97291898727417,-9.34432315826416
1776038164006134800,-1522123.8988652343,0.13249942660331726,-2.996828079223633,-9.336587905883789
1776038164016236000,-1522123.888763916,0.11103343963623047,-3.03861665725708,-9.323351860046387
1776038164026306800,-1522123.8786931152,0.08319149166345596,-3.074021100997925,-9.312027931213379
1776038164036408000,-1522123.868592041,0.028283845633268356,-3.110623598098755,-9.30019474029541
1776038164046418000,-1522123.8585820312,0.019784897565841675,-3.1214711666107178,-9.296581268310547
1776038164086701000,-1522123.818298828,-0.013860182836651802,-3.146916627883911,-9.288009643554688
1776038164096771800,-1522123.8082282715,-0.0011836568592116237,-3.1577372550964355,-9.284347534179688
1776038164106842600,-1522123.7981574708,0.01791851967573166,-3.1744697093963623,-9.278620719909668
1776038164116883000,-1522123.7881169433,0.030250176787376404,-3.1852643489837646,-9.274888038635254
1776038164126953700,-1522123.7780463868,0.0874643474817276,-3.2278032302856445,-9.259808540344238
1776038164137024500,-1522123.767975586,0.14433366060256958,-3.2661526203155518,-9.245638847351074
1776038164147064800,-1522123.7579350586,0.2167617678642273,-3.314415216445923,-9.227029800415039
1776038164157135600,-1522123.747864502,0.3032785952091217,-3.375544309616089,-9.202398300170898
1776038164217529900,-1522123.687470215,0.8437965512275696,-4.066560745239258,-8.883776664733887
1776038164227600600,-1522123.6773994141,0.9348194599151611,-4.223227024078369,-8.801185607910156
1776038164247742200,-1522123.6572578126,1.0816221237182617,-4.462674617767334,-8.6651611328125
1776038164257813200,-1522123.6471867675,1.1882009506225586,-4.623687267303467,-8.566218376159668
1776038164267853300,-1522123.6371467286,1.3546470403671265,-4.865407943725586,-8.406136512756348
1776038164287934000,-1522123.6170661622,1.5166999101638794,-5.104255676269531,-8.235082626342773
1776038164297974300,-1522123.6070256347,1.674312710762024,-5.344513416290283,-8.05004596710205
1776038164308045000,-1522123.596954834,1.7188059091567993,-5.421906471252441,-7.9886794090271
1776038164318055000,-1522123.5869450683,1.8490140438079834,-5.660160541534424,-7.791926860809326
1776038164328095200,-1522123.5769047851,1.9101450443267822,-5.8163838386535645,-7.661032199859619
1776038164338196500,-1522123.5668034668,1.9166922569274902,-5.886017322540283,-7.606015205383301
1776038164348267300,-1522123.556732666,1.9457366466522217,-6.111668586730957,-7.418356895446777
1776038164358277000,-1522123.5467229004,1.8095844984054565,-6.12247371673584,-7.443864822387695
1776038164368317200,-1522123.5366828614,1.8080940246582031,-6.355340003967285,-7.246436595916748
1776038164378388000,-1522123.5266120606,1.7904566526412964,-6.426506519317627,-7.1878132820129395
1776038164408539400,-1522123.4964606934,1.6862913370132446,-6.982203006744385,-6.676499366760254
1776038164418610200,-1522123.4863898926,1.659057855606079,-7.056521415710449,-6.604804039001465
1776038164428650500,-1522123.4763496094,1.6103116273880005,-7.207752227783203,-6.451791763305664
1776038164438721300,-1522123.4662788087,1.5581775903701782,-7.353036403656006,-6.298836708068848
1776038164448700700,-1522123.4562993164,1.5049433708190918,-7.492175102233887,-6.145963668823242
1776038164458802000,-1522123.446197998,1.4527040719985962,-7.624969959259033,-5.993319988250732
1776038164468872700,-1522123.4361271972,1.4031150341033936,-7.750543117523193,-5.8421525955200195
1776038164499115500,-1522123.4058845215,1.2825901508331299,-8.076181411743164,-5.413008689880371
1776038164509217000,-1522123.395782959,1.23226797580719,-8.213292121887207,-5.214761734008789
1776038164519318300,-1522123.3856816406,1.1973785161972046,-8.296669006347656,-5.089399337768555
1776038164529389000,-1522123.3756108398,1.161605715751648,-8.373154640197754,-4.971051216125488
1776038164539429400,-1522123.3655705566,1.1422423124313354,-8.40889835357666,-4.9148850440979
1776038164549530600,-1522123.3554694825,1.0845756530761719,-8.504737854003906,-4.760622978210449
1776038164559601400,-1522123.3453986817,1.0632646083831787,-8.533114433288574,-4.714427947998047
1776038164569672200,-1522123.335327881,1.0195376873016357,-8.583549499511719,-4.631805419921875
1776038164579712500,-1522123.3252875977,0.9517892599105835,-8.646608352661133,-4.527768611907959
1776038164619934700,-1522123.2850651855,0.7998766899108887,-8.734829902648926,-4.385584354400635
1776038164630036000,-1522123.2749641114,0.7553636431694031,-8.745139122009277,-4.3729119300842285
1776038164640106800,-1522123.2648933106,0.6881967782974243,-8.747831344604492,-4.378612995147705
1776038164650086100,-1522123.2549138183,0.6667383909225464,-8.74379825592041,-4.3899712562561035
1776038164660157000,-1522123.2448430175,0.6249942183494568,-8.729986190795898,-4.423472881317139
1776038164670258200,-1522123.2347419434,0.5867074131965637,-8.70418930053711,-4.479201793670654
1776038164680329000,-1522123.2246711426,0.5569903254508972,-8.660810470581055,-4.5662360191345215
1776038164710419200,-1522123.1945808106,0.624708354473114,-8.299335479736328,-5.186631202697754
1776038164720520700,-1522123.184479248,0.6485410928726196,-8.23044204711914,-5.2924089431762695
1776038164730530300,-1522123.1744697266,0.6726379990577698,-8.11365032196045,-5.4668660163879395
1776038164740540200,-1522123.164459961,0.700063169002533,-7.987135410308838,-5.64676570892334
1776038164750611000,-1522123.1543891602,0.7287351489067078,-7.852914810180664,-5.828470230102539
1776038164760651300,-1522123.1443486328,0.7781482934951782,-7.628505229949951,-6.113162517547607
1776038164770691600,-1522123.1343083496,0.7956857085227966,-7.54319429397583,-6.215909481048584
1776038164780762400,-1522123.1242375488,0.8334925770759583,-7.36205530166626,-6.424628734588623
1776038164790863600,-1522123.1141364747,0.875333845615387,-7.159060955047607,-6.64470100402832
1776038164811005200,-1522123.093994873,0.9859423041343689,-6.683046340942383,-7.108810901641846
1776038164831116300,-1522123.0738837891,1.169332504272461,-6.115628242492676,-7.57642126083374
1776038164841187000,-1522123.0638129883,1.28520929813385,-5.811963081359863,-7.793567657470703
1776038164851257900,-1522123.0537421876,1.415489912033081,-5.499526500701904,-7.995122909545898
1776038164861298200,-1522123.0437019044,1.5558230876922607,-5.1844072341918945,-8.17751407623291
1776038164871399400,-1522123.033600586,1.6869436502456665,-4.86000919342041,-8.34894847869873
1776038164881501000,-1522123.0234990234,1.828324317932129,-4.556910991668701,-8.488944053649902
1776038164891571700,-1522123.0134282226,2.01487398147583,-4.0983734130859375,-8.678364753723145
1776038164921814500,-1522122.983185547,2.2449252605438232,-3.4086999893188477,-8.916919708251953
1776038164931885300,-1522122.9731147462,2.298346519470215,-3.1736552715301514,-8.989767074584961
1776038164941986800,-1522122.9630131836,2.3302807807922363,-2.9639992713928223,-9.052894592285156
1776038164952057600,-1522122.9529423828,2.341618061065674,-2.7822420597076416,-9.107487678527832
1776038164962128400,-1522122.942871582,2.317340612411499,-2.620418071746826,-9.16153621673584
1776038164972199200,-1522122.9328007812,2.2597413063049316,-2.467724561691284,-9.218151092529297
1776038164982239500,-1522122.922760498,2.2446675300598145,-2.421617269515991,-9.234047889709473
1776038164992310300,-1522122.9126896972,2.2034378051757812,-2.3407633304595947,-9.264777183532715
1776038165022553000,-1522122.8824470215,1.8567490577697754,-2.3726954460144043,-9.332372665405273
1776038165032623900,-1522122.8723762208,1.7981436252593994,-2.432025194168091,-9.328575134277344
1776038165042694700,-1522122.86230542,1.724038004875183,-2.4714486598968506,-9.33220386505127
1776038165052704500,-1522122.8522954101,1.6827678680419922,-2.4419620037078857,-9.347487449645996
1776038165062775300,-1522122.8422246093,1.647581934928894,-2.4082353115081787,-9.362494468688965
1776038165072815600,-1522122.8321843261,1.5715075731277466,-2.3883631229400635,-9.380643844604492
1776038165082886400,-1522122.8221135254,1.5192046165466309,-2.5105764865875244,-9.357319831848145
1776038165103028000,-1522122.8019719238,1.3544459342956543,-2.580016613006592,-9.363725662231445
1776038165133209900,-1522122.771790039,1.2308686971664429,-2.470942974090576,-9.410091400146484
1776038165143280600,-1522122.7617192382,1.213586688041687,-2.4594595432281494,-9.4153413772583
1776038165153351400,-1522122.7516486817,1.17803955078125,-2.4249930381774902,-9.428788185119629
1776038165163452700,-1522122.7415473633,1.1424188613891602,-2.4023256301879883,-9.438968658447266
1776038165173493000,-1522122.7315070801,1.1096078157424927,-2.4073257446289062,-9.441608428955078
1776038165183563800,-1522122.7214362794,1.0796949863433838,-2.4243056774139404,-9.440731048583984
1776038165193604000,-1522122.7113959962,1.0436439514160156,-2.4794185161590576,-9.430465698242188
1776038165203644400,-1522122.7013554687,1.0432868003845215,-2.5066819190979004,-9.423295021057129
1776038165243866600,-1522122.6611333007,0.9617688059806824,-2.5407629013061523,-9.422839164733887
1776038165274109400,-1522122.630890625,0.9328250288963318,-2.662527322769165,-9.392081260681152
1776038165284180200,-1522122.6208198243,0.9113824367523193,-2.7042794227600098,-9.382251739501953
1776038165294251000,-1522122.6107490235,0.8831798434257507,-2.744802713394165,-9.373177528381348
1776038165304321800,-1522122.6006782227,0.8285761475563049,-2.7940189838409424,-9.363615036010742
1776038165324402400,-1522122.5805976563,0.7886819839477539,-2.851287841796875,-9.349785804748535
1776038165344544000,-1522122.5604560548,0.7489023208618164,-2.932309150695801,-9.32797622680664
1776038165354614800,-1522122.550385254,0.7422229647636414,-2.9799745082855225,-9.313392639160156
1776038165364685600,-1522122.5403144532,0.7412269711494446,-3.03157377243042,-9.296802520751953
1776038165374756600,-1522122.5302434082,0.7443278431892395,-3.086566925048828,-9.278441429138184
1776038165384857900,-1522122.5201420898,0.7496289014816284,-3.1460344791412354,-9.25801944732666
1776038165394928600,-1522122.510071289,0.7571089863777161,-3.211029529571533,-9.235069274902344
1776038165404999400,-1522122.5000004882,0.768789529800415,-3.279653549194336,-9.209953308105469
1776038165415070200,-1522122.4899296875,0.7853531241416931,-3.3508310317993164,-9.182894706726074
1776038165455353300,-1522122.4496467286,0.8618401288986206,-3.7088403701782227,-9.037261962890625
1776038165465424100,-1522122.4395759278,0.8785580396652222,-3.753380060195923,-9.017242431640625
1776038165475434000,-1522122.429565918,0.9152525663375854,-3.844967842102051,-8.974905014038086
1776038165485504800,-1522122.4194951172,0.9602105021476746,-3.942340612411499,-8.927841186523438
1776038165495575600,-1522122.4094245606,1.0141700506210327,-4.045403957366943,-8.875615119934082
1776038165505676800,-1522122.3993232423,1.0765782594680786,-4.153207778930664,-8.818290710449219
1776038165515747600,-1522122.3892524415,1.1806442737579346,-4.322651386260986,-8.72302532196045
1776038165525818400,-1522122.3791816407,1.2182856798171997,-4.379112243652344,-8.689621925354004
1776038165545990700,-1522122.3590092773,1.3824667930603027,-4.605950355529785,-8.546601295471191
1776038165556000300,-1522122.348999756,1.5259978771209717,-4.768285751342773,-8.432388305664062
1776038165566101800,-1522122.3388981933,1.5768250226974487,-4.819367408752441,-8.393908500671387
1776038165576172500,-1522122.3288273925,1.6841782331466675,-4.918453693389893,-8.315214157104492
1776038165586243300,-1522122.3187565918,1.7959120273590088,-5.011631965637207,-8.235815048217773
1776038165596314000,-1522122.308685791,1.9717718362808228,-5.143732070922852,-8.113231658935547
1776038165606385000,-1522122.2986149902,2.088465690612793,-5.2252936363220215,-8.031502723693848
1776038165616455700,-1522122.2885444337,2.1431081295013428,-5.262168884277344,-7.992937088012695
1776038165626526500,-1522122.2784736329,2.307211399078369,-5.384021759033203,-7.865079402923584
1776038165666809600,-1522122.2381904298,2.4948697090148926,-5.620945453643799,-7.638782501220703
1776038165676819500,-1522122.2281806641,2.5507121086120605,-5.719953536987305,-7.546283721923828
1776038165686890200,-1522122.2181098633,2.62597393989563,-5.891542911529541,-7.386771202087402
1776038165696961000,-1522122.2080390626,2.641201972961426,-5.948200702667236,-7.33575963973999
1776038165707062300,-1522122.1979377442,2.673340082168579,-6.072996139526367,-7.220966815948486
1776038165717133300,-1522122.1878666992,2.6966934204101562,-6.202228546142578,-7.101449489593506
1776038165727234600,-1522122.1777653808,2.7164077758789062,-6.404654502868652,-6.9117231369018555
1776038165737305300,-1522122.16769458,2.7148079872131348,-6.469486713409424,-6.851713180541992
1776038165767578600,-1522122.1374213868,2.706606388092041,-6.864597797393799,-6.459254741668701
1776038165777619000,-1522122.1273811036,2.7047529220581055,-7.046149253845215,-6.261507511138916
1776038165787720400,-1522122.117279541,2.7008285522460938,-7.1021904945373535,-6.199582576751709
1776038165797821700,-1522122.1071782226,2.697401285171509,-7.211427211761475,-6.073692798614502
1776038165807831600,-1522122.097168457,2.6929144859313965,-7.313732624053955,-5.95213508605957
1776038165817841200,-1522122.0871589356,2.6875393390655518,-7.4085164070129395,-5.836215972900391
1776038165827942400,-1522122.0770576173,2.6793642044067383,-7.49777364730835,-5.724928379058838
1776038165838013400,-1522122.0669865722,2.6658120155334473,-7.581956386566162,-5.619411945343018
1776038165878205000,-1522122.026795166,2.531898021697998,-7.868636131286621,-5.276784420013428
1776038165888245200,-1522122.0167546386,2.4553110599517822,-7.948851585388184,-5.192071914672852
1776038165898285600,-1522122.0067143554,2.3977439403533936,-7.99321985244751,-5.150692939758301
1776038165908386800,-1522121.9966132813,2.367131233215332,-8.012730598449707,-5.13451623916626
1776038165918457600,-1522121.9865424805,2.3018531799316406,-8.044981956481934,-5.113720893859863
1776038165928558800,-1522121.9764411622,2.2340292930603027,-8.067205429077148,-5.108787536621094
1776038165938599200,-1522121.966400879,2.1379823684692383,-8.076908111572266,-5.134491920471191
1776038165958771500,-1522121.9462285156,2.0518922805786133,-8.05148696899414,-5.20900297164917
1776038165978851800,-1522121.9261481934,1.9797306060791016,-7.918097972869873,-5.436429977416992
1776038165998993700,-1522121.9060063476,1.9346446990966797,-7.644277572631836,-5.830312728881836
1776038166009095000,-1522121.8959050293,1.9300187826156616,-7.579448699951172,-5.915858268737793
1776038166019165700,-1522121.8858342285,1.9075450897216797,-7.385774612426758,-6.162951469421387
1776038166029236500,-1522121.8757634277,1.9006805419921875,-7.23372220993042,-6.342796325683594
1776038166039276800,-1522121.8657231445,1.8958559036254883,-7.0655903816223145,-6.530968189239502
1776038166049347600,-1522121.8556523437,1.8926270008087158,-6.878266334533691,-6.728879928588867
1776038166069489200,-1522121.8355107422,1.896053433418274,-6.559730529785156,-7.038844108581543
1776038166079560000,-1522121.8254401856,1.9102070331573486,-6.3200273513793945,-7.251121997833252
1776038166109741800,-1522121.7952580566,2.0681874752044678,-5.3594841957092285,-7.947887897491455
1776038166119812600,-1522121.7851875,2.1426784992218018,-5.075693607330322,-8.112747192382812
1776038166129853000,-1522121.7751469726,2.221933126449585,-4.8030900955200195,-8.256133079528809
1776038166139862800,-1522121.765137207,2.2618565559387207,-4.668042182922363,-8.32248592376709
1776038166149964000,-1522121.7550358886,2.3307137489318848,-4.422618389129639,-8.436742782592773
1776038166170105600,-1522121.734894287,2.439530849456787,-3.9325122833251953,-8.646063804626465
1776038166180146000,-1522121.7248540039,2.4626047611236572,-3.778500556945801,-8.707980155944824
1776038166190247200,-1522121.7147529298,2.467937469482422,-3.704366683959961,-8.738268852233887
1776038166200257000,-1522121.70474292,2.476656198501587,-3.5826914310455322,-8.78640365600586
1776038166210327800,-1522121.694672119,2.4742467403411865,-3.43672513961792,-8.845192909240723
1776038166220337700,-1522121.6846623535,2.4603075981140137,-3.356172800064087,-8.879942893981934
1776038166230408400,-1522121.6745915527,2.4465994834899902,-3.3201534748077393,-8.897254943847656
1776038166240479200,-1522121.664520752,2.4147231578826904,-3.2607266902923584,-8.927887916564941
1776038166250550000,-1522121.6544499511,2.3713812828063965,-3.221280336380005,-8.953786849975586
1776038166260590300,-1522121.644409668,2.296858310699463,-3.1914901733398438,-8.983830451965332
1776038166321045500,-1522121.58395459,1.9363374710083008,-3.0814480781555176,-9.106352806091309
1776038166341156600,-1522121.563843506,1.7812919616699219,-3.028047800064087,-9.155780792236328
1776038166351257900,-1522121.5537421876,1.7390987873077393,-3.017448663711548,-9.16738224029541
1776038166361328600,-1522121.5436713868,1.617901086807251,-2.956480026245117,-9.209342956542969
1776038166371399400,-1522121.533600586,1.5752649307250977,-2.9415955543518066,-9.221492767333984
1776038166381439700,-1522121.5235603028,1.4940303564071655,-2.9003851413726807,-9.248026847839355
1776038166391541200,-1522121.5134587402,1.3750567436218262,-2.818587303161621,-9.291671752929688
1776038166401612000,-1522121.5033879394,1.2963334321975708,-2.7672364711761475,-9.318387031555176
1776038166411682800,-1522121.4933171386,1.257007360458374,-2.7484359741210938,-9.329330444335938
1776038166421753600,-1522121.4832463379,1.1451871395111084,-2.6573734283447266,-9.370020866394043
1776038166431824400,-1522121.473175537,1.1088783740997314,-2.645368814468384,-9.37778377532959
1776038166441895200,-1522121.4631047363,1.0408482551574707,-2.612806797027588,-9.394693374633789
1776038166451966000,-1522121.4530339355,0.961570680141449,-2.626176118850708,-9.399412155151367
1776038166462006300,-1522121.4429936523,0.9474679231643677,-2.6439380645751953,-9.395866394042969
1776038166472107500,-1522121.4328925782,0.8919868469238281,-2.611293077468872,-9.410414695739746
1776038166502289400,-1522121.4027106934,0.7609370350837708,-2.5503199100494385,-9.438602447509766
1776038166512360200,-1522121.3926398926,0.7288157939910889,-2.5506021976470947,-9.441062927246094
1776038166522431000,-1522121.3825690919,0.6954594850540161,-2.559199094772339,-9.441251754760742
1776038166532532500,-1522121.3724675293,0.6311153173446655,-2.5742712020874023,-9.441675186157227
1776038166542603300,-1522121.3623967285,0.591485321521759,-2.5931334495544434,-9.439078330993652
1776038166552674000,-1522121.3523259277,0.5771458148956299,-2.6072278022766113,-9.43608283996582
1776038166562683600,-1522121.3423164063,0.5168406963348389,-2.63533616065979,-9.431768417358398
1776038166572754400,-1522121.3322456055,0.5042933225631714,-2.6502315998077393,-9.42827320098877
1776038166592926700,-1522121.3120732422,0.45420506596565247,-2.7171242237091064,-9.411765098571777
1776038166613037800,-1522121.2919621582,0.43130525946617126,-2.8067283630371094,-9.386513710021973
1776038166623108600,-1522121.2818913574,0.4299895167350769,-2.8597867488861084,-9.370546340942383
1776038166633179400,-1522121.2718205566,0.43337446451187134,-2.9188554286956787,-9.352158546447754
1776038166643250200,-1522121.2617497558,0.4413350820541382,-2.983678102493286,-9.331307411193848
1776038166653321000,-1522121.251678955,0.4550321698188782,-3.053596258163452,-9.308002471923828
1776038166663330800,-1522121.2416691894,0.4751192629337311,-3.1268303394317627,-9.282649993896484
1776038166673432000,-1522121.231567871,0.5134013891220093,-3.2445993423461914,-9.240097999572754
1776038166693573600,-1522121.2114262695,0.5616893172264099,-3.3731069564819336,-9.191139221191406
1776038166713715200,-1522121.1912849122,0.6476444005966187,-3.5602428913116455,-9.114583015441895
1776038166723786000,-1522121.1812141114,0.7433826923370361,-3.711545705795288,-9.04666805267334
1776038166733856800,-1522121.1711433106,0.7812275290489197,-3.7647793292999268,-9.02144718170166
1776038166743927600,-1522121.1610725098,0.862043559551239,-3.873870849609375,-8.967741966247559
1776038166753998300,-1522121.151001709,0.9490291476249695,-3.9873898029327393,-8.90900993347168
1776038166764069000,-1522121.1409309083,1.040115237236023,-4.104250431060791,-8.845545768737793
1776038166774140000,-1522121.1308601075,1.1325392723083496,-4.2241363525390625,-8.777494430541992
1776038166784211000,-1522121.1207890625,1.2258493900299072,-4.3462371826171875,-8.705050468444824
1776038166814484200,-1522121.0905158692,1.5190175771713257,-4.711645126342773,-8.465421676635742
1776038166824524500,-1522121.0804753418,1.671979308128357,-4.889638423919678,-8.334646224975586
1776038166834595300,-1522121.0704047852,1.7203665971755981,-4.9454498291015625,-8.291759490966797
1776038166844666000,-1522121.0603339844,1.8218711614608765,-5.057361602783203,-8.2020902633667
1776038166854737000,-1522121.0502631837,1.9231127500534058,-5.166331768035889,-8.110551834106445
1776038166864777200,-1522121.0402229005,2.0721781253814697,-5.332161903381348,-7.965207576751709
1776038166874848000,-1522121.0301520997,2.1594746112823486,-5.4427289962768555,-7.8666253089904785
1776038166884857900,-1522121.0201420898,2.231422185897827,-5.553382873535156,-7.768597602844238
1776038166894928600,-1522121.010071289,2.2774534225463867,-5.662084579467773,-7.676220893859863
1776038166904999400,-1522121.0000004882,2.2529613971710205,-5.692989826202393,-7.660575866699219
1776038166925141000,-1522120.9798588867,2.272763729095459,-5.94158935546875,-7.463407039642334
1776038166935242200,-1522120.9697578126,2.281540870666504,-6.08858060836792,-7.341263771057129
1776038166945313000,-1522120.9596870118,2.2787020206451416,-6.320941925048828,-7.14307975769043
1776038166965454800,-1522120.939545166,2.2366204261779785,-6.629443168640137,-6.871565818786621
1776038166975556000,-1522120.9294438476,2.219207525253296,-6.704616546630859,-6.803944110870361
1776038166985596400,-1522120.9194035644,2.1773855686187744,-6.927928924560547,-6.590386390686035
1776038167005707500,-1522120.8992924804,2.125748872756958,-7.136733055114746,-6.381115913391113
1776038167015778300,-1522120.8892216797,2.092355251312256,-7.269855976104736,-6.240322113037109
1776038167025849000,-1522120.8791508789,2.0611674785614014,-7.395484447479248,-6.101540565490723
1776038167035920000,-1522120.869080078,2.035235643386841,-7.514545917510986,-5.963205337524414
1776038167045960200,-1522120.859039795,2.017571449279785,-7.624167442321777,-5.82853889465332
1776038167056031000,-1522120.848968994,2.0081448554992676,-7.771040916442871,-5.63459587097168
1776038167066071300,-1522120.838928711,2.006272554397583,-7.815071105957031,-5.574039936065674
1776038167076111400,-1522120.828888672,2.0009915828704834,-7.938443183898926,-5.398846626281738
1776038167086151700,-1522120.8188483887,1.992067575454712,-8.013279914855957,-5.290500640869141
1776038167096222500,-1522120.808777588,1.9795377254486084,-8.082159042358398,-5.1894636154174805
1776038167116364000,-1522120.7886359864,1.9564146995544434,-8.17188835144043,-5.055994033813477
1776038167126435000,-1522120.7785649414,1.9235037565231323,-8.243181228637695,-4.951818943023682
1776038167136475100,-1522120.7685249024,1.9098176956176758,-8.262801170349121,-4.9243364334106445
1776038167146546000,-1522120.7584541016,1.8766707181930542,-8.294037818908691,-4.8844075202941895
1776038167156647400,-1522120.748352539,1.8383762836456299,-8.313726425170898,-4.865461349487305
1776038167166718200,-1522120.7382817382,1.7802245616912842,-8.31972885131836,-4.8768110275268555
1776038167176819500,-1522120.7281806641,1.743598461151123,-8.30298900604248,-4.918396472930908
1776038167186890200,-1522120.7181098633,1.7278952598571777,-8.276541709899902,-4.96826171875
1776038167217072000,-1522120.6879279786,1.7014445066452026,-7.932509422302246,-5.509153842926025
1776038167227112400,-1522120.6778874511,1.6914087533950806,-7.839122772216797,-5.644260406494141
1776038167237213700,-1522120.667786377,1.6809213161468506,-7.691835880279541,-5.846416473388672
1776038167247254000,-1522120.6577460938,1.6846972703933716,-7.629759311676025,-5.926126956939697
1776038167257324800,-1522120.647675293,1.6946920156478882,-7.506434440612793,-6.078802585601807
1776038167267395600,-1522120.6376044923,1.710667610168457,-7.371509075164795,-6.237374782562256
1776038167277466400,-1522120.6275336915,1.7283810377120972,-7.227325916290283,-6.399127960205078
1776038167287537200,-1522120.6174628907,1.743324875831604,-7.071400165557861,-6.56707763671875
1776038167327789800,-1522120.5772102051,1.7729543447494507,-6.307851314544678,-7.296440601348877
1776038167337860600,-1522120.5671394044,1.8038643598556519,-5.965574264526367,-7.57155179977417
1776038167347931600,-1522120.5570683593,1.8182716369628906,-5.844779968261719,-7.661778450012207
1776038167358002400,-1522120.5469975586,1.8706127405166626,-5.4853363037109375,-7.910895824432373
1776038167368073200,-1522120.5369267578,1.8912813663482666,-5.363057613372803,-7.989434719085693
1776038167378174500,-1522120.5268254394,1.9285645484924316,-5.12881326675415,-8.133038520812988
1776038167388245200,-1522120.5167546386,1.9754958152770996,-4.804043292999268,-8.31799030303955
1776038167398346500,-1522120.5066535645,1.9919465780258179,-4.695396423339844,-8.37590503692627
1776038167438630000,-1522120.4663701172,2.1091198921203613,-3.94637393951416,-8.72629165649414
1776038167448700700,-1522120.4562993164,2.1199042797088623,-3.7186996936798096,-8.823132514953613
1776038167458802000,-1522120.446197998,2.1190438270568848,-3.643742322921753,-8.854557037353516
1776038167468903200,-1522120.436096924,2.1020472049713135,-3.450920820236206,-8.935486793518066
1776038167479004400,-1522120.4259956055,2.092421293258667,-3.389911413192749,-8.961063385009766
1776038167489075500,-1522120.4159245605,2.063055992126465,-3.281377077102661,-9.008150100708008
1776038167499115500,-1522120.4058845215,1.9957255125045776,-3.16383695602417,-9.065186500549316
1776038167539368200,-1522120.365631836,1.7930852174758911,-2.9715323448181152,-9.171979904174805
1776038167549469700,-1522120.3555302734,1.7251439094543457,-2.929255247116089,-9.198572158813477
1776038167559510000,-1522120.3454899902,1.653050184249878,-2.8920304775238037,-9.223556518554688
1776038167569550000,-1522120.3354499512,1.5500596761703491,-2.828249454498291,-9.261139869689941
1776038167579620900,-1522120.3253791505,1.4826655387878418,-2.7970693111419678,-9.281622886657715
1776038167589661200,-1522120.3153388673,1.420372486114502,-2.769012451171875,-9.299758911132812
1776038167599701500,-1522120.305298584,1.3879554271697998,-2.779759407043457,-9.301446914672852
1776038167650055700,-1522120.254944336,1.1659224033355713,-2.6164064407348633,-9.378988265991211
1776038167660126500,-1522120.2448735351,1.1301614046096802,-2.604037284851074,-9.38680648803711
1776038167670136000,-1522120.2348640137,1.077984094619751,-2.5753328800201416,-9.400850296020508
1776038167680237600,-1522120.2247624511,1.0434002876281738,-2.588059186935425,-9.401257514953613
1776038167690308400,-1522120.2146916504,1.0083504915237427,-2.5992956161499023,-9.401984214782715
1776038167700348400,-1522120.2046516114,0.991966962814331,-2.618316411972046,-9.398448944091797
1776038167710388700,-1522120.1946113282,0.9551602005958557,-2.6191651821136475,-9.402022361755371
1776038167740570600,-1522120.1644294434,0.8644716739654541,-2.757286548614502,-9.371256828308105
1776038167760743000,-1522120.14425708,0.7471709847450256,-2.8093268871307373,-9.365884780883789
1776038167790955300,-1522120.1140446777,0.6308277249336243,-2.878103494644165,-9.353554725646973
1776038167801026000,-1522120.103973877,0.6247972249984741,-2.8945019245147705,-9.348897933959961
1776038167811127300,-1522120.0938728028,0.599215030670166,-2.9404070377349854,-9.336237907409668
1776038167821198000,-1522120.083802002,0.590049147605896,-2.975623846054077,-9.325657844543457
1776038167851380000,-1522120.0536201173,0.5623141527175903,-3.0964837074279785,-9.287948608398438
1776038167861450800,-1522120.0435493165,0.5532061457633972,-3.1409873962402344,-9.273539543151855
1776038167871521500,-1522120.0334785157,0.552436351776123,-3.164593458175659,-9.265557289123535
1776038167881592300,-1522120.023407715,0.5339584350585938,-3.2373228073120117,-9.241483688354492
1776038167891602200,-1522120.013397705,0.5273743867874146,-3.288527250289917,-9.22376537322998
1776038167901673000,-1522120.0033271485,0.5249708294868469,-3.342479944229126,-9.204489707946777
1776038167911743700,-1522119.9932563477,0.530009388923645,-3.3706133365631104,-9.193936347961426
1776038167921814500,-1522119.983185547,0.5252934694290161,-3.4552509784698486,-9.162734985351562
1776038167962067200,-1522119.9429328614,0.546056866645813,-3.7047884464263916,-9.063485145568848
1776038167972138000,-1522119.9328620606,0.5621259212493896,-3.73526668548584,-9.049983978271484
1776038167982208800,-1522119.9227912598,0.6098872423171997,-3.7924346923828125,-9.02307415008545
1776038167992279600,-1522119.912720459,0.6731324791908264,-3.8480963706970215,-8.994966506958008
1776038168002350600,-1522119.902649414,0.8000339269638062,-3.9376516342163086,-8.945683479309082
1776038168022461400,-1522119.8825385743,0.9836591482162476,-4.064263820648193,-8.870433807373047
1776038168052643300,-1522119.8523566895,1.2281845808029175,-4.250906944274902,-8.751670837402344
1776038168072785200,-1522119.8322148437,1.428578495979309,-4.423534393310547,-8.634922981262207
1776038168082886400,-1522119.8221135254,1.5855735540390015,-4.563709259033203,-8.533982276916504
1776038168092957200,-1522119.8120427246,1.6378432512283325,-4.6088385581970215,-8.499792098999023
1776038168103028000,-1522119.8019719238,1.7456740140914917,-4.702880382537842,-8.426502227783203
1776038168113098800,-1522119.7919013673,1.8557664155960083,-4.797274112701416,-8.34941291809082
1776038168123169500,-1522119.7818305665,1.9678683280944824,-4.890769004821777,-8.26911449432373
1776038168133240300,-1522119.7717597657,2.079244375228882,-4.9840874671936035,-8.185720443725586
1776038168173432000,-1522119.731567871,2.482435941696167,-5.409432888031006,-7.793968677520752
1776038168183502800,-1522119.7214970703,2.4657020568847656,-5.425424575805664,-7.7881622314453125
1776038168193573600,-1522119.7114262695,2.5653624534606934,-5.5898871421813965,-7.63822603225708
1776038168203675000,-1522119.7013251954,2.5814602375030518,-5.639800548553467,-7.595993518829346
1776038168213684700,-1522119.6913151855,2.6637814044952393,-5.819828987121582,-7.429956436157227
1776038168223786000,-1522119.6812141114,2.704911947250366,-5.9390177726745605,-7.319966793060303
1776038168233795800,-1522119.6712041015,2.7415122985839844,-6.055118083953857,-7.210413932800293
1776038168243866600,-1522119.6611333007,2.7771220207214355,-6.168590545654297,-7.099750518798828
1776038168274048500,-1522119.630951416,2.8786067962646484,-6.474427700042725,-6.779808521270752
1776038168294068000,-1522119.610932129,2.9180209636688232,-6.6055192947387695,-6.634955883026123
1776038168304169200,-1522119.6008308106,2.9438154697418213,-6.685063362121582,-6.5432610511779785
1776038168314240000,-1522119.5907600098,2.96755051612854,-6.758627414703369,-6.456390857696533
1776038168324311000,-1522119.5806889648,3.0080509185791016,-6.858686447143555,-6.330913066864014
1776038168334381800,-1522119.570618164,3.0300533771514893,-6.918302536010742,-6.255100250244141
1776038168344422000,-1522119.560578125,3.0372231006622314,-6.944397449493408,-6.222621440887451
1776038168374542800,-1522119.5304570312,3.038508415222168,-7.1448655128479,-5.990721702575684
1776038168394715000,-1522119.5102851563,2.986309051513672,-7.256824016571045,-5.881399631500244
1776038168404755200,-1522119.500244873,2.968078851699829,-7.279074668884277,-5.863104343414307
1776038168414826000,-1522119.4901740723,2.931314706802368,-7.331223487854004,-5.816437244415283
1776038168424866300,-1522119.4801337891,2.887350082397461,-7.382462978363037,-5.773458480834961
1776038168434937000,-1522119.4700629883,2.8358547687530518,-7.43018102645874,-5.737659931182861
1776038168445008000,-1522119.4599921876,2.7822189331054688,-7.475149154663086,-5.705417633056641
1776038168455078700,-1522119.4499213868,2.72973370552063,-7.514217376708984,-5.679393768310547
1776038168465119000,-1522119.4398811036,2.6806700229644775,-7.548750877380371,-5.656920909881592
1776038168495270400,-1522119.4097294922,2.5323638916015625,-7.6181793212890625,-5.6321282386779785
1776038168505341200,-1522119.3996589356,2.477400302886963,-7.6238579750061035,-5.648865699768066
1776038168515412000,-1522119.3895881348,2.4257214069366455,-7.608786582946777,-5.691454887390137
1776038168525482800,-1522119.379517334,2.3917157649993896,-7.549870014190674,-5.783559322357178
1776038168535553500,-1522119.3694465333,2.380521535873413,-7.451834678649902,-5.913853168487549
1776038168545593900,-1522119.35940625,2.3555684089660645,-7.3845133781433105,-6.007547855377197
1776038168555634200,-1522119.3493657226,2.330746650695801,-7.312364101409912,-6.1046977043151855
1776038168565705000,-1522119.3392949218,2.309271812438965,-7.230769634246826,-6.209157466888428
1776038168575775700,-1522119.3292243653,2.2823235988616943,-7.088777542114258,-6.380488395690918
1776038168595886800,-1522119.309113037,2.2579898834228516,-6.908046245574951,-6.58413028717041
1776038168605988000,-1522119.299011963,2.2347588539123535,-6.690720081329346,-6.812526702880859
1776038168616059000,-1522119.2889411622,2.2281811237335205,-6.607685089111328,-6.895223140716553
1776038168626129700,-1522119.2788703614,2.215474843978882,-6.4293317794799805,-7.065816402435303
1776038168636200400,-1522119.2687995606,2.2055251598358154,-6.231553554534912,-7.2438812255859375
1776038168646302000,-1522119.258697998,2.2020394802093506,-6.016403675079346,-7.424574375152588
1776038168656372700,-1522119.2486271972,2.2050883769989014,-5.78886604309082,-7.6024346351623535
1776038168676514300,-1522119.2284855957,2.2188637256622314,-5.2033467292785645,-8.010756492614746
1776038168696533800,-1522119.2084663087,2.232593059539795,-4.855080604553223,-8.222780227661133
1776038168716675300,-1522119.188324707,2.2385592460632324,-4.328815937042236,-8.510030746459961
1776038168726776800,-1522119.1782231445,2.2356975078582764,-4.226620674133301,-8.561994552612305
1776038168736847600,-1522119.1681523437,2.2355570793151855,-3.943002462387085,-8.696288108825684
1776038168746918400,-1522119.158081543,2.231757164001465,-3.8492136001586914,-8.739176750183105
1776038168756989200,-1522119.1480107422,2.2251603603363037,-3.6704208850860596,-8.81743049621582
1776038168767060000,-1522119.1379399414,2.2145838737487793,-3.498821258544922,-8.889559745788574
1776038168787171000,-1522119.1178288574,2.17112135887146,-3.1173787117004395,-9.040939331054688
1776038168807251700,-1522119.097748291,2.1095027923583984,-2.870708703994751,-9.13670825958252
1776038168817261300,-1522119.0877387696,2.089506149291992,-2.8274309635162354,-9.154778480529785
1776038168827362600,-1522119.0776374512,2.048604965209961,-2.7441647052764893,-9.18929672241211
1776038168837433600,-1522119.0675664062,1.9976304769515991,-2.7025578022003174,-9.212820053100586
1776038168847534800,-1522119.0574650879,1.915948748588562,-2.6261391639709473,-9.25218391418457
1776038168857605600,-1522119.047394287,1.8807576894760132,-2.6310231685638428,-9.258015632629395
1776038168867676400,-1522119.0373234863,1.7851999998092651,-2.568638801574707,-9.294382095336914
1776038168897797400,-1522119.0072026367,1.597729206085205,-2.545914888381958,-9.334665298461914
1776038168907898600,-1522118.9971013183,1.493653416633606,-2.4991941452026367,-9.364477157592773
1776038168917877800,-1522118.9871223145,1.4571785926818848,-2.4962642192840576,-9.371002197265625
1776038168927979300,-1522118.977020752,1.3898674249649048,-2.464097261428833,-9.389723777770996
1776038168938019300,-1522118.966980713,1.326002597808838,-2.4279634952545166,-9.40835189819336
1776038168948120800,-1522118.9568791504,1.2350831031799316,-2.363797187805176,-9.43702507019043
1776038168958130400,-1522118.946869629,1.177087426185608,-2.329063653945923,-9.453060150146484
1776038168968232000,-1522118.9367680664,1.1490256786346436,-2.320904016494751,-9.458518028259277
1776038169008515000,-1522118.8964848632,0.9346849918365479,-2.2251195907592773,-9.505030632019043
1776038169018585900,-1522118.8864140625,0.8858838677406311,-2.2243170738220215,-9.509889602661133
1776038169028656600,-1522118.8763432617,0.8105962872505188,-2.2184998989105225,-9.517960548400879
1776038169038727400,-1522118.866272461,0.7813222408294678,-2.271496057510376,-9.507903099060059
1776038169048798200,-1522118.8562019044,0.7829419374465942,-2.326509714126587,-9.49445915222168
1776038169058869000,-1522118.8461311036,0.7474801540374756,-2.359548330307007,-9.489161491394043
1776038169068909300,-1522118.8360905761,0.6777133941650391,-2.377891778945923,-9.489824295043945
1776038169078949600,-1522118.826050293,0.6676859259605408,-2.398189067840576,-9.48542594909668
1776038169109070300,-1522118.7959296876,0.5280073881149292,-2.4834930896759033,-9.472268104553223
1776038169129151000,-1522118.7758491212,0.49050799012184143,-2.5369808673858643,-9.460101127624512
1776038169139160800,-1522118.7658391113,0.4696195125579834,-2.574448347091675,-9.451035499572754
1776038169149231600,-1522118.7557683105,0.4557371139526367,-2.6148741245269775,-9.440608978271484
1776038169159302400,-1522118.7456975097,0.4457394480705261,-2.657752752304077,-9.429107666015625
1776038169169373200,-1522118.735626709,0.43955811858177185,-2.7030022144317627,-9.416525840759277
1776038169179413500,-1522118.7255864257,0.43747490644454956,-2.750256299972534,-9.402931213378906
1776038169199494100,-1522118.7055058593,0.4497264623641968,-2.8504714965820312,-9.372456550598145
1776038169219574500,-1522118.6854255372,0.48398590087890625,-2.9587209224700928,-9.337136268615723
1776038169229645300,-1522118.6753547364,0.508574366569519,-3.017043352127075,-9.317144393920898
1776038169239685600,-1522118.6653144532,0.5505015850067139,-3.111795663833618,-9.283537864685059
1776038169249726000,-1522118.65527417,0.5842998027801514,-3.179147720336914,-9.258618354797363
1776038169259735800,-1522118.6452641601,0.6038491129875183,-3.2139317989349365,-9.245346069335938
1776038169269837000,-1522118.6351628418,0.6761515736579895,-3.3207151889801025,-9.202503204345703
1776038169279907800,-1522118.625092041,0.7062947750091553,-3.357227325439453,-9.186978340148926
1776038169290009000,-1522118.6149909669,0.8117892742156982,-3.466928243637085,-9.137385368347168
1776038169310120200,-1522118.5948798829,0.9949591755867004,-3.623385429382324,-9.058228492736816
1776038169330261800,-1522118.5747382813,1.1554244756698608,-3.748656988143921,-8.987935066223145
1776038169340241200,-1522118.564758789,1.2655630111694336,-3.84004282951355,-8.934361457824707
1776038169350342400,-1522118.554657715,1.3699264526367188,-3.939018487930298,-8.875687599182129
1776038169360413200,-1522118.5445869141,1.4656553268432617,-4.046031475067139,-8.812028884887695
1776038169370453500,-1522118.5345463867,1.553151249885559,-4.1587677001953125,-8.744298934936523
1776038169380432600,-1522118.5245673829,1.633608341217041,-4.274246692657471,-8.67366886138916
1776038169390534100,-1522118.5144658203,1.7534832954406738,-4.451642990112305,-8.560290336608887
1776038169410645200,-1522118.4943547363,1.8734990358352661,-4.625316619873047,-8.44196891784668
1776038169430756400,-1522118.4742436523,2.04263973236084,-4.846193313598633,-8.277222633361816
1776038169440827100,-1522118.4641728515,2.1303601264953613,-4.950977802276611,-8.192667007446289
1776038169450898000,-1522118.4541020507,2.2188966274261475,-5.053030967712402,-8.106404304504395
1776038169460938200,-1522118.4440617675,2.3035874366760254,-5.156254291534424,-8.017288208007812
1776038169471039500,-1522118.4339604492,2.381345748901367,-5.262612342834473,-7.924929141998291
1776038169481018600,-1522118.4239814454,2.4940719604492188,-5.426166534423828,-7.778605937957764
1776038169491120000,-1522118.4138798828,2.5098767280578613,-5.471863746643066,-7.741421699523926
1776038169501191000,-1522118.403809082,2.5618298053741455,-5.571867942810059,-7.652563095092773
1776038169511261700,-1522118.3937382812,2.5911638736724854,-5.663968563079834,-7.574676513671875
1776038169521302000,-1522118.383697998,2.5549206733703613,-5.733943462371826,-7.5342326164245605
1776038169531372800,-1522118.3736271972,2.564298152923584,-5.837663650512695,-7.4509358406066895
1776038169541412900,-1522118.3635871583,2.585073709487915,-5.955556392669678,-7.349771499633789
1776038169551514400,-1522118.3534855957,2.601468563079834,-6.078176021575928,-7.242825984954834
1776038169561493500,-1522118.3435065919,2.6180713176727295,-6.202836036682129,-7.1302809715271
1776038169571594800,-1522118.3334052735,2.635748863220215,-6.327389717102051,-7.013371467590332
1776038169581665800,-1522118.3233342285,2.6578011512756348,-6.452181339263916,-6.890272617340088
1776038169591736600,-1522118.3132634277,2.685528039932251,-6.576519966125488,-6.760748863220215
1776038169621918500,-1522118.283081543,2.807508945465088,-6.975510597229004,-6.295277118682861
1776038169631989200,-1522118.2730107422,2.821260452270508,-7.024797439575195,-6.2340288162231445
1776038169642029300,-1522118.2629707032,2.8514561653137207,-7.122772216796875,-6.107839584350586
1776038169652130800,-1522118.2528691406,2.8785388469696045,-7.216183185577393,-5.98423957824707
1776038169662140400,-1522118.2428596192,2.9026458263397217,-7.303104400634766,-5.86598014831543
1776038169672211200,-1522118.2327888184,2.9261505603790283,-7.3839874267578125,-5.751936435699463
1776038169682282200,-1522118.2227177734,2.9498980045318604,-7.457553863525391,-5.643880367279053
1776038169692353000,-1522118.2126469726,2.970917224884033,-7.523263454437256,-5.544777870178223
1776038169722565400,-1522118.1824345703,2.990644931793213,-7.681262016296387,-5.312686920166016
1776038169732666600,-1522118.1723334962,2.9865381717681885,-7.719187259674072,-5.259764671325684
1776038169742707000,-1522118.1622929687,2.9820332527160645,-7.747599124908447,-5.220400333404541
1776038169752808200,-1522118.1521918946,2.9785237312316895,-7.76591682434082,-5.195125579833984
1776038169762879000,-1522118.1421210938,2.975224018096924,-7.774434566497803,-5.184263229370117
1776038169772949800,-1522118.132050293,2.97074556350708,-7.7735490798950195,-5.1881608963012695
1776038169783020500,-1522118.1219794923,2.9641129970550537,-7.762030124664307,-5.209156513214111
1776038169793091300,-1522118.1119086915,2.9548120498657227,-7.738701343536377,-5.248998641967773
1776038169803162400,-1522118.1018376464,2.94338059425354,-7.702300071716309,-5.308623313903809
1776038169833405200,-1522118.0715947265,2.9035136699676514,-7.36040735244751,-5.793479919433594
1776038169853546800,-1522118.0514533692,2.8812801837921143,-7.193723201751709,-6.009904384613037
1776038169863556600,-1522118.0414433593,2.8600499629974365,-7.100636959075928,-6.129556179046631
1776038169873627400,-1522118.0313725586,2.825610399246216,-6.9504008293151855,-6.314920902252197
1776038169883698200,-1522118.0213017578,2.8149077892303467,-6.89021110534668,-6.385270595550537
1776038169893769000,-1522118.011230957,2.790858745574951,-6.77331018447876,-6.519491195678711
1776038169903839700,-1522118.0011601562,2.764174222946167,-6.64773416519165,-6.658629894256592
1776038169913941000,-1522117.991059082,2.7347207069396973,-6.511907577514648,-6.803437232971191
1776038169924011800,-1522117.9809882813,2.7043402194976807,-6.365166187286377,-6.952812194824219
1776038169954224400,-1522117.9507756347,2.6180806159973145,-5.857379913330078,-7.416679382324219
1776038169964234000,-1522117.9407661133,2.601414680480957,-5.66611909866333,-7.569553852081299
1776038169974304800,-1522117.9306953126,2.5931601524353027,-5.469192981719971,-7.715816974639893
1776038169984345000,-1522117.9206550294,2.590996742248535,-5.273952484130859,-7.851278305053711
