time,seconds_elapsed,z,y,x
1777561094415163600,0.12516357421875,0,0,0
1777561094433692400,0.1436923828125,-0.0777437686920166,-0.007770538330078125,0.10622942447662354
1777561094452221000,0.162220947265625,0.1412825584411621,-0.1437053680419922,0.18592381477355957
1777561094480013800,0.190013916015625,-0.5923738479614258,0.1332864761352539,0.8536300659179688
1777561094498542600,0.20854248046875,-0.3076508045196533,0.5554933547973633,0.49288129806518555
1777561094517071400,0.2270712890625,0.2807424068450928,0.5738334655761719,-0.03561604022979736
1777561094535599900,0.245599853515625,0.04978227615356445,0.45709228515625,0.1734633445739746
1777561094554128600,0.264128662109375,-0.3939545154571533,0.25112152099609375,0.11440503597259521
1777561094572657200,0.2826572265625,-0.32437634468078613,0.31737804412841797,0.09519398212432861
1777561094591186000,0.30118603515625,-0.14792442321777344,0.5148687362670898,0.06385672092437744
1777561094609714700,0.319714599609375,0.4235374927520752,0.6354408264160156,-0.21903598308563232
1777561094628243200,0.3382431640625,-0.14074444770812988,0.5160608291625977,-0.17142796516418457
1777561094646772000,0.35677197265625,-0.3608567714691162,0.5109167098999023,0.1794734001159668
1777561094665300500,0.375300537109375,-0.0997006893157959,0.4416933059692383,0.024511218070983887
1777561094683829200,0.393829345703125,0.26596736907958984,0.4912376403808594,-0.3990626335144043
1777561094702358000,0.41235791015625,0.6537027359008789,0.46994972229003906,-0.6764563322067261
1777561094720886500,0.430886474609375,0.41478872299194336,0.41721153259277344,-0.4885598421096802
1777561094739415300,0.449415283203125,1.0225577354431152,0.45647144317626953,-0.13677453994750977
1777561094757943800,0.46794384765625,0.7961804866790771,0.4294567108154297,0.2143622636795044
1777561094776472600,0.48647265625,0.7472188472747803,0.4845876693725586,0.2440861463546753
1777561094795001000,0.5050009765625,0.6293027400970459,0.37491703033447266,0.3243422508239746
1777561094813529900,0.52352978515625,0.6903386116027832,0.41445064544677734,0.2557870149612427
1777561094832058600,0.54205859375,0.3738129138946533,0.2689552307128906,0.046219706535339355
1777561094850587100,0.560587158203125,0.5400426387786865,0.38988494873046875,0.08797872066497803
1777561094869116000,0.579115966796875,0.6285748481750488,0.546391487121582,-0.01991903781890869
1777561094887644400,0.59764453125,0.6998310089111328,0.8873500823974609,0.21628177165985107
1777561094906173200,0.616173095703125,0.5843596458435059,0.8412771224975586,0.1449052095413208
1777561094924701700,0.63470166015625,0.20804834365844727,0.7139143943786621,0.13841629028320312
1777561094943230500,0.65323046875,0.11183595657348633,0.6803398132324219,0.0669170618057251
1777561094961759000,0.671759033203125,0.40138769149780273,0.6160984039306641,-0.44877421855926514
1777561094980287700,0.690287841796875,0.7831625938415527,1.1079950332641602,-0.09762728214263916
1777561094998816500,0.70881640625,0.21637248992919922,1.290679931640625,0.8588615655899048
1777561095017345000,0.727344970703125,0.21294069290161133,-0.09679031372070312,1.7185089588165283
1777561095035873800,0.745873779296875,1.977747917175293,-1.805872917175293,1.660435676574707
1777561095054402600,0.764402587890625,5.768643856048584,-3.8936452865600586,0.6300481557846069
1777561095072931000,0.78293115234375,3.785183906555176,-6.783127784729004,-1.45259428024292
1777561095091459800,0.8014599609375,-0.06589126586914062,-6.477555274963379,0.3140110969543457
1777561095109988400,0.81998828125,-6.004158020019531,-0.612788200378418,3.690119743347168
1777561095128517000,0.83851708984375,-8.487743377685547,3.684544563293457,6.199563026428223
1777561095147045600,0.857045654296875,0.05628514289855957,4.735490798950195,7.714707374572754
1777561095165574400,0.875574462890625,0.36875009536743164,3.877748489379883,2.841625690460205
1777561095184103200,0.894103271484375,-6.654888153076172,1.8086113929748535,-2.0100226402282715
1777561095202631700,0.912631591796875,-6.182403564453125,-2.1551685333251953,-3.7648847103118896
1777561095221160400,0.931160400390625,-2.8300681114196777,-5.082740783691406,-4.585529327392578
1777561095239689000,0.94968896484375,-3.456479072570801,-5.987995147705078,-7.95013952255249
1777561095258217700,0.9682177734375,-4.365461826324463,-2.4001665115356445,-8.664924621582031
1777561095276746200,0.986746337890625,-1.300569772720337,0.3043966293334961,-4.683547019958496
1777561095295275000,1.00527490234375,0.9971636533737183,1.088994026184082,-0.45204126834869385
1777561095313803500,1.023803466796875,-1.1549463272094727,0.9237785339355469,2.7819395065307617
1777561095332332300,1.042332275390625,-0.171439528465271,0.5920200347900391,6.302273273468018
1777561095350860800,1.06086083984375,1.5319985151290894,-0.13527774810791016,5.696925163269043
1777561095369389600,1.0793896484375,0.3777603805065155,-0.3274822235107422,1.861302375793457
1777561095387918000,1.09791796875,-1.2048072814941406,-0.6665372848510742,-2.352499485015869
1777561095406446800,1.11644677734375,-1.0738885402679443,-0.37993526458740234,-4.092624664306641
1777561095424975600,1.1349755859375,-0.06188243627548218,-0.11671733856201172,-2.117854118347168
1777561095443504000,1.153504150390625,-0.4847572445869446,0.31929969787597656,0.6915485858917236
1777561095462033000,1.172032958984375,1.0720090866088867,0.09114933013916016,1.001166820526123
1777561095480561400,1.1905615234375,0.24060910940170288,-0.8446979522705078,-0.8708454370498657
1777561095499090200,1.209090087890625,0.2552173137664795,-0.449249267578125,-2.767641067504883
1777561095517618700,1.22761865234375,0.8740949630737305,1.0505361557006836,-2.8390746116638184
1777561095536147500,1.2461474609375,1.8597009181976318,1.505030632019043,-2.577687978744507
1777561095554676000,1.264676025390625,1.682281732559204,1.494821548461914,-1.7318400144577026
1777561095573204700,1.283204833984375,1.6804043054580688,0.8768501281738281,-1.4294978380203247
1777561095591733200,1.301733154296875,1.2479360103607178,0.36861228942871094,-1.1601688861846924
1777561095610262000,1.320261962890625,0.26441192626953125,0.7846622467041016,-1.1189956665039062
1777561095628790800,1.338790771484375,-0.5016870498657227,0.9802427291870117,-1.1489641666412354
1777561095647319300,1.3573193359375,0.07948684692382812,0.9543037414550781,-0.3041098117828369
1777561095665848000,1.37584814453125,0.23095488548278809,-0.23964500427246094,0.0033930540084838867
1777561095684376800,1.394376953125,0.1514345407485962,-0.5543222427368164,1.0038673877716064
1777561095702905300,1.4129052734375,-0.031465768814086914,-2.0454635620117188,-0.2724801301956177
1777561095721434000,1.43143408203125,-0.30004072189331055,-3.0848388671875,-1.0649139881134033
1777561095739962600,1.449962646484375,0.6357126235961914,-4.480023384094238,-2.147902488708496
1777561095758491400,1.468491455078125,0.38865935802459717,-6.690967559814453,-3.049675703048706
1777561095777020000,1.48702001953125,-0.2406320571899414,-7.4699811935424805,-3.8932886123657227
1777561095795548700,1.505548583984375,0.23951280117034912,-7.563730239868164,-3.7615346908569336
1777561095814077200,1.5240771484375,1.7643516063690186,-5.801258087158203,-1.8740299940109253
1777561095832606000,1.54260595703125,3.2083067893981934,-3.160719871520996,-1.254831075668335
1777561095851134500,1.561134521484375,2.6185715198516846,-0.2652549743652344,-1.3952410221099854
1777561095869663200,1.579663330078125,2.3629651069641113,-0.029872894287109375,-2.649977684020996
1777561095888191700,1.598191650390625,2.496074676513672,-1.5696945190429688,-3.50459623336792
1777561095906720500,1.616720458984375,2.5388495922088623,-4.4077558517456055,-3.358015537261963
1777561095925249300,1.635249267578125,1.4568686485290527,-6.736457824707031,-2.312448501586914
1777561095943777800,1.65377783203125,-0.33919811248779297,-6.917079925537109,-0.1335585117340088
1777561095962306600,1.672306640625,-2.7927253246307373,-5.51607608795166,2.1294121742248535
1777561095980835000,1.6908349609375,-5.897041320800781,-4.3921966552734375,3.6090028285980225
1777561095999363800,1.70936376953125,-7.656383991241455,-2.8611698150634766,4.7898101806640625
1777561096017892400,1.727892333984375,-5.954950332641602,-1.7135210037231445,4.61777400970459
1777561096036421000,1.746421142578125,-5.622042179107666,-2.078380584716797,3.138984441757202
1777561096054949600,1.76494970703125,-0.9451360702514648,-3.354799270629883,0.6195114850997925
1777561096073478400,1.783478515625,-1.2103362083435059,-4.063600540161133,-0.9564789533615112
1777561096092007000,1.8020068359375,-7.898500442504883,-3.1274023056030273,-0.945025622844696
1777561096110535700,1.82053564453125,-8.24809741973877,-2.708108901977539,-1.234289288520813
1777561096129064400,1.839064453125,-9.564468383789062,-0.18713712692260742,-0.01253819465637207
1777561096147593000,1.857593017578125,-10.028396606445312,3.0795226097106934,0.873306930065155
1777561096166121700,1.876121826171875,-9.027864456176758,5.228203773498535,1.2158435583114624
1777561096184650200,1.894650146484375,-9.131114959716797,5.8246331214904785,1.5144894123077393
1777561096203179000,1.913178955078125,-7.853935718536377,6.145727634429932,2.210648775100708
1777561096221707800,1.931707763671875,-6.930657386779785,5.292746543884277,1.4976236820220947
1777561096240236300,1.950236328125,-5.988459587097168,4.298905372619629,1.0433896780014038
1777561096258765000,1.96876513671875,-5.084881782531738,3.859602451324463,0.8097375631332397
1777561096277293600,1.98729345703125,-4.493424415588379,4.035654067993164,1.0411728620529175
1777561096295822300,2.005822265625,-4.014360427856445,4.560528755187988,1.9416977167129517
1777561096314351000,2.02435107421875,-3.1994752883911133,4.662655830383301,1.442874789237976
1777561096332879600,2.042879638671875,-1.212907314300537,3.9038805961608887,-0.3779188394546509
1777561096351408400,2.061408447265625,0.793525218963623,3.1984081268310547,-1.432459831237793
1777561096369937000,2.07993701171875,4.587141513824463,2.790010929107666,2.748703718185425
1777561096388465700,2.098465576171875,3.794063091278076,-2.5084900856018066,8.577494621276855
1777561096406994400,2.116994384765625,15.872400283813477,-14.381759643554688,-3.958360195159912
1777561096425523000,2.13552294921875,-13.805229187011719,-16.43799591064453,-4.838835716247559
1777561096444051700,2.1540517578125,-1.345634937286377,-11.363506317138672,6.229389190673828
1777561096462580200,2.172580322265625,1.445070743560791,-0.9890098571777344,2.020416021347046
1777561096481109000,2.19110888671875,-2.99993634223938,4.801566123962402,0.4992233216762543
1777561096499637800,2.2096376953125,-2.9936087131500244,6.327871322631836,2.3026978969573975
1777561096518166300,2.228166259765625,-2.957554817199707,4.769082546234131,2.616326332092285
1777561096536695000,2.246695068359375,-4.751376152038574,1.5259952545166016,1.9898601770401
1777561096555223800,2.265223876953125,-3.1278345584869385,-2.0323734283447266,2.6952881813049316
1777561096573752300,2.28375244140625,-2.437673807144165,-5.772202491760254,1.3644039630889893
1777561096592281000,2.302281005859375,-0.5779139995574951,-8.620850563049316,-1.1716217994689941
1777561096610809600,2.3208095703125,-2.2241063117980957,-6.418390274047852,-4.611414909362793
1777561096629338400,2.33933837890625,-2.5040619373321533,-1.6588354110717773,-4.8292927742004395
1777561096647867100,2.3578671875,-0.5642439126968384,1.4046039581298828,-4.253278732299805
1777561096666395600,2.376395751953125,-0.01839137077331543,3.2613744735717773,-2.780000686645508
1777561096684924400,2.39492431640625,-2.4724349975585938,3.7796096801757812,-1.449784517288208
1777561096703453200,2.413453125,-2.768554210662842,2.571269989013672,-0.7948136329650879
1777561096721981700,2.431981689453125,-0.11653576791286469,0.517399787902832,-0.4809045195579529
1777561096740510500,2.450510498046875,3.7878785133361816,0.0063838958740234375,0.02014613151550293
1777561096759039000,2.4690390625,2.7774102687835693,0.8754758834838867,2.380113363265991
1777561096777567700,2.487567626953125,1.9080406427383423,1.736180305480957,2.973330020904541
1777561096805360600,2.515360595703125,1.8175301551818848,1.0562686920166016,0.08959022164344788
1777561096823889400,2.533889404296875,1.2290416955947876,0.8547811508178711,-1.765943169593811
1777561096842418200,2.552418212890625,1.2025501728057861,1.3075628280639648,-2.1914448738098145
1777561096860946700,2.57094677734375,1.0817631483078003,0.6112165451049805,-2.7459263801574707
1777561096879475500,2.589475341796875,0.7941016554832458,-0.4413108825683594,-3.2038018703460693
1777561096898004200,2.608004150390625,0.35216736793518066,-0.8020362854003906,-2.7181520462036133
1777561096916532700,2.62653271484375,-0.2568596601486206,-1.4644651412963867,-1.941676139831543
1777561096935061500,2.6450615234375,0.08753430843353271,-1.8963861465454102,-1.1013402938842773
1777561096953590000,2.663590087890625,0.3402090072631836,-2.251768112182617,-0.689836859703064
1777561096972118800,2.682118896484375,0.5826379060745239,-2.7190780639648438,0.5045944452285767
1777561096990647600,2.7006474609375,0.9879979491233826,-4.770700454711914,1.1282302141189575
1777561097009176000,2.719176025390625,0.9397149085998535,-8.421196937561035,-1.1514861583709717
1777561097027704800,2.737704833984375,1.435920238494873,-8.308743476867676,-3.124563455581665
1777561097046233600,2.756233642578125,4.881563186645508,-4.321850776672363,0.5854974985122681
1777561097064762000,2.77476220703125,3.6702728271484375,-3.8198843002319336,0.029105782508850098
1777561097083291000,2.793290771484375,4.269388675689697,-2.6278152465820312,-0.45650672912597656
1777561097101819600,2.811819580078125,6.749990463256836,-2.783585548400879,-2.116119623184204
1777561097120348200,2.83034814453125,8.616472244262695,-3.8880558013916016,-3.6471292972564697
1777561097138877000,2.848876953125,6.801629066467285,-5.133544921875,-4.4297194480896
1777561097157405700,2.86740576171875,2.206037759780884,-6.291904449462891,-4.875831127166748
1777561097175934200,2.885934326171875,-7.344658851623535,-6.236963272094727,-3.1758413314819336
1777561097194463000,2.904462890625,-12.962539672851562,-3.892575263977051,1.0908321142196655
1777561097212991700,2.92299169921875,-9.618509292602539,-0.6511964797973633,4.077846527099609
1777561097231520300,2.941520263671875,-7.889748573303223,1.7198405265808105,4.560088157653809
1777561097250049000,2.960049072265625,-4.181353569030762,1.7691941261291504,5.859101295471191
1777561097268577800,2.978577880859375,-2.484753131866455,1.666494369506836,5.435901641845703
1777561097287106300,2.997106201171875,2.4656834602355957,-1.2541847229003906,-0.4792230725288391
1777561097305635000,3.015635009765625,-2.1084060668945312,-2.344883918762207,-3.3003787994384766
1777561097324163800,3.034163818359375,-7.60463809967041,-1.4352006912231445,-2.972634792327881
1777561097342692400,3.0526923828125,-9.870584487915039,0.70208740234375,-2.2298741340637207
1777561097361221000,3.07122119140625,-8.3673095703125,4.318601131439209,0.9695419073104858
1777561097379750000,3.08975,-7.801376819610596,6.6060099601745605,1.314009666442871
1777561097398278700,3.108278564453125,-6.419396877288818,7.00498628616333,0.4753587245941162
1777561097416807200,3.12680712890625,-5.277204513549805,5.524324893951416,-0.3141036033630371
1777561097435336000,3.1453359375,-4.832983016967773,3.4171981811523438,-0.35057544708251953
1777561097453864700,3.16386474609375,-3.4872169494628906,2.9353795051574707,-0.3636481761932373
1777561097472393200,3.182393310546875,-3.2834386825561523,4.232268333435059,0.3167457580566406
1777561097490922000,3.200921875,-2.8212151527404785,5.2757792472839355,0.8974287509918213
1777561097509450800,3.21945068359375,-0.19310712814331055,5.536961555480957,0.3218567371368408
1777561097527979500,3.2379794921875,3.1629791259765625,5.724493026733398,1.5910634994506836
1777561097546508000,3.256508056640625,0.47733020782470703,4.098136901855469,3.7833456993103027
1777561097565036800,3.275036865234375,7.206240177154541,-2.222743511199951,3.4187192916870117
1777561097583565600,3.293565673828125,0.1028451919555664,-13.279607772827148,-6.072170257568359
1777561097602094000,3.312093994140625,-0.974642276763916,-20.605173110961914,3.870474100112915
1777561097620622800,3.330622802734375,-2.128894329071045,-10.803215026855469,1.009142279624939
1777561097639151600,3.349151611328125,-0.15975475311279297,0.4275798797607422,0.5391168594360352
1777561097657680100,3.36768017578125,-0.9571864604949951,6.068099021911621,1.2252354621887207
1777561097676209000,3.386208984375,-1.2831430435180664,7.392689228057861,2.1755967140197754
1777561097694737700,3.404737548828125,-3.207512140274048,5.618511199951172,2.3827171325683594
1777561097713266400,3.423266357421875,-3.990288257598877,2.686086654663086,2.364126205444336
1777561097731795000,3.441794921875,-4.239877700805664,-1.1907014846801758,2.8949732780456543
1777561097750323700,3.46032373046875,-2.9082698822021484,-6.724893569946289,1.1276118755340576
1777561097768852500,3.4788525390625,-0.03512310981750488,-11.054319381713867,-2.3038864135742188
1777561097787381200,3.49738134765625,-0.09536004066467285,-5.187185287475586,-4.492938995361328
1777561097805909800,3.51590966796875,-0.0353773832321167,-0.41535377502441406,-4.824522972106934
1777561097824438500,3.5344384765625,-0.6998026371002197,1.8983564376831055,-4.780625820159912
1777561097842967300,3.55296728515625,-0.06398123502731323,3.14522123336792,-2.581176996231079
1777561097861496000,3.57149609375,-0.03416776657104492,4.115683555603027,0.20616891980171204
1777561097880024800,3.59002490234375,-0.40139758586883545,3.709102153778076,1.9804935455322266
1777561097898553300,3.60855322265625,0.10366067290306091,2.2067084312438965,1.640870213508606
1777561097917082000,3.62708203125,1.051978349685669,0.7493829727172852,0.20563210546970367
1777561097944875300,3.654875244140625,1.230410099029541,0.7493438720703125,-0.03922295570373535
1777561097963403800,3.67340380859375,1.554128646850586,1.148482322692871,0.2453676164150238
1777561097981932500,3.6919326171875,1.4377539157867432,0.453033447265625,-0.2789573669433594
1777561098000461300,3.71046142578125,2.248220443725586,-0.14648056030273438,-0.1933903992176056
1777561098018989800,3.72898974609375,2.1272406578063965,-0.4060401916503906,-1.1475276947021484
1777561098037518600,3.7475185546875,1.6155831813812256,-0.04923725128173828,-1.9942479133605957
1777561098056047400,3.76604736328125,1.0325837135314941,0.14807415008544922,-2.6024270057678223
1777561098074576100,3.784576171875,0.7424962520599365,0.34169769287109375,-2.522449016571045
1777561098093105000,3.80310498046875,0.8042248487472534,-0.11623001098632812,-2.730480194091797
1777561098111633400,3.82163330078125,0.8086555600166321,-1.179208755493164,-2.776193380355835
1777561098130162200,3.840162109375,0.22917556762695312,-1.7978897094726562,-2.098390579223633
1777561098148691000,3.85869091796875,0.17281246185302734,-2.3659448623657227,-0.5320460796356201
1777561098167219700,3.8772197265625,-0.7449711561203003,-4.0050048828125,-0.21241343021392822
1777561098185748500,3.89574853515625,2.016735792160034,-6.773911476135254,0.19659864902496338
1777561098204277200,3.91427734375,1.752885103225708,-9.38119888305664,-0.6543114185333252
1777561098222805800,3.9328056640625,4.241979598999023,-5.644036293029785,1.4239941835403442
1777561098241334500,3.95133447265625,2.3758368492126465,-4.45383358001709,0.0827479362487793
1777561098259863000,3.969863037109375,2.6615922451019287,-2.0640621185302734,-0.6894466876983643
1777561098278391800,3.988391845703125,3.6335556507110596,-1.3129796981811523,-0.8243069648742676
1777561098296920600,4.006920654296875,4.3980889320373535,-2.5202817916870117,-0.7530214786529541
1777561098315449300,4.025449462890625,5.497056484222412,-4.4299163818359375,-2.430027723312378
1777561098333978000,4.04397802734375,7.005655288696289,-5.309543609619141,-3.47040057182312
1777561098352507000,4.0625068359375,6.351436614990234,-6.066816329956055,-4.326186180114746
1777561098371035600,4.08103564453125,1.3763186931610107,-5.787541389465332,-4.101996421813965
1777561098389564200,4.099564208984375,-8.237969398498535,-4.296512603759766,-0.6654319167137146
1777561098408093000,4.118093017578125,-13.88245964050293,-2.927000045776367,1.9832024574279785
1777561098426621700,4.13662158203125,-10.720444679260254,1.0949430465698242,3.859246015548706
1777561098445150500,4.155150390625,-7.111842155456543,3.298276424407959,4.0034637451171875
1777561098463679000,4.173678955078125,-1.289325475692749,1.2564821243286133,3.916433572769165
1777561098482207700,4.192207763671875,1.572953224182129,-1.0338201522827148,3.09055495262146
1777561098500736500,4.210736572265625,-2.8233911991119385,-0.5777225494384766,-0.7523344159126282
1777561098519265300,4.229265380859375,-4.48317813873291,-0.2229456901550293,-2.124323606491089
1777561098537794000,4.2477939453125,-7.344393253326416,0.8513202667236328,-2.3091347217559814
1777561098556322800,4.26632275390625,-7.689276695251465,2.6015572547912598,-1.2198686599731445
1777561098574851600,4.2848515625,-6.836482048034668,4.2712273597717285,0.17715466022491455
1777561098593380000,4.303380126953125,-6.0666399002075195,5.294915199279785,0.4534158706665039
1777561098611908900,4.321908935546875,-5.434767723083496,4.883301258087158,0.23239779472351074
1777561098630437600,4.340437744140625,-4.6089768409729,3.755042552947998,0.4051072597503662
1777561098648966400,4.35896630859375,-4.677124977111816,3.1549973487854004,0.2435312271118164
1777561098667495000,4.377494873046875,-4.261336803436279,3.4808602333068848,-0.11681032180786133
1777561098686023700,4.396023681640625,-4.299980640411377,4.152344226837158,-0.31295347213745117
1777561098704552400,4.414552490234375,-2.938066005706787,4.900937080383301,-0.10628056526184082
1777561098723081200,4.433081298828125,3.7730841636657715,5.805652141571045,0.9604103565216064
1777561098741610000,4.45160986328125,10.841026306152344,4.697518348693848,5.180113792419434
1777561098760138800,4.470138671875,-8.501531600952148,-2.644521713256836,4.576368808746338
1777561098778667500,4.48866748046875,8.938333511352539,-9.225943565368652,-6.628260612487793
1777561098797196000,4.507196044921875,-4.00705623626709,-12.801595687866211,4.376428604125977
1777561098815724800,4.525724853515625,-0.3814258575439453,-12.363895416259766,4.683353900909424
1777561098834253600,4.544253662109375,-0.5968785285949707,-2.9933338165283203,1.436095118522644
1777561098852782300,4.5627822265625,-1.4048099517822266,3.2914257049560547,-0.24528515338897705
1777561098871311000,4.58131103515625,-1.8710675239562988,4.7137908935546875,0.34409070014953613
1777561098889839900,4.59983984375,-2.694629430770874,3.694319725036621,0.9455239772796631
1777561098908368600,4.61836865234375,-3.3132998943328857,1.7787504196166992,1.6731491088867188
1777561098926897400,4.6368974609375,-2.2706477642059326,-0.6886920928955078,2.591512680053711
1777561098945426000,4.655426025390625,-1.875756859779358,-3.5860595703125,1.9113078117370605
1777561098963954700,4.67395458984375,-1.7568597793579102,-7.142899513244629,-0.06073403358459473
1777561098982483500,4.6924833984375,-1.4572556018829346,-6.145906448364258,-2.62843656539917
1777561099001012200,4.71101220703125,-0.6598372459411621,-1.9660863876342773,-4.2087812423706055
1777561099019541000,4.729541015625,-0.011537909507751465,0.15671443939208984,-5.638927459716797
1777561099038069800,4.74806982421875,0.9470891952514648,1.772761344909668,-4.391147136688232
1777561099056598500,4.7665986328125,0.6225561499595642,3.353135108947754,-1.7783859968185425
1777561099075127300,4.785127197265625,-0.6320257782936096,3.9397759437561035,0.10786831378936768
1777561099093655800,4.80365576171875,-1.0481797456741333,2.9509968757629395,0.15194979310035706
1777561099112184600,4.8221845703125,1.91372549533844,1.6027336120605469,0.33252522349357605
1777561099130713300,4.84071337890625,3.1432297229766846,0.8826074600219727,0.30306461453437805
1777561099149242000,4.8592421875,2.2215356826782227,0.7743663787841797,0.46244314312934875
1777561099167771000,4.87777099609375,0.9733095169067383,0.9745883941650391,0.07055264711380005
1777561099186299600,4.896299560546875,2.6946282386779785,1.2074737548828125,-0.0072591304779052734
1777561099204828400,4.914828369140625,2.699205160140991,0.37477779388427734,-1.1211590766906738
1777561099223357200,4.933357177734375,1.6395593881607056,-0.17379379272460938,-2.2253589630126953
1777561099241886000,4.951885986328125,2.0465073585510254,0.02692127227783203,-2.7965312004089355
1777561099260414700,4.970414794921875,1.1965227127075195,-0.22988128662109375,-2.8435215950012207
1777561099278943500,4.988943603515625,0.3430441617965698,-1.3100709915161133,-2.408809185028076
1777561099297472000,5.007471923828125,-0.22443950176239014,-2.627958297729492,-1.8492443561553955
1777561099316000800,5.026000732421875,-0.4319298267364502,-3.793034553527832,-1.3551989793777466
1777561099334529500,5.044529541015625,-2.0303776264190674,-5.722869873046875,-2.2101526260375977
1777561099353058300,5.063058349609375,3.0220947265625,-6.881980895996094,-0.12997376918792725
1777561099371587000,5.081587158203125,3.4517621994018555,-7.916694641113281,0.3578447103500366
1777561099390115800,5.10011572265625,2.738037109375,-5.036206245422363,0.924008846282959
1777561099408644600,5.11864453125,1.959416389465332,-3.941920280456543,-0.22030264139175415
1777561099427173400,5.13717333984375,3.2693886756896973,-1.4874267578125,-0.12341248989105225
1777561099445702100,5.1557021484375,5.192347049713135,-1.4057502746582031,0.45650601387023926
1777561099464230700,5.174230712890625,6.009310722351074,-3.2426443099975586,-0.6701185703277588
1777561099482759400,5.192759521484375,7.230523109436035,-4.478960037231445,-2.150940418243408
1777561099501288200,5.2112880859375,6.804904937744141,-5.555637359619141,-3.6314427852630615
1777561099519817000,5.22981689453125,2.657529354095459,-6.646405220031738,-5.059416770935059
1777561099538345700,5.248345703125,-4.812370300292969,-5.727675437927246,-1.2822654247283936
1777561099556874500,5.26687451171875,-10.695901870727539,-4.277435302734375,1.9431946277618408
1777561099575403300,5.2854033203125,-12.04629898071289,-1.5232086181640625,3.881491184234619
1777561099593932000,5.30393212890625,-7.263136386871338,2.6344985961914062,5.3614091873168945
1777561099612460800,5.322460693359375,-7.362386703491211,2.870960235595703,4.194581031799316
1777561099630989600,5.340989501953125,0.29581260681152344,-0.12932300567626953,3.909088611602783
1777561099649518300,5.359518310546875,1.3111848831176758,-1.5922784805297852,1.6372150182724
1777561099668047000,5.378047119140625,-3.6002554893493652,-0.9941158294677734,-0.9870449304580688
1777561099686575900,5.396575927734375,-5.838234901428223,0.09062337875366211,-2.0660674571990967
1777561099705104600,5.415104736328125,-8.240134239196777,1.6834540367126465,-1.390559196472168
1777561099723633400,5.43363330078125,-8.54438304901123,2.8567280769348145,-0.8761946558952332
1777561099742162200,5.452162109375,-6.551418304443359,4.660065174102783,-0.3148820400238037
1777561099760691000,5.47069091796875,-5.853254318237305,6.15533447265625,-0.5883758068084717
1777561099779219700,5.4892197265625,-5.522195339202881,5.698611259460449,-1.0478166341781616
1777561099797748500,5.50774853515625,-5.450793743133545,4.0460920333862305,-0.5328729152679443
1777561099816277200,5.52627734375,-5.142394065856934,2.923356533050537,-0.04673147201538086
1777561099834805800,5.5448056640625,-4.848263263702393,3.049315929412842,-0.10877299308776855
1777561099853334500,5.56333447265625,-3.6309964656829834,4.472318649291992,-0.1296544075012207
1777561099871863300,5.58186328125,-1.0413408279418945,6.194594383239746,0.28513216972351074
1777561099890392000,5.60039208984375,14.333484649658203,7.296858310699463,4.586300849914551
1777561099908920800,5.6189208984375,-13.51028823852539,-0.34486913681030273,6.0100603103637695
1777561099927449600,5.63744970703125,19.072288513183594,-7.990317344665527,0.9555320739746094
1777561099945978400,5.655978271484375,-13.20071029663086,-17.34855842590332,-0.6568164825439453
1777561099964507100,5.674507080078125,-1.6857709884643555,-16.37026596069336,2.1468987464904785
1777561099983036000,5.693035888671875,-0.6482295989990234,-3.315277099609375,2.798577070236206
1777561100001564700,5.711564697265625,-1.4868266582489014,4.866405487060547,0.8552994728088379
1777561100020093400,5.730093505859375,-1.566626787185669,7.554971218109131,1.4161078929901123
1777561100038622200,5.748622314453125,-2.969660758972168,5.733155250549316,0.026733756065368652
1777561100057151000,5.76715087890625,-3.7802300453186035,1.905679702758789,-0.7847838401794434
1777561100075679700,5.7856796875,-2.7697482109069824,-1.2291879653930664,-0.07040131092071533
1777561100094208500,5.80420849609375,-1.8290587663650513,-4.265730857849121,0.3145054578781128
1777561100112737300,5.8227373046875,-1.2091901302337646,-6.902777671813965,-0.6119709610939026
1777561100131266000,5.84126611328125,-0.9813532829284668,-7.808083534240723,-2.9743905067443848
1777561100149794800,5.859794921875,-1.196336269378662,-3.604463577270508,-5.063081741333008
1777561100168323600,5.878323486328125,-0.03895461559295654,-0.003928184509277344,-6.537613868713379
1777561100186852400,5.896852294921875,0.7809427976608276,2.3070321083068848,-4.977779388427734
1777561100205381000,5.915381103515625,0.8984608054161072,3.138937473297119,-2.0039806365966797
1777561100223910000,5.933909912109375,1.007441520690918,3.8815059661865234,1.8474408388137817
1777561100242438700,5.952438720703125,0.4647371172904968,4.128745079040527,4.203736782073975
1777561100260967400,5.970967529296875,-0.5466724634170532,3.3045482635498047,3.944014072418213
1777561100279496200,5.98949609375,1.2576019763946533,0.23712635040283203,-0.10254645347595215
1777561100298025000,6.00802490234375,4.126705169677734,-1.4242639541625977,-3.1930172443389893
1777561100316553700,6.0265537109375,3.63959002494812,-0.597285270690918,-3.2126755714416504
1777561100335082500,6.04508251953125,0.5835245847702026,0.3325643539428711,-2.340704917907715
1777561100353611300,6.063611328125,0.3589380979537964,0.8400554656982422,-2.3079895973205566
1777561100372140000,6.08214013671875,1.8729592561721802,0.36490821838378906,-1.7820923328399658
1777561100390668800,6.100668701171875,2.3725032806396484,-0.3284788131713867,-1.5473589897155762
1777561100409197600,6.119197509765625,1.9682327508926392,-0.6591472625732422,-1.9678761959075928
1777561100427726300,6.137726318359375,1.872158408164978,-0.04172325134277344,-2.2163572311401367
1777561100446255000,6.156255126953125,1.1988407373428345,0.5163660049438477,-1.4738742113113403
1777561100464784000,6.174783935546875,0.4788174629211426,-0.1712818145751953,-0.8107860088348389
1777561100483312600,6.193312744140625,-0.4218611717224121,-1.481389045715332,-0.31699299812316895
1777561100501841400,6.21184130859375,-2.247870445251465,-3.2193784713745117,-0.7785506248474121
1777561100520370200,6.2303701171875,-0.4192061424255371,-4.277433395385742,-0.3716999292373657
1777561100538899000,6.24889892578125,1.2850160598754883,-6.414607048034668,1.0864856243133545
1777561100557427700,6.267427734375,2.643228054046631,-6.397748947143555,2.505197048187256
1777561100575956500,6.28595654296875,2.3858985900878906,-6.583583831787109,1.3634003400802612
1777561100594485200,6.3044853515625,3.29655385017395,-5.41896915435791,-0.5395326614379883
1777561100613014000,6.323013916015625,4.269082069396973,-3.1589841842651367,-1.580797553062439
1777561100631542800,6.341542724609375,4.86331033706665,-1.7755613327026367,-2.3806893825531006
1777561100650071800,6.36007177734375,5.914181232452393,-1.9813661575317383,-2.8473427295684814
1777561100668600600,6.3786005859375,6.84596586227417,-3.3430652618408203,-2.888212203979492
1777561100687129000,6.397129150390625,6.833770751953125,-4.9494428634643555,-2.047734022140503
1777561100705657900,6.415657958984375,5.610310077667236,-6.096219062805176,-1.4176608324050903
1777561100724187000,6.434186767578125,1.7017228603363037,-6.684349060058594,-2.2959742546081543
1777561100742715600,6.452715576171875,-6.919543266296387,-4.104408264160156,0.08578145503997803
1777561100761244400,6.471244384765625,-11.852816581726074,-2.19537353515625,1.1346155405044556
1777561100779773200,6.489773193359375,-11.837145805358887,0.33762645721435547,2.281686782836914
1777561100798302000,6.508302001953125,-7.32148551940918,3.2004013061523438,5.078195095062256
1777561100816830700,6.526830810546875,-4.917421340942383,0.9816546440124512,5.057121753692627
1777561100835359500,6.545359375,2.3966479301452637,-2.117717742919922,2.619776964187622
1777561100853888300,6.56388818359375,-0.7859010696411133,-1.7262325286865234,0.6864360570907593
1777561100872417000,6.5824169921875,-4.5744524002075195,-1.422192096710205,-1.047372817993164
1777561100890945800,6.60094580078125,-7.422280311584473,-0.19889450073242188,-1.856318712234497
1777561100909474600,6.619474609375,-8.661423683166504,1.3809256553649902,-1.4959583282470703
1777561100928003300,6.63800341796875,-7.085738658905029,3.846869468688965,-0.5594754219055176
1777561100946532000,6.656531982421875,-6.506484508514404,5.6963701248168945,0.03994178771972656
1777561100965060900,6.675060791015625,-6.807825088500977,6.083820819854736,-0.5999388694763184
1777561100983589600,6.693589599609375,-6.137088298797607,4.9341816902160645,-1.1485018730163574
1777561101002118400,6.712118408203125,-5.548727989196777,3.763826370239258,-1.0850454568862915
1777561101020647200,6.730647216796875,-5.587543487548828,3.490450143814087,-0.9218080043792725
1777561101039176200,6.74917626953125,-4.514663219451904,4.501976013183594,-0.48836255073547363
1777561101057704700,6.76770458984375,-2.5056962966918945,5.82989501953125,0.015533208847045898
1777561101076233500,6.7862333984375,9.325010299682617,8.569419860839844,3.528512954711914
1777561101094762500,6.804762451171875,2.5814208984375,2.5601329803466797,3.491415023803711
1777561101113291300,6.823291259765625,6.236155033111572,-7.584345817565918,6.915891647338867
1777561101131820000,6.841820068359375,-3.85067081451416,-14.919060707092285,-4.595076560974121
1777561101150348800,6.860348876953125,-0.18173885345458984,-11.8929443359375,7.161675930023193
1777561101168877600,6.878877685546875,-1.8048515319824219,-3.970428466796875,-1.4079673290252686
1777561101187406300,6.89740625,0.10103225708007812,2.724571704864502,2.6175196170806885
1777561101205935000,6.91593505859375,-1.4992547035217285,5.370657920837402,2.065241575241089
1777561101224464000,6.9344638671875,-2.6516687870025635,4.239261150360107,0.11593794822692871
1777561101242992600,6.95299267578125,-3.5391764640808105,1.7747154235839844,-0.4797149896621704
1777561101261521400,6.971521484375,-2.8637661933898926,-0.4700002670288086,-0.024611711502075195
1777561101280050200,6.99005029296875,-0.8460147380828857,-2.4211254119873047,1.3101505041122437
1777561101298579200,7.0085791015625,-2.4568183422088623,-5.328662872314453,0.48565173149108887
1777561101317108000,7.02710791015625,-2.932705879211426,-9.194525718688965,-2.450848340988159
1777561101335636700,7.04563671875,-1.0887134075164795,-5.490164756774902,-3.6030519008636475
1777561101354165500,7.06416552734375,0.13489866256713867,-1.6019515991210938,-5.310660362243652
1777561101372694300,7.0826943359375,0.9137798547744751,1.133596420288086,-5.406479835510254
1777561101391223000,7.10122314453125,1.759098768234253,2.8229026794433594,-3.5629630088806152
1777561101409751800,7.119751708984375,1.7873928546905518,3.9252724647521973,-0.8374308943748474
1777561101428280600,7.138280517578125,0.8055163621902466,3.463804244995117,0.7360262870788574
1777561101446809300,7.156809326171875,1.122481346130371,2.535801887512207,0.7944061756134033
1777561101465338000,7.175338134765625,1.6837811470031738,1.0102806091308594,-0.533576488494873
1777561101483867100,7.1938671875,1.3954970836639404,0.6889142990112305,-0.8337048888206482
1777561101502395600,7.212395751953125,1.9066864252090454,1.464369773864746,0.7442876100540161
1777561101520924700,7.230924560546875,2.108245372772217,1.3265619277954102,1.528930425643921
1777561101539453400,7.249453369140625,1.1885454654693604,0.3153972625732422,0.42078733444213867
1777561101557982200,7.267982177734375,0.950008749961853,-0.052931785583496094,-1.3489125967025757
1777561101576511000,7.286510986328125,1.6118841171264648,0.38887596130371094,-1.675549030303955
1777561101595039700,7.305039794921875,1.3357281684875488,0.02119731903076172,-1.7885310649871826
1777561101613568500,7.323568603515625,1.401370644569397,0.13890361785888672,-1.8573873043060303
1777561101632097500,7.34209765625,1.8574550151824951,-0.1842641830444336,-2.307278633117676
1777561101650626300,7.360626220703125,1.3305892944335938,-0.6639566421508789,-2.1896512508392334
1777561101669155000,7.379155029296875,0.13947319984436035,-1.8222332000732422,-1.6493103504180908
1777561101687683800,7.397683837890625,-1.0355827808380127,-3.3766584396362305,-0.33876609802246094
1777561101706212600,7.416212646484375,-1.7719886302947998,-6.492788314819336,-0.38498222827911377
1777561101724741400,7.434741455078125,1.5993809700012207,-7.938201904296875,1.784495234489441
1777561101743270100,7.453270263671875,2.233346462249756,-7.871599197387695,2.3692374229431152
1777561101761799000,7.471798828125,2.5995702743530273,-6.568556785583496,1.0659403800964355
1777561101780328000,7.490327880859375,2.2544662952423096,-4.670876502990723,-1.0886659622192383
1777561101798856700,7.508856689453125,3.088292360305786,-1.8842649459838867,-2.293144464492798
1777561101817385500,7.527385498046875,3.571774482727051,-0.5344448089599609,-2.4042489528656006
1777561101835914200,7.545914306640625,4.215347766876221,-1.4155311584472656,-2.7009220123291016
1777561101854443000,7.564443115234375,4.864436626434326,-3.2412500381469727,-3.5795812606811523
1777561101872971800,7.5829716796875,5.725035190582275,-4.159384727478027,-4.244128704071045
1777561101891500500,7.60150048828125,6.6058478355407715,-4.546558380126953,-5.565379619598389
1777561101910029300,7.620029296875,3.651251792907715,-4.608917236328125,-7.137362480163574
1777561101928558300,7.638558349609375,-9.163463592529297,-2.108901023864746,-3.620480537414551
1777561101947087000,7.657087158203125,-16.11046600341797,1.9227209091186523,0.9876331090927124
1777561101965615900,7.675615966796875,-13.176183700561523,3.9539084434509277,3.673442840576172
1777561101984144600,7.69414453125,-9.08800983428955,4.030159950256348,3.98585844039917
1777561102002673700,7.712673583984375,-2.0022802352905273,4.459224700927734,6.109936237335205
1777561102021202400,7.731202392578125,2.544072389602661,4.033809661865234,4.21513557434082
1777561102039731200,7.749731201171875,10.755725860595703,-0.6945743560791016,-0.83217453956604
1777561102058260000,7.768260009765625,0.03388166427612305,-2.306699752807617,-0.04492950439453125
1777561102076788700,7.786788818359375,-8.458105087280273,-0.5979976654052734,0.24766230583190918
1777561102095317800,7.80531787109375,-5.246500015258789,0.3840188980102539,-2.4060378074645996
1777561102113846300,7.82384619140625,-4.102318286895752,1.720703125,-2.826779365539551
1777561102132375300,7.842375244140625,-5.426880359649658,2.6270217895507812,-1.778823733329773
1777561102150904000,7.860904052734375,-5.814099311828613,3.7633419036865234,-0.9530322551727295
1777561102169432800,7.879432861328125,-5.370053768157959,4.260672092437744,-0.9268767833709717
1777561102187961600,7.897961669921875,-4.660234451293945,4.762819766998291,-0.784409761428833
1777561102206490400,7.916490478515625,-4.177578449249268,5.687522888183594,0.12540268898010254
1777561102225019400,7.935019287109375,-3.574864625930786,5.964127540588379,0.4240097999572754
1777561102243548200,7.953548095703125,-2.745589256286621,5.202204704284668,-0.4829370975494385
1777561102262077000,7.972076904296875,-1.409287452697754,3.9507389068603516,-1.8608126640319824
1777561102280605700,7.990605712890625,1.4111242294311523,2.8521437644958496,-2.7390050888061523
1777561102299134700,8.009134765625,6.371998310089111,1.4448418617248535,-2.073460817337036
1777561102317663500,8.02766357421875,7.445124626159668,-1.5219945907592773,-0.3374364376068115
1777561102336192300,8.046192138671875,7.622682094573975,-6.692374229431152,1.2109748125076294
1777561102354721000,8.064720947265625,6.907919883728027,-10.75685977935791,0.8121317625045776
1777561102373249800,8.083249755859375,3.81670880317688,-8.33955192565918,0.21695029735565186
1777561102391778600,8.101778564453125,2.1571998596191406,-2.7007322311401367,1.770180106163025
1777561102410307600,8.1203076171875,3.776456832885742,2.0953474044799805,3.7984867095947266
1777561102428836400,8.13883642578125,4.519784450531006,2.2750892639160156,4.924263000488281
1777561102447365000,8.157365234375,-2.0603039264678955,-0.520939826965332,1.9232995510101318
1777561102475158300,8.185158203125,-7.646969795227051,4.121187210083008,3.422729969024658
1777561102493687300,8.203687255859375,-7.144637107849121,4.8273444175720215,4.718212127685547
1777561102512216000,8.222216064453125,-4.037680625915527,4.250279426574707,5.542022705078125
1777561102530744800,8.240744873046875,-6.338308334350586,0.11038970947265625,-0.9911878108978271
1777561102549273600,8.259273681640625,-5.415900230407715,-8.53370475769043,-6.189090728759766
1777561102567802600,8.277802734375,-4.296648025512695,-9.088725090026855,-9.302742958068848
1777561102586331400,8.296331298828125,-1.1145493984222412,-4.431584358215332,-7.892064094543457
1777561102604860200,8.314860107421875,-1.3123220205307007,-1.2607412338256836,-5.398177146911621
1777561102623389000,8.333388916015625,-2.475306510925293,-0.34276390075683594,-2.7598602771759033
1777561102641918000,8.35191796875,-2.8314929008483887,0.33966827392578125,-0.35428178310394287
1777561102660446700,8.37044677734375,-2.078583002090454,1.3870763778686523,1.8140138387680054
1777561102678975500,8.3889755859375,-1.1693907976150513,1.439173698425293,2.427361249923706
1777561102697504300,8.407504150390626,-0.2477782666683197,1.1681489944458008,1.417778730392456
1777561102716033300,8.426033203125,1.3724182844161987,0.9076967239379883,0.5989145040512085
1777561102734562000,8.44456201171875,1.3848936557769775,-0.0317840576171875,-1.0402131080627441
1777561102753090800,8.4630908203125,1.4130902290344238,-0.35089588165283203,-1.864380955696106
1777561102771619600,8.48161962890625,2.433941125869751,0.5039396286010742,-1.844543218612671
1777561102790148400,8.5001484375,3.0419156551361084,0.9747657775878906,-1.6595252752304077
1777561102808677400,8.518677490234374,1.0713624954223633,0.9853181838989258,-1.687914252281189
1777561102827206100,8.5372060546875,-2.1383776664733887,1.1159143447875977,-2.1589155197143555
1777561102845735000,8.55573486328125,-4.538370132446289,1.7864923477172852,-1.647149920463562
1777561102864263700,8.574263671875,-1.5422866344451904,0.9939861297607422,-1.083513617515564
1777561102882792700,8.592792724609374,2.7645480632781982,-0.6530704498291016,-1.1574665307998657
1777561102901321500,8.611321533203125,3.916511058807373,-1.6372461318969727,-1.4515131711959839
1777561102919850200,8.629850341796875,3.0017528533935547,-1.9017333984375,-0.6398278474807739
1777561102938379300,8.648379150390625,2.194814443588257,-1.7369613647460938,1.199072003364563
1777561102956908000,8.666907958984375,2.3962371349334717,-1.5552492141723633,3.4618759155273438
1777561102975436800,8.685436767578125,1.7931257486343384,-1.4509258270263672,4.988892555236816
1777561102993965600,8.703965576171875,0.7873246669769287,-2.013890266418457,1.714702844619751
1777561103012494600,8.72249462890625,1.8465737104415894,-2.26416015625,-2.5952346324920654
1777561103031023400,8.7410234375,2.937037229537964,-2.5278005599975586,-5.616211891174316
1777561103049552100,8.75955224609375,3.0913445949554443,-3.4405879974365234,-6.657050132751465
1777561103068081000,8.778080810546875,2.813549757003784,-4.886152267456055,-5.957521915435791
1777561103086610000,8.79660986328125,2.636669635772705,-5.552589416503906,-4.790008068084717
1777561103114403000,8.824403076171874,1.2736024856567383,-4.216368675231934,-4.881784915924072
1777561103132931800,8.842931884765624,0.46221038699150085,-1.9389877319335938,-4.834463119506836
1777561103151460900,8.8614609375,1.6412827968597412,-0.1250162124633789,-3.647460460662842
1777561103169989600,8.87998974609375,0.5488700270652771,-0.49779510498046875,-2.9186320304870605
1777561103188518400,8.898518310546875,-2.197144031524658,-1.759922981262207,-2.8656063079833984
1777561103207047400,8.91704736328125,-1.9288573265075684,-3.9684648513793945,-2.681835651397705
1777561103225576200,8.935576171875,-2.3527133464813232,-5.162677764892578,-0.9617710113525391
1777561103244105000,8.95410498046875,-3.3878300189971924,-5.571037292480469,-0.8530877828598022
1777561103262634000,8.972634033203125,-4.060093402862549,-4.829791069030762,-2.1755480766296387
1777561103281162800,8.991162841796875,-6.4718732833862305,-3.5083236694335938,-3.977705240249634
1777561103299691500,9.00969140625,-6.393881797790527,-2.239260673522949,-5.300776958465576
1777561103318220300,9.02822021484375,-5.275223731994629,-1.4633941650390625,-5.698634147644043
1777561103336749300,9.046749267578125,-4.002326488494873,-0.9009361267089844,-4.643659591674805
1777561103355278000,9.065278076171875,-6.8092803955078125,-0.585047721862793,-3.4145002365112305
1777561103373806800,9.083806884765625,-9.451642990112305,0.6033830642700195,-2.8278753757476807
1777561103392336000,9.1023359375,-5.307539939880371,1.4013195037841797,-3.401559829711914
1777561103410864600,9.12086474609375,-6.33621883392334,0.6327729225158691,-0.629915714263916
1777561103429393400,9.139393310546875,-6.391500949859619,1.3029909133911133,-0.2699103355407715
1777561103447922400,9.15792236328125,-5.089476108551025,1.6272125244140625,0.6468687057495117
1777561103466451200,9.176451171875,-4.452517509460449,2.1886119842529297,1.4074387550354004
1777561103484980000,9.19497998046875,-3.7193760871887207,2.766890525817871,1.6652946472167969
1777561103503509000,9.213509033203126,-3.617933988571167,3.291775703430176,1.4616847038269043
1777561103522037800,9.232037841796876,-3.3567023277282715,3.8750929832458496,0.20172905921936035
1777561103540566500,9.25056640625,-2.4266715049743652,5.047762870788574,-0.009827375411987305
1777561103559095600,9.269095458984374,-0.7874994277954102,5.5076823234558105,0.5733027458190918
1777561103577624300,9.287624267578124,1.1810243129730225,4.695452690124512,1.080662727355957
1777561103596153000,9.306153076171874,5.070502281188965,3.437467098236084,2.2185847759246826
1777561103614681900,9.324681884765624,10.504790306091309,-0.37456512451171875,2.5197858810424805
1777561103633211000,9.3432109375,17.117839813232422,-11.644255638122559,-1.5004751682281494
1777561103651739600,9.36173974609375,3.700274705886841,-17.64873504638672,-4.802778244018555
1777561103670268400,9.380268310546874,3.619791269302368,-7.041450500488281,-2.180655002593994
1777561103688797400,9.39879736328125,0.5698366165161133,2.163355827331543,-0.11541903018951416
1777561103707326200,9.417326171875,2.1150097846984863,6.954862117767334,3.3493499755859375
1777561103725855000,9.43585498046875,1.6722221374511719,1.8465795516967773,3.544591188430786
1777561103744384000,9.454384033203125,-6.99363899230957,-1.264404296875,4.765213966369629
1777561103762912800,9.472912841796875,-11.23817253112793,-1.7155389785766602,7.0783491134643555
1777561103781441500,9.491441650390625,-14.590740203857422,-1.6857643127441406,4.580227851867676
1777561103799970600,9.509970458984375,-3.3105812072753906,-0.29862022399902344,4.312203407287598
1777561103818499300,9.528499267578125,-6.366417407989502,2.8243861198425293,-0.9406366348266602
1777561103837028000,9.547028076171875,-8.543073654174805,4.0346269607543945,-2.963266372680664
1777561103855557000,9.56555712890625,-6.984608173370361,1.1441192626953125,-2.909893751144409
1777561103874086000,9.5840859375,-5.333583831787109,-8.723922729492188,-3.999889373779297
1777561103892614700,9.60261474609375,-5.554705619812012,-13.307188034057617,-8.089184761047363
1777561103911143700,9.621143798828125,-2.7282052040100098,-8.33389663696289,-8.917974472045898
1777561103929672400,9.63967236328125,0.299845814704895,-1.6179399490356445,-4.975141525268555
1777561103948201500,9.658201416015626,0.2993276119232178,1.7658758163452148,0.28556203842163086
1777561103966730200,9.676730224609376,0.6257674098014832,4.037186622619629,6.311422824859619
1777561103985259000,9.695259033203126,0.7914646863937378,4.993501663208008,8.382861137390137
1777561104003788000,9.7137880859375,-1.129029393196106,3.809133529663086,6.224881649017334
1777561104022316800,9.73231689453125,-0.06716474890708923,0.6272544860839844,1.5303229093551636
1777561104040845600,9.750845458984376,2.6144280433654785,-1.814229965209961,-1.3080787658691406
1777561104059374600,9.76937451171875,3.830019950866699,-1.7681236267089844,-1.6796903610229492
1777561104077903400,9.7879033203125,1.4081692695617676,-0.12103652954101562,-1.486746907234192
1777561104096432000,9.80643212890625,-3.0535011291503906,1.5168895721435547,-1.3651784658432007
1777561104114961200,9.824961181640624,-0.5187751054763794,2.0071210861206055,-1.9343807697296143
1777561104133490000,9.843489990234374,3.642355442047119,0.8062343597412109,-2.994180202484131
1777561104152018700,9.862018798828124,4.280606269836426,-0.7486362457275391,-4.061936378479004
1777561104170547700,9.880547607421875,2.5755083560943604,-1.8338661193847656,-3.4458465576171875
1777561104189076500,9.899076416015625,2.7457733154296875,-1.2998504638671875,-1.7604658603668213
1777561104207605200,9.917605224609375,1.6925674676895142,-1.5159063339233398,0.3115839958190918
1777561104226134300,9.93613427734375,-0.6673545837402344,0.4546012878417969,0.6970971822738647
1777561104244663000,9.9546630859375,-1.1297013759613037,0.01960277557373047,0.37148916721343994
1777561104263192000,9.973192138671875,-0.5680880546569824,-2.3352203369140625,-0.8498193621635437
1777561104281720800,9.991720947265625,0.5657469034194946,-5.957940101623535,-1.4584115743637085
1777561104300249600,10.01024951171875,1.0409632921218872,-9.040091514587402,-2.1708927154541016
1777561104318778600,10.028778564453125,1.4735126495361328,-9.67398738861084,-1.8870611190795898
1777561104337307400,10.047307373046875,2.6180341243743896,-8.089259147644043,-2.080702304840088
1777561104355836400,10.06583642578125,3.9727113246917725,-3.8394479751586914,-2.1615102291107178
1777561104374365200,10.084365234375,3.9661340713500977,-1.838510513305664,-2.7734262943267822
1777561104392894000,10.10289404296875,5.105167865753174,-1.7773590087890625,-3.096534013748169
1777561104411423000,10.121423095703125,4.426248550415039,-3.708160400390625,-3.5508923530578613
1777561104429951700,10.13995166015625,2.9633281230926514,-6.316031455993652,-2.992313861846924
1777561104448480800,10.158480712890626,1.8182895183563232,-9.06106185913086,-2.1052260398864746
1777561104467009500,10.177009521484376,-1.8274571895599365,-10.282445907592773,0.6081135272979736
1777561104485538300,10.195538330078126,-4.942715644836426,-9.315821647644043,3.140517234802246
1777561104504067300,10.2140673828125,-7.763720512390137,-6.421931266784668,4.0127787590026855
1777561104522596000,10.23259619140625,-8.467472076416016,-2.5107297897338867,3.223888874053955
1777561104541125000,10.251125,-6.594935894012451,-0.11882400512695312,0.47384655475616455
1777561104559654000,10.26965380859375,-5.2312774658203125,-1.5135869979858398,-3.1290345191955566
1777561104578182700,10.2881826171875,-0.6965999603271484,-4.956512451171875,-6.19573974609375
1777561104596711700,10.306711669921874,-6.74950647354126,-5.143671989440918,-3.3964743614196777
1777561104615240400,10.325240478515624,-9.620011329650879,-4.53649377822876,-0.9615312218666077
1777561104633769500,10.34376953125,-12.08311653137207,-1.3398661613464355,1.4505892992019653
1777561104652298200,10.36229833984375,-10.070533752441406,1.0772781372070312,1.8749065399169922
1777561104670827000,10.380826904296875,-9.27220344543457,3.5955986976623535,1.3676459789276123
1777561104689356000,10.39935595703125,-8.984917640686035,5.091071128845215,0.07159781455993652
1777561104707884800,10.417884765625,-9.006257057189941,6.7783589363098145,-0.5624916553497314
1777561104726413600,10.43641357421875,-8.219493865966797,7.001343250274658,-1.0054709911346436
1777561104744942600,10.454942626953125,-8.19655704498291,5.632212162017822,-1.640378713607788
1777561104763471600,10.4734716796875,-7.402315139770508,4.88051700592041,-1.8360333442687988
1777561104782000400,10.49200048828125,-5.05537748336792,4.779960632324219,-1.5662307739257812
1777561104800529200,10.510529052734375,-3.1238226890563965,4.871795177459717,-1.1399974822998047
1777561104819058200,10.52905810546875,-1.8301610946655273,5.699976444244385,-0.13985061645507812
1777561104837587000,10.5475869140625,4.613031387329102,6.455160140991211,2.469434976577759
1777561104856116000,10.566115966796875,0.4948554039001465,0.6747927665710449,3.7248475551605225
1777561104874644700,10.584644775390625,10.137984275817871,-6.568040370941162,0.2318737506866455
1777561104893173500,10.603173583984375,-8.682374000549316,-14.902788162231445,2.8827552795410156
1777561104911702500,10.62170263671875,-3.962702989578247,-16.386507034301758,6.98354959487915
1777561104930231300,10.640231201171876,-1.8039236068725586,-5.232142448425293,2.7313263416290283
1777561104948760300,10.65876025390625,-0.8303813934326172,2.836674690246582,1.321295976638794
1777561104967289000,10.6772890625,-5.610176086425781,5.7618255615234375,0.6016175746917725
1777561104985817900,10.69581787109375,-3.1259593963623047,4.668188571929932,2.1036503314971924
1777561105004347000,10.714346923828124,-4.336640357971191,1.8275203704833984,1.8646292686462402
1777561105022875600,10.732875732421874,-4.278270721435547,-2.1704206466674805,2.2221009731292725
1777561105041404700,10.75140478515625,-2.454092025756836,-6.769977569580078,1.1408841609954834
1777561105059933400,10.769933349609374,-2.9439315795898438,-8.404036521911621,-1.078127384185791
1777561105078462500,10.78846240234375,-2.2835216522216797,-5.615177154541016,-3.132284641265869
1777561105096991200,10.8069912109375,-0.4898773431777954,-0.8273086547851562,-4.0578203201293945
1777561105115520300,10.825520263671875,-0.17266225814819336,0.9256687164306641,-5.465635299682617
1777561105134049000,10.844049072265625,0.7034064531326294,1.5689477920532227,-4.498838424682617
1777561105152578000,10.862578125,1.5433695316314697,2.691493511199951,-1.9204301834106445
1777561105171106800,10.88110693359375,0.9868086576461792,3.4154086112976074,0.349761426448822
1777561105189635600,10.899635498046875,0.46422481536865234,2.576162338256836,1.0678789615631104
1777561105208164600,10.91816455078125,-0.1653868407011032,0.722386360168457,0.24454009532928467
1777561105226693400,10.936693359375,0.8559263944625854,-0.0140380859375,-0.11264961957931519
1777561105245222400,10.955222412109375,2.914292097091675,0.23433303833007812,0.08329558372497559
1777561105263751200,10.973751220703125,3.180403709411621,-0.34485340118408203,-0.960468053817749
1777561105282280200,10.9922802734375,2.134676456451416,-0.5518293380737305,-1.2292094230651855
1777561105300809000,11.01080908203125,2.106616735458374,0.15917110443115234,-0.9189280271530151
1777561105319337700,11.029337646484375,1.0618324279785156,0.2432079315185547,-1.1169687509536743
1777561105337866800,11.04786669921875,0.016476988792419434,-0.24939441680908203,-2.2273712158203125
1777561105356395800,11.066395751953126,-0.12326312065124512,-0.3747444152832031,-3.204878807067871
1777561105374924500,11.084924560546876,0.06396079063415527,-1.40167236328125,-3.578070878982544
1777561105393453600,11.10345361328125,-0.5677661895751953,-3.7340707778930664,-3.5045180320739746
1777561105411982300,11.121982421875,3.407238006591797,-4.756931304931641,-0.36081433296203613
1777561105430511000,11.140510986328126,1.4422930479049683,-9.265785217285156,0.09858322143554688
1777561105449040100,11.1590400390625,1.8908718824386597,-8.49962043762207,2.921522378921509
1777561105467569000,11.17756884765625,2.260375499725342,-5.319513320922852,3.0447607040405273
1777561105486098000,11.196097900390624,3.3558316230773926,-3.0061378479003906,1.6246496438980103
1777561105504626700,11.214626708984374,5.876600742340088,-1.4944257736206055,0.8368406295776367
1777561105523155700,11.23315576171875,6.342648983001709,-1.6611928939819336,0.34254229068756104
1777561105541684500,11.2516845703125,5.919507026672363,-3.0660133361816406,-2.0358126163482666
1777561105560213200,11.270213134765624,6.368975639343262,-4.573720932006836,-2.8478550910949707
1777561105578742300,11.2887421875,3.807913064956665,-6.916934013366699,-3.8133668899536133
1777561105597271300,11.307271240234375,0.5745849609375,-8.704010009765625,-4.250452518463135
1777561105615800000,11.325800048828125,-6.227723598480225,-6.724353790283203,0.05913901329040527
1777561105634329000,11.3443291015625,-10.639647483825684,-2.0099525451660156,3.981001377105713
1777561105662122200,11.372122314453126,-10.275068283081055,3.7690839767456055,6.291552543640137
1777561105680651300,11.3906513671875,-6.057541847229004,3.1832151412963867,6.300471782684326
1777561105699180000,11.409179931640624,-3.4887475967407227,0.6495275497436523,3.3699121475219727
1777561105717709000,11.427708984375,1.7238268852233887,-1.5588207244873047,-0.0375288724899292
1777561105736237800,11.44623779296875,-1.8068487644195557,-2.2560739517211914,-2.2831809520721436
1777561105754766800,11.464766845703124,-5.614355087280273,-0.3346710205078125,-2.295804500579834
1777561105773295600,11.483295654296874,-8.102954864501953,1.0672383308410645,-2.3708395957946777
1777561105791824600,11.50182470703125,-8.720818519592285,2.264333724975586,-1.8101518154144287
1777561105810353400,11.520353515625,-7.750911712646484,3.8234949111938477,-0.9432804584503174
1777561105828882400,11.53888232421875,-6.729260444641113,5.7989959716796875,-0.12396454811096191
1777561105847411200,11.5574111328125,-5.65822696685791,5.472039699554443,-0.22753024101257324
1777561105865940200,11.575940185546875,-5.775177955627441,4.65354061126709,0.3758220672607422
1777561105884469000,11.594468994140625,-5.5764570236206055,4.139438152313232,0.5056774616241455
1777561105902998000,11.612998046875,-5.148658752441406,4.0588884353637695,-0.019085168838500977
1777561105921526800,11.63152685546875,-3.926657199859619,4.766090393066406,0.26882338523864746
1777561105940055800,11.650055908203125,2.0014662742614746,6.930022716522217,2.425072431564331
1777561105958584600,11.66858447265625,16.59027671813965,5.161904335021973,7.0236334800720215
1777561105977113600,11.687113525390625,-14.611729621887207,-4.876653671264648,4.87843132019043
1777561105995642400,11.705642333984375,12.344822883605957,-14.016210556030273,-9.095512390136719
1777561106014171400,11.72417138671875,-8.58657455444336,-11.329559326171875,2.506913423538208
1777561106032700200,11.7427001953125,0.2529153823852539,-7.065415859222412,5.927638530731201
1777561106051229200,11.761229248046876,1.7951908111572266,1.2012853622436523,1.523881196975708
1777561106069758000,11.779758056640626,-1.5769567489624023,4.077864170074463,-0.5249640941619873
1777561106088287000,11.798286865234376,-2.0189149379730225,4.316287994384766,2.181884288787842
1777561106106815700,11.816815673828126,-2.7995588779449463,2.0963072776794434,1.0474238395690918
1777561106125344800,11.8353447265625,-2.978402614593506,-0.36914825439453125,0.9621927738189697
1777561106143873500,11.85387353515625,-2.232905387878418,-1.9854135513305664,1.5637210607528687
1777561106162402600,11.872402587890624,-1.6256706714630127,-3.676372528076172,0.9071044921875
1777561106180931300,11.890931396484374,-4.108026027679443,-5.778170585632324,-1.647187352180481
1777561106199460400,11.90946044921875,-2.3128113746643066,-5.907524108886719,-3.0042195320129395
1777561106217989000,11.927989013671874,-0.10411393642425537,-2.3872480392456055,-3.6995129585266113
1777561106236518100,11.94651806640625,0.4656726121902466,0.3024263381958008,-4.290530204772949
1777561106255047000,11.965046875,0.2833505868911743,1.1365289688110352,-4.218447208404541
1777561106273576000,11.983575927734375,0.7393589615821838,1.9042768478393555,-2.2935726642608643
1777561106292104700,12.002104736328125,-0.059475839138031006,3.0002593994140625,-0.07953798770904541
1777561106310633700,12.0206337890625,0.3004595637321472,3.87007999420166,1.228217601776123
1777561106329162800,12.039162841796875,0.5021034479141235,2.4936256408691406,0.4074036478996277
1777561106347691500,12.05769140625,2.2248709201812744,0.47799205780029297,-0.9155523180961609
1777561106366220500,12.076220458984375,3.615846872329712,0.2307577133178711,-0.12762415409088135
1777561106384749300,12.094749267578125,2.226818084716797,0.20207977294921875,0.2649163007736206
1777561106403278300,12.1132783203125,1.5233222246170044,0.41104602813720703,-0.8377737998962402
1777561106421807000,12.13180712890625,1.8622734546661377,1.003800392150879,-1.1838409900665283
1777561106440336100,12.150336181640625,1.8311398029327393,1.1687250137329102,-1.8180930614471436
1777561106458865000,12.168864990234376,1.398818850517273,0.4167013168334961,-2.0077462196350098
1777561106477394000,12.187393798828126,1.3630746603012085,-0.23851776123046875,-2.084135055541992
1777561106495922700,12.205922607421876,1.5229190587997437,-0.24695587158203125,-1.613205075263977
1777561106514451700,12.22445166015625,1.5890387296676636,-0.4325742721557617,-0.7236102223396301
1777561106532980500,12.24298046875,1.4843454360961914,-1.0937185287475586,-0.7451518774032593
1777561106551509500,12.261509521484374,1.1816816329956055,-2.2095422744750977,-0.42591404914855957
1777561106570038300,12.280038330078124,-1.0566644668579102,-3.7123422622680664,-0.5023680925369263
1777561106588567300,12.2985673828125,-1.9546685218811035,-5.141997337341309,-1.808673620223999
1777561106607096000,12.317095947265624,0.43037521839141846,-6.787021636962891,-0.3160841464996338
1777561106625625000,12.335625,1.9403678178787231,-6.107712745666504,2.5743746757507324
1777561106644154000,12.354154052734375,0.6929265260696411,-6.475805282592773,2.2023301124572754
1777561106662683000,12.372682861328125,1.649234652519226,-5.368124961853027,0.46322202682495117
1777561106681212000,12.3912119140625,4.103745460510254,-2.2177982330322266,-0.7930829524993896
1777561106699740700,12.40974072265625,5.199888706207275,-1.0602855682373047,-1.262117862701416
1777561106718269700,12.428269775390625,6.647993087768555,-2.2874670028686523,-1.4482173919677734
1777561106736798500,12.446798583984375,7.467056751251221,-4.8143205642700195,-2.0094122886657715
1777561106755327500,12.465327392578125,7.60597562789917,-6.131414413452148,-1.817699909210205
1777561106773856500,12.4838564453125,7.110513687133789,-5.758214950561523,-1.1589723825454712
1777561106792385300,12.50238525390625,4.3186421394348145,-5.205045700073242,-1.3776183128356934
1777561106810914300,12.520914306640625,-3.0117568969726562,-4.969387054443359,-0.5145111083984375
1777561106829443000,12.539443115234375,-14.35525131225586,-3.060300827026367,1.8076423406600952
1777561106847972000,12.55797216796875,-16.44234848022461,0.7278995513916016,2.196157455444336
1777561106866500900,12.5765009765625,-6.529160022735596,4.362534523010254,5.42087984085083
1777561106885030000,12.59502978515625,-6.0391693115234375,2.9172043800354004,4.311914443969727
1777561106903559000,12.613558837890626,-1.7312440872192383,-1.1221113204956055,1.1528071165084839
1777561106922087700,12.632087646484376,2.381349563598633,-2.776333808898926,-0.8432953357696533
1777561106940616700,12.65061669921875,-4.421643257141113,-0.5411109924316406,-0.4568462371826172
1777561106959145500,12.6691455078125,-6.847700119018555,1.3507781028747559,-0.49459147453308105
1777561106977674500,12.687674560546874,-7.863341331481934,1.952195644378662,-1.7726080417633057
1777561106996203300,12.706203369140624,-7.4591064453125,2.2957301139831543,-1.9439582824707031
1777561107014732300,12.724732177734374,-5.933500289916992,3.991509437561035,-0.9137091636657715
1777561107033261300,12.74326123046875,-5.823381423950195,5.111332893371582,-0.5875427722930908
1777561107051790000,12.7617900390625,-6.026967525482178,4.76570987701416,-0.9766707420349121
1777561107070319000,12.780319091796875,-5.9203410148620605,4.38692045211792,-1.0741925239562988
1777561107088848000,12.798847900390625,-5.501679420471191,4.3011794090271,-1.1613569259643555
1777561107107377000,12.817376953125,-4.549942493438721,4.949945449829102,-0.8236083984375
1777561107125906000,12.835906005859375,-2.31992244720459,5.81312370300293,0.4512977600097656
1777561107144434700,12.8544345703125,10.914325714111328,7.886609077453613,4.879336833953857
1777561107162963700,12.872963623046875,-1.9846644401550293,0.7147355079650879,2.472881317138672
1777561107181492700,12.89149267578125,6.976069450378418,-8.452722549438477,2.219748020172119
1777561107200021500,12.910021484375,0.6646518707275391,-13.644713401794434,-2.9382247924804688
1777561107218550500,12.928550537109375,-2.815882444381714,-11.587020874023438,6.560067176818848
1777561107237079300,12.947079345703125,-2.702028512954712,-4.603098392486572,1.0514333248138428
1777561107255608300,12.9656083984375,0.4720950126647949,2.067351818084717,1.9586036205291748
1777561107274137300,12.984137451171875,-1.3926210403442383,4.688258171081543,0.46576786041259766
1777561107292666000,13.002666015625,-2.159663200378418,4.256948471069336,0.19568920135498047
1777561107311195100,13.021195068359376,-2.7262959480285645,2.022909641265869,-0.3029160499572754
1777561107329724000,13.039723876953126,-2.12318754196167,0.2333059310913086,0.015024065971374512
1777561107348253000,13.0582529296875,-1.7156094312667847,-1.9243574142456055,0.3834197521209717
1777561107366781700,13.07678173828125,-3.2122292518615723,-6.184955596923828,-1.311409831047058
1777561107385310700,13.095310791015624,-1.0958244800567627,-10.332134246826172,-2.8221378326416016
1777561107403839700,13.11383984375,-0.4415947198867798,-3.986720085144043,-3.3370919227600098
1777561107422368500,13.132368408203124,-0.4491172432899475,-0.22133731842041016,-4.633286952972412
1777561107440897500,13.1508974609375,0.6980019807815552,1.8724851608276367,-3.2614293098449707
1777561107459426600,13.169426513671874,2.000155448913574,3.5543484687805176,-0.5036327838897705
1777561107477955300,13.187955322265625,1.1390756368637085,5.004812240600586,1.6846323013305664
1777561107496484400,13.206484375,-1.3919882774353027,4.173617362976074,1.5935618877410889
1777561107515013400,13.225013427734375,-1.8488999605178833,2.0956125259399414,0.4059246778488159
1777561107533542100,13.243542236328125,1.6695947647094727,-0.02123737335205078,-0.8778005242347717
1777561107552071200,13.2620712890625,5.0019354820251465,-0.24418354034423828,-0.5034617781639099
1777561107570600000,13.280599853515625,4.138826847076416,0.0019741058349609375,0.5536168813705444
1777561107589129000,13.29912890625,1.1364949941635132,0.11698627471923828,0.8348140716552734
1777561107607658000,13.317657958984375,0.7054471969604492,0.7553987503051758,0.18092608451843262
1777561107626186800,13.336186767578125,1.6930413246154785,0.3459615707397461,-0.967211127281189
1777561107644715800,13.3547158203125,0.8796031475067139,-0.3296318054199219,-2.362545967102051
1777561107663244800,13.373244873046875,0.7614260911941528,0.1799478530883789,-2.9187846183776855
1777561107681773600,13.391773681640625,1.5582908391952515,0.13976001739501953,-2.2992947101593018
1777561107700302600,13.410302490234375,1.2947736978530884,-1.151850700378418,-1.7568501234054565
1777561107718831600,13.42883154296875,-0.9206796884536743,-3.084914207458496,-1.4871400594711304
1777561107737360400,13.4473603515625,-1.4842958450317383,-5.65308952331543,-1.2329752445220947
1777561107755889400,13.465889404296876,2.221017837524414,-6.938620567321777,0.5390880107879639
1777561107774418200,13.484418212890626,1.4015705585479736,-8.583462715148926,0.42320001125335693
1777561107792947200,13.502947265625,2.343597412109375,-6.418072700500488,1.516023874282837
1777561107811476200,13.521476318359374,1.4689106941223145,-4.569858551025391,1.0120779275894165
1777561107830005200,13.540005126953124,3.0841288566589355,-2.055182456970215,0.6204290390014648
1777561107848534000,13.558533935546874,4.770312309265137,-1.1768827438354492,1.1049976348876953
1777561107867063000,13.57706298828125,5.33607292175293,-1.7316904067993164,1.564725637435913
1777561107885591800,13.595591796875,5.1962103843688965,-3.9317426681518555,-0.34754645824432373
1777561107904120800,13.614120849609375,5.416281700134277,-5.026767730712891,-1.6005069017410278
1777561107922649900,13.63264990234375,4.954556941986084,-5.349800109863281,-1.9108744859695435
1777561107941178600,13.6511787109375,4.665628433227539,-5.254552841186523,-2.613762378692627
1777561107959707600,13.669707763671875,-0.5437265634536743,-4.786741256713867,-1.7624469995498657
1777561107978236700,13.688236572265625,-10.29440689086914,-2.123225212097168,-0.04141545295715332
1777561107996765400,13.706765380859375,-12.73100471496582,1.206298828125,-0.05256366729736328
1777561108015294500,13.72529443359375,-7.39798641204834,3.814121723175049,2.599712610244751
1777561108033823500,13.743823486328125,-4.704577922821045,2.6107263565063477,3.5508222579956055
1777561108052352300,13.762352294921875,-3.396606206893921,0.19809913635253906,3.1576766967773438
1777561108070881300,13.78088134765625,0.11549854278564453,-2.4219913482666016,0.09541761875152588
1777561108089410300,13.799410400390625,-2.244401454925537,-2.663877487182617,-2.2461001873016357
1777561108107939300,13.817939208984376,-5.680412292480469,-0.6515121459960938,-1.9821197986602783
1777561108126468000,13.836468017578126,-7.282029151916504,1.513826847076416,-1.4628925323486328
1777561108144997000,13.8549970703125,-7.684510231018066,3.157594680786133,-1.378159761428833
1777561108163526000,13.87352587890625,-5.799915313720703,4.7742919921875,-0.8676350116729736
1777561108182055000,13.892054931640626,-5.025028228759766,5.478795051574707,-0.649097204208374
1777561108200584000,13.910583984375,-4.905484676361084,4.075479507446289,-0.6997058391571045
1777561108219113000,13.929113037109374,-4.920958995819092,1.9859607219696045,-0.41756367683410645
1777561108237641700,13.947641845703124,-5.2080793380737305,1.4853181838989258,0.1440894603729248
1777561108256170800,13.966170654296874,-4.835209846496582,2.081907272338867,0.293626070022583
1777561108274699500,13.984699462890624,-4.486059188842773,2.9930906295776367,0.14783358573913574
1777561108293228500,14.003228515625,-4.096750736236572,3.9463062286376953,-0.1437983512878418
1777561108311757600,14.021757568359375,-2.0392441749572754,5.188093185424805,-0.4392545223236084
1777561108330286600,14.04028662109375,10.872485160827637,6.588724136352539,2.230929374694824
1777561108348815400,14.0588154296875,3.1578474044799805,2.0458006858825684,5.66765832901001
1777561108367344400,14.077344482421875,6.335690021514893,-5.778785228729248,4.921146869659424
1777561108385873200,14.095873046875,-3.1091976165771484,-13.895578384399414,-2.1483795642852783
1777561108404402200,14.114402099609375,-5.320234298706055,-10.735026359558105,5.563044548034668
1777561108422931200,14.13293115234375,0.20976543426513672,-2.9830737113952637,3.283851146697998
1777561108441460200,14.151460205078125,0.7888665199279785,3.160308361053467,2.683332920074463
1777561108459989000,14.169989013671875,-2.3208272457122803,4.290383338928223,1.0595245361328125
1777561108478518000,14.18851806640625,-3.2908716201782227,2.774148941040039,0.6125946044921875
1777561108497047000,14.207047119140626,-2.9424352645874023,0.3768339157104492,-0.007372379302978516
1777561108515576000,14.225576171875,-2.5487260818481445,-1.1547317504882812,0.07300198078155518
1777561108534104800,14.244104736328126,-2.0985798835754395,-2.516450881958008,-0.11386680603027344
1777561108552633900,14.2626337890625,-2.0984079837799072,-4.248655319213867,-0.35997462272644043
1777561108571162600,14.28116259765625,-1.7945668697357178,-5.066878318786621,-0.05768394470214844
1777561108589691600,14.299691650390624,-2.8532042503356934,-4.365542411804199,-2.2645907402038574
1777561108608220700,14.318220703125,-0.8101109266281128,-1.0467948913574219,-3.8786044120788574
1777561108626749700,14.336749755859374,-0.04448497295379639,0.4157705307006836,-5.2997331619262695
1777561108645278500,14.355278564453124,1.0922722816467285,0.59014892578125,-4.090785503387451
1777561108663807500,14.373807373046875,2.073861598968506,1.6346311569213867,-1.409761905670166
1777561108682336500,14.39233642578125,1.0239366292953491,2.9066734313964844,0.5026340484619141
1777561108700865500,14.410865478515625,-0.5134081840515137,3.533930778503418,1.1652977466583252
1777561108719394300,14.429394287109375,-0.026530563831329346,2.539486885070801,-0.07074928283691406
1777561108737923300,14.44792333984375,1.7757692337036133,1.5936288833618164,-0.9320105910301208
1777561108756452400,14.466452392578125,3.2258400917053223,1.1705513000488281,-0.7902440428733826
1777561108774981400,14.4849814453125,2.135568380355835,0.6745786666870117,0.05781102180480957
1777561108793510100,14.50351025390625,1.9279742240905762,0.05698585510253906,-0.7324712872505188
1777561108812039200,14.5220390625,2.2090699672698975,-0.09027290344238281,-1.7080532312393188
1777561108830568200,14.540568115234375,2.3674473762512207,-0.1638326644897461,-2.5170042514801025
1777561108849097200,14.55909716796875,1.963120937347412,-0.04758739471435547,-2.5327630043029785
1777561108867626000,14.5776259765625,1.0588105916976929,-0.1618814468383789,-1.975330114364624
1777561108886155000,14.596155029296876,0.6332288980484009,-1.3326940536499023,-1.9310779571533203
1777561108904683800,14.614683837890626,-0.2816481590270996,-2.4780540466308594,-1.5534706115722656
1777561108923213000,14.633213134765626,-1.9796478748321533,-4.145567893981934,-1.3287181854248047
1777561108941741800,14.651741943359376,0.966833233833313,-6.238039016723633,0.023862719535827637
1777561108960270800,14.670270751953124,3.063560962677002,-9.352579116821289,1.5425386428833008
1777561108978799600,14.688799560546874,3.326190948486328,-8.159627914428711,2.481685161590576
1777561108997328600,14.70732861328125,2.3924667835235596,-5.612421989440918,1.2339614629745483
1777561109015857700,14.725857666015624,2.670658588409424,-2.9472389221191406,-0.33174967765808105
1777561109034386700,14.74438671875,4.127335548400879,-1.1498336791992188,-0.949163556098938
1777561109052915700,14.762915771484375,5.432763576507568,-1.4368934631347656,-0.552719235420227
1777561109071444500,14.781444580078125,6.298586845397949,-3.182723045349121,-1.9929141998291016
1777561109089973500,14.799973388671875,7.503152370452881,-4.545903205871582,-3.141134262084961
1777561109108502500,14.81850244140625,5.911694526672363,-6.084184646606445,-4.448053359985352
1777561109127031600,14.837031494140625,2.6599059104919434,-7.371630668640137,-5.284791946411133
1777561109145560600,14.855560546875,-5.451761245727539,-6.369381904602051,-0.8554160594940186
1777561109164089300,14.87408935546875,-11.864930152893066,-2.538278579711914,3.3120930194854736
1777561109182618400,14.892618408203125,-11.279316902160645,2.283125877380371,7.544855117797852
1777561109201147400,14.9111474609375,-4.312493324279785,5.328444004058838,10.549714088439941
1777561109219676400,14.929676513671875,-5.723769664764404,3.3062081336975098,4.617878437042236
1777561109238205200,14.948205078125,-0.8171463012695312,-0.7199554443359375,-1.0827022790908813
1777561109256734200,14.966734130859376,2.9630494117736816,-3.86175537109375,-4.783620834350586
1777561109275263200,14.98526318359375,-3.823648691177368,-3.654059886932373,-5.908260345458984
1777561109293792000,15.0037919921875,-7.111907482147217,-1.3420896530151367,-3.340876579284668
1777561109312321000,15.022321044921876,-7.696173667907715,0.03423738479614258,-1.1841380596160889
1777561109330850000,15.04085009765625,-7.545358657836914,1.396841049194336,0.49365925788879395
1777561109349379000,15.059379150390624,-6.180567264556885,3.5361928939819336,0.5340158939361572
1777561109367907800,15.077907958984374,-6.1531758308410645,5.610157489776611,-0.5137221813201904
1777561109386436900,15.096436767578124,-6.168769836425781,5.313878536224365,-1.2282893657684326
1777561109404966000,15.1149658203125,-5.815541744232178,3.760484457015991,-1.6780235767364502
1777561109423495000,15.133494873046875,-5.574035167694092,2.8414249420166016,-1.9544841051101685
1777561109442023700,15.152023681640625,-5.245479583740234,2.8785617351531982,-1.8502717018127441
1777561109460552700,15.170552734375,-5.315649509429932,3.9729275703430176,-1.0776517391204834
1777561109479081700,15.189081787109375,-3.953390598297119,5.304293155670166,0.13906240463256836
1777561109497610800,15.20761083984375,6.6773247718811035,7.133691787719727,1.7824528217315674
1777561109516139800,15.226139892578125,12.176298141479492,1.3795514106750488,4.900586128234863
1777561109534668800,15.244668701171875,-6.6762309074401855,-8.303277969360352,3.8908329010009766
1777561109553197600,15.263197509765625,6.066263198852539,-7.656582832336426,-3.701943874359131
1777561109571726600,15.2817265625,-4.104913711547852,-4.767619609832764,6.661802291870117
1777561109590255600,15.300255615234375,3.0538201332092285,-3.0777053833007812,-2.722336530685425
1777561109608784600,15.31878466796875,-0.5878381729125977,-0.6147189140319824,3.131013870239258
1777561109627313400,15.3373134765625,-0.9889764785766602,1.090461254119873,1.8451061248779297
1777561109645842400,15.355842529296876,-2.065817356109619,0.9726686477661133,0.08599257469177246
1777561109664371500,15.374371337890626,-2.0058932304382324,0.46639060974121094,-0.36682891845703125
1777561109682900500,15.392900390625,-1.9027905464172363,-0.26210784912109375,-0.05658268928527832
1777561109701429500,15.411429443359374,-2.250528573989868,-0.6362638473510742,0.8330018520355225
1777561109719958300,15.429958251953124,-2.1959609985351562,-0.7494163513183594,1.4190003871917725
1777561109738487300,15.4484873046875,-1.2163209915161133,-1.3753166198730469,1.3227914571762085
1777561109757016300,15.467016357421874,-1.3282212018966675,-2.240830421447754,0.007776141166687012
1777561109775545300,15.48554541015625,-0.8772304058074951,-2.416131019592285,-0.7004655599594116
1777561109794074400,15.504074462890625,0.18971478939056396,-1.971364974975586,-1.2978333234786987
1777561109812603400,15.522603271484375,0.40519392490386963,-1.0264453887939453,-2.0162198543548584
1777561109831132200,15.541132080078125,-0.14012324810028076,-0.24277687072753906,-2.552727699279785
1777561109849661200,15.5596611328125,-0.6831518411636353,0.6084680557250977,-2.327378273010254
1777561109868190200,15.578190185546875,-0.0824044942855835,2.3464770317077637,-1.3120797872543335
1777561109886719200,15.59671923828125,-0.9656922817230225,3.721576690673828,-0.4866085648536682
1777561109905248300,15.615248291015625,-0.8506192564964294,3.977774143218994,-0.6912007331848145
1777561109923777000,15.633777099609375,-1.0966944694519043,1.6333398818969727,-3.059680223464966
1777561109942306000,15.65230615234375,-0.32329994440078735,-1.8694133758544922,-6.057545185089111
1777561109960835000,15.6708349609375,2.2409627437591553,-3.203141212463379,-6.052870750427246
1777561109979364000,15.689364013671875,3.8534388542175293,-1.2030019760131836,-2.6782822608947754
1777561109997893000,15.70789306640625,1.8685802221298218,0.7364482879638672,0.29776835441589355
1777561110016422100,15.726422119140626,1.4364471435546875,2.1384010314941406,1.7114315032958984
1777561110034951000,15.744950927734376,2.5846107006073,2.7518386840820312,1.8686449527740479
1777561110053480000,15.76347998046875,1.5925354957580566,1.9987592697143555,0.3164104223251343
1777561110072009000,15.782009033203124,1.5222610235214233,1.3295955657958984,-0.9033575057983398
1777561110090538000,15.8005380859375,1.4200704097747803,0.7643623352050781,-1.7583587169647217
1777561110109067000,15.81906689453125,1.087432861328125,-0.03144073486328125,-1.6313939094543457
1777561110127595800,15.837595703125,1.019684076309204,-1.241903305053711,-0.9359147548675537
1777561110146125000,15.856125,1.6783918142318726,-2.545053482055664,-0.16950488090515137
1777561110164653800,15.87465380859375,2.7194201946258545,-3.1146745681762695,0.1293954849243164
1777561110183182800,15.893182861328125,3.0256855487823486,-2.998798370361328,-1.1909550428390503
1777561110201711900,15.9117119140625,3.189281940460205,-2.565378189086914,-2.669032096862793
1777561110220241000,15.930240966796875,3.362772226333618,-2.707821846008301,-3.6702775955200195
1777561110238770000,15.94877001953125,2.7654550075531006,-4.086481094360352,-3.595858573913574
1777561110257298700,15.967298583984375,1.6695622205734253,-7.530749320983887,-4.211203098297119
1777561110275827700,15.98582763671875,3.7025060653686523,-7.166182518005371,-3.6639087200164795
1777561110294356700,16.004356689453125,5.929599761962891,-5.374403953552246,-2.70326566696167
1777561110312885800,16.0228857421875,5.65352725982666,-3.6217575073242188,-2.5748844146728516
1777561110331414800,16.041414794921874,3.6594395637512207,-1.3826017379760742,-2.2882795333862305
1777561110349943800,16.05994384765625,0.10322630405426025,-0.11921310424804688,-2.630622148513794
1777561110368472800,16.078472900390626,-3.1906135082244873,0.2890300750732422,-2.7232189178466797
1777561110387001600,16.097001708984376,-5.24191951751709,-0.8924341201782227,-2.421231985092163
1777561110405531000,16.11553076171875,-5.2688751220703125,-3.390475273132324,-1.8807239532470703
1777561110424059600,16.1340595703125,-6.499261856079102,-3.3319759368896484,-5.426082611083984
1777561110442588700,16.152588623046874,-0.9331169128417969,-4.578084945678711,0.9344160556793213
1777561110461117700,16.17111767578125,-1.495347261428833,-2.799920082092285,0.7184326648712158
1777561110479646700,16.189646728515626,-3.869652271270752,-3.0677671432495117,-3.503119945526123
1777561110498175700,16.20817578125,-5.864269256591797,-2.3941879272460938,-4.093279838562012
1777561110516704800,16.226704833984375,-3.3781542778015137,-0.8491306304931641,-2.8845112323760986
1777561110535233800,16.24523388671875,-4.912733554840088,-0.9590539932250977,-2.307351589202881
1777561110553762600,16.263762451171875,-6.827710151672363,-0.9309835433959961,-0.9885101318359375
1777561110572291600,16.28229150390625,-7.631374835968018,-0.8717718124389648,-0.6549036502838135
1777561110590820600,16.300820556640623,-7.059776306152344,-1.0931396484375,-0.8218083381652832
1777561110609349600,16.319349609375,-5.921699047088623,-0.2353229522705078,-0.4011845588684082
1777561110627878700,16.337878662109375,-6.043080806732178,1.0800466537475586,-0.32425689697265625
1777561110646407700,16.35640771484375,-5.461617469787598,2.2443761825561523,-0.7150635719299316
1777561110664936700,16.374936767578124,-4.353531837463379,3.245616912841797,-0.12610578536987305
1777561110683465700,16.3934658203125,-4.219776630401611,3.966311454772949,0.6820101737976074
1777561110701994500,16.411994384765624,-4.15263557434082,5.243359088897705,0.5435805320739746
1777561110720523800,16.430523681640626,-3.66330885887146,6.169610977172852,-0.5219388008117676
1777561110739052500,16.449052490234376,-2.4820423126220703,6.3369646072387695,-1.2189875841140747
1777561110757581600,16.46758154296875,-0.6357321739196777,5.655677795410156,-0.7629742622375488
1777561110776110600,16.486110595703124,2.0989372730255127,4.7307820320129395,0.8627581596374512
1777561110794639600,16.5046396484375,7.692862510681152,2.0206241607666016,2.413626194000244
1777561110813168600,16.523168701171876,14.997685432434082,-6.231731414794922,1.7772431373596191
1777561110831697700,16.54169775390625,6.6587934494018555,-21.109107971191406,-3.475985527038574
1777561110850226700,16.560226806640625,1.2385015487670898,-15.275908470153809,-3.5463545322418213
1777561110868755700,16.578755615234375,0.7797050476074219,-1.2630491256713867,-0.8178532123565674
1777561110887284700,16.59728466796875,-1.724531888961792,6.480906009674072,0.8736770153045654
1777561110905813800,16.615813720703127,-0.4611659049987793,10.956860542297363,2.6534199714660645
1777561110924342500,16.634342529296877,4.4031982421875,8.668625831604004,0.995319128036499
1777561110942871800,16.652871826171875,-1.7823588848114014,2.0774950981140137,2.01723575592041
1777561110961400600,16.671400634765625,-1.1457488536834717,-6.4171905517578125,12.375185012817383
1777561110979929600,16.6899296875,-13.465201377868652,-11.101600646972656,4.2846269607543945
1777561110998458600,16.708458740234374,-7.316216945648193,-3.5736875534057617,-1.813148021697998
1777561111016987600,16.726987548828124,-1.5715487003326416,1.3393096923828125,-2.8431482315063477
1777561111035516700,16.7455166015625,-5.929404258728027,4.827164649963379,-4.801568031311035
1777561111054045700,16.764045654296876,-7.247966289520264,2.540947914123535,-5.461185455322266
1777561111072574700,16.78257470703125,-5.435152053833008,-4.707616806030273,-5.133171558380127
1777561111091103700,16.801103759765624,-2.9073665142059326,-7.27154541015625,-5.581661224365234
1777561111109632800,16.8196328125,-1.5339550971984863,-6.847405433654785,-6.42981481552124
1777561111128161800,16.838161865234376,-0.8711574673652649,-3.0716934204101562,-4.629561424255371
1777561111146690800,16.85669091796875,-0.11768007278442383,0.37432003021240234,-1.9148268699645996
1777561111165219800,16.8752197265625,-0.6147141456604004,3.8716349601745605,1.8127695322036743
1777561111183748900,16.893748779296875,-1.7392462491989136,3.3231539726257324,3.6601638793945312
1777561111202278000,16.91227783203125,-0.7787108421325684,2.940648078918457,4.111412048339844
1777561111220807000,16.930806884765627,0.5940345525741577,2.325575351715088,2.9553208351135254
1777561111239336000,16.9493359375,0.4743605852127075,0.5901460647583008,-0.14255249500274658
1777561111257865000,16.967864990234375,2.4191761016845703,-0.3582496643066406,-2.0882649421691895
1777561111276394000,16.98639404296875,3.8998031616210938,0.22309017181396484,-2.430084466934204
1777561111294923000,17.004923095703123,2.3524153232574463,0.7899169921875,-2.794257879257202
1777561111313452000,17.0234521484375,-1.3967474699020386,1.0265092849731445,-2.6040854454040527
1777561111331981000,17.04198095703125,-2.451298952102661,0.845555305480957,-1.727772831916809
1777561111350509800,17.060509765625,1.242823839187622,-0.5418519973754883,-1.9638690948486328
1777561111369039000,17.0790390625,3.486495018005371,-1.4146747589111328,-2.4520976543426514
1777561111387568000,17.097568115234374,3.3299901485443115,-2.0793027877807617,-2.9224843978881836
1777561111406097000,17.116096923828124,3.4586362838745117,-2.307955741882324,-1.8943617343902588
1777561111424626200,17.134626220703126,3.574209690093994,-2.1055564880371094,1.6339495182037354
1777561111443155000,17.153155029296876,2.6569159030914307,-1.8821544647216797,6.049042701721191
1777561111461684200,17.171684326171874,0.5914459228515625,-1.456930160522461,4.013326168060303
1777561111480213200,17.190213134765624,-0.09867143630981445,-2.998912811279297,-4.405158042907715
1777561111498742000,17.208741943359374,1.324240803718567,-5.310359954833984,-8.936121940612793
1777561111517271300,17.227271240234376,4.839452743530273,-6.859957695007324,-9.272216796875
1777561111535800000,17.245800048828126,5.501266956329346,-7.4483537673950195,-7.040135383605957
1777561111554329000,17.2643291015625,3.1501026153564453,-7.5733232498168945,-4.235324382781982
1777561111582122800,17.292122802734376,0.9210179448127747,-2.9572153091430664,-4.8496012687683105
1777561111600651800,17.31065185546875,2.537142753601074,-0.22628116607666016,-3.9022345542907715
1777561111619180800,17.329180908203124,2.371887683868408,-0.6236991882324219,-2.3122639656066895
1777561111637709800,17.347709716796874,-1.3555874824523926,-3.477200508117676,-1.5412348508834839
1777561111656238800,17.36623876953125,-4.288103103637695,-6.287327766418457,0.13907408714294434
1777561111674768000,17.384767822265626,-5.5282721519470215,-7.794807434082031,1.387987494468689
1777561111693297000,17.403296875,-7.383194923400879,-7.113034248352051,0.9430038928985596
1777561111711826000,17.421825927734375,-5.591994285583496,-5.233412742614746,-0.6748930215835571
1777561111730355000,17.44035498046875,-2.137101650238037,-4.432741165161133,-3.6658623218536377
1777561111748884000,17.458884033203127,0.9767501354217529,-7.086336135864258,-7.826378345489502
1777561111767413000,17.4774130859375,-2.222468614578247,-9.0205078125,-6.511654853820801
1777561111785942000,17.49594189453125,-10.986455917358398,-7.62843132019043,-0.5894207954406738
1777561111804471000,17.514470947265625,-15.152772903442383,-6.461948394775391,0.8391819000244141
1777561111823000000,17.533,-8.16641616821289,-5.15098762512207,0.5351381301879883
1777561111841529000,17.551529052734374,-7.189012050628662,-2.5315256118774414,0.5775341987609863
1777561111860058000,17.57005810546875,-8.597406387329102,0.8393950462341309,0.3802611827850342
1777561111878587100,17.588587158203126,-9.003095626831055,1.899017333984375,0.8634684085845947
1777561111897116200,17.6071162109375,-7.2615766525268555,2.9916396141052246,1.0972752571105957
1777561111915645400,17.6256455078125,-5.49724006652832,3.2908482551574707,-0.4571409225463867
1777561111934174200,17.64417431640625,-5.01440954208374,2.6834774017333984,-2.476142168045044
1777561111952703500,17.662703369140626,-4.930978775024414,2.3250749111175537,-3.597639560699463
1777561111980497000,17.690496826171874,-3.809846878051758,3.233506202697754,-1.8318710327148438
1777561111999026000,17.70902587890625,-3.558046579360962,3.990935802459717,-1.349013090133667
1777561112017555000,17.727554931640626,-2.7158894538879395,4.701996326446533,-1.2246613502502441
1777561112036084000,17.746083984375,-1.5646839141845703,4.570427894592285,-1.9451079368591309
1777561112054613000,17.764613037109374,-2.313784599304199,4.988908767700195,-2.779355525970459
1777561112073142000,17.78314208984375,-1.5289325714111328,5.007152080535889,-3.6272261142730713
1777561112091671300,17.80167138671875,7.493237018585205,4.969858646392822,1.0562880039215088
1777561112110200000,17.820199951171876,6.9437785148620605,-4.028665065765381,4.462900161743164
1777561112128729000,17.83872900390625,5.109676361083984,-6.907428741455078,5.462729454040527
1777561112147258400,17.85725830078125,-2.9958858489990234,-12.459298133850098,0.03835177421569824
1777561112165787400,17.875787353515626,-10.996772766113281,-9.022377014160156,7.861148834228516
1777561112184316400,17.89431640625,-3.535155773162842,-3.8167014122009277,5.59620475769043
1777561112202845400,17.912845458984375,-2.995387077331543,2.2412519454956055,2.03523588180542
1777561112221374500,17.93137451171875,-5.962751865386963,3.722311496734619,0.8941464424133301
1777561112239903500,17.949903564453123,-6.283699035644531,1.9147820472717285,2.3268637657165527
1777561112258432500,17.9684326171875,-4.959219932556152,-0.46488475799560547,3.541836977005005
1777561112276961500,17.98696142578125,-4.3283514976501465,-3.569427490234375,4.330791473388672
1777561112295490600,18.005490478515625,-4.093857765197754,-6.805891990661621,2.644000768661499
1777561112314019800,18.024019775390624,-5.355573654174805,-6.065066337585449,-0.6478142738342285
1777561112332548900,18.042548828125,-5.387073516845703,-4.437690734863281,-3.3722338676452637
1777561112351077600,18.06107763671875,-3.1843860149383545,-4.24838924407959,-6.892157077789307
1777561112369607000,18.07960693359375,0.12820196151733398,-3.1799421310424805,-8.043109893798828
1777561112388136000,18.098135986328124,-0.8194383382797241,-2.7844953536987305,-7.527647972106934
1777561112406691600,18.116691650390624,1.551100254058838,-1.2242326736450195,-4.196281433105469
1777561112425194000,18.135194091796876,5.1966166496276855,0.9996986389160156,-0.3235529661178589
1777561112443723000,18.153722900390626,1.8459020853042603,1.4420404434204102,2.5874388217926025
1777561112462252000,18.172251953125,0.3533952832221985,1.7288036346435547,2.740701675415039
1777561112480781300,18.19078125,1.1012153625488281,2.256565570831299,2.659346342086792
1777561112499310300,18.209310302734377,2.4602789878845215,1.6056690216064453,2.3034558296203613
1777561112517839400,18.22783935546875,2.7104578018188477,0.47464466094970703,0.415502667427063
1777561112536368400,18.246368408203125,1.380104660987854,1.3524818420410156,-0.3766314387321472
1777561112554897400,18.2648974609375,0.16357696056365967,2.901829719543457,-0.8871865272521973
1777561112573426400,18.283426513671873,0.08897650241851807,2.4478096961975098,-2.024836540222168
1777561112591955500,18.30195556640625,0.2393341064453125,0.7470035552978516,-2.5624661445617676
1777561112610484700,18.320484619140625,0.5242995023727417,-1.1762332916259766,-3.0036137104034424
1777561112629013800,18.339013671875,1.0871585607528687,-2.202838897705078,-2.6153435707092285
1777561112647542800,18.357542724609374,1.3290457725524902,-2.389404296875,-1.523952841758728
1777561112666071800,18.37607177734375,0.43604373931884766,-3.623373031616211,-0.5934064388275146
1777561112684600800,18.394600830078126,2.899214029312134,-6.926897048950195,-0.9953116178512573
1777561112703130000,18.413130126953124,3.244955539703369,-9.260858535766602,-0.39086562395095825
1777561112721659100,18.4316591796875,2.4206857681274414,-7.831635475158691,0.8740216493606567
1777561112740188200,18.450188232421876,2.578829765319824,-5.220410346984863,1.913919448852539
1777561112758717200,18.46871728515625,2.622750759124756,-2.966750144958496,0.3808954954147339
1777561112777246200,18.48724609375,3.6398587226867676,-1.755354881286621,-0.8552443385124207
1777561112795775200,18.505775146484375,4.99762487411499,-2.8882246017456055,-1.7898163795471191
1777561112814304500,18.524304443359377,5.980593204498291,-4.694039344787598,-2.9932878017425537
1777561112832833500,18.54283349609375,6.42896842956543,-6.522054672241211,-4.358299255371094
1777561112851362600,18.561362548828125,2.0345160961151123,-7.447283744812012,-4.785953521728516
1777561112869891600,18.5798916015625,-4.984244346618652,-7.236955642700195,-2.554514169692993
1777561112888420900,18.5984208984375,-10.20921802520752,-5.2394914627075195,1.5280954837799072
1777561112906950000,18.616949951171875,-10.408076286315918,-1.6436491012573242,3.2638649940490723
1777561112925479000,18.63547900390625,-6.312506675720215,2.002483367919922,4.647217750549316
1777561112944008200,18.65400830078125,-8.013420104980469,2.6097073554992676,3.7514448165893555
1777561112962537200,18.672537109375,-4.096331596374512,1.4728999137878418,1.7533347606658936
1777561112981066200,18.691066162109376,-1.2954463958740234,-0.40543508529663086,0.08203005790710449
1777561112999595500,18.709595458984374,-4.551602840423584,-0.8572149276733398,-1.9309732913970947
1777561113018124500,18.72812451171875,-5.3482985496521,-0.650970458984375,-2.2046549320220947
1777561113036653600,18.746653564453126,-7.60618257522583,1.622018814086914,-0.9527685642242432
1777561113055182800,18.765182861328125,-8.391242027282715,3.6171555519104004,-0.41727662086486816
1777561113073711900,18.7837119140625,-7.86221981048584,4.781198501586914,-0.1961815357208252
1777561113092241000,18.802240966796877,-7.199043273925781,5.468112468719482,-0.7871897220611572
1777561113110770000,18.82077001953125,-6.32876443862915,5.55141019821167,-0.9724709987640381
1777561113129299200,18.83929931640625,-5.903325080871582,5.046499252319336,-0.836806058883667
1777561113147828200,18.857828125,-5.404966354370117,4.738400459289551,-0.677819013595581
1777561113166357500,18.876357421875,-4.772391319274902,4.530116081237793,-0.6821978092193604
1777561113184886500,18.894886474609375,-0.3693842887878418,5.450653076171875,0.4980189800262451
1777561113203415600,18.91341552734375,19.275924682617188,6.26576042175293,5.929059028625488
1777561113221944800,18.93194482421875,-18.301206588745117,-4.249168395996094,1.5632169246673584
1777561113240473900,18.950473876953126,16.61707878112793,-10.68679428100586,-3.1532669067382812
1777561113259003100,18.969003173828124,-9.604181289672852,-14.32142162322998,2.60768461227417
1777561113277532200,18.9875322265625,-1.71187162399292,-10.031641006469727,4.590312480926514
1777561113296061200,19.006061279296876,0.570746898651123,-1.4803509712219238,2.9711287021636963
1777561113314590500,19.024590576171875,-0.6371583938598633,4.296932697296143,0.7677769660949707
1777561113333119700,19.04311962890625,-2.6102311611175537,5.791809558868408,0.9184558391571045
1777561113351648800,19.061648681640627,-3.253873348236084,4.245612144470215,0.8569154739379883
1777561113370177800,19.080177734375,-4.197161674499512,1.397170066833496,0.6556060314178467
1777561113388707000,19.09870703125,-2.969391345977783,-2.3390283584594727,1.1427834033966064
1777561113407236000,19.117236083984373,-1.6112470626831055,-6.472528457641602,0.7696512937545776
1777561113425765400,19.135765380859375,-0.8971202373504639,-9.071161270141602,-0.6036269664764404
1777561113444294400,19.15429443359375,-0.9854878187179565,-4.27371883392334,-1.6604125499725342
1777561113481353000,19.19135302734375,0.6481175422668457,1.282257080078125,-3.6432924270629883
1777561113499882000,19.209882080078124,1.7250850200653076,2.2210707664489746,-2.7581162452697754
1777561113518411300,19.228411376953126,1.0357003211975098,3.1196460723876953,-0.7169286012649536
1777561113536940300,19.246940185546876,0.29047131538391113,3.7582311630249023,1.0739668607711792
1777561113555469600,19.265469482421874,-0.8848825097084045,2.800912857055664,0.9098444581031799
1777561113573998600,19.28399853515625,-0.7607719898223877,0.3856334686279297,-0.9110137820243835
1777561113592528000,19.30252783203125,2.981146812438965,-0.5455560684204102,-1.4196219444274902
1777561113611057000,19.321056884765625,3.227299690246582,0.21602344512939453,-0.9911433458328247
1777561113629586200,19.339586181640627,1.8034677505493164,0.8088855743408203,-0.8036113977432251
1777561113648115500,19.358115478515625,1.4393759965896606,1.1389398574829102,-0.48150312900543213
1777561113666644500,19.37664453125,2.16754150390625,1.0553388595581055,-0.4845198392868042
1777561113685173800,19.395173828125,2.121302366256714,0.5814027786254883,-0.44195401668548584
1777561113703702800,19.413702880859375,2.1747384071350098,-0.35286712646484375,-0.7742403149604797
1777561113722232000,19.432232177734374,2.1441869735717773,-1.542984962463379,-1.8594894409179688
1777561113740761300,19.45076123046875,1.047349452972412,-2.2139997482299805,-1.8136770725250244
1777561113759290400,19.469290283203126,-0.20442044734954834,-3.485093116760254,-1.448176622390747
1777561113777819600,19.487819580078124,-2.2076449394226074,-4.566930770874023,-1.457664132118225
1777561113796349000,19.506348876953126,0.465282678604126,-5.380521774291992,-0.5372610092163086
1777561113814878000,19.5248779296875,2.120758533477783,-7.215653419494629,0.8718681335449219
1777561113833407200,19.5434072265625,3.424528121948242,-5.8770952224731445,1.8298546075820923
1777561113851936500,19.5619365234375,3.0599584579467773,-4.971479415893555,0.5686659812927246
1777561113870465500,19.580465576171875,3.565309524536133,-2.4971323013305664,-0.611133873462677
1777561113888994800,19.598994873046873,4.611395359039307,-0.6824674606323242,-0.5653399229049683
1777561113907524000,19.617524169921875,5.637426853179932,-1.14208984375,-0.5238049626350403
1777561113926053400,19.636053466796874,7.431015968322754,-3.376941680908203,-1.5691643953323364
1777561113944582700,19.654582763671876,8.465716361999512,-5.642523765563965,-2.065537929534912
1777561113963111700,19.673111572265626,7.123068809509277,-8.105379104614258,-3.02575421333313
1777561113981641000,19.691640869140624,2.564649820327759,-8.21544075012207,-1.0998163223266602
1777561114000170200,19.710170166015626,-5.493542671203613,-5.422473907470703,3.6116325855255127
1777561114018699500,19.728699462890624,-12.423966407775879,-1.7869348526000977,3.746941089630127
1777561114037228800,19.747228759765626,-13.215080261230469,3.166505813598633,5.426175117492676
1777561114055757800,19.7657578125,-13.98869800567627,3.9028730392456055,4.262302398681641
1777561114074287000,19.784287109375,-0.7248797416687012,0.6411733627319336,-0.11295461654663086
1777561114092816400,19.80281640625,6.813711643218994,-3.2312564849853516,-3.700875759124756
1777561114111345700,19.821345703125,-3.1048102378845215,-3.6790342330932617,-4.826037406921387
1777561114129875000,19.839875,-6.637170791625977,-2.4009780883789062,-3.3886547088623047
1777561114148404200,19.858404296875,-9.011242866516113,-0.24563837051391602,-2.581331968307495
1777561114166933200,19.876933349609374,-9.344046592712402,2.555319309234619,-1.6048519611358643
1777561114185462500,19.895462646484376,-7.666447639465332,6.24973726272583,-0.40613245964050293
1777561114203991800,19.91399169921875,-6.700674057006836,7.317332744598389,-1.4396026134490967
1777561114222521000,19.93252099609375,-6.2983598709106445,6.132777214050293,-1.628950834274292
1777561114241050400,19.95105029296875,-6.198729991912842,4.665802001953125,-1.243293285369873
1777561114259579400,19.969579345703124,-5.865448951721191,4.233281135559082,-1.5647077560424805
1777561114278108700,19.988108642578126,-5.5131449699401855,4.950730800628662,-2.0093281269073486
1777561114296638000,20.006637939453125,-1.6212162971496582,7.122267246246338,0.44779348373413086
1777561114315167200,20.025167236328127,13.407220840454102,9.302129745483398,7.706412315368652
1777561114333696500,20.043696533203125,-4.937655448913574,-1.9102764129638672,8.673376083374023
1777561114352225800,20.062225830078123,17.202713012695312,-13.275012969970703,1.142155408859253
1777561114370755000,20.080755126953125,-10.25944709777832,-16.766895294189453,-5.171421527862549
1777561114389284400,20.099284423828124,-1.6835098266601562,-10.887081146240234,4.400454521179199
1777561114407813600,20.117813720703126,-1.3082308769226074,-2.4356799125671387,1.016251564025879
1777561114426343000,20.136343017578124,-0.4896717071533203,4.295721054077148,0.7340455055236816
1777561114444872200,20.1548720703125,-0.24841785430908203,6.206256866455078,1.1941313743591309
1777561114463401500,20.1734013671875,-2.6150338649749756,4.924709320068359,0.04365134239196777
1777561114481930800,20.1919306640625,-2.947533130645752,2.7695374488830566,0.23587346076965332
1777561114500460000,20.2104599609375,-2.511176586151123,0.9347715377807617,1.1867783069610596
1777561114518989300,20.2289892578125,-2.6099095344543457,-2.5020389556884766,1.8129613399505615
1777561114537518600,20.2475185546875,-3.2754616737365723,-8.34359073638916,0.7370724678039551
1777561114556048000,20.2660478515625,-2.536827564239502,-10.246973991394043,-2.3173599243164062
1777561114574577200,20.2845771484375,-0.8277151584625244,-3.7730321884155273,-3.3807952404022217
1777561114593106700,20.303106689453124,1.0657932758331299,0.3600273132324219,-4.47064208984375
1777561114611636000,20.321635986328126,1.9023830890655518,2.2296972274780273,-3.7495579719543457
1777561114630165200,20.340165283203124,1.4153870344161987,2.692140579223633,-1.341770052909851
1777561114648694500,20.358694580078126,0.5571936964988708,2.9523887634277344,1.2333848476409912
1777561114667223800,20.377223876953124,0.11994731426239014,3.1654887199401855,2.409102201461792
1777561114685753000,20.395753173828126,-0.18725062906742096,2.027298927307129,0.36673790216445923
1777561114704282400,20.414282470703125,1.0834767818450928,-0.023771286010742188,-2.294734001159668
1777561114722811600,20.432811767578126,3.8247087001800537,0.07856273651123047,-2.7984747886657715
1777561114741341200,20.451341064453125,2.643845319747925,1.208836555480957,-1.140033483505249
1777561114759870500,20.469870361328127,1.0325381755828857,1.1025161743164062,-0.288059800863266
1777561114778399700,20.488399658203125,1.4455294609069824,-0.12427711486816406,-0.3487902283668518
1777561114796929000,20.506928955078124,1.8369371891021729,0.030610084533691406,-0.5755707025527954
1777561114815458300,20.525458251953125,2.226541042327881,0.48305606842041016,-0.9950886964797974
1777561114833987600,20.543987548828124,1.251044750213623,0.4589881896972656,-1.1849217414855957
1777561114852517000,20.56251708984375,0.755139946937561,0.6987953186035156,-1.3526086807250977
1777561114871046400,20.58104638671875,1.2886945009231567,0.0120849609375,-1.3703008890151978
1777561114889575700,20.59957568359375,0.2627376317977905,-1.858992576599121,-1.2500970363616943
1777561114908105000,20.61810498046875,-0.019063591957092285,-3.100322723388672,-0.4826759099960327
1777561114926634200,20.63663427734375,-1.0858324766159058,-4.81856632232666,-0.3382192850112915
1777561114945163800,20.655163818359377,0.9994978904724121,-7.054965972900391,-0.8353205323219299
1777561114963693000,20.673693115234375,3.712705373764038,-8.3488187789917,0.7464425563812256
1777561114982222300,20.692222412109373,3.5448708534240723,-6.260501861572266,1.8795619010925293
1777561115000751600,20.710751708984375,2.4524331092834473,-4.858100891113281,1.2788288593292236
1777561115019281200,20.72928125,3.1172945499420166,-2.7998313903808594,-0.23274266719818115
1777561115037810400,20.747810546875,4.14778470993042,-1.2249135971069336,-0.9472629427909851
1777561115056339700,20.766339599609374,4.684229850769043,-0.9557886123657227,-0.8822278380393982
1777561115074869000,20.784868896484376,5.471756935119629,-2.770480155944824,-0.8232451677322388
1777561115093398500,20.8033984375,6.389766693115234,-5.164067268371582,-1.3193128108978271
1777561115111927800,20.821927734375,6.504647254943848,-6.921613693237305,-2.3115267753601074
1777561115130457000,20.84045703125,4.284025192260742,-6.844267845153809,-2.531836986541748
1777561115148986600,20.858986572265625,-3.0131537914276123,-4.908355712890625,-0.37304145097732544
1777561115167516000,20.877515869140623,-9.663887977600098,-2.80887508392334,0.938636064529419
1777561115186045200,20.896045166015625,-12.628389358520508,0.40741539001464844,2.6511683464050293
1777561115204574700,20.91457470703125,-10.81389331817627,3.077467918395996,4.062877655029297
1777561115223104000,20.93310400390625,-9.133000373840332,2.2972350120544434,3.102444648742676
1777561115241633300,20.95163330078125,2.132425308227539,-0.5261726379394531,1.4850740432739258
1777561115260162800,20.970162841796874,0.9949455261230469,-0.9868626594543457,-0.6355817317962646
1777561115278692000,20.988692138671876,-4.423974990844727,-0.51397705078125,-2.160435199737549
1777561115297221400,21.007221435546874,-7.748517036437988,0.8622951507568359,-1.9376673698425293
1777561115315751000,21.0257509765625,-8.470468521118164,2.2607593536376953,-1.409582495689392
1777561115334280200,21.0442802734375,-7.694980144500732,3.5050666332244873,-0.42997074127197266
1777561115352809700,21.062809814453125,-6.509544372558594,5.049295425415039,-0.0899956226348877
1777561115371339000,21.081339111328123,-6.065713882446289,5.325300216674805,-0.9578750133514404
1777561115389868300,21.099868408203125,-5.878716945648193,4.665302753448486,-1.1794745922088623
1777561115408397800,21.118397705078124,-5.972376823425293,4.408760070800781,-0.8492324352264404
1777561115426927000,21.136927001953126,-5.223557472229004,4.642502307891846,-0.601520299911499
1777561115445456400,21.155456298828124,-3.7313170433044434,5.569983005523682,0.3142685890197754
1777561115463986000,21.17398583984375,7.099679470062256,8.1390380859375,3.7712135314941406
1777561115482515500,21.192515380859376,6.851010322570801,3.675326347351074,6.377655982971191
1777561115501044700,21.211044677734375,-5.585454940795898,-6.73156213760376,5.116788864135742
1777561115519574000,21.229573974609377,4.426058292388916,-15.015687942504883,-7.0406012535095215
1777561115538103600,21.248103515625,-5.616145133972168,-10.515189170837402,7.876847267150879
1777561115556632800,21.2666328125,-0.09276294708251953,-5.63218879699707,5.890140533447266
1777561115575162000,21.285162109375,-1.6572842597961426,1.362443447113037,2.423356056213379
1777561115593691600,21.303691650390626,-1.1826071739196777,4.20834493637085,1.1775097846984863
1777561115612221200,21.32222119140625,-2.3847646713256836,4.255496978759766,0.5737848281860352
1777561115630750500,21.34075048828125,-3.9860711097717285,2.429135322570801,-0.8316127061843872
1777561115649280000,21.359280029296876,-3.7675628662109375,0.34172725677490234,-1.231879711151123
1777561115667809300,21.377809326171874,-3.0849545001983643,-2.361538887023926,-0.7516257762908936
1777561115686338600,21.396338623046876,-2.9927761554718018,-9.549402236938477,-2.4895071983337402
1777561115704868000,21.4148681640625,-1.550382375717163,-12.976775169372559,-3.837730884552002
1777561115723397600,21.433397705078125,1.5198278427124023,-4.038466453552246,-3.931839942932129
1777561115741927000,21.451927001953123,1.4646766185760498,0.5343809127807617,-4.075438499450684
1777561115760456400,21.47045654296875,1.2690541744232178,2.266977310180664,-2.6431772708892822
1777561115778985700,21.48898583984375,1.318440318107605,3.447585105895996,-0.05374908447265625
1777561115797515300,21.507515380859374,0.7232378125190735,4.537450790405273,2.7334096431732178
1777561115816044500,21.52604443359375,0.5818769931793213,4.368594169616699,3.2295589447021484
1777561115834574000,21.544573974609374,-0.15860357880592346,2.9363832473754883,0.6407557725906372
1777561115853103400,21.563103271484376,0.5639784932136536,0.8663740158081055,-2.598161458969116
1777561115871633000,21.5816328125,1.3656331300735474,0.12698078155517578,-3.7761220932006836
1777561115890162200,21.600162109375,1.565673589706421,1.174306869506836,-2.0626189708709717
1777561115908691700,21.618691650390623,1.8538036346435547,1.6970653533935547,-0.39804577827453613
1777561115927221000,21.637220947265625,2.329789638519287,0.6416225433349609,-0.38575583696365356
1777561115945750500,21.65575048828125,2.8570799827575684,-0.2155933380126953,-0.8214645981788635
1777561115964279800,21.67427978515625,2.2070822715759277,-0.37552452087402344,-0.5311219692230225
1777561115982809300,21.692809326171876,1.9681777954101562,0.04370689392089844,-0.17546582221984863
1777561116001339000,21.7113388671875,1.4979101419448853,0.6979589462280273,-0.7234268188476562
1777561116019868200,21.7298681640625,0.35131335258483887,0.8566513061523438,-1.5828051567077637
1777561116038397700,21.748397705078126,-0.2359485626220703,-0.5014314651489258,-2.3633670806884766
1777561116056927200,21.76692724609375,-0.1658412218093872,-1.815927505493164,-1.9847357273101807
1777561116075456500,21.78545654296875,-0.5842573642730713,-3.1085357666015625,-1.4614617824554443
1777561116093986000,21.803986083984373,-0.6788126230239868,-4.870769500732422,-1.5708707571029663
1777561116112515600,21.822515625,1.8102984428405762,-7.035492897033691,-0.15955758094787598
1777561116131044900,21.841044921875,2.635340452194214,-7.674811363220215,1.570536732673645
1777561116149574400,21.859574462890624,1.305741548538208,-7.146960258483887,2.446345329284668
1777561116168103700,21.878103759765626,1.4510189294815063,-5.723688125610352,1.5172972679138184
1777561116186633200,21.89663330078125,3.8352270126342773,-2.7256879806518555,0.5037039518356323
1777561116205162800,21.915162841796874,4.528528690338135,-0.9372167587280273,-0.43346989154815674
1777561116223692000,21.933692138671876,5.15595006942749,-1.2023801803588867,-1.2051385641098022
1777561116242221600,21.9522216796875,6.2384867668151855,-3.278384208679199,-2.24560809135437
1777561116260751000,21.970751220703125,7.154166221618652,-4.823829650878906,-2.7097268104553223
1777561116279280400,21.9892802734375,7.838248252868652,-5.908574104309082,-3.1227874755859375
1777561116297810000,22.007809814453125,5.287758827209473,-7.091914176940918,-4.098323822021484
1777561116316339200,22.026339111328124,-3.9906039237976074,-6.2301225662231445,-2.4398937225341797
1777561116334868700,22.04486865234375,-11.7096586227417,-4.012168884277344,0.7853069305419922
1777561116353398300,22.063398193359376,-12.025981903076172,-0.05676555633544922,1.9946870803833008
1777561116371927600,22.081927490234374,-6.9291462898254395,3.753016471862793,5.845996856689453
1777561116390457000,22.10045703125,-8.141813278198242,3.1750082969665527,7.3037004470825195
1777561116408986600,22.118986572265626,-3.018324375152588,0.3809328079223633,4.530144691467285
1777561116427516000,22.137515869140625,3.274237632751465,-2.6348676681518555,0.17226386070251465
1777561116446045400,22.15604541015625,-2.3784711360931396,-2.830594062805176,-2.6850509643554688
1777561116464575000,22.174574951171873,-5.728074550628662,-1.9623937606811523,-2.313744068145752
1777561116483104500,22.1931044921875,-8.088996887207031,-0.21388673782348633,-1.5618054866790771
1777561116501633800,22.2116337890625,-8.683488845825195,1.777367115020752,-0.8382763862609863
1777561116520163300,22.230163330078124,-8.000526428222656,3.3636717796325684,-1.239884853363037
1777561116538692900,22.24869287109375,-6.91112756729126,5.50602388381958,-2.3951351642608643
1777561116557222100,22.26722216796875,-6.088840484619141,5.54742431640625,-2.6916768550872803
1777561116575751700,22.285751708984375,-6.272317886352539,4.860378742218018,-1.951674461364746
1777561116594281200,22.30428125,-6.229039192199707,4.398870468139648,-1.1411733627319336
1777561116612810500,22.322810546875,-6.065823078155518,4.765574932098389,-1.0949008464813232
1777561116631340000,22.341340087890625,-5.2356367111206055,5.966393947601318,-1.1822729110717773
1777561116649869600,22.35986962890625,6.077952861785889,8.80803108215332,1.1969563961029053
1777561116668399000,22.378399169921874,14.159695625305176,4.691876411437988,8.085891723632812
1777561116686928400,22.396928466796876,-8.340428352355957,-10.177141189575195,3.584198236465454
1777561116705458000,22.4154580078125,4.031500339508057,-15.461316108703613,-7.583372116088867
1777561116723987500,22.433987548828124,-6.858589172363281,-11.316678047180176,9.458481788635254
1777561116742516700,22.452516845703126,0.4189167022705078,-2.602738380432129,-1.186975359916687
1777561116761046300,22.47104638671875,0.025919437408447266,3.433608055114746,4.426731109619141
1777561116779575800,22.489575927734375,-1.6587882041931152,5.298593997955322,3.3501250743865967
1777561116798105300,22.508105224609373,-3.052578926086426,3.6587471961975098,1.2155539989471436
1777561116816634600,22.526634521484375,-3.1444337368011475,1.4206018447875977,0.3625218868255615
1777561116835164200,22.5451640625,-3.8598201274871826,-1.130354881286621,-0.4342026710510254
1777561116853693700,22.563693603515624,-2.287761688232422,-2.4943504333496094,-0.38914310932159424
1777561116872223200,22.58222314453125,-1.74324631690979,-5.170506477355957,-1.2808358669281006
1777561116890752800,22.600752685546876,-2.3633878231048584,-7.333102226257324,-2.3181772232055664
1777561116909282000,22.619281982421874,-0.6702862977981567,-4.820650100708008,-4.053867816925049
1777561116927811600,22.6378115234375,-0.1899113655090332,-0.42106056213378906,-3.9956750869750977
1777561116946341000,22.656341064453127,-0.7320921421051025,1.7702302932739258,-3.7157537937164307
1777561116964870700,22.67487060546875,1.1955379247665405,2.377732753753662,-1.8739444017410278
1777561116983400000,22.69339990234375,1.5160168409347534,2.53536319732666,0.6533422470092773
1777561117001929500,22.711929443359374,-0.026034414768218994,2.2927565574645996,2.086369276046753
1777561117020459000,22.730458984375,-0.16376954317092896,1.934483528137207,2.002690315246582
1777561117038988500,22.748988525390626,0.4794507324695587,1.4686346054077148,0.42004311084747314
1777561117057518000,22.76751806640625,1.4967784881591797,0.1151285171508789,-2.3416707515716553
1777561117076047400,22.78604736328125,2.367828130722046,-0.11954975128173828,-2.5902719497680664
1777561117094577000,22.804576904296876,1.4671428203582764,0.8927469253540039,-0.3927497863769531
1777561117113106400,22.8231064453125,0.5519590377807617,1.1518259048461914,0.8297802209854126
1777561117131636000,22.841635986328125,1.2736703157424927,0.19550418853759766,0.04392123222351074
1777561117150165200,22.860165283203123,1.8667588233947754,-0.14874839782714844,-1.118513584136963
1777561117168694800,22.87869482421875,1.8724932670593262,0.2187061309814453,-1.4630718231201172
1777561117187224300,22.897224365234376,1.5990827083587646,0.770904541015625,-1.2633311748504639
1777561117205753900,22.91575390625,1.6505546569824219,0.7745180130004883,-0.7744958996772766
1777561117224283400,22.934283447265624,1.8534172773361206,-0.014516830444335938,-0.6380000710487366
1777561117242813000,22.95281298828125,1.2515039443969727,-1.0367012023925781,-0.6293399333953857
1777561117261342200,22.97134228515625,0.2747877836227417,-2.444103240966797,-0.4931708574295044
1777561117279871700,22.989871826171875,-1.5582184791564941,-4.863551139831543,-1.4147485494613647
1777561117298401300,23.0084013671875,0.3691444396972656,-6.157350540161133,-1.1927781105041504
1777561117316930800,23.026930908203123,0.7742893695831299,-8.058806419372559,-0.06047940254211426
1777561117335460400,23.04546044921875,1.251253604888916,-5.874728202819824,2.384518623352051
1777561117353990000,23.063989990234376,0.3297675848007202,-5.598992347717285,0.3231837749481201
1777561117372519400,23.08251953125,1.0736124515533447,-3.5648880004882812,-0.8799402713775635
1777561117391048700,23.101048583984376,2.643333911895752,-1.4374608993530273,-1.151777982711792
1777561117409578200,23.119578125,3.9374067783355713,-1.050490379333496,-0.6183680295944214
1777561117428107800,23.138107666015625,5.6243815422058105,-2.5043487548828125,-0.5225652456283569
1777561117446637300,23.15663720703125,6.946735382080078,-4.94851016998291,-1.8317787647247314
1777561117465166600,23.17516650390625,8.969402313232422,-6.343077659606934,-3.0121326446533203
1777561117483696400,23.1936962890625,9.016741752624512,-6.403778076171875,-3.5488085746765137
1777561117502225700,23.2122255859375,4.19580078125,-6.120802879333496,-3.5149307250976562
1777561117520755200,23.230755126953124,-5.369684219360352,-4.556357383728027,-0.6174426078796387
1777561117539284700,23.24928466796875,-12.23862075805664,-1.6582956314086914,1.7709308862686157
1777561117557814300,23.267814208984376,-13.616971969604492,2.1597166061401367,3.7775983810424805
1777561117576343800,23.28634375,-12.304319381713867,4.671634197235107,6.378720283508301
1777561117594873300,23.304873291015625,-8.037738800048828,2.354743003845215,4.018237113952637
1777561117613402600,23.323402587890627,7.4141998291015625,-2.361370086669922,0.4228520393371582
1777561117631932200,23.34193212890625,1.0808382034301758,-3.221230983734131,-2.6172163486480713
1777561117650461700,23.360461669921875,-6.1061930656433105,-1.15537691116333,-2.3801522254943848
1777561117668991200,23.3789912109375,-7.5142059326171875,0.8644165992736816,-2.131986618041992
1777561117687520800,23.397520751953124,-8.379937171936035,1.4322433471679688,-2.7554304599761963
1777561117706050300,23.41605029296875,-6.902133941650391,2.862675428390503,-1.2488627433776855
1777561117724579800,23.434579833984376,-5.839883327484131,5.215035438537598,0.05383038520812988
1777561117743109000,23.453109130859374,-6.174759864807129,5.071423053741455,-0.14670395851135254
1777561117761639000,23.471638916015625,-5.708863258361816,3.569854259490967,-0.4185945987701416
1777561117780168200,23.490168212890627,-5.378383159637451,2.7420029640197754,-0.4988114833831787
1777561117798697700,23.50869775390625,-4.893974304199219,2.627640962600708,-0.760570764541626
1777561117817227300,23.527227294921875,-4.751526832580566,3.527510166168213,-0.6725075244903564
1777561117835756800,23.5457568359375,-4.3355865478515625,4.7577409744262695,-0.8922717571258545
1777561117854286300,23.564286376953124,1.6875662803649902,7.203420162200928,-0.06561422348022461
1777561117872815900,23.58281591796875,15.50080680847168,4.005439758300781,3.4269044399261475
