time,seconds_elapsed,z,y,x
1777561094415163600,0.12516357421875,2.1779983043670654,-9.462319374084473,-1.3752177953720093
1777561094433692400,0.1436923828125,2.185037136077881,-9.460021018981934,-1.3798575401306152
1777561094452221000,0.162220947265625,2.316905975341797,-9.431612968444824,-1.359054446220398
1777561094480013800,0.190013916015625,2.3155107498168945,-9.453067779541016,-1.2034554481506348
1777561094498542600,0.20854248046875,2.3750762939453125,-9.448882102966309,-1.1171550750732422
1777561094517071400,0.2270712890625,2.546424150466919,-9.400245666503906,-1.1495558023452759
1777561094535599900,0.245599853515625,2.6936447620391846,-9.357694625854492,-1.1611239910125732
1777561094554128600,0.264128662109375,2.777979850769043,-9.33390998840332,-1.1538381576538086
1777561094572657200,0.2826572265625,2.8669259548187256,-9.306917190551758,-1.1543059349060059
1777561094591186000,0.30118603515625,2.987945795059204,-9.27013874053955,-1.1432744264602661
1777561094609714700,0.319714599609375,3.120201826095581,-9.222234725952148,-1.1769124269485474
1777561094628243200,0.3382431640625,3.1947789192199707,-9.190289497375488,-1.2256981134414673
1777561094646772000,0.35677197265625,3.231454372406006,-9.174182891845703,-1.2499799728393555
1777561094665300500,0.375300537109375,3.262779951095581,-9.16001033782959,-1.2723468542099
1777561094683829200,0.393829345703125,3.310683250427246,-9.136106491088867,-1.319589376449585
1777561094702358000,0.41235791015625,3.3703651428222656,-9.104201316833496,-1.3872807025909424
1777561094720886500,0.430886474609375,3.422118902206421,-9.075675010681152,-1.4462361335754395
1777561094739415300,0.449415283203125,3.4856784343719482,-9.04573917388916,-1.4815623760223389
1777561094757943800,0.46794384765625,3.5704972743988037,-9.011730194091797,-1.486829400062561
1777561094776472600,0.48647265625,3.6538474559783936,-8.979060173034668,-1.4819806814193726
1777561094795001000,0.5050009765625,3.744655132293701,-8.94408130645752,-1.4667500257492065
1777561094813529900,0.52352978515625,3.8417999744415283,-8.906908988952637,-1.4415029287338257
1777561094832058600,0.54205859375,3.925902843475342,-8.873042106628418,-1.423654556274414
1777561094850587100,0.560587158203125,4.020100116729736,-8.834031105041504,-1.403242588043213
1777561094869116000,0.579115966796875,4.122992992401123,-8.790183067321777,-1.3798521757125854
1777561094887644400,0.59764453125,4.222516059875488,-8.748296737670898,-1.3446310758590698
1777561094906173200,0.616173095703125,4.307370662689209,-8.713799476623535,-1.298703670501709
1777561094924701700,0.63470166015625,4.372303485870361,-8.688157081604004,-1.252710223197937
1777561094943230500,0.65323046875,4.411602020263672,-8.673524856567383,-1.2157857418060303
1777561094961759000,0.671759033203125,4.4229631423950195,-8.669061660766602,-1.2063053846359253
1777561094980287700,0.690287841796875,4.401196002960205,-8.676798820495605,-1.2300478219985962
1777561094998816500,0.70881640625,4.328403472900391,-8.712482452392578,-1.2361066341400146
1777561095017345000,0.727344970703125,4.21743106842041,-8.77198600769043,-1.198298692703247
1777561095035873800,0.745873779296875,4.117391586303711,-8.826570510864258,-1.144175410270691
1777561095054402600,0.764402587890625,4.143440246582031,-8.818331718444824,-1.1132440567016602
1777561095072931000,0.78293115234375,4.201435089111328,-8.784795761108398,-1.1600351333618164
1777561095091459800,0.8014599609375,4.182445049285889,-8.788780212402344,-1.1978594064712524
1777561095109988400,0.81998828125,4.048806667327881,-8.862987518310547,-1.1068084239959717
1777561095128517000,0.83851708984375,3.7684271335601807,-9.0044527053833,-0.9429647326469421
1777561095147045600,0.857045654296875,3.588045120239258,-9.098883628845215,-0.7117795348167419
1777561095165574400,0.875574462890625,3.47636079788208,-9.149386405944824,-0.6115760803222656
1777561095184103200,0.894103271484375,3.131791830062866,-9.266858100891113,-0.6982818841934204
1777561095202631700,0.912631591796875,2.6851978302001953,-9.39762020111084,-0.8030058145523071
1777561095221160400,0.931160400390625,2.2881267070770264,-9.497576713562012,-0.8549208641052246
1777561095239689000,0.94968896484375,1.9617855548858643,-9.560628890991211,-0.9571671485900879
1777561095258217700,0.9682177734375,1.6975589990615845,-9.59296989440918,-1.124110460281372
1777561095276746200,0.986746337890625,1.4666599035263062,-9.612271308898926,-1.2741808891296387
1777561095295275000,1.00527490234375,1.3211005926132202,-9.620004653930664,-1.3713492155075073
1777561095313803500,1.023803466796875,1.0883381366729736,-9.637779235839844,-1.4488348960876465
1777561095332332300,1.042332275390625,0.7300667762756348,-9.67541790008545,-1.422565221786499
1777561095350860800,1.06086083984375,0.42018306255340576,-9.705941200256348,-1.3373634815216064
1777561095369389600,1.0793896484375,0.21440017223358154,-9.719513893127441,-1.2866507768630981
1777561095387918000,1.09791796875,0.003665297059342265,-9.72052001953125,-1.2968612909317017
1777561095406446800,1.11644677734375,-0.25262129306793213,-9.7049560546875,-1.3857831954956055
1777561095424975600,1.1349755859375,-0.4725145399570465,-9.681429862976074,-1.4889732599258423
1777561095443504000,1.153504150390625,-0.6816855669021606,-9.663923263549805,-1.5212750434875488
1777561095462033000,1.172032958984375,-0.8508889675140381,-9.65546989440918,-1.4893856048583984
1777561095480561400,1.1905615234375,-1.0038692951202393,-9.64262580871582,-1.477296233177185
1777561095499090200,1.209090087890625,-1.157212734222412,-9.622701644897461,-1.4949473142623901
1777561095517618700,1.22761865234375,-1.2800111770629883,-9.603218078613281,-1.5199204683303833
1777561095536147500,1.2461474609375,-1.3722180128097534,-9.587540626525879,-1.5383336544036865
1777561095554676000,1.264676025390625,-1.4653738737106323,-9.575628280639648,-1.5265648365020752
1777561095573204700,1.283204833984375,-1.5630708932876587,-9.565423965454102,-1.4932750463485718
1777561095591733200,1.301733154296875,-1.6646537780761719,-9.556500434875488,-1.4396580457687378
1777561095610262000,1.320261962890625,-1.7741341590881348,-9.547187805175781,-1.368952751159668
1777561095628790800,1.338790771484375,-1.8908166885375977,-9.534605979919434,-1.2986482381820679
1777561095647319300,1.3573193359375,-1.9977986812591553,-9.52384090423584,-1.214755654335022
1777561095665848000,1.37584814453125,-2.080111503601074,-9.518271446228027,-1.116258978843689
1777561095684376800,1.394376953125,-2.1447503566741943,-9.518254280090332,-0.9865379333496094
1777561095702905300,1.4129052734375,-2.19305682182312,-9.520692825317383,-0.8469346165657043
1777561095721434000,1.43143408203125,-2.231715202331543,-9.522958755493164,-0.7092907428741455
1777561095739962600,1.449962646484375,-2.247460126876831,-9.52841854095459,-0.5731847882270813
1777561095758491400,1.468491455078125,-2.2331151962280273,-9.538446426391602,-0.4490296244621277
1777561095777020000,1.48702001953125,-2.2023534774780273,-9.547361373901367,-0.4097691476345062
1777561095795548700,1.505548583984375,-2.1203463077545166,-9.563977241516113,-0.4526194632053375
1777561095814077200,1.5240771484375,-1.9738829135894775,-9.592070579528809,-0.5160961151123047
1777561095832606000,1.54260595703125,-1.73231840133667,-9.634681701660156,-0.5851242542266846
1777561095851134500,1.561134521484375,-1.4339708089828491,-9.678314208984375,-0.6665897369384766
1777561095869663200,1.579663330078125,-1.0710941553115845,-9.715843200683594,-0.7909059524536133
1777561095888191700,1.598191650390625,-0.6223719120025635,-9.739635467529297,-0.9604862928390503
1777561095906720500,1.616720458984375,-0.07139613479375839,-9.735740661621094,-1.175005555152893
1777561095925249300,1.635249267578125,0.5665351152420044,-9.688541412353516,-1.407692313194275
1777561095943777800,1.65377783203125,1.2492979764938354,-9.596303939819336,-1.5876340866088867
1777561095962306600,1.672306640625,1.875357985496521,-9.482837677001953,-1.6520384550094604
1777561095980835000,1.6908349609375,2.4021923542022705,-9.369881629943848,-1.6140609979629517
1777561095999363800,1.70936376953125,2.855013608932495,-9.26511287689209,-1.4754583835601807
1777561096017892400,1.727892333984375,3.324849843978882,-9.14343547821045,-1.2301836013793945
1777561096036421000,1.746421142578125,3.8218822479248047,-8.986215591430664,-0.9008516073226929
1777561096054949600,1.76494970703125,4.453161239624023,-8.71562671661377,-0.6144817471504211
1777561096073478400,1.783478515625,5.155531883239746,-8.323625564575195,-0.5551052093505859
1777561096092007000,1.8020068359375,5.741302490234375,-7.932905197143555,-0.5261543393135071
1777561096110535700,1.82053564453125,6.215963363647461,-7.570578575134277,-0.4674750566482544
1777561096129064400,1.839064453125,6.6645612716674805,-7.185421466827393,-0.35175201296806335
1777561096147593000,1.857593017578125,7.111839294433594,-6.751696586608887,-0.0819627195596695
1777561096166121700,1.876121826171875,7.504343032836914,-6.307061672210693,0.27604854106903076
1777561096184650200,1.894650146484375,7.795201778411865,-5.916662693023682,0.6311282515525818
1777561096203179000,1.913178955078125,7.999893665313721,-5.590981960296631,0.9555142521858215
1777561096221707800,1.931707763671875,8.12922477722168,-5.352939605712891,1.1967201232910156
1777561096240236300,1.950236328125,8.192815780639648,-5.211802005767822,1.3730552196502686
1777561096258765000,1.96876513671875,8.19923210144043,-5.1674580574035645,1.4967806339263916
1777561096277293600,1.98729345703125,8.153261184692383,-5.211802959442139,1.5911718606948853
1777561096295822300,2.005822265625,8.067108154296875,-5.322390079498291,1.662625789642334
1777561096314351000,2.02435107421875,7.951488018035889,-5.496548175811768,1.652928113937378
1777561096332879600,2.042879638671875,7.79491662979126,-5.7560319900512695,1.5092272758483887
1777561096351408400,2.061408447265625,7.5719075202941895,-6.107201099395752,1.2404416799545288
1777561096369937000,2.07993701171875,7.35519552230835,-6.420177936553955,0.9234639406204224
1777561096388465700,2.098465576171875,7.113088607788086,-6.699836730957031,0.8285796642303467
1777561096406994400,2.116994384765625,6.798520565032959,-7.039458274841309,0.6297130584716797
1777561096425523000,2.13552294921875,6.364701271057129,-7.453701972961426,0.32136544585227966
1777561096444051700,2.1540517578125,5.993148326873779,-7.749555587768555,0.44379928708076477
1777561096462580200,2.172580322265625,5.707226276397705,-7.963969707489014,0.41608715057373047
1777561096481109000,2.19110888671875,5.37298059463501,-8.199920654296875,0.2505313754081726
1777561096499637800,2.2096376953125,5.022815704345703,-8.421747207641602,0.12601947784423828
1777561096518166300,2.228166259765625,4.618831157684326,-8.650825500488281,-0.0033820157404989004
1777561096536695000,2.246695068359375,4.070199489593506,-8.921229362487793,-0.12458088248968124
1777561096555223800,2.265223876953125,3.4447453022003174,-9.179967880249023,-0.17971698939800262
1777561096583016700,2.2930166015625,2.6863555908203125,-9.43127727508545,-0.06989499926567078
1777561096601545500,2.31154541015625,2.4904050827026367,-9.48509407043457,0.035657335072755814
1777561096620074000,2.330073974609375,2.2949657440185547,-9.534317016601562,0.017846638336777687
1777561096638602800,2.348602783203125,1.9324010610580444,-9.6134033203125,-0.13670341670513153
1777561096657131500,2.367131591796875,1.4987939596176147,-9.685361862182617,-0.34318387508392334
1777561096675660000,2.385659912109375,1.1207078695297241,-9.729398727416992,-0.5031812191009521
1777561096694188800,2.404188720703125,0.8031638264656067,-9.757863998413086,-0.5562406778335571
1777561096712717300,2.42271728515625,0.4607568085193634,-9.779952049255371,-0.5573562979698181
1777561096731246000,2.44124609375,0.09974895417690277,-9.788897514343262,-0.5813091993331909
1777561096749774800,2.45977490234375,-0.18638896942138672,-9.78553295135498,-0.6156154870986938
1777561096777567700,2.487567626953125,-0.5268710255622864,-9.77748966217041,-0.541764497756958
1777561096805360600,2.515360595703125,-0.7929490804672241,-9.764461517333984,-0.44375985860824585
1777561096823889400,2.533889404296875,-0.9573500752449036,-9.751325607299805,-0.406843900680542
1777561096842418200,2.552418212890625,-1.0858427286148071,-9.739718437194824,-0.35946664214134216
1777561096860946700,2.57094677734375,-1.191547155380249,-9.729513168334961,-0.29525914788246155
1777561096879475500,2.589475341796875,-1.289716362953186,-9.718825340270996,-0.2268495410680771
1777561096898004200,2.608004150390625,-1.3693134784698486,-9.709502220153809,-0.14469607174396515
1777561096916532700,2.62653271484375,-1.4365884065628052,-9.700729370117188,-0.04945864900946617
1777561096935061500,2.6450615234375,-1.5161875486373901,-9.688557624816895,0.058351121842861176
1777561096953590000,2.663590087890625,-1.5944643020629883,-9.674516677856445,0.1783546805381775
1777561096972118800,2.682118896484375,-1.6546518802642822,-9.661172866821289,0.3070218861103058
1777561096990647600,2.7006474609375,-1.684203863143921,-9.650882720947266,0.4408075511455536
1777561097009176000,2.719176025390625,-1.6609692573547363,-9.65038776397705,0.5306397676467896
1777561097027704800,2.737704833984375,-1.5903085470199585,-9.662514686584473,0.5264208912849426
1777561097046233600,2.756233642578125,-1.3829421997070312,-9.695267677307129,0.5095434188842773
1777561097064762000,2.77476220703125,-1.073580265045166,-9.736949920654297,0.45784029364585876
1777561097083291000,2.793290771484375,-0.7019253969192505,-9.773764610290527,0.3888629078865051
1777561097101819600,2.811819580078125,-0.20358070731163025,-9.79985523223877,0.3029426336288452
1777561097120348200,2.83034814453125,0.49760350584983826,-9.791899681091309,0.2036701887845993
1777561097138877000,2.848876953125,1.3136080503463745,-9.716975212097168,0.15882915258407593
1777561097157405700,2.86740576171875,2.0854389667510986,-9.581968307495117,0.08501075208187103
1777561097175934200,2.885934326171875,2.6751797199249268,-9.434444427490234,-0.07104121893644333
1777561097194463000,2.904462890625,2.999028205871582,-9.335134506225586,-0.17745141685009003
1777561097212991700,2.92299169921875,3.251563310623169,-9.25,-0.18768638372421265
1777561097231520300,2.941520263671875,3.5882859230041504,-9.126252174377441,-0.07818759977817535
1777561097250049000,2.960049072265625,4.08528995513916,-8.910439491271973,0.29129737615585327
1777561097268577800,2.978577880859375,4.69899845123291,-8.566400527954102,0.8405879735946655
1777561097287106300,2.997106201171875,5.30661153793335,-8.17619800567627,1.0770504474639893
1777561097305635000,3.015635009765625,5.831700801849365,-7.8062310218811035,1.1065280437469482
1777561097324163800,3.034163818359375,6.2388715744018555,-7.468212604522705,1.2135370969772339
1777561097342692400,3.0526923828125,6.608727931976318,-7.105091571807861,1.418723464012146
1777561097361221000,3.07122119140625,6.948923587799072,-6.706809997558594,1.7033970355987549
1777561097379750000,3.08975,7.202438831329346,-6.338135242462158,2.030592441558838
1777561097398278700,3.108278564453125,7.357335567474365,-6.051104545593262,2.328979730606079
1777561097416807200,3.12680712890625,7.43844747543335,-5.852202415466309,2.5674126148223877
1777561097435336000,3.1453359375,7.465513706207275,-5.741321086883545,2.733814001083374
1777561097453864700,3.16386474609375,7.455201625823975,-5.721261024475098,2.8031296730041504
1777561097472393200,3.182393310546875,7.41433048248291,-5.791422367095947,2.7672224044799805
1777561097490922000,3.200921875,7.326064109802246,-5.960135459899902,2.6412036418914795
1777561097509450800,3.21945068359375,7.159225940704346,-6.252181529998779,2.413729667663574
1777561097527979500,3.2379794921875,6.959837436676025,-6.578866004943848,2.1093997955322266
1777561097546508000,3.256508056640625,6.749980926513672,-6.864638328552246,1.8667851686477661
1777561097565036800,3.275036865234375,6.363330841064453,-7.258983612060547,1.72787606716156
1777561097583565600,3.293565673828125,6.0420823097229,-7.593506813049316,1.4150184392929077
1777561097602094000,3.312093994140625,5.653771877288818,-7.877273082733154,1.4675936698913574
1777561097620622800,3.330622802734375,5.381776809692383,-8.052714347839355,1.5364410877227783
1777561097639151600,3.349151611328125,5.141763687133789,-8.21986198425293,1.4719022512435913
1777561097657680100,3.36768017578125,4.8532819747924805,-8.418031692504883,1.323930025100708
1777561097676209000,3.386208984375,4.508929252624512,-8.633079528808594,1.1444931030273438
1777561097694737700,3.404737548828125,4.058547019958496,-8.87560749053955,0.9603022336959839
1777561097713266400,3.423266357421875,3.4822535514831543,-9.132716178894043,0.798616349697113
1777561097741059300,3.451059326171875,2.5082790851593018,-9.451902389526367,0.7351675629615784
1777561097759588000,3.469588134765625,2.084521770477295,-9.548992156982422,0.8011904954910278
1777561097778116900,3.488116943359375,1.8933202028274536,-9.586360931396484,0.8291078805923462
1777561097796645600,3.506645751953125,1.6960101127624512,-9.624795913696289,0.8107016086578369
1777561097815174100,3.525174072265625,1.4144339561462402,-9.676213264465332,0.7353045344352722
1777561097833703000,3.543702880859375,1.0776296854019165,-9.729279518127441,0.5917941927909851
1777561097852231700,3.562231689453125,0.7468007802963257,-9.769694328308105,0.4071168303489685
1777561097870760400,3.580760498046875,0.4410993456840515,-9.79288101196289,0.27442091703414917
1777561097898553300,3.60855322265625,0.0016266584862023592,-9.803704261779785,0.24035227298736572
1777561097917082000,3.62708203125,-0.270207941532135,-9.7998685836792,0.24483710527420044
1777561097944875300,3.654875244140625,-0.6341609358787537,-9.783719062805176,0.21696117520332336
1777561097963403800,3.67340380859375,-0.8370087742805481,-9.7679443359375,0.23887287080287933
1777561097981932500,3.6919326171875,-1.0256575345993042,-9.74891185760498,0.27771657705307007
1777561098000461300,3.71046142578125,-1.1837012767791748,-9.729715347290039,0.3191849887371063
1777561098018989800,3.72898974609375,-1.2976661920547485,-9.713855743408203,0.35702231526374817
1777561098037518600,3.7475185546875,-1.392008900642395,-9.698808670043945,0.40720877051353455
1777561098056047400,3.76604736328125,-1.4676786661148071,-9.685139656066895,0.46298933029174805
1777561098074576100,3.784576171875,-1.5396668910980225,-9.670811653137207,0.5246182680130005
1777561098093105000,3.80310498046875,-1.601989984512329,-9.657233238220215,0.5846943259239197
1777561098111633400,3.82163330078125,-1.6564874649047852,-9.644357681274414,0.6424866914749146
1777561098130162200,3.840162109375,-1.714927315711975,-9.628785133361816,0.7182655930519104
1777561098148691000,3.85869091796875,-1.7814157009124756,-9.608217239379883,0.8240812420845032
1777561098167219700,3.8772197265625,-1.8559457063674927,-9.583806991577148,0.9362118244171143
1777561098185748500,3.89574853515625,-1.8892632722854614,-9.567999839782715,1.0268710851669312
1777561098204277200,3.91427734375,-1.851880669593811,-9.572531700134277,1.0524049997329712
1777561098222805800,3.9328056640625,-1.6952193975448608,-9.60095500946045,1.0574814081192017
1777561098241334500,3.95133447265625,-1.4599002599716187,-9.64272689819336,1.0280532836914062
1777561098259863000,3.969863037109375,-1.1802860498428345,-9.685303688049316,0.9860025644302368
1777561098278391800,3.988391845703125,-0.839983344078064,-9.723060607910156,0.9627681374549866
1777561098296920600,4.006920654296875,-0.42968881130218506,-9.750547409057617,0.9552899599075317
1777561098315449300,4.025449462890625,0.09115298837423325,-9.762516975402832,0.9248485565185547
1777561098333978000,4.04397802734375,0.7689351439476013,-9.735733985900879,0.8914026618003845
1777561098352507000,4.0625068359375,1.5217183828353882,-9.649859428405762,0.8572962284088135
1777561098371035600,4.08103564453125,2.2251620292663574,-9.526609420776367,0.6802709102630615
1777561098389564200,4.099564208984375,2.7373125553131104,-9.406100273132324,0.4503057301044464
1777561098408093000,4.118093017578125,3.0040440559387207,-9.328542709350586,0.35269802808761597
1777561098426621700,4.13662158203125,3.2140471935272217,-9.2561616897583,0.40468043088912964
1777561098445150500,4.155150390625,3.578754186630249,-9.112129211425781,0.5762132406234741
1777561098463679000,4.173678955078125,4.157892227172852,-8.83543872833252,0.9040711522102356
1777561098482207700,4.192207763671875,4.838308811187744,-8.447309494018555,1.184951901435852
1777561098500736500,4.210736572265625,5.372287750244141,-8.098642349243164,1.3118305206298828
1777561098519265300,4.229265380859375,5.821272850036621,-7.770388126373291,1.3799375295639038
1777561098537794000,4.2477939453125,6.240093231201172,-7.413196563720703,1.5086915493011475
1777561098556322800,4.26632275390625,6.597764492034912,-7.060115337371826,1.6717236042022705
1777561098574851600,4.2848515625,6.894964694976807,-6.71462345123291,1.8824646472930908
1777561098593380000,4.303380126953125,7.117878437042236,-6.404943943023682,2.117286205291748
1777561098611908900,4.321908935546875,7.25634765625,-6.168193817138672,2.338630199432373
1777561098630437600,4.340437744140625,7.331528663635254,-6.006525993347168,2.518080472946167
1777561098648966400,4.35896630859375,7.353175640106201,-5.93494987487793,2.6225125789642334
1777561098667495000,4.377494873046875,7.328351974487305,-5.95426607131958,2.648085117340088
1777561098686023700,4.396023681640625,7.26083517074585,-6.06029748916626,2.592961072921753
1777561098704552400,4.414552490234375,7.113959789276123,-6.28331184387207,2.466163396835327
1777561098723081200,4.433081298828125,6.903599262237549,-6.583469390869141,2.2734642028808594
1777561098741610000,4.45160986328125,6.830702781677246,-6.738250732421875,2.026787281036377
1777561098760138800,4.470138671875,6.433694362640381,-7.122400760650635,2.0123050212860107
1777561098778667500,4.48866748046875,6.176377773284912,-7.432633876800537,1.6669420003890991
1777561098797196000,4.507196044921875,5.7845892906188965,-7.761295318603516,1.5720120668411255
1777561098815724800,4.525724853515625,5.464225769042969,-7.984400272369385,1.6006183624267578
1777561098834253600,4.544253662109375,5.175917148590088,-8.1725435256958,1.6092900037765503
1777561098852782300,4.5627822265625,4.873114109039307,-8.374260902404785,1.5148907899856567
1777561098871311000,4.58131103515625,4.518444538116455,-8.584724426269531,1.4340671300888062
1777561098889839900,4.59983984375,4.092869758605957,-8.811036109924316,1.3358384370803833
1777561098908368600,4.61836865234375,3.581787347793579,-9.044962882995605,1.2368650436401367
1777561098926897400,4.6368974609375,3.035413980484009,-9.25131607055664,1.1703933477401733
1777561098945426000,4.655426025390625,2.546675682067871,-9.398601531982422,1.162383794784546
1777561098963954700,4.67395458984375,2.195236921310425,-9.482159614562988,1.1999857425689697
1777561098982483500,4.6924833984375,1.920702576637268,-9.542596817016602,1.191694736480713
1777561099001012200,4.71101220703125,1.6248018741607666,-9.602953910827637,1.1461538076400757
1777561099019541000,4.729541015625,1.2771846055984497,-9.66905403137207,1.0239956378936768
1777561099038069800,4.74806982421875,0.9118058085441589,-9.728577613830566,0.8329267501831055
1777561099056598500,4.7665986328125,0.5801916122436523,-9.768471717834473,0.6408652067184448
1777561099075127300,4.785127197265625,0.2780408561229706,-9.78842830657959,0.5289132595062256
1777561099093655800,4.80365576171875,-0.055033136159181595,-9.794583320617676,0.483216255903244
1777561099112184600,4.8221845703125,-0.3499458134174347,-9.788984298706055,0.47298574447631836
1777561099130713300,4.84071337890625,-0.5755274891853333,-9.778030395507812,0.4788168668746948
1777561099149242000,4.8592421875,-0.781990647315979,-9.762667655944824,0.4992026686668396
1777561099167771000,4.87777099609375,-0.9827795624732971,-9.742865562438965,0.5301800966262817
1777561099186299600,4.896299560546875,-1.1504204273223877,-9.722084045410156,0.5727293491363525
1777561099204828400,4.914828369140625,-1.2783912420272827,-9.703025817871094,0.6224159002304077
1777561099223357200,4.933357177734375,-1.3873507976531982,-9.684913635253906,0.6693924069404602
1777561099241886000,4.951885986328125,-1.4625089168548584,-9.67007827758789,0.7218182682991028
1777561099260414700,4.970414794921875,-1.5175734758377075,-9.656181335449219,0.7908974289894104
1777561099278943500,4.988943603515625,-1.57084059715271,-9.640111923217773,0.8781229853630066
1777561099297472000,5.007471923828125,-1.6336711645126343,-9.620465278625488,0.9737274646759033
1777561099316000800,5.026000732421875,-1.7036528587341309,-9.597335815429688,1.0766189098358154
1777561099334529500,5.044529541015625,-1.8043882846832275,-9.570245742797852,1.1510663032531738
1777561099353058300,5.063058349609375,-1.8313701152801514,-9.557973861694336,1.2089653015136719
1777561099371587000,5.081587158203125,-1.7306269407272339,-9.575458526611328,1.218972086906433
1777561099390115800,5.10011572265625,-1.5286521911621094,-9.612430572509766,1.1978302001953125
1777561099408644600,5.11864453125,-1.2902275323867798,-9.65554428100586,1.1296706199645996
1777561099427173400,5.13717333984375,-1.0134040117263794,-9.696496963500977,1.0589356422424316
1777561099445702100,5.1557021484375,-0.6526238918304443,-9.732612609863281,1.0103121995925903
1777561099464230700,5.174230712890625,-0.16152605414390564,-9.758769035339355,0.9543110132217407
1777561099482759400,5.192759521484375,0.49548670649528503,-9.752461433410645,0.9024155735969543
1777561099501288200,5.2112880859375,1.2434717416763306,-9.685185432434082,0.90628582239151
1777561099519817000,5.22981689453125,1.9449126720428467,-9.57813835144043,0.8043467998504639
1777561099538345700,5.248345703125,2.5190961360931396,-9.45870590209961,0.5978524684906006
1777561099556874500,5.26687451171875,2.9366400241851807,-9.345446586608887,0.4573220908641815
1777561099575403300,5.2854033203125,3.2246086597442627,-9.249556541442871,0.466891884803772
1777561099593932000,5.30393212890625,3.5337939262390137,-9.126058578491211,0.6306739449501038
1777561099612460800,5.322460693359375,3.9270215034484863,-8.943502426147461,0.8733009696006775
1777561099630989600,5.340989501953125,4.454239845275879,-8.662332534790039,1.1375967264175415
1777561099649518300,5.359518310546875,5.064750671386719,-8.293861389160156,1.315502405166626
1777561099668047000,5.378047119140625,5.560275077819824,-7.951205730438232,1.4255026578903198
1777561099686575900,5.396575927734375,5.978975772857666,-7.62650203704834,1.5028995275497437
1777561099705104600,5.415104736328125,6.381228923797607,-7.264979839324951,1.6341261863708496
1777561099723633400,5.43363330078125,6.747958660125732,-6.875860214233398,1.8324815034866333
1777561099742162200,5.452162109375,7.041144847869873,-6.507814407348633,2.059375286102295
1777561099760691000,5.47069091796875,7.226319313049316,-6.207925319671631,2.3264472484588623
1777561099779219700,5.4892197265625,7.320082664489746,-5.991909980773926,2.585306406021118
1777561099797748500,5.50774853515625,7.353553771972656,-5.867325782775879,2.769498586654663
1777561099816277200,5.52627734375,7.327646255493164,-5.853062152862549,2.8666439056396484
1777561099834805800,5.5448056640625,7.242123603820801,-5.958231449127197,2.8673176765441895
1777561099853334500,5.56333447265625,7.088787078857422,-6.183063507080078,2.772942304611206
1777561099871863300,5.58186328125,6.854094505310059,-6.515133857727051,2.5970776081085205
1777561099890392000,5.60039208984375,6.756857872009277,-6.719637393951416,2.3155417442321777
1777561099908920800,5.6189208984375,6.428577899932861,-7.043416976928711,2.287804126739502
1777561099927449600,5.63744970703125,6.204521179199219,-7.325131416320801,2.0041821002960205
1777561099945978400,5.655978271484375,5.8722243309021,-7.629124641418457,1.8665004968643188
1777561099964507100,5.674507080078125,5.6160888671875,-7.801976203918457,1.9388399124145508
1777561099983036000,5.693035888671875,5.3997931480407715,-7.924696445465088,2.0522658824920654
1777561100001564700,5.711564697265625,5.165286540985107,-8.078042984008789,2.058013439178467
1777561100020093400,5.730093505859375,4.871541500091553,-8.26418399810791,2.0351269245147705
1777561100038622200,5.748622314453125,4.492341041564941,-8.491311073303223,1.971523642539978
1777561100057151000,5.76715087890625,4.002499580383301,-8.758770942687988,1.85319185256958
1777561100075679700,5.7856796875,3.431964159011841,-9.029526710510254,1.6910539865493774
1777561100094208500,5.80420849609375,2.8489599227905273,-9.257316589355469,1.534900188446045
1777561100112737300,5.8227373046875,2.3653194904327393,-9.410515785217285,1.4205083847045898
1777561100131266000,5.84126611328125,2.059709310531616,-9.49787425994873,1.310865044593811
1777561100149794800,5.859794921875,1.8118394613265991,-9.56002140045166,1.2221355438232422
1777561100168323600,5.878323486328125,1.5213779211044312,-9.62406063079834,1.1105155944824219
1777561100186852400,5.896852294921875,1.2036759853363037,-9.687002182006836,0.9399755001068115
1777561100205381000,5.915381103515625,0.8965467810630798,-9.737798690795898,0.73610520362854
1777561100223910000,5.933909912109375,0.6162831783294678,-9.770758628845215,0.5681996941566467
1777561100242438700,5.952438720703125,0.3791382610797882,-9.786044120788574,0.5098849534988403
1777561100260967400,5.970967529296875,0.16721102595329285,-9.7876558303833,0.5867061614990234
1777561100279496200,5.98949609375,-0.04954709857702255,-9.78316879272461,0.6764139533042908
1777561100298025000,6.00802490234375,-0.2470313310623169,-9.78027057647705,0.6750381588935852
1777561100316553700,6.0265537109375,-0.3899890184402466,-9.779256820678711,0.6200327277183533
1777561100335082500,6.04508251953125,-0.5388396978378296,-9.774748802185059,0.5782051682472229
1777561100353611300,6.063611328125,-0.6983829736709595,-9.765289306640625,0.5672360062599182
1777561100372140000,6.08214013671875,-0.8208830952644348,-9.75571346282959,0.5679867267608643
1777561100390668800,6.100668701171875,-0.9023052453994751,-9.74738883972168,0.5870680809020996
1777561100409197600,6.119197509765625,-0.9697384834289551,-9.73824691772461,0.6297178864479065
1777561100427726300,6.137726318359375,-1.017600178718567,-9.729131698608398,0.6920071840286255
1777561100446255000,6.156255126953125,-1.058008074760437,-9.718870162963867,0.7710810303688049
1777561100464784000,6.174783935546875,-1.116175651550293,-9.704459190368652,0.8648768663406372
1777561100483312600,6.193312744140625,-1.2109324932098389,-9.683425903320312,0.9671050310134888
1777561100501841400,6.21184130859375,-1.3603934049606323,-9.653898239135742,1.059226632118225
1777561100520370200,6.2303701171875,-1.5284425020217896,-9.620802879333496,1.128893256187439
1777561100538899000,6.24889892578125,-1.6276382207870483,-9.596020698547363,1.1989904642105103
1777561100557427700,6.267427734375,-1.6213657855987549,-9.588362693786621,1.266838550567627
1777561100575956500,6.28595654296875,-1.5270357131958008,-9.594977378845215,1.3322783708572388
1777561100594485200,6.3044853515625,-1.3724830150604248,-9.613390922546387,1.3672541379928589
1777561100613014000,6.323013916015625,-1.1441166400909424,-9.64042854309082,1.3869072198867798
1777561100631542800,6.341542724609375,-0.8270494341850281,-9.672480583190918,1.3890659809112549
1777561100650071800,6.36007177734375,-0.41070374846458435,-9.702542304992676,1.364689826965332
1777561100668600600,6.3786005859375,0.106206014752388,-9.718340873718262,1.3088055849075317
1777561100687129000,6.397129150390625,0.7024756073951721,-9.697443008422852,1.27926504611969
1777561100705657900,6.415657958984375,1.3517749309539795,-9.624008178710938,1.3120802640914917
1777561100724187000,6.434186767578125,2.034327507019043,-9.51225471496582,1.2445552349090576
1777561100742715600,6.452715576171875,2.6036508083343506,-9.391966819763184,1.087357997894287
1777561100761244400,6.471244384765625,2.9826080799102783,-9.289359092712402,0.9910759925842285
1777561100779773200,6.489773193359375,3.2558181285858154,-9.196569442749023,0.9965714812278748
1777561100798302000,6.508302001953125,3.622666835784912,-9.046280860900879,1.1006723642349243
1777561100816830700,6.526830810546875,4.135484218597412,-8.788721084594727,1.3514946699142456
1777561100835359500,6.545359375,4.758915901184082,-8.425654411315918,1.5910474061965942
1777561100853888300,6.56388818359375,5.317538261413574,-8.057092666625977,1.7255209684371948
1777561100872417000,6.5824169921875,5.772261142730713,-7.719028949737549,1.807755947113037
1777561100890945800,6.60094580078125,6.205806732177734,-7.347198009490967,1.9175617694854736
1777561100909474600,6.619474609375,6.604320526123047,-6.949939250946045,2.0619630813598633
1777561100928003300,6.63800341796875,6.960640907287598,-6.542050361633301,2.2184324264526367
1777561100946532000,6.656531982421875,7.231709957122803,-6.173529624938965,2.400062084197998
1777561100965060900,6.675060791015625,7.386765003204346,-5.881308555603027,2.64882755279541
1777561100983589600,6.693589599609375,7.462357521057129,-5.681368827819824,2.8645520210266113
1777561101002118400,6.712118408203125,7.479841709136963,-5.588280200958252,2.9989163875579834
1777561101020647200,6.730647216796875,7.435494422912598,-5.618624687194824,3.0520272254943848
1777561101039176200,6.74917626953125,7.325369358062744,-5.77938985824585,3.0179474353790283
1777561101057704700,6.76770458984375,7.126687526702881,-6.076207637786865,2.908677101135254
1777561101076233500,6.7862333984375,6.963008403778076,-6.335997581481934,2.7462780475616455
1777561101094762500,6.804762451171875,6.858692646026611,-6.513449668884277,2.5891478061676025
1777561101113291300,6.823291259765625,6.485186576843262,-6.876770973205566,2.6120383739471436
1777561101131820000,6.841820068359375,6.295981407165527,-7.164951801300049,2.279137134552002
1777561101150348800,6.860348876953125,5.952603340148926,-7.436087131500244,2.332703113555908
1777561101168877600,6.878877685546875,5.6905012130737305,-7.66703462600708,2.237220525741577
1777561101187406300,6.89740625,5.390733242034912,-7.907773971557617,2.1395058631896973
1777561101205935000,6.91593505859375,5.047367095947266,-8.152976036071777,2.0551040172576904
1777561101224464000,6.9344638671875,4.638509750366211,-8.409764289855957,1.9825419187545776
1777561101242992600,6.95299267578125,4.136338233947754,-8.68586254119873,1.9018096923828125
1777561101261521400,6.971521484375,3.5647034645080566,-8.954042434692383,1.8133946657180786
1777561101280050200,6.99005029296875,3.0266120433807373,-9.160480499267578,1.7594325542449951
1777561101298579200,7.0085791015625,2.585982322692871,-9.29122543334961,1.7765733003616333
1777561101317108000,7.02710791015625,2.2722654342651367,-9.373990058898926,1.7707418203353882
1777561101335636700,7.04563671875,1.9729068279266357,-9.45278263092041,1.709651231765747
1777561101354165500,7.06416552734375,1.6077131032943726,-9.543118476867676,1.5857293605804443
1777561101372694300,7.0826943359375,1.2086951732635498,-9.630916595458984,1.3981746435165405
1777561101391223000,7.10122314453125,0.8342936635017395,-9.69969367980957,1.1791081428527832
1777561101409751800,7.119751708984375,0.5200160145759583,-9.74150276184082,1.0015448331832886
1777561101428280600,7.138280517578125,0.22892498970031738,-9.762248039245605,0.9035930633544922
1777561101446809300,7.156809326171875,-0.05313592404127121,-9.766737937927246,0.8822681307792664
1777561101465338000,7.175338134765625,-0.3047568202018738,-9.76293659210205,0.8732544183731079
1777561101483867100,7.1938671875,-0.5540279150009155,-9.754181861877441,0.8481708765029907
1777561101502395600,7.212395751953125,-0.7726860642433167,-9.739347457885742,0.8476201891899109
1777561101520924700,7.230924560546875,-0.9498269557952881,-9.721674919128418,0.8702013492584229
1777561101539453400,7.249453369140625,-1.1325502395629883,-9.699617385864258,0.8973017334938049
1777561101557982200,7.267982177734375,-1.3045729398727417,-9.676261901855469,0.9156504273414612
1777561101576511000,7.286510986328125,-1.4319533109664917,-9.65481948852539,0.9509792327880859
1777561101595039700,7.305039794921875,-1.5326906442642212,-9.634125709533691,1.0024300813674927
1777561101613568500,7.323568603515625,-1.6162344217300415,-9.61320972442627,1.0697554349899292
1777561101632097500,7.34209765625,-1.6832562685012817,-9.593606948852539,1.1400569677352905
1777561101650626300,7.360626220703125,-1.745654582977295,-9.573596954345703,1.2121531963348389
1777561101669155000,7.379155029296875,-1.827138066291809,-9.548312187194824,1.2890632152557373
1777561101687683800,7.397683837890625,-1.918189525604248,-9.5181303024292,1.3770073652267456
1777561101706212600,7.416212646484375,-2.025912046432495,-9.484101295471191,1.455297827720642
1777561101724741400,7.434741455078125,-2.063810348510742,-9.463420867919922,1.5345147848129272
1777561101743270100,7.453270263671875,-2.0075693130493164,-9.462442398071289,1.6131452322006226
1777561101761799000,7.471798828125,-1.8517333269119263,-9.484075546264648,1.671461582183838
1777561101780328000,7.490327880859375,-1.657271146774292,-9.516716003417969,1.6899645328521729
1777561101798856700,7.508856689453125,-1.4130254983901978,-9.554876327514648,1.6964948177337646
1777561101817385500,7.527385498046875,-1.0887614488601685,-9.59829044342041,1.6905056238174438
1777561101835914200,7.545914306640625,-0.688310980796814,-9.63905143737793,1.6689200401306152
1777561101854443000,7.564443115234375,-0.23166534304618835,-9.669471740722656,1.6180319786071777
1777561101872971800,7.5829716796875,0.26783692836761475,-9.679542541503906,1.550841212272644
1777561101891500500,7.60150048828125,0.7761344313621521,-9.655903816223145,1.526930809020996
1777561101910029300,7.620029296875,1.3078832626342773,-9.619193077087402,1.3895896673202515
1777561101928558300,7.638558349609375,1.806450605392456,-9.577188491821289,1.0883859395980835
1777561101947087000,7.657087158203125,2.1005494594573975,-9.540334701538086,0.860287070274353
1777561101965615900,7.675615966796875,2.2508656978607178,-9.507318496704102,0.8455013632774353
1777561101984144600,7.69414453125,2.3227784633636475,-9.46923828125,1.052908182144165
1777561102002673700,7.712673583984375,2.3462722301483154,-9.39326000213623,1.5595093965530396
1777561102021202400,7.731202392578125,2.4612066745758057,-9.22318172454834,2.2462782859802246
1777561102039731200,7.749731201171875,2.9416704177856445,-8.976400375366211,2.634613513946533
1777561102058260000,7.768260009765625,3.555781602859497,-8.761090278625488,2.6019444465637207
1777561102076788700,7.786788818359375,3.824601411819458,-8.664304733276367,2.5441386699676514
1777561102095317800,7.80531787109375,3.9585933685302734,-8.633687973022461,2.441180944442749
1777561102113846300,7.82384619140625,4.196698188781738,-8.567936897277832,2.2690460681915283
1777561102132375300,7.842375244140625,4.475880146026611,-8.46191692352295,2.1290476322174072
1777561102150904000,7.860904052734375,4.675975322723389,-8.370059967041016,2.061004638671875
1777561102169432800,7.879432861328125,4.776544570922852,-8.310750007629395,2.0703704357147217
1777561102187961600,7.897961669921875,4.802913665771484,-8.28254222869873,2.12176775932312
1777561102206490400,7.916490478515625,4.764562129974365,-8.292902946472168,2.16727614402771
1777561102225019400,7.935019287109375,4.65040922164917,-8.347705841064453,2.2045164108276367
1777561102243548200,7.953548095703125,4.454322814941406,-8.446345329284668,2.2335290908813477
1777561102262077000,7.972076904296875,4.181126594543457,-8.587309837341309,2.2241129875183105
1777561102280605700,7.990605712890625,3.860921621322632,-8.755215644836426,2.1470601558685303
1777561102299134700,8.009134765625,3.56735897064209,-8.915289878845215,1.9904608726501465
1777561102317663500,8.02766357421875,3.330962657928467,-9.040799140930176,1.8272961378097534
1777561102336192300,8.046192138671875,3.154317855834961,-9.122499465942383,1.7322425842285156
1777561102354721000,8.064720947265625,3.093275785446167,-9.150033950805664,1.6967313289642334
1777561102373249800,8.083249755859375,3.117691993713379,-9.141274452209473,1.6992591619491577
1777561102391778600,8.101778564453125,3.231032609939575,-9.08096981048584,1.8074320554733276
1777561102410307600,8.1203076171875,3.3671529293060303,-8.99665641784668,1.973028540611267
1777561102428836400,8.13883642578125,3.4520018100738525,-8.920315742492676,2.1638031005859375
1777561102447365000,8.157365234375,3.4761266708374023,-8.889778137207031,2.249171257019043
1777561102475158300,8.185158203125,3.306419610977173,-8.981125831604004,2.1394765377044678
1777561102493687300,8.203687255859375,3.1575961112976074,-9.040574073791504,2.1137657165527344
1777561102512216000,8.222216064453125,2.8708436489105225,-9.110635757446289,2.2192270755767822
1777561102530744800,8.240744873046875,2.462028741836548,-9.188591003417969,2.3829784393310547
1777561102549273600,8.259273681640625,2.140179395675659,-9.254571914672852,2.437807321548462
1777561102567802600,8.277802734375,1.912434458732605,-9.329566955566406,2.3392629623413086
1777561102586331400,8.296331298828125,1.7027736902236938,-9.401656150817871,2.2090303897857666
1777561102604860200,8.314860107421875,1.5020664930343628,-9.458539009094238,2.109555959701538
1777561102623389000,8.333388916015625,1.2907744646072388,-9.515316009521484,1.9907405376434326
1777561102641918000,8.35191796875,1.0333316326141357,-9.571972846984863,1.865461826324463
1777561102660446700,8.37044677734375,0.731296718120575,-9.617436408996582,1.7721521854400635
1777561102678975500,8.3889755859375,0.39205557107925415,-9.644193649291992,1.7338440418243408
1777561102697504300,8.407504150390626,0.06882655620574951,-9.65524959564209,1.7151707410812378
1777561102716033300,8.426033203125,-0.17981252074241638,-9.652730941772461,1.721290111541748
1777561102734562000,8.44456201171875,-0.3878084719181061,-9.645689010620117,1.7264623641967773
1777561102753090800,8.4630908203125,-0.5947335958480835,-9.637541770935059,1.7130275964736938
1777561102771619600,8.48161962890625,-0.7774786949157715,-9.627516746520996,1.6961190700531006
1777561102790148400,8.5001484375,-0.894181489944458,-9.617292404174805,1.6966180801391602
1777561102808677400,8.518677490234374,-0.9684895873069763,-9.606062889099121,1.7192952632904053
1777561102827206100,8.5372060546875,-1.081774353981018,-9.591667175292969,1.7320663928985596
1777561102845735000,8.55573486328125,-1.2955518960952759,-9.563091278076172,1.7433358430862427
1777561102864263700,8.574263671875,-1.5580899715423584,-9.522122383117676,1.752690315246582
1777561102882792700,8.592792724609374,-1.7590672969818115,-9.483901023864746,1.7696605920791626
1777561102901321500,8.611321533203125,-1.87837815284729,-9.457011222839355,1.790816307067871
1777561102919850200,8.629850341796875,-1.94204843044281,-9.441189765930176,1.8063138723373413
1777561102938379300,8.648379150390625,-1.983633279800415,-9.429301261901855,1.823150634765625
1777561102956908000,8.666907958984375,-2.011406660079956,-9.41646957397461,1.858690857887268
1777561102975436800,8.685436767578125,-2.0286333560943604,-9.396651268005371,1.9385510683059692
1777561102993965600,8.703965576171875,-2.040071487426758,-9.376121520996094,2.0240638256073
1777561103012494600,8.72249462890625,-2.0257046222686768,-9.36519718170166,2.088057279586792
1777561103031023400,8.7410234375,-1.9809504747390747,-9.363794326782227,2.1367197036743164
1777561103049552100,8.75955224609375,-1.9161585569381714,-9.372553825378418,2.1573073863983154
1777561103068081000,8.778080810546875,-1.81734299659729,-9.394126892089844,2.1489574909210205
1777561103086610000,8.79660986328125,-1.6485241651535034,-9.430444717407227,2.125905990600586
1777561103114403000,8.824403076171874,-1.2452392578125,-9.499571800231934,2.0923430919647217
1777561103132931800,8.842931884765624,-0.8686324954032898,-9.542630195617676,2.0866434574127197
1777561103151460900,8.8614609375,-0.38977158069610596,-9.566713333129883,2.12048602104187
1777561103169989600,8.87998974609375,0.12590959668159485,-9.559511184692383,2.1840977668762207
1777561103188518400,8.898518310546875,0.5842482447624207,-9.524850845336914,2.259706974029541
1777561103207047400,8.91704736328125,1.0419119596481323,-9.474211692810059,2.3074028491973877
1777561103225576200,8.935576171875,1.507370114326477,-9.401862144470215,2.3458926677703857
1777561103244105000,8.95410498046875,1.954906702041626,-9.307404518127441,2.3918533325195312
1777561103262634000,8.972634033203125,2.3740453720092773,-9.205132484436035,2.408280611038208
1777561103281162800,8.991162841796875,2.678675413131714,-9.127016067504883,2.385927438735962
1777561103299691500,9.00969140625,2.8515563011169434,-9.08848762512207,2.3320395946502686
1777561103318220300,9.02822021484375,2.976142644882202,-9.065317153930664,2.2656097412109375
1777561103336749300,9.046749267578125,3.180607318878174,-9.00579833984375,2.224797010421753
1777561103355278000,9.065278076171875,3.4415230751037598,-8.899521827697754,2.2638044357299805
1777561103373806800,9.083806884765625,3.6454408168792725,-8.780004501342773,2.406796455383301
1777561103392336000,9.1023359375,3.7516016960144043,-8.693243980407715,2.5540895462036133
1777561103410864600,9.12086474609375,3.9422476291656494,-8.556532859802246,2.723015069961548
1777561103429393400,9.139393310546875,4.060755729675293,-8.456037521362305,2.859386920928955
1777561103447922400,9.15792236328125,4.101449966430664,-8.412395477294922,2.9291815757751465
1777561103466451200,9.176451171875,4.110419273376465,-8.399389266967773,2.9538300037384033
1777561103484980000,9.19497998046875,4.114367961883545,-8.403874397277832,2.935516119003296
1777561103503509000,9.213509033203126,4.099655628204346,-8.433195114135742,2.871311664581299
1777561103522037800,9.232037841796876,4.040826797485352,-8.503047943115234,2.745957851409912
1777561103540566500,9.25056640625,3.928652048110962,-8.611486434936523,2.564835548400879
1777561103559095600,9.269095458984374,3.7711703777313232,-8.738044738769531,2.3654258251190186
1777561103577624300,9.287624267578124,3.58699107170105,-8.860559463500977,2.1896047592163086
1777561103596153000,9.306153076171874,3.4130804538726807,-8.957371711730957,2.0704517364501953
1777561103614681900,9.324681884765624,3.3733971118927,-8.979765892028809,2.0382328033447266
1777561103633211000,9.3432109375,3.6059787273406982,-8.893089294433594,2.0199708938598633
1777561103651739600,9.36173974609375,3.780977487564087,-8.823684692382812,2.004291296005249
1777561103670268400,9.380268310546874,3.9118471145629883,-8.760403633117676,2.0305559635162354
1777561103688797400,9.39879736328125,4.037022590637207,-8.691697120666504,2.0802011489868164
1777561103707326200,9.417326171875,4.123399257659912,-8.642932891845703,2.1136884689331055
1777561103725855000,9.43585498046875,4.240043640136719,-8.576946258544922,2.1513736248016357
1777561103744384000,9.454384033203125,4.174049377441406,-8.614429473876953,2.1305694580078125
1777561103762912800,9.472912841796875,4.106551647186279,-8.646917343139648,2.130129098892212
1777561103781441500,9.491441650390625,4.003825664520264,-8.685656547546387,2.1677474975585938
1777561103799970600,9.509970458984375,3.7236759662628174,-8.803823471069336,2.190276622772217
1777561103818499300,9.528499267578125,3.2872886657714844,-9.007820129394531,2.0550694465637207
1777561103837028000,9.547028076171875,2.797541618347168,-9.207898139953613,1.8864703178405762
1777561103855557000,9.56555712890625,2.4350509643554688,-9.326395034790039,1.8053425550460815
1777561103874086000,9.5840859375,2.3821113109588623,-9.330520629882812,1.8539973497390747
1777561103892614700,9.60261474609375,2.236715793609619,-9.358624458312988,1.893052101135254
1777561103911143700,9.621143798828125,1.8227680921554565,-9.471883773803711,1.7695503234863281
1777561103929672400,9.63967236328125,1.4077428579330444,-9.58354377746582,1.5311150550842285
1777561103948201500,9.658201416015626,1.0184215307235718,-9.67591667175293,1.2287489175796509
1777561103966730200,9.676730224609376,0.637273907661438,-9.73670482635498,0.9802279472351074
1777561103985259000,9.695259033203126,0.33010759949684143,-9.765759468078613,0.8314743041992188
1777561104003788000,9.7137880859375,0.03817448765039444,-9.774758338928223,0.7893248200416565
1777561104022316800,9.73231689453125,-0.26751068234443665,-9.769366264343262,0.8113595843315125
1777561104040845600,9.750845458984376,-0.5678432583808899,-9.755504608154297,0.8234442472457886
1777561104059374600,9.76937451171875,-0.8395463824272156,-9.736286163330078,0.8186962604522705
1777561104077903400,9.7879033203125,-1.1064071655273438,-9.709516525268555,0.81948322057724
1777561104096432000,9.80643212890625,-1.3705003261566162,-9.67466926574707,0.8324077129364014
1777561104114961200,9.824961181640624,-1.6186192035675049,-9.631258964538574,0.8884371519088745
1777561104133490000,9.843489990234374,-1.8205149173736572,-9.590018272399902,0.942161500453949
1777561104152018700,9.862018798828124,-1.9752862453460693,-9.556336402893066,0.9721445441246033
1777561104170547700,9.880547607421875,-2.113288402557373,-9.523157119750977,1.006917119026184
1777561104189076500,9.899076416015625,-2.2074220180511475,-9.495305061340332,1.0662386417388916
1777561104207605200,9.917605224609375,-2.2783920764923096,-9.46839714050293,1.152726173400879
1777561104226134300,9.93613427734375,-2.3456242084503174,-9.43939208984375,1.2515243291854858
1777561104244663000,9.9546630859375,-2.4365034103393555,-9.400219917297363,1.3673763275146484
1777561104263192000,9.973192138671875,-2.518132209777832,-9.360726356506348,1.4853299856185913
1777561104281720800,9.991720947265625,-2.5671942234039307,-9.331636428833008,1.5812817811965942
1777561104300249600,10.01024951171875,-2.5565414428710938,-9.324947357177734,1.637022614479065
1777561104318778600,10.028778564453125,-2.4851560592651367,-9.341547966003418,1.6522315740585327
1777561104337307400,10.047307373046875,-2.3388302326202393,-9.381196022033691,1.6411645412445068
1777561104355836400,10.06583642578125,-2.097773790359497,-9.438213348388672,1.6400753259658813
1777561104374365200,10.084365234375,-1.7843258380889893,-9.505152702331543,1.624385952949524
1777561104392894000,10.10289404296875,-1.3430538177490234,-9.585046768188477,1.5790733098983765
1777561104411423000,10.121423095703125,-0.7502301335334778,-9.662697792053223,1.4966055154800415
1777561104429951700,10.13995166015625,-0.02225974015891552,-9.709272384643555,1.3783783912658691
1777561104448480800,10.158480712890626,0.7906700372695923,-9.694939613342285,1.2463412284851074
1777561104467009500,10.177009521484376,1.5513750314712524,-9.61362075805664,1.1584186553955078
1777561104485538300,10.195538330078126,2.1853394508361816,-9.492291450500488,1.136264681816101
1777561104504067300,10.2140673828125,2.72302508354187,-9.353055000305176,1.1295560598373413
1777561104522596000,10.23259619140625,3.172640323638916,-9.205782890319824,1.1654584407806396
1777561104541125000,10.251125,3.592817544937134,-9.036711692810059,1.2648696899414062
1777561104559654000,10.26965380859375,4.024357795715332,-8.832935333251953,1.3979182243347168
1777561104578182700,10.2881826171875,4.610126972198486,-8.535287857055664,1.4373557567596436
1777561104596711700,10.306711669921874,5.264086723327637,-8.139571189880371,1.4856499433517456
1777561104615240400,10.325240478515624,5.820966720581055,-7.731781005859375,1.583129644393921
1777561104633769500,10.34376953125,6.280779838562012,-7.314423084259033,1.7948269844055176
1777561104652298200,10.36229833984375,6.719338893890381,-6.823628902435303,2.1116275787353516
1777561104670827000,10.380826904296875,7.0963592529296875,-6.306017875671387,2.4589028358459473
1777561104689356000,10.39935595703125,7.35727596282959,-5.871385097503662,2.7509474754333496
1777561104707884800,10.417884765625,7.520661354064941,-5.519160270690918,3.0247151851654053
1777561104726413600,10.43641357421875,7.614084243774414,-5.2485480308532715,3.263259172439575
1777561104744942600,10.454942626953125,7.632495880126953,-5.078278541564941,3.482309103012085
1777561104763471600,10.4734716796875,7.581459999084473,-5.0316877365112305,3.6570446491241455
1777561104782000400,10.49200048828125,7.492214679718018,-5.091926097869873,3.75624680519104
1777561104800529200,10.510529052734375,7.365849494934082,-5.258388042449951,3.7767727375030518
1777561104819058200,10.52905810546875,7.173305511474609,-5.561140537261963,3.7131917476654053
1777561104837587000,10.5475869140625,6.992541790008545,-5.883383274078369,3.55816388130188
1777561104856116000,10.566115966796875,6.867966175079346,-6.124691486358643,3.3896288871765137
1777561104874644700,10.584644775390625,6.545118808746338,-6.586190700531006,3.1549808979034424
1777561104893173500,10.603173583984375,6.274870872497559,-7.00419807434082,2.7816526889801025
1777561104911702500,10.62170263671875,5.899333953857422,-7.340487480163574,2.735964298248291
1777561104930231300,10.640231201171876,5.594024658203125,-7.609097957611084,2.641761541366577
1777561104948760300,10.65876025390625,5.310566425323486,-7.8831963539123535,2.4131858348846436
1777561104967289000,10.6772890625,4.944291591644287,-8.178837776184082,2.1979501247406006
1777561104985817900,10.69581787109375,4.496197700500488,-8.475050926208496,2.0317745208740234
1777561105004347000,10.714346923828124,3.949550151824951,-8.774819374084473,1.8905038833618164
1777561105022875600,10.732875732421874,3.3290297985076904,-9.043994903564453,1.8149709701538086
1777561105041404700,10.75140478515625,2.788303852081299,-9.233450889587402,1.7717549800872803
1777561105059933400,10.769933349609374,2.3722307682037354,-9.360742568969727,1.7086261510849
1777561105078462500,10.78846240234375,2.0214269161224365,-9.456024169921875,1.6333457231521606
1777561105096991200,10.8069912109375,1.6891627311706543,-9.534789085388184,1.5507802963256836
1777561105115520300,10.825520263671875,1.3374170064926147,-9.607664108276367,1.4403153657913208
1777561105134049000,10.844049072265625,0.9841512441635132,-9.672329902648926,1.2836902141571045
1777561105152578000,10.862578125,0.6377253532409668,-9.723665237426758,1.1018234491348267
1777561105171106800,10.88110693359375,0.33283188939094543,-9.750730514526367,0.9913870692253113
1777561105189635600,10.899635498046875,0.06491392105817795,-9.758017539978027,0.9732855558395386
1777561105208164600,10.91816455078125,-0.22109118103981018,-9.754684448242188,0.9836808443069458
1777561105226693400,10.936693359375,-0.5166593194007874,-9.743673324584961,0.9819828867912292
1777561105245222400,10.955222412109375,-0.7314836382865906,-9.727897644042969,1.001661777496338
1777561105263751200,10.973751220703125,-0.8933586478233337,-9.709737777709961,1.045609951019287
1777561105282280200,10.9922802734375,-1.0544486045837402,-9.690604209899902,1.0727170705795288
1777561105300809000,11.01080908203125,-1.1924997568130493,-9.670952796936035,1.1049870252609253
1777561105319337700,11.029337646484375,-1.3117083311080933,-9.649904251098633,1.1528904438018799
1777561105337866800,11.04786669921875,-1.4373512268066406,-9.624564170837402,1.2133249044418335
1777561105356395800,11.066395751953126,-1.561645269393921,-9.59496021270752,1.2916576862335205
1777561105374924500,11.084924560546876,-1.6773641109466553,-9.563035011291504,1.3802918195724487
1777561105393453600,11.10345361328125,-1.7953442335128784,-9.531787872314453,1.4464190006256104
1777561105411982300,11.121982421875,-1.8522664308547974,-9.511589050292969,1.506378173828125
1777561105430511000,11.140510986328126,-1.827932357788086,-9.512260437011719,1.531647801399231
1777561105449040100,11.1590400390625,-1.7399643659591675,-9.532024383544922,1.5111052989959717
1777561105467569000,11.17756884765625,-1.5957103967666626,-9.56477165222168,1.462616205215454
1777561105486098000,11.196097900390624,-1.4055120944976807,-9.602896690368652,1.4068737030029297
1777561105504626700,11.214626708984374,-1.1169707775115967,-9.645881652832031,1.3710310459136963
1777561105523155700,11.23315576171875,-0.6853180527687073,-9.686697959899902,1.3669710159301758
1777561105541684500,11.2516845703125,-0.08709204941987991,-9.712746620178223,1.3510582447052002
1777561105560213200,11.270213134765624,0.6633121967315674,-9.6857328414917,1.3845494985580444
1777561105578742300,11.2887421875,1.390689492225647,-9.596200942993164,1.4660489559173584
1777561105597271300,11.307271240234375,2.0624852180480957,-9.486124992370605,1.3892409801483154
1777561105615800000,11.325800048828125,2.644331693649292,-9.368255615234375,1.1889784336090088
1777561105634329000,11.3443291015625,3.0612263679504395,-9.255001068115234,1.0696890354156494
1777561105662122200,11.372122314453126,3.5174927711486816,-9.08279800415039,1.1403555870056152
1777561105680651300,11.3906513671875,3.8754007816314697,-8.921318054199219,1.2497000694274902
1777561105699180000,11.409179931640624,4.332608699798584,-8.682713508605957,1.4175217151641846
1777561105717709000,11.427708984375,4.911983966827393,-8.339205741882324,1.5812773704528809
1777561105736237800,11.44623779296875,5.517734527587891,-7.939498424530029,1.6399246454238892
1777561105754766800,11.464766845703124,5.994052886962891,-7.569530487060547,1.7157846689224243
1777561105773295600,11.483295654296874,6.398890495300293,-7.188403129577637,1.884528636932373
1777561105791824600,11.50182470703125,6.777112007141113,-6.755154609680176,2.1468608379364014
1777561105810353400,11.520353515625,7.061717510223389,-6.354573726654053,2.433502435684204
1777561105828882400,11.53888232421875,7.221286773681641,-6.044264316558838,2.7368385791778564
1777561105847411200,11.5574111328125,7.296621799468994,-5.819845676422119,3.0098297595977783
1777561105865940200,11.575940185546875,7.310671806335449,-5.6963276863098145,3.2056708335876465
1777561105884469000,11.594468994140625,7.2624006271362305,-5.691463470458984,3.321922540664673
1777561105902998000,11.612998046875,7.145883560180664,-5.812419891357422,3.3648946285247803
1777561105921526800,11.63152685546875,6.95892333984375,-6.059450626373291,3.3206682205200195
1777561105940055800,11.650055908203125,6.747076988220215,-6.356638431549072,3.200075149536133
1777561105958584600,11.66858447265625,6.737032413482666,-6.449950695037842,3.0300045013427734
1777561105977113600,11.687113525390625,6.328317642211914,-6.75956392288208,3.2297189235687256
1777561105995642400,11.705642333984375,6.2505059242248535,-7.015583515167236,2.8076956272125244
1777561106014171400,11.72417138671875,5.978720664978027,-7.283165454864502,2.716761350631714
1777561106032700200,11.7427001953125,5.735807418823242,-7.453322410583496,2.7782862186431885
1777561106051229200,11.761229248046876,5.483173847198486,-7.647655963897705,2.7601733207702637
1777561106069758000,11.779758056640626,5.23849630355835,-7.87129545211792,2.6021618843078613
1777561106088287000,11.798286865234376,4.917908668518066,-8.121110916137695,2.4560365676879883
1777561106106815700,11.816815673828126,4.512570381164551,-8.399675369262695,2.2918410301208496
1777561106125344800,11.8353447265625,4.006638050079346,-8.705113410949707,2.082843780517578
1777561106143873500,11.85387353515625,3.435469150543213,-8.991499900817871,1.876395583152771
1777561106162402600,11.872402587890624,2.8903872966766357,-9.212990760803223,1.7137258052825928
1777561106180931300,11.890931396484374,2.4104952812194824,-9.370802879333496,1.5962308645248413
1777561106199460400,11.90946044921875,2.064216136932373,-9.465152740478516,1.5232528448104858
1777561106217989000,11.927989013671874,1.8151350021362305,-9.524433135986328,1.4699809551239014
1777561106236518100,11.94651806640625,1.5450611114501953,-9.581254959106445,1.4080862998962402
1777561106255047000,11.965046875,1.199884057044983,-9.65004825592041,1.267763614654541
1777561106273576000,11.983575927734375,0.8069983124732971,-9.716814041137695,1.0500775575637817
1777561106292104700,12.002104736328125,0.42169833183288574,-9.75942325592041,0.863847553730011
1777561106310633700,12.0206337890625,0.11395183205604553,-9.773750305175781,0.7944836616516113
1777561106329162800,12.039162841796875,-0.13675183057785034,-9.771162986755371,0.8222326040267944
1777561106347691500,12.05769140625,-0.40156280994415283,-9.763444900512695,0.8272080421447754
1777561106366220500,12.076220458984375,-0.6311571002006531,-9.752950668334961,0.8074480295181274
1777561106384749300,12.094749267578125,-0.8107085227966309,-9.740459442138672,0.7978554964065552
1777561106403278300,12.1132783203125,-0.9940291047096252,-9.724844932556152,0.7808226346969604
1777561106421807000,12.13180712890625,-1.1793484687805176,-9.705493927001953,0.7634866237640381
1777561106440336100,12.150336181640625,-1.327358365058899,-9.686112403869629,0.7666311264038086
1777561106458865000,12.168864990234376,-1.4471237659454346,-9.666519165039062,0.7966325283050537
1777561106477394000,12.187393798828126,-1.5319510698318481,-9.648917198181152,0.8496605753898621
1777561106495922700,12.205922607421876,-1.577410101890564,-9.636033058166504,0.9105098843574524
1777561106514451700,12.22445166015625,-1.5934271812438965,-9.627448081970215,0.9714028239250183
1777561106532980500,12.24298046875,-1.6080290079116821,-9.619028091430664,1.029038429260254
1777561106551509500,12.261509521484374,-1.6417454481124878,-9.605795860290527,1.097150206565857
1777561106570038300,12.280038330078124,-1.7125169038772583,-9.584550857543945,1.1722007989883423
1777561106588567300,12.2985673828125,-1.8251229524612427,-9.559054374694824,1.2098652124404907
1777561106607096000,12.317095947265624,-1.8811986446380615,-9.54552173614502,1.2306480407714844
1777561106625625000,12.335625,-1.8204604387283325,-9.553122520446777,1.2626019716262817
1777561106644154000,12.354154052734375,-1.6949846744537354,-9.570826530456543,1.3025672435760498
1777561106662683000,12.372682861328125,-1.5564446449279785,-9.590354919433594,1.3315303325653076
1777561106681212000,12.3912119140625,-1.3669636249542236,-9.616089820861816,1.353743314743042
1777561106699740700,12.40974072265625,-1.0968960523605347,-9.648992538452148,1.3653430938720703
1777561106718269700,12.428269775390625,-0.7345473766326904,-9.684167861938477,1.3593099117279053
1777561106736798500,12.446798583984375,-0.2542617619037628,-9.71627140045166,1.303767442703247
1777561106755327500,12.465327392578125,0.35419711470603943,-9.72228717803955,1.2337195873260498
1777561106773856500,12.4838564453125,1.0530656576156616,-9.670061111450195,1.2455357313156128
1777561106792385300,12.50238525390625,1.759018063545227,-9.56290054321289,1.275598168373108
1777561106810914300,12.520914306640625,2.419612407684326,-9.436784744262695,1.1238102912902832
1777561106829443000,12.539443115234375,2.8436145782470703,-9.33714485168457,0.9497196078300476
1777561106847972000,12.55797216796875,2.9841930866241455,-9.295866012573242,0.9229594469070435
1777561106866500900,12.5765009765625,3.2491626739501953,-9.191522598266602,1.0626493692398071
1777561106885030000,12.59502978515625,3.7964720726013184,-8.945030212402344,1.3204702138900757
1777561106903559000,12.613558837890626,4.522945404052734,-8.534889221191406,1.6938194036483765
1777561106922087700,12.632087646484376,5.219300270080566,-8.071205139160156,1.9454907178878784
1777561106940616700,12.65061669921875,5.710480690002441,-7.697920322418213,2.0743253231048584
1777561106959145500,12.6691455078125,6.111242771148682,-7.317910194396973,2.2959258556365967
1777561106977674500,12.687674560546874,6.542144298553467,-6.858305931091309,2.516815185546875
1777561106996203300,12.706203369140624,6.910787582397461,-6.417201519012451,2.6890370845794678
1777561107014732300,12.724732177734374,7.156005382537842,-6.058334827423096,2.873772621154785
1777561107033261300,12.74326123046875,7.295813083648682,-5.780097484588623,3.0873875617980957
1777561107051790000,12.7617900390625,7.367326259613037,-5.594759464263916,3.2544682025909424
1777561107070319000,12.780319091796875,7.3744306564331055,-5.528316974639893,3.350503921508789
1777561107088848000,12.798847900390625,7.314096927642822,-5.597106456756592,3.368497133255005
1777561107107377000,12.817376953125,7.175050258636475,-5.811091899871826,3.3045809268951416
1777561107125906000,12.835906005859375,6.9478840827941895,-6.146498203277588,3.1808571815490723
1777561107144434700,12.8544345703125,6.772444248199463,-6.390881538391113,3.0758776664733887
1777561107162963700,12.872963623046875,6.57313346862793,-6.617537021636963,3.0286152362823486
1777561107181492700,12.89149267578125,6.19359016418457,-6.967021465301514,3.0447394847869873
1777561107200021500,12.910021484375,5.985983848571777,-7.264591217041016,2.7502894401550293
1777561107218550500,12.928550537109375,5.621873378753662,-7.543475151062012,2.7678346633911133
1777561107237079300,12.947079345703125,5.345679759979248,-7.765877723693848,2.6991167068481445
1777561107255608300,12.9656083984375,5.034908294677734,-8.007136344909668,2.5895655155181885
1777561107274137300,12.984137451171875,4.697185039520264,-8.265178680419922,2.407003402709961
1777561107292666000,13.002666015625,4.279665470123291,-8.53271198272705,2.246703863143921
1777561107311195100,13.021195068359376,3.7782692909240723,-8.806063652038574,2.085259437561035
1777561107329724000,13.039723876953126,3.216878890991211,-9.06372356414795,1.9159804582595825
1777561107348253000,13.0582529296875,2.6724469661712646,-9.260409355163574,1.8092037439346313
1777561107366781700,13.07678173828125,2.2088265419006348,-9.384676933288574,1.7942492961883545
1777561107385310700,13.095310791015624,1.913028359413147,-9.45790958404541,1.7489043474197388
1777561107403839700,13.11383984375,1.654183268547058,-9.518058776855469,1.6854157447814941
1777561107422368500,13.132368408203124,1.298497200012207,-9.597338676452637,1.5412272214889526
1777561107440897500,13.1508974609375,0.8852311372756958,-9.680919647216797,1.2909471988677979
1777561107459426600,13.169426513671874,0.5102614760398865,-9.739224433898926,1.0283586978912354
1777561107477955300,13.187955322265625,0.22790661454200745,-9.764579772949219,0.87831050157547
1777561107496484400,13.206484375,-0.015070035122334957,-9.768752098083496,0.861181378364563
1777561107515013400,13.225013427734375,-0.2825540602207184,-9.761244773864746,0.8992403149604797
1777561107533542100,13.243542236328125,-0.5607338547706604,-9.747745513916016,0.9151113629341125
1777561107552071200,13.2620712890625,-0.7646774053573608,-9.733284950256348,0.921312153339386
1777561107570600000,13.280599853515625,-0.9100842475891113,-9.717679023742676,0.953338623046875
1777561107589129000,13.29912890625,-1.074737787246704,-9.697342872619629,0.9883593320846558
1777561107607658000,13.317657958984375,-1.25071120262146,-9.673375129699707,1.01583731174469
1777561107626186800,13.336186767578125,-1.3880351781845093,-9.65048885345459,1.0544136762619019
1777561107644715800,13.3547158203125,-1.4944112300872803,-9.628864288330078,1.1054843664169312
1777561107663244800,13.373244873046875,-1.5806736946105957,-9.606904983520508,1.1744049787521362
1777561107681773600,13.391773681640625,-1.629657506942749,-9.587270736694336,1.264446496963501
1777561107700302600,13.410302490234375,-1.6580570936203003,-9.569435119628906,1.3590967655181885
1777561107718831600,13.42883154296875,-1.7215044498443604,-9.544157028198242,1.4546074867248535
1777561107737360400,13.4473603515625,-1.8383066654205322,-9.511360168457031,1.5248074531555176
1777561107755889400,13.465889404296876,-1.886749267578125,-9.489439010620117,1.6003485918045044
1777561107774418200,13.484418212890626,-1.8465861082077026,-9.490998268127441,1.637518048286438
1777561107792947200,13.502947265625,-1.697109341621399,-9.514718055725098,1.6614285707473755
1777561107811476200,13.521476318359374,-1.5160053968429565,-9.548994064331055,1.6397619247436523
1777561107830005200,13.540005126953124,-1.315169334411621,-9.584798812866211,1.603853464126587
1777561107848534000,13.558533935546874,-1.0437548160552979,-9.620820045471191,1.5876998901367188
1777561107867063000,13.57706298828125,-0.6747984886169434,-9.652766227722168,1.5934667587280273
1777561107885591800,13.595591796875,-0.1881026178598404,-9.67640209197998,1.5818536281585693
1777561107904120800,13.614120849609375,0.40427717566490173,-9.673213958740234,1.5607335567474365
1777561107922649900,13.63264990234375,1.0427851676940918,-9.619183540344238,1.59821355342865
1777561107941178600,13.6511787109375,1.670225977897644,-9.524372100830078,1.6331171989440918
1777561107959707600,13.669707763671875,2.291163921356201,-9.414104461669922,1.5151216983795166
1777561107978236700,13.688236572265625,2.7397289276123047,-9.316438674926758,1.366840124130249
1777561107996765400,13.706765380859375,2.987650156021118,-9.248102188110352,1.3103200197219849
1777561108015294500,13.72529443359375,3.23898983001709,-9.156886100769043,1.3530552387237549
1777561108033823500,13.743823486328125,3.684892177581787,-8.971373558044434,1.451351284980774
1777561108052352300,13.762352294921875,4.255178451538086,-8.67965316772461,1.6515034437179565
1777561108070881300,13.78088134765625,4.855518817901611,-8.316978454589844,1.8499168157577515
1777561108089410300,13.799410400390625,5.3810906410217285,-7.963925838470459,1.9468296766281128
1777561108107939300,13.817939208984376,5.825953006744385,-7.6150078773498535,2.0592007637023926
1777561108126468000,13.836468017578126,6.237636089324951,-7.224424362182617,2.2516632080078125
1777561108144997000,13.8549970703125,6.619886875152588,-6.793429374694824,2.4893381595611572
1777561108163526000,13.87352587890625,6.946381092071533,-6.370767593383789,2.7076728343963623
1777561108182055000,13.892054931640626,7.173449516296387,-6.017672061920166,2.9154129028320312
1777561108200584000,13.910583984375,7.301107406616211,-5.746700763702393,3.1368203163146973
1777561108219113000,13.929113037109374,7.365457534790039,-5.569329738616943,3.3019678592681885
1777561108237641700,13.947641845703124,7.3785505294799805,-5.495525360107422,3.3950819969177246
1777561108256170800,13.966170654296874,7.355644702911377,-5.514383792877197,3.414154529571533
1777561108274699500,13.984699462890624,7.309136867523193,-5.610336780548096,3.357236385345459
1777561108293228500,14.003228515625,7.225553035736084,-5.794408798217773,3.22282338142395
1777561108311757600,14.021757568359375,7.0671491622924805,-6.094777584075928,3.0132181644439697
1777561108330286600,14.04028662109375,6.9268341064453125,-6.372356414794922,2.7536232471466064
1777561108348815400,14.0588154296875,6.793829917907715,-6.576921463012695,2.599687337875366
1777561108367344400,14.077344482421875,6.517654895782471,-6.865896224975586,2.5593032836914062
1777561108385873200,14.095873046875,6.294458389282227,-7.128835201263428,2.3937172889709473
1777561108404402200,14.114402099609375,5.98586893081665,-7.364988803863525,2.4691503047943115
1777561108422931200,14.13293115234375,5.72554349899292,-7.563471794128418,2.486450433731079
1777561108441460200,14.151460205078125,5.444528102874756,-7.789888858795166,2.4176700115203857
1777561108459989000,14.169989013671875,5.110748767852783,-8.04837417602539,2.2965872287750244
1777561108478518000,14.18851806640625,4.694019794464111,-8.33083438873291,2.175722122192383
1777561108497047000,14.207047119140626,4.182159423828125,-8.634425163269043,2.0314080715179443
1777561108515576000,14.225576171875,3.593363046646118,-8.931675910949707,1.8663581609725952
1777561108534104800,14.244104736328126,2.993436336517334,-9.183175086975098,1.6967681646347046
1777561108552633900,14.2626337890625,2.4571876525878906,-9.368502616882324,1.5374608039855957
1777561108571162600,14.28116259765625,2.075186014175415,-9.477635383605957,1.4277316331863403
1777561108589691600,14.299691650390624,1.7918838262557983,-9.540180206298828,1.394453525543213
1777561108608220700,14.318220703125,1.492206335067749,-9.59499454498291,1.3710558414459229
1777561108626749700,14.336749755859374,1.1385579109191895,-9.656756401062012,1.2732312679290771
1777561108645278500,14.355278564453124,0.7821047306060791,-9.714306831359863,1.0912977457046509
1777561108663807500,14.373807373046875,0.4609434902667999,-9.75378131866455,0.9064611792564392
1777561108682336500,14.39233642578125,0.19220267236232758,-9.772734642028809,0.7919022440910339
1777561108700865500,14.410865478515625,-0.04433085024356842,-9.77556037902832,0.7789958119392395
1777561108719394300,14.429394287109375,-0.27908754348754883,-9.768924713134766,0.8127756714820862
1777561108737923300,14.44792333984375,-0.5329389572143555,-9.756275177001953,0.837531566619873
1777561108756452400,14.466452392578125,-0.7601171731948853,-9.740367889404297,0.8472510576248169
1777561108774981400,14.4849814453125,-0.961704432964325,-9.720880508422852,0.8660154342651367
1777561108793510100,14.50351025390625,-1.1604706048965454,-9.696450233459473,0.8958508372306824
1777561108812039200,14.5220390625,-1.321173071861267,-9.672725677490234,0.9291160702705383
1777561108830568200,14.540568115234375,-1.445055603981018,-9.651162147521973,0.968121349811554
1777561108849097200,14.55909716796875,-1.5397266149520874,-9.631102561950684,1.0205334424972534
1777561108867626000,14.5776259765625,-1.622328281402588,-9.609258651733398,1.0957101583480835
1777561108886155000,14.596155029296876,-1.6970382928848267,-9.586207389831543,1.181124210357666
1777561108904683800,14.614683837890626,-1.7765355110168457,-9.560452461242676,1.2696688175201416
1777561108923213000,14.633213134765626,-1.884901762008667,-9.528393745422363,1.3517564535140991
1777561108941741800,14.651741943359376,-1.981160044670105,-9.499372482299805,1.4168000221252441
1777561108960270800,14.670270751953124,-1.9501209259033203,-9.496684074401855,1.4766145944595337
1777561108978799600,14.688799560546874,-1.8126424551010132,-9.517181396484375,1.5191998481750488
1777561108997328600,14.70732861328125,-1.6143876314163208,-9.551847457885742,1.5252349376678467
1777561109015857700,14.725857666015624,-1.3824336528778076,-9.592907905578613,1.4951205253601074
1777561109034386700,14.74438671875,-1.104041337966919,-9.631930351257324,1.475599765777588
1777561109052915700,14.762915771484375,-0.742526650428772,-9.666486740112305,1.4758317470550537
1777561109071444500,14.781444580078125,-0.23966583609580994,-9.694443702697754,1.4597002267837524
1777561109089973500,14.799973388671875,0.4210974872112274,-9.690157890319824,1.4470360279083252
1777561109108502500,14.81850244140625,1.1125290393829346,-9.630470275878906,1.4787579774856567
1777561109127031600,14.837031494140625,1.7493000030517578,-9.549983024597168,1.381360650062561
1777561109145560600,14.855560546875,2.287491798400879,-9.467348098754883,1.1432826519012451
1777561109164089300,14.87408935546875,2.6517133712768555,-9.395125389099121,0.9329637885093689
1777561109182618400,14.892618408203125,2.9295918941497803,-9.310833930969238,0.9467069506645203
1777561109201147400,14.9111474609375,3.3706905841827393,-9.125157356262207,1.2411017417907715
1777561109219676400,14.929676513671875,3.9385108947753906,-8.830060005187988,1.6396843194961548
1777561109238205200,14.948205078125,4.5363383293151855,-8.443601608276367,2.0730669498443604
1777561109256734200,14.966734130859376,5.148796081542969,-8.035201072692871,2.2573955059051514
1777561109275263200,14.98526318359375,5.643937110900879,-7.692963600158691,2.2659809589385986
1777561109293792000,15.0037919921875,6.03891658782959,-7.346867084503174,2.392784595489502
1777561109312321000,15.022321044921876,6.451730251312256,-6.900577068328857,2.6320340633392334
1777561109330850000,15.04085009765625,6.805525302886963,-6.4225850105285645,2.9335334300994873
1777561109349379000,15.059379150390624,7.061844825744629,-5.998683929443359,3.211935520172119
1777561109367907800,15.077907958984374,7.241195201873779,-5.644400119781494,3.4461894035339355
1777561109386436900,15.096436767578124,7.349029064178467,-5.366121768951416,3.6560752391815186
1777561109404966000,15.1149658203125,7.382091045379639,-5.197971820831299,3.8283426761627197
1777561109423495000,15.133494873046875,7.356442451477051,-5.147678852081299,3.943925380706787
1777561109442023700,15.152023681640625,7.287178039550781,-5.201711654663086,4.00120210647583
1777561109460552700,15.170552734375,7.188516139984131,-5.341525077819824,3.9954638481140137
1777561109479081700,15.189081787109375,7.066788673400879,-5.571535587310791,3.897289991378784
1777561109497610800,15.20761083984375,7.000818252563477,-5.788302898406982,3.6951963901519775
1777561109516139800,15.226139892578125,7.036014080047607,-5.866823673248291,3.4993252754211426
1777561109534668800,15.244668701171875,6.756357669830322,-6.157149314880371,3.551271677017212
1777561109553197600,15.263197509765625,6.688446521759033,-6.419005393981934,3.198662519454956
1777561109571726600,15.2817265625,6.4271111488342285,-6.682560443878174,3.1946845054626465
1777561109590255600,15.300255615234375,6.2028326988220215,-6.926888942718506,3.116642951965332
1777561109608784600,15.31878466796875,5.938477993011475,-7.1869797706604,3.041741132736206
1777561109627313400,15.3373134765625,5.6427321434021,-7.45387077331543,2.9613821506500244
1777561109645842400,15.355842529296876,5.312933444976807,-7.738403797149658,2.8390533924102783
1777561109664371500,15.374371337890626,4.9442596435546875,-8.03275203704834,2.683201789855957
1777561109682900500,15.392900390625,4.534379482269287,-8.326873779296875,2.504587411880493
1777561109701429500,15.411429443359374,4.075451850891113,-8.615973472595215,2.3078315258026123
1777561109719958300,15.429958251953124,3.5819523334503174,-8.8777494430542,2.1273412704467773
1777561109738487300,15.4484873046875,3.090484380722046,-9.09389877319336,1.9799772500991821
1777561109757016300,15.467016357421874,2.622957468032837,-9.267504692077637,1.8449499607086182
1777561109775545300,15.48554541015625,2.2009336948394775,-9.399449348449707,1.7252883911132812
1777561109794074400,15.504074462890625,1.8796755075454712,-9.481369972229004,1.6555473804473877
1777561109812603400,15.522603271484375,1.660128116607666,-9.526464462280273,1.6312026977539062
1777561109831132200,15.541132080078125,1.4247188568115234,-9.568870544433594,1.6053822040557861
1777561109849661200,15.5596611328125,1.110589861869812,-9.620195388793945,1.5455790758132935
1777561109868190200,15.578190185546875,0.7727109789848328,-9.662863731384277,1.4840340614318848
1777561109886719200,15.59671923828125,0.4396998882293701,-9.684418678283691,1.4795525074005127
1777561109905248300,15.615248291015625,0.14597967267036438,-9.678540229797363,1.5731920003890991
1777561109923777000,15.633777099609375,-0.12488191574811935,-9.656401634216309,1.7054847478866577
1777561109942306000,15.65230615234375,-0.43472936749458313,-9.63706111907959,1.7630778551101685
1777561109960835000,15.6708349609375,-0.7666569352149963,-9.627067565917969,1.7035866975784302
1777561109979364000,15.689364013671875,-1.0363754034042358,-9.615799903869629,1.6225619316101074
1777561109997893000,15.70789306640625,-1.2600247859954834,-9.59611701965332,1.5802690982818604
1777561110016422100,15.726422119140626,-1.481998085975647,-9.565633773803711,1.5724903345108032
1777561110034951000,15.744950927734376,-1.6578742265701294,-9.528948783874512,1.6189435720443726
1777561110053480000,15.76347998046875,-1.8135106563568115,-9.48808765411377,1.6904857158660889
1777561110072009000,15.782009033203124,-1.9622489213943481,-9.444513320922852,1.7666734457015991
1777561110090538000,15.8005380859375,-2.085813045501709,-9.400284767150879,1.858601450920105
1777561110109067000,15.81906689453125,-2.190990686416626,-9.356433868408203,1.956295132637024
1777561110127595800,15.837595703125,-2.2892849445343018,-9.313498497009277,2.046534538269043
1777561110146125000,15.856125,-2.4068074226379395,-9.267502784729004,2.1192092895507812
1777561110164653800,15.87465380859375,-2.5398008823394775,-9.217795372009277,2.1799209117889404
1777561110183182800,15.893182861328125,-2.651094913482666,-9.171284675598145,2.2426819801330566
1777561110201711900,15.9117119140625,-2.7085728645324707,-9.139935493469238,2.301215648651123
1777561110220241000,15.930240966796875,-2.7209393978118896,-9.12822151184082,2.3329036235809326
1777561110238770000,15.94877001953125,-2.6687655448913574,-9.141717910766602,2.3403167724609375
1777561110257298700,15.967298583984375,-2.55374813079834,-9.180769920349121,2.315645217895508
1777561110275827700,15.98582763671875,-2.401435375213623,-9.235150337219238,2.261746406555176
1777561110294356700,16.004356689453125,-2.1421914100646973,-9.311483383178711,2.208543300628662
1777561110312885800,16.0228857421875,-1.7458897829055786,-9.404841423034668,2.161299467086792
1777561110331414800,16.041414794921874,-1.2126708030700684,-9.496517181396484,2.125082492828369
1777561110349943800,16.05994384765625,-0.5967556834220886,-9.56231689453125,2.091975212097168
1777561110368472800,16.078472900390626,-0.015791721642017365,-9.587100982666016,2.0634031295776367
1777561110387001600,16.097001708984376,0.48814499378204346,-9.576794624328613,2.053558111190796
1777561110405531000,16.11553076171875,0.9432324171066284,-9.5342435836792,2.092580556869507
1777561110424059600,16.1340595703125,1.2008986473083496,-9.53143310546875,1.9697740077972412
1777561110442588700,16.152588623046874,1.6075388193130493,-9.461462020874023,2.016665458679199
1777561110461117700,16.17111767578125,2.0456652641296387,-9.32381534576416,2.247687578201294
1777561110479646700,16.189646728515626,2.435062885284424,-9.18851089477539,2.4108359813690186
1777561110498175700,16.20817578125,2.7293431758880615,-9.08316707611084,2.493422746658325
1777561110516704800,16.226704833984375,3.0378401279449463,-8.96773624420166,2.553748369216919
1777561110535233800,16.24523388671875,3.4004762172698975,-8.80955696105957,2.6455390453338623
1777561110553762600,16.263762451171875,3.7527737617492676,-8.619638442993164,2.790860891342163
1777561110572291600,16.28229150390625,4.046131610870361,-8.434045791625977,2.943819522857666
1777561110590820600,16.300820556640623,4.250009059906006,-8.307209968566895,3.0163002014160156
1777561110609349600,16.319349609375,4.395035743713379,-8.242069244384766,2.987030506134033
1777561110627878700,16.337878662109375,4.4813551902771,-8.215291023254395,2.932032823562622
1777561110646407700,16.35640771484375,4.520279884338379,-8.215975761413574,2.8697030544281006
1777561110664936700,16.374936767578124,4.540679931640625,-8.224919319152832,2.811284065246582
1777561110683465700,16.3934658203125,4.545361518859863,-8.241711616516113,2.753955602645874
1777561110701994500,16.411994384765624,4.5057597160339355,-8.285484313964844,2.686871290206909
1777561110720523800,16.430523681640626,4.401501178741455,-8.368843078613281,2.59993052482605
1777561110739052500,16.449052490234376,4.220669746398926,-8.49930477142334,2.4734911918640137
1777561110757581600,16.46758154296875,3.965228319168091,-8.660579681396484,2.3327438831329346
1777561110776110600,16.486110595703124,3.6571178436279297,-8.82149600982666,2.230938196182251
1777561110794639600,16.5046396484375,3.405005931854248,-8.920685768127441,2.23555064201355
1777561110813168600,16.523168701171876,3.4396753311157227,-8.880345344543457,2.340618848800659
1777561110831697700,16.54169775390625,3.636878252029419,-8.796504974365234,2.359025478363037
1777561110850226700,16.560226806640625,3.739678382873535,-8.762663841247559,2.323986530303955
1777561110868755700,16.578755615234375,3.913231372833252,-8.682877540588379,2.337660551071167
1777561110887284700,16.59728466796875,3.983776092529297,-8.639363288879395,2.3793506622314453
1777561110905813800,16.615813720703127,3.9345359802246094,-8.656097412109375,2.4003746509552
1777561110924342500,16.634342529296877,3.8878226280212402,-8.694746971130371,2.3359367847442627
1777561110942871800,16.652871826171875,3.693527936935425,-8.819690704345703,2.177452802658081
1777561110961400600,16.671400634765625,3.518455743789673,-8.866377830505371,2.275568962097168
1777561110979929600,16.6899296875,3.338646173477173,-8.83871841430664,2.6269571781158447
1777561110998458600,16.708458740234374,3.1399660110473633,-8.840228080749512,2.856811046600342
1777561111016987600,16.726987548828124,2.923992156982422,-8.905194282531738,2.884122371673584
1777561111035516700,16.7455166015625,2.601106643676758,-9.02513313293457,2.8198578357696533
1777561111054045700,16.764045654296876,2.2058117389678955,-9.16154670715332,2.714926242828369
1777561111072574700,16.78257470703125,1.8749518394470215,-9.254703521728516,2.6467740535736084
1777561111091103700,16.801103759765624,1.5797626972198486,-9.321293830871582,2.6054203510284424
1777561111109632800,16.8196328125,1.2866904735565186,-9.392073631286621,2.5107293128967285
1777561111128161800,16.838161865234376,0.964971125125885,-9.47305965423584,2.3452823162078857
1777561111146690800,16.85669091796875,0.6405224800109863,-9.549429893493652,2.1374080181121826
1777561111165219800,16.8752197265625,0.34435737133026123,-9.603073120117188,1.9577487707138062
1777561111183748900,16.893748779296875,0.04069027304649353,-9.626837730407715,1.8688855171203613
1777561111202278000,16.91227783203125,-0.2743910551071167,-9.630766868591309,1.8285013437271118
1777561111220807000,16.930806884765627,-0.5617058873176575,-9.615580558776855,1.8426860570907593
1777561111239336000,16.9493359375,-0.8450519442558289,-9.588249206542969,1.8766332864761353
1777561111257865000,16.967864990234375,-1.1035815477371216,-9.557511329650879,1.8990730047225952
1777561111276394000,16.98639404296875,-1.2875840663909912,-9.530477523803711,1.9189903736114502
1777561111294923000,17.004923095703123,-1.3960883617401123,-9.506851196289062,1.9598745107650757
1777561111313452000,17.0234521484375,-1.5235954523086548,-9.47704792022705,2.0086371898651123
1777561111331981000,17.04198095703125,-1.738538384437561,-9.426775932312012,2.0697250366210938
1777561111350509800,17.060509765625,-1.9567553997039795,-9.372644424438477,2.1201508045196533
1777561111369039000,17.0790390625,-2.101569414138794,-9.327234268188477,2.180938482284546
1777561111387568000,17.097568115234374,-2.1946942806243896,-9.29404354095459,2.2303483486175537
1777561111406097000,17.116096923828124,-2.2634806632995605,-9.274065017700195,2.2447211742401123
1777561111424626200,17.134626220703126,-2.3062736988067627,-9.261853218078613,2.2515673637390137
1777561111443155000,17.153155029296876,-2.334113359451294,-9.239497184753418,2.313870429992676
1777561111461684200,17.171684326171874,-2.3548831939697266,-9.207837104797363,2.4167420864105225
1777561111480213200,17.190213134765624,-2.3855738639831543,-9.188843727111816,2.4585702419281006
1777561111498742000,17.208741943359374,-2.4085605144500732,-9.192838668823242,2.4209375381469727
1777561111517271300,17.227271240234376,-2.373812437057495,-9.213815689086914,2.37507700920105
1777561111535800000,17.245800048828126,-2.238469362258911,-9.268656730651855,2.2916464805603027
1777561111554329000,17.2643291015625,-1.9647001028060913,-9.357391357421875,2.1793529987335205
1777561111582122800,17.292122802734376,-1.3676034212112427,-9.500937461853027,2.008039951324463
1777561111600651800,17.31065185546875,-0.8258538842201233,-9.579411506652832,1.9295655488967896
1777561111619180800,17.329180908203124,-0.1847841590642929,-9.619047164916992,1.9000426530838013
1777561111637709800,17.347709716796874,0.4599737823009491,-9.611309051513672,1.8925001621246338
1777561111656238800,17.36623876953125,1.082027792930603,-9.55667495727539,1.915610671043396
1777561111674768000,17.384767822265626,1.684618592262268,-9.457677841186523,1.970981478691101
1777561111693297000,17.403296875,2.2082107067108154,-9.332731246948242,2.0480079650878906
1777561111711826000,17.421825927734375,2.6328463554382324,-9.193497657775879,2.17212176322937
1777561111730355000,17.44035498046875,3.0334649085998535,-9.025083541870117,2.348689317703247
1777561111748884000,17.458884033203127,3.4879448413848877,-8.848241806030273,2.390241861343384
1777561111767413000,17.4774130859375,4.065399169921875,-8.64183235168457,2.2274770736694336
1777561111785942000,17.49594189453125,4.62467098236084,-8.362869262695312,2.2011847496032715
1777561111804471000,17.514470947265625,5.079756259918213,-8.023591041564941,2.4471278190612793
1777561111823000000,17.533,5.590928077697754,-7.595864295959473,2.6860289573669434
1777561111841529000,17.551529052734374,6.135246753692627,-7.072501182556152,2.916995048522949
1777561111860058000,17.57005810546875,6.558338165283203,-6.520146369934082,3.262864589691162
1777561111878587100,17.588587158203126,6.8243937492370605,-6.0036540031433105,3.6815996170043945
1777561111897116200,17.6071162109375,7.013812065124512,-5.521960735321045,4.06014347076416
1777561111915645400,17.6256455078125,7.184256076812744,-5.105476379394531,4.300111770629883
1777561111934174200,17.64417431640625,7.345697402954102,-4.792201995849609,4.387016773223877
1777561111952703500,17.662703369140626,7.487278461456299,-4.568671226501465,4.386147975921631
1777561111980497000,17.690496826171874,7.609078407287598,-4.387423992156982,4.361516952514648
1777561111999026000,17.70902587890625,7.618587970733643,-4.361502170562744,4.370903491973877
1777561112017555000,17.727554931640626,7.590980529785156,-4.389257907867432,4.391106605529785
1777561112036084000,17.746083984375,7.551340103149414,-4.46903657913208,4.378968715667725
1777561112054613000,17.764613037109374,7.4953789710998535,-4.628345966339111,4.309069633483887
1777561112073142000,17.78314208984375,7.363357067108154,-4.928220272064209,4.202856540679932
1777561112091671300,17.80167138671875,7.235047817230225,-5.218930721282959,4.072741985321045
1777561112110200000,17.820199951171876,7.179157257080078,-5.395385265350342,3.9395320415496826
1777561112128729000,17.83872900390625,6.968203544616699,-5.711303234100342,3.8724076747894287
1777561112147258400,17.85725830078125,6.792966842651367,-6.107480525970459,3.567164897918701
1777561112165787400,17.875787353515626,6.539855003356934,-6.48138952255249,3.375244140625
1777561112184316400,17.89431640625,6.2935261726379395,-6.825197696685791,3.1588919162750244
1777561112202845400,17.912845458984375,6.02620267868042,-7.212395191192627,2.79939603805542
1777561112221374500,17.93137451171875,5.689700126647949,-7.613662242889404,2.4145097732543945
1777561112239903500,17.949903564453123,5.236242294311523,-8.021317481994629,2.1001503467559814
1777561112258432500,17.9684326171875,4.667762279510498,-8.42553424835205,1.84194016456604
1777561112276961500,17.98696142578125,4.073415756225586,-8.756914138793945,1.7012120485305786
1777561112295490600,18.005490478515625,3.548293113708496,-8.979164123535156,1.7189009189605713
1777561112314019800,18.024019775390624,3.170241355895996,-9.103703498840332,1.800708293914795
1777561112332548900,18.042548828125,2.8689746856689453,-9.181934356689453,1.905637502670288
1777561112351077600,18.06107763671875,2.519418478012085,-9.27682876586914,1.9399383068084717
1777561112369607000,18.07960693359375,2.118187427520752,-9.408720970153809,1.7775352001190186
1777561112388136000,18.098135986328124,1.6375364065170288,-9.553450584411621,1.4901164770126343
1777561112406691600,18.116691650390624,1.1392840147018433,-9.667943954467773,1.184603214263916
1777561112425194000,18.135194091796876,0.8172551989555359,-9.725183486938477,0.9608769416809082
1777561112443723000,18.153722900390626,0.5477014780044556,-9.756650924682617,0.8235077261924744
1777561112462252000,18.172251953125,0.2261538803577423,-9.775341033935547,0.7496451139450073
1777561112480781300,18.19078125,-0.08213219791650772,-9.779364585876465,0.726397693157196
1777561112499310300,18.209310302734377,-0.34882405400276184,-9.771116256713867,0.7576280236244202
1777561112517839400,18.22783935546875,-0.5810283422470093,-9.756580352783203,0.8012097477912903
1777561112536368400,18.246368408203125,-0.8002735376358032,-9.73796272277832,0.8378668427467346
1777561112554897400,18.2648974609375,-1.019479751586914,-9.713443756103516,0.8832036852836609
1777561112573426400,18.283426513671873,-1.2207229137420654,-9.684998512268066,0.9386308789253235
1777561112591955500,18.30195556640625,-1.4046783447265625,-9.654233932495117,0.9965044260025024
1777561112610484700,18.320484619140625,-1.5542703866958618,-9.624239921569824,1.0623633861541748
1777561112629013800,18.339013671875,-1.671741008758545,-9.597281455993652,1.1259890794754028
1777561112647542800,18.357542724609374,-1.7571264505386353,-9.574012756347656,1.1921299695968628
1777561112666071800,18.37607177734375,-1.8141734600067139,-9.553338050842285,1.270001769065857
1777561112684600800,18.394600830078126,-1.8244515657424927,-9.54438591003418,1.3215302228927612
1777561112703130000,18.413130126953124,-1.7203952074050903,-9.560297012329102,1.3458627462387085
1777561112721659100,18.4316591796875,-1.5314656496047974,-9.593674659729004,1.3365658521652222
1777561112740188200,18.450188232421876,-1.2592246532440186,-9.635865211486816,1.3171309232711792
1777561112758717200,18.46871728515625,-0.9145068526268005,-9.678577423095703,1.2881035804748535
1777561112777246200,18.48724609375,-0.4831761121749878,-9.711496353149414,1.2742749452590942
1777561112795775200,18.505775146484375,0.069527767598629,-9.723267555236816,1.2742103338241577
1777561112814304500,18.524304443359377,0.7704887986183167,-9.689240455627441,1.3020577430725098
1777561112832833500,18.54283349609375,1.5643773078918457,-9.583698272705078,1.3696067333221436
1777561112851362600,18.561362548828125,2.3004212379455566,-9.437617301940918,1.3453000783920288
1777561112869891600,18.5798916015625,2.857677936553955,-9.303373336791992,1.2046979665756226
1777561112888420900,18.5984208984375,3.2171247005462646,-9.197552680969238,1.107029676437378
1777561112906950000,18.616949951171875,3.4825849533081055,-9.10294246673584,1.0855499505996704
1777561112925479000,18.63547900390625,3.8893022537231445,-8.93309211730957,1.1151567697525024
1777561112944008200,18.65400830078125,4.454397678375244,-8.636270523071289,1.3204407691955566
1777561112962537200,18.672537109375,5.02003812789917,-8.249290466308594,1.7084530591964722
1777561112981066200,18.691066162109376,5.537250518798828,-7.838198184967041,2.017892360687256
1777561112999595500,18.709595458984374,5.982110500335693,-7.4488677978515625,2.213393449783325
1777561113018124500,18.72812451171875,6.375672817230225,-7.074949741363525,2.3380045890808105
1777561113036653600,18.746653564453126,6.709567070007324,-6.7122111320495605,2.469475030899048
1777561113055182800,18.765182861328125,6.96564245223999,-6.362594127655029,2.677238702774048
1777561113073711900,18.7837119140625,7.1506147384643555,-6.060157775878906,2.883329391479492
1777561113092241000,18.802240966796877,7.2642340660095215,-5.82703161239624,3.0735955238342285
1777561113110770000,18.82077001953125,7.3136677742004395,-5.681453227996826,3.2251734733581543
1777561113129299200,18.83929931640625,7.304548263549805,-5.643621444702148,3.3111162185668945
1777561113147828200,18.857828125,7.224388122558594,-5.728137493133545,3.3417110443115234
1777561113166357500,18.876357421875,7.055720806121826,-5.949031352996826,3.3160550594329834
1777561113184886500,18.894886474609375,6.788395404815674,-6.285233974456787,3.2532901763916016
1777561113203415600,18.91341552734375,6.73240327835083,-6.410119533538818,3.1233808994293213
1777561113221944800,18.93194482421875,6.35864782333374,-6.757257461547852,3.174501657485962
1777561113240473900,18.950473876953126,6.184531211853027,-7.040799617767334,2.8894801139831543
1777561113259003100,18.969003173828124,5.845955848693848,-7.391474723815918,2.713168144226074
1777561113277532200,18.9875322265625,5.560998916625977,-7.629683017730713,2.652099609375
1777561113296061200,19.006061279296876,5.297784328460693,-7.840513706207275,2.5749175548553467
1777561113314590500,19.024590576171875,5.032649517059326,-8.06592082977295,2.4049408435821533
1777561113333119700,19.04311962890625,4.714799880981445,-8.297715187072754,2.2558741569519043
1777561113351648800,19.061648681640627,4.325467109680176,-8.539215087890625,2.1313188076019287
1777561113370177800,19.080177734375,3.826650381088257,-8.806014060974121,1.9953075647354126
1777561113388707000,19.09870703125,3.2591726779937744,-9.060064315795898,1.8610241413116455
1777561113407236000,19.117236083984373,2.7518367767333984,-9.249329566955566,1.7457610368728638
1777561113425765400,19.135765380859375,2.415503740310669,-9.36323356628418,1.6326667070388794
1777561113444294400,19.15429443359375,2.1581921577453613,-9.439620971679688,1.5511748790740967
1777561113481353000,19.19135302734375,1.5428518056869507,-9.589601516723633,1.352610468864441
1777561113499882000,19.209882080078124,1.194825291633606,-9.668144226074219,1.1268399953842163
1777561113518411300,19.228411376953126,0.8323557376861572,-9.73121166229248,0.8837898373603821
1777561113536940300,19.246940185546876,0.5106667280197144,-9.765331268310547,0.7402050495147705
1777561113555469600,19.265469482421874,0.24011977016925812,-9.776252746582031,0.7332068085670471
1777561113573998600,19.28399853515625,-0.050695162266492844,-9.7779541015625,0.7479466795921326
1777561113592528000,19.30252783203125,-0.35106855630874634,-9.773680686950684,0.7226967811584473
1777561113611057000,19.321056884765625,-0.6011149883270264,-9.763252258300781,0.6985325217247009
1777561113629586200,19.339586181640627,-0.8108060956001282,-9.748119354248047,0.6979708671569824
1777561113648115500,19.358115478515625,-1.022970199584961,-9.727521896362305,0.7065631747245789
1777561113666644500,19.37664453125,-1.202858567237854,-9.705412864685059,0.7269668579101562
1777561113685173800,19.395173828125,-1.3426626920700073,-9.684015274047852,0.766474187374115
1777561113703702800,19.413702880859375,-1.430471420288086,-9.66710090637207,0.8193212747573853
1777561113722232000,19.432232177734374,-1.461836338043213,-9.657671928405762,0.8733793497085571
1777561113740761300,19.45076123046875,-1.4789310693740845,-9.648364067077637,0.9445748925209045
1777561113759290400,19.469290283203126,-1.5269695520401,-9.631305694580078,1.0376410484313965
1777561113777819600,19.487819580078124,-1.6119695901870728,-9.607162475585938,1.1288821697235107
1777561113796349000,19.506348876953126,-1.686959981918335,-9.587006568908691,1.189051628112793
1777561113814878000,19.5248779296875,-1.6643385887145996,-9.586618423461914,1.223567008972168
1777561113833407200,19.5434072265625,-1.5472339391708374,-9.604349136352539,1.2381210327148438
1777561113851936500,19.5619365234375,-1.366952657699585,-9.632024765014648,1.2352874279022217
1777561113870465500,19.580465576171875,-1.1379536390304565,-9.664058685302734,1.2171393632888794
1777561113888994800,19.598994873046873,-0.832349419593811,-9.695832252502441,1.2117815017700195
1777561113907524000,19.617524169921875,-0.407490611076355,-9.721325874328613,1.2248072624206543
1777561113926053400,19.636053466796874,0.1809227466583252,-9.725114822387695,1.248921275138855
1777561113944582700,19.654582763671876,0.9228377938270569,-9.670927047729492,1.3386298418045044
1777561113963111700,19.673111572265626,1.7067346572875977,-9.548723220825195,1.4419881105422974
1777561113981641000,19.691640869140624,2.459958076477051,-9.390213012695312,1.3938746452331543
1777561114000170200,19.710170166015626,3.0899598598480225,-9.20997142791748,1.341256856918335
1777561114018699500,19.728699462890624,3.5051944255828857,-9.048458099365234,1.4175342321395874
1777561114037228800,19.747228759765626,3.8642187118530273,-8.870831489562988,1.5957927703857422
1777561114055757800,19.7657578125,4.239021301269531,-8.628257751464844,1.9375871419906616
1777561114074287000,19.784287109375,4.739175319671631,-8.241270065307617,2.406672954559326
1777561114092816400,19.80281640625,5.448291301727295,-7.7197489738464355,2.625258445739746
1777561114111345700,19.821345703125,5.957222938537598,-7.3244309425354,2.65228009223938
1777561114129875000,19.839875,6.284875392913818,-6.9997968673706055,2.770122528076172
1777561114148404200,19.858404296875,6.607972145080566,-6.59946870803833,2.9920079708099365
1777561114166933200,19.876933349609374,6.870561599731445,-6.211428642272949,3.2224082946777344
1777561114185462500,19.895462646484376,7.045551300048828,-5.883410453796387,3.4519662857055664
1777561114203991800,19.91399169921875,7.1622843742370605,-5.61348295211792,3.65525221824646
1777561114222521000,19.93252099609375,7.226169109344482,-5.427672863006592,3.8069992065429688
1777561114241050400,19.95105029296875,7.2343668937683105,-5.345533847808838,3.906352996826172
1777561114259579400,19.969579345703124,7.181027889251709,-5.388089656829834,3.946100950241089
1777561114278108700,19.988108642578126,7.050424098968506,-5.576534748077393,3.919715404510498
1777561114296638000,20.006637939453125,6.8377580642700195,-5.900806903839111,3.8204619884490967
1777561114315167200,20.025167236328127,6.728745460510254,-6.084388732910156,3.7248592376708984
1777561114333696500,20.043696533203125,6.538267135620117,-6.278481960296631,3.7419400215148926
1777561114352225800,20.062225830078123,6.307470798492432,-6.581670761108398,3.614941120147705
1777561114370755000,20.080755126953125,6.100130558013916,-6.913563251495361,3.3408751487731934
1777561114389284400,20.099284423828124,5.83106803894043,-7.1640543937683105,3.293229579925537
1777561114407813600,20.117813720703126,5.572991371154785,-7.398250102996826,3.2214975357055664
1777561114426343000,20.136343017578124,5.313740253448486,-7.64931583404541,3.0696115493774414
1777561114444872200,20.1548720703125,5.0434956550598145,-7.891515254974365,2.908186435699463
1777561114463401500,20.1734013671875,4.711161136627197,-8.155143737792969,2.732943296432495
1777561114481930800,20.1919306640625,4.298870086669922,-8.445323944091797,2.523214340209961
1777561114500460000,20.2104599609375,3.8103058338165283,-8.73520278930664,2.312612533569336
1777561114518989300,20.2289892578125,3.292907953262329,-8.983991622924805,2.1482629776000977
1777561114537518600,20.2475185546875,2.8482017517089844,-9.161627769470215,2.0304465293884277
1777561114556048000,20.2660478515625,2.5252065658569336,-9.278940200805664,1.9222339391708374
1777561114574577200,20.2845771484375,2.2226758003234863,-9.377164840698242,1.816281795501709
1777561114593106700,20.303106689453124,1.8945542573928833,-9.476415634155273,1.6669164896011353
1777561114611636000,20.321635986328126,1.5697540044784546,-9.574193000793457,1.42865788936615
1777561114630165200,20.340165283203124,1.21128511428833,-9.666792869567871,1.1208528280258179
1777561114648694500,20.358694580078126,0.8402132987976074,-9.732633590698242,0.8603909015655518
1777561114667223800,20.377223876953124,0.5236040353775024,-9.76424503326416,0.7454842925071716
1777561114685753000,20.395753173828126,0.26770806312561035,-9.772377967834473,0.774174153804779
1777561114704282400,20.414282470703125,-0.006746055092662573,-9.774622917175293,0.7918907999992371
1777561114722811600,20.432811767578126,-0.2753971815109253,-9.77497386932373,0.737856388092041
1777561114741341200,20.451341064453125,-0.48632028698921204,-9.769913673400879,0.694745659828186
1777561114759870500,20.469870361328127,-0.6737164258956909,-9.758757591247559,0.6950964331626892
1777561114778399700,20.488399658203125,-0.8560508489608765,-9.744036674499512,0.700935959815979
1777561114796929000,20.506928955078124,-1.0214228630065918,-9.727076530456543,0.7148996591567993
1777561114815458300,20.525458251953125,-1.1395349502563477,-9.711509704589844,0.7472904324531555
1777561114833987600,20.543987548828124,-1.2324377298355103,-9.695831298828125,0.8014641404151917
1777561114852517000,20.56251708984375,-1.314427137374878,-9.678743362426758,0.8744033575057983
1777561114871046400,20.58104638671875,-1.3775743246078491,-9.6625394821167,0.9528932571411133
1777561114889575700,20.59957568359375,-1.442458987236023,-9.64473819732666,1.0337892770767212
1777561114908105000,20.61810498046875,-1.5205312967300415,-9.622278213500977,1.1270095109939575
1777561114926634200,20.63663427734375,-1.6017367839813232,-9.59591293334961,1.2342116832733154
1777561114945163800,20.655163818359377,-1.6576119661331177,-9.577519416809082,1.3014757633209229
1777561114963693000,20.673693115234375,-1.6081552505493164,-9.5803804397583,1.3418375253677368
1777561114982222300,20.692222412109373,-1.4597502946853638,-9.600557327270508,1.3670439720153809
1777561115000751600,20.710751708984375,-1.2554048299789429,-9.628867149353027,1.3708643913269043
1777561115019281200,20.72928125,-0.9948573112487793,-9.662317276000977,1.3491703271865845
1777561115037810400,20.747810546875,-0.6405420899391174,-9.697367668151855,1.3119274377822876
1777561115056339700,20.766339599609374,-0.18852373957633972,-9.72150993347168,1.275575876235962
1777561115074869000,20.784868896484376,0.338856965303421,-9.71935749053955,1.2608095407485962
1777561115093398500,20.8033984375,0.9546657204627991,-9.675814628601074,1.2796854972839355
1777561115111927800,20.821927734375,1.6635711193084717,-9.574091911315918,1.3189717531204224
1777561115130457000,20.84045703125,2.3764331340789795,-9.42639446258545,1.2907532453536987
1777561115148986600,20.858986572265625,2.9517269134521484,-9.278057098388672,1.1727498769760132
1777561115167516000,20.877515869140623,3.339857816696167,-9.157638549804688,1.0739524364471436
1777561115186045200,20.896045166015625,3.60341215133667,-9.058234214782715,1.0649902820587158
1777561115204574700,20.91457470703125,3.9334421157836914,-8.905865669250488,1.1764287948608398
1777561115223104000,20.93310400390625,4.4136576652526855,-8.628022193908691,1.4990763664245605
1777561115241633300,20.95163330078125,5.059676170349121,-8.176955223083496,1.9254798889160156
1777561115260162800,20.970162841796874,5.681117534637451,-7.686944007873535,2.19230055809021
1777561115278692000,20.988692138671876,6.091516494750977,-7.326729774475098,2.3200950622558594
1777561115297221400,21.007221435546874,6.423090934753418,-6.983224868774414,2.479689121246338
1777561115315751000,21.0257509765625,6.7528815269470215,-6.588940620422363,2.6748528480529785
1777561115334280200,21.0442802734375,7.0178046226501465,-6.224969387054443,2.8584206104278564
1777561115352809700,21.062809814453125,7.18577766418457,-5.937506198883057,3.0464770793914795
1777561115371339000,21.081339111328123,7.276089668273926,-5.734386444091797,3.216475009918213
1777561115389868300,21.099868408203125,7.309420108795166,-5.625051975250244,3.3318991661071777
1777561115408397800,21.118397705078124,7.281766891479492,-5.628868103027344,3.385572910308838
1777561115426927000,21.136927001953126,7.184128284454346,-5.762276649475098,3.3696963787078857
1777561115445456400,21.155456298828124,6.991594314575195,-6.040533542633057,3.2863266468048096
1777561115463986000,21.17398583984375,6.767016887664795,-6.336935997009277,3.197049617767334
1777561115482515500,21.192515380859376,6.622684478759766,-6.520956039428711,3.128509283065796
1777561115501044700,21.211044677734375,6.258821487426758,-6.843137264251709,3.1888904571533203
1777561115519574000,21.229573974609377,6.094440937042236,-7.132382869720459,2.8560984134674072
1777561115538103600,21.248103515625,5.768094062805176,-7.423329830169678,2.7917120456695557
1777561115556632800,21.2666328125,5.516623020172119,-7.606704235076904,2.8062961101531982
1777561115575162000,21.285162109375,5.228046894073486,-7.8192620277404785,2.774357318878174
1777561115593691600,21.303691650390626,4.94097375869751,-8.030248641967773,2.69671368598938
1777561115612221200,21.32222119140625,4.604283332824707,-8.256696701049805,2.6072838306427
1777561115630750500,21.34075048828125,4.183412075042725,-8.5005464553833,2.5318284034729004
1777561115649280000,21.359280029296876,3.69842791557312,-8.75013256072998,2.434579849243164
1777561115667809300,21.377809326171874,3.2051358222961426,-8.969468116760254,2.3336966037750244
1777561115686338600,21.396338623046876,2.7568488121032715,-9.146295547485352,2.217081069946289
1777561115704868000,21.4148681640625,2.3872251510620117,-9.295498847961426,2.0162477493286133
1777561115723397600,21.433397705078125,2.060896396636963,-9.407596588134766,1.8493808507919312
1777561115741927000,21.451927001953123,1.758118748664856,-9.503705024719238,1.6610267162322998
1777561115760456400,21.47045654296875,1.4633039236068726,-9.590866088867188,1.4298312664031982
1777561115778985700,21.48898583984375,1.1530508995056152,-9.66884708404541,1.1637214422225952
1777561115797515300,21.507515380859374,0.8120275139808655,-9.725899696350098,0.9580525159835815
1777561115816044500,21.52604443359375,0.499230295419693,-9.75454044342041,0.8775492310523987
1777561115834574000,21.544573974609374,0.231679305434227,-9.762474060058594,0.9004542827606201
1777561115853103400,21.563103271484376,-0.023348994553089142,-9.762740135192871,0.9266840815544128
1777561115871633000,21.5816328125,-0.2811520993709564,-9.762871742248535,0.8818560242652893
1777561115890162200,21.600162109375,-0.5237852334976196,-9.75830364227295,0.8194719552993774
1777561115908691700,21.618691650390623,-0.7206950783729553,-9.7470121383667,0.8042027950286865
1777561115927221000,21.637220947265625,-0.8899216055870056,-9.733404159545898,0.7995341420173645
1777561115945750500,21.65575048828125,-1.0358052253723145,-9.71992015838623,0.787810206413269
1777561115964279800,21.67427978515625,-1.159788966178894,-9.705777168273926,0.7894022464752197
1777561115982809300,21.692809326171876,-1.2616758346557617,-9.690167427062988,0.8241531252861023
1777561116001339000,21.7113388671875,-1.350264072418213,-9.673298835754395,0.8800414800643921
1777561116019868200,21.7298681640625,-1.4327669143676758,-9.65540885925293,0.9437394738197327
1777561116038397700,21.748397705078126,-1.5164035558700562,-9.635196685791016,1.0168038606643677
1777561116056927200,21.76692724609375,-1.6151530742645264,-9.611067771911621,1.0904372930526733
1777561116075456500,21.78545654296875,-1.733904480934143,-9.58310317993164,1.1524373292922974
1777561116093986000,21.803986083984373,-1.875695824623108,-9.551434516906738,1.1925805807113647
1777561116112515600,21.822515625,-1.9665191173553467,-9.530218124389648,1.2157831192016602
1777561116131044900,21.841044921875,-1.9445412158966064,-9.530988693237305,1.2447490692138672
1777561116149574400,21.859574462890624,-1.8359626531600952,-9.54837417602539,1.2759984731674194
1777561116168103700,21.878103759765626,-1.6965733766555786,-9.570415496826172,1.3035234212875366
1777561116186633200,21.89663330078125,-1.4791876077651978,-9.603243827819824,1.3266915082931519
1777561116205162800,21.915162841796874,-1.1699249744415283,-9.641359329223633,1.3586300611495972
1777561116223692000,21.933692138671876,-0.7767749428749084,-9.675439834594727,1.3974497318267822
1777561116242221600,21.9522216796875,-0.28211405873298645,-9.701379776000977,1.4049949645996094
1777561116260751000,21.970751220703125,0.3310982286930084,-9.699935913085938,1.4042776823043823
1777561116279280400,21.9892802734375,1.0347037315368652,-9.640480995178223,1.4699991941452026
1777561116297810000,22.007809814453125,1.76075279712677,-9.532278060913086,1.485190987586975
1777561116316339200,22.026339111328124,2.382359027862549,-9.417947769165039,1.3405299186706543
1777561116334868700,22.04486865234375,2.7753663063049316,-9.327740669250488,1.2087123394012451
1777561116353398300,22.063398193359376,3.027681350708008,-9.250972747802734,1.1929112672805786
1777561116371927600,22.081927490234374,3.4271750450134277,-9.10306167602539,1.248648762702942
1777561116390457000,22.10045703125,3.998272657394409,-8.831445693969727,1.4797890186309814
1777561116408986600,22.118986572265626,4.5916056632995605,-8.441786766052246,1.9554497003555298
1777561116427516000,22.137515869140625,5.212791442871094,-7.984776973724365,2.2892184257507324
1777561116446045400,22.15604541015625,5.72958517074585,-7.603503227233887,2.3513779640197754
1777561116464575000,22.174574951171873,6.138398170471191,-7.268289089202881,2.3795881271362305
1777561116483104500,22.1931044921875,6.529801368713379,-6.898082256317139,2.438960552215576
1777561116501633800,22.2116337890625,6.883524417877197,-6.49948787689209,2.5581507682800293
1777561116520163300,22.230163330078124,7.164516448974609,-6.118879795074463,2.7201831340789795
1777561116538692900,22.24869287109375,7.335108757019043,-5.818025588989258,2.9184165000915527
1777561116557222100,22.26722216796875,7.422214984893799,-5.610182762145996,3.09951114654541
1777561116575751700,22.285751708984375,7.448523998260498,-5.499056816101074,3.232685089111328
1777561116594281200,22.30428125,7.4125142097473145,-5.5066423416137695,3.3018057346343994
1777561116612810500,22.322810546875,7.300455093383789,-5.652889728546143,3.3043272495269775
1777561116631340000,22.341340087890625,7.093587398529053,-5.953357696533203,3.2262885570526123
1777561116649869600,22.35986962890625,6.879634857177734,-6.291081428527832,3.043569326400757
1777561116668399000,22.378399169921874,6.853415489196777,-6.361246109008789,2.9556097984313965
1777561116686928400,22.396928466796876,6.494558811187744,-6.6431732177734375,3.1399595737457275
1777561116705458000,22.4154580078125,6.425352096557617,-6.905635833740234,2.682802200317383
1777561116723987500,22.433987548828124,6.119081497192383,-7.120616436004639,2.8326797485351562
1777561116742516700,22.452516845703126,5.896690368652344,-7.328003883361816,2.774848222732544
1777561116761046300,22.47104638671875,5.638869762420654,-7.565810680389404,2.670591115951538
1777561116779575800,22.489575927734375,5.337263584136963,-7.816198825836182,2.5673019886016846
1777561116798105300,22.508105224609373,4.967381954193115,-8.102084159851074,2.419034957885742
1777561116816634600,22.526634521484375,4.5252814292907715,-8.400792121887207,2.262497901916504
1777561116835164200,22.5451640625,3.999659538269043,-8.70716381072998,2.0876808166503906
1777561116853693700,22.563693603515624,3.4504575729370117,-8.97535514831543,1.9255467653274536
1777561116872223200,22.58222314453125,2.966693878173828,-9.171027183532715,1.8059241771697998
1777561116890752800,22.600752685546876,2.591399908065796,-9.298944473266602,1.7276129722595215
1777561116909282000,22.619281982421874,2.3134758472442627,-9.382915496826172,1.6670652627944946
1777561116927811600,22.6378115234375,2.0474865436553955,-9.462346076965332,1.562742829322815
1777561116946341000,22.656341064453127,1.715572476387024,-9.555614471435547,1.3847075700759888
1777561116964870700,22.67487060546875,1.3636624813079834,-9.64194107055664,1.159213900566101
1777561116983400000,22.69339990234375,1.0363515615463257,-9.705944061279297,0.9439319968223572
1777561117001929500,22.711929443359374,0.706724226474762,-9.74710464477539,0.8154016137123108
1777561117020459000,22.730458984375,0.4054443836212158,-9.766397476196289,0.7896076440811157
1777561117038988500,22.748988525390626,0.16051331162452698,-9.768084526062012,0.8539004921913147
1777561117057518000,22.76751806640625,-0.06633643060922623,-9.764562606811523,0.9051551818847656
1777561117076047400,22.78604736328125,-0.29775652289390564,-9.762686729431152,0.8784584403038025
1777561117094577000,22.804576904296876,-0.5114520192146301,-9.757064819335938,0.841727077960968
1777561117113106400,22.8231064453125,-0.6963741183280945,-9.744288444519043,0.8569108843803406
1777561117131636000,22.841635986328125,-0.8597248196601868,-9.728528022766113,0.8871288299560547
1777561117150165200,22.860165283203123,-1.0066590309143066,-9.712679862976074,0.9060196280479431
1777561117168694800,22.87869482421875,-1.1430197954177856,-9.694576263427734,0.9376002550125122
1777561117187224300,22.897224365234376,-1.2540631294250488,-9.6748685836792,0.9973108172416687
1777561117205753900,22.91575390625,-1.3405779600143433,-9.654982566833496,1.0744906663894653
1777561117224283400,22.934283447265624,-1.400896668434143,-9.636879920959473,1.156906008720398
1777561117242813000,22.95281298828125,-1.4330369234085083,-9.621848106384277,1.2396873235702515
1777561117261342200,22.97134228515625,-1.4625946283340454,-9.604928970336914,1.3328715562820435
1777561117279871700,22.989871826171875,-1.531695008277893,-9.582066535949707,1.4171468019485474
1777561117298401300,23.0084013671875,-1.6196166276931763,-9.559435844421387,1.4711956977844238
1777561117316930800,23.026930908203123,-1.6383305788040161,-9.548934936523438,1.5179235935211182
1777561117335460400,23.04546044921875,-1.564503788948059,-9.552406311035156,1.572973608970642
1777561117353990000,23.063989990234376,-1.450453519821167,-9.564210891723633,1.6101014614105225
1777561117372519400,23.08251953125,-1.319068193435669,-9.581029891967773,1.623058557510376
1777561117391048700,23.101048583984376,-1.1426624059677124,-9.603208541870117,1.6257671117782593
1777561117409578200,23.119578125,-0.8952598571777344,-9.628265380859375,1.6326054334640503
1777561117428107800,23.138107666015625,-0.5557307600975037,-9.65244197845459,1.6407068967819214
1777561117446637300,23.15663720703125,-0.09496424347162247,-9.672430038452148,1.6141399145126343
1777561117465166600,23.17516650390625,0.49881115555763245,-9.665761947631836,1.5794401168823242
1777561117483696400,23.1936962890625,1.2050039768218994,-9.601759910583496,1.5888867378234863
1777561117502225700,23.2122255859375,1.938356876373291,-9.491479873657227,1.5247855186462402
1777561117520755200,23.230755126953124,2.583559274673462,-9.362853050231934,1.3537330627441406
1777561117539284700,23.24928466796875,3.0211803913116455,-9.243184089660645,1.267435908317566
1777561117557814300,23.267814208984376,3.336308002471924,-9.127947807312012,1.3114879131317139
1777561117576343800,23.28634375,3.698530435562134,-8.960099220275879,1.485901117324829
1777561117594873300,23.304873291015625,4.160823822021484,-8.675555229187012,1.8954311609268188
1777561117613402600,23.323402587890627,4.866878509521484,-8.194771766662598,2.3085925579071045
1777561117631932200,23.34193212890625,5.521892070770264,-7.722590923309326,2.4577813148498535
1777561117650461700,23.360461669921875,5.92041015625,-7.400043487548828,2.521605968475342
1777561117668991200,23.3789912109375,6.306397438049316,-7.017126560211182,2.6757562160491943
1777561117687520800,23.397520751953124,6.705983638763428,-6.560074806213379,2.857548475265503
1777561117706050300,23.41605029296875,7.005520343780518,-6.146265983581543,3.052293062210083
1777561117724579800,23.434579833984376,7.203400611877441,-5.80613899230957,3.2511794567108154
1777561117743109000,23.453109130859374,7.326850891113281,-5.52877140045166,3.452582836151123
1777561117761639000,23.471638916015625,7.396071910858154,-5.337257385253906,3.6030802726745605
1777561117780168200,23.490168212890627,7.413201808929443,-5.256860733032227,3.685138702392578
1777561117798697700,23.50869775390625,7.384593963623047,-5.28908109664917,3.696455955505371
1777561117817227300,23.527227294921875,7.307685852050781,-5.423497676849365,3.654282569885254
1777561117835756800,23.5457568359375,7.1855998039245605,-5.65794563293457,3.5390970706939697
1777561117854286300,23.564286376953124,7.057348728179932,-5.944099426269531,3.321429491043091
1777561117872815900,23.58281591796875,7.044966220855713,-6.098931789398193,3.0564465522766113
1777561117891345200,23.60134521484375,6.802663803100586,-6.370044708251953,3.0523252487182617
1777561117909875000,23.619875,6.593036651611328,-6.652697563171387,2.905831813812256
1777561117928404200,23.638404296875,6.357203483581543,-6.884579181671143,2.8911781311035156
1777561117946933800,23.656933837890627,6.070459842681885,-7.091012477874756,3.0062344074249268
1777561117965463300,23.67546337890625,5.822641372680664,-7.319567680358887,2.948079824447632
1777561117983992800,23.693992919921875,5.540572643280029,-7.568357467651367,2.8622384071350098
1777561118002522400,23.7125224609375,5.212157249450684,-7.842030048370361,2.7397727966308594
1777561118021052000,23.731052001953124,4.822447299957275,-8.137521743774414,2.5874927043914795
1777561118039581400,23.74958154296875,4.379064559936523,-8.435529708862305,2.415782928466797
1777561118058111000,23.768111083984376,3.8889567852020264,-8.722611427307129,2.227654218673706
1777561118076640300,23.78664013671875,3.381194591522217,-8.972443580627441,2.057464122772217
1777561118095170000,23.805170166015625,2.8948607444763184,-9.17162036895752,1.9161274433135986
1777561118113699300,23.82369921875,2.4618589878082275,-9.31630802154541,1.8210046291351318
1777561118132228900,23.842228759765625,2.097644567489624,-9.414968490600586,1.7687978744506836
