time,seconds_elapsed,z,y,x
1777561094433692400,0.1436923828125,0.5108356475830078,-0.481361448764801,0.3715584874153137
1777561094452221000,0.162220947265625,0.5187768936157227,-0.4728093445301056,0.4222602844238281
1777561094480013800,0.190013916015625,0.5340485572814941,-0.6065887212753296,0.5627591609954834
1777561094498542600,0.20854248046875,0.4179842174053192,-0.6921098232269287,0.6097957491874695
1777561094517071400,0.2270712890625,0.3367392122745514,-0.6102539300918579,0.5426006317138672
1777561094535599900,0.245599853515625,0.26221370697021484,-0.7159335017204285,0.5676460862159729
1777561094554128600,0.264128662109375,0.24327689409255981,-0.7116574645042419,0.5566505193710327
1777561094572657200,0.2826572265625,0.23228132724761963,-0.7128791809082031,0.5792525410652161
1777561094591186000,0.30118603515625,0.19624030590057373,-0.5821541547775269,0.5450441241264343
1777561094609714700,0.319714599609375,0.1974620372056961,-0.33169957995414734,0.42653632164001465
1777561094628243200,0.3382431640625,0.2646571695804596,-0.33536475896835327,0.3006981909275055
1777561094646772000,0.35677197265625,0.2707658112049103,-0.3909534513950348,0.19501857459545135
1777561094665300500,0.375300537109375,0.2738201320171356,-0.35613417625427246,0.1204930767416954
1777561094683829200,0.393829345703125,0.2591593861579895,-0.3292561173439026,0.09117157012224197
1777561094702358000,0.41235791015625,0.24083344638347626,-0.2577849328517914,0.07345648854970932
1777561094720886500,0.430886474609375,0.24816381931304932,-0.3280344009399414,0.0435241162776947
1777561094739415300,0.449415283203125,0.25671592354774475,-0.370184063911438,0.06979130208492279
1777561094757943800,0.46794384765625,0.23655737936496735,-0.43004879355430603,0.14309507608413696
1777561094776472600,0.48647265625,0.21578797698020935,-0.48441576957702637,0.17547090351581573
1777561094795001000,0.5050009765625,0.16814053058624268,-0.481361448764801,0.2438877671957016
1777561094813529900,0.52352978515625,0.1107192412018776,-0.4838049113750458,0.2964221239089966
1777561094832058600,0.54205859375,0.13515383005142212,-0.5271763205528259,0.30741769075393677
1777561094850587100,0.560587158203125,0.13454297184944153,-0.5534434914588928,0.347123920917511
1777561094869116000,0.579115966796875,0.12721258401870728,-0.6114756464958191,0.35323256254196167
1777561094887644400,0.59764453125,0.06062832847237587,-0.5955931544303894,0.2854265570640564
1777561094906173200,0.616173095703125,0.020922118797898293,-0.5522217750549316,0.22983787953853607
1777561094924701700,0.63470166015625,0.026419902220368385,-0.544891357421875,0.15470150113105774
1777561094943230500,0.65323046875,0.06001746281981468,-0.5503891706466675,0.04841103404760361
1777561094961759000,0.671759033203125,0.1516471803188324,-0.4514290690422058,-0.15378521382808685
1777561094980287700,0.690287841796875,0.20601414144039154,-0.1740964651107788,-0.44577857851982117
1777561094998816500,0.70881640625,0.141262486577034,-0.033597562462091446,-0.7053961157798767
1777561095017345000,0.727344970703125,0.08261945843696594,-0.08124501258134842,-0.781143307685852
1777561095035873800,0.745873779296875,0.0795651376247406,-0.08552107214927673,-0.7102830410003662
1777561095054402600,0.764402587890625,0.0025961752980947495,0.2565632164478302,-0.17638720571994781
1777561095072931000,0.78293115234375,-0.08353576064109802,0.934012234210968,0.26099199056625366
1777561095091459800,0.8014599609375,-0.3462076187133789,1.1239912509918213,0.3623955249786377
1777561095109988400,0.81998828125,-0.6137663722038269,1.0213658809661865,-0.10735948383808136
1777561095128517000,0.83851708984375,-0.5923861265182495,0.7360920310020447,-0.8629992008209229
1777561095147045600,0.857045654296875,-0.6491965651512146,0.9107993841171265,-0.9143118858337402
1777561095165574400,0.875574462890625,-0.8104648590087891,2.584568977355957,-0.9589049816131592
1777561095184103200,0.894103271484375,-0.966846227645874,3.576002359390259,-1.2686134576797485
1777561095202631700,0.912631591796875,-1.0822997093200684,3.665799617767334,-1.4048362970352173
1777561095221160400,0.931160400390625,-1.0450369119644165,2.8399102687835693,-1.3406955003738403
1777561095239689000,0.94968896484375,-0.495258629322052,1.186299443244934,-1.07558012008667
1777561095258217700,0.9682177734375,-0.001679878099821508,-0.22785256803035736,-0.9020945429801941
1777561095276746200,0.986746337890625,0.16936226189136505,-0.06414080411195755,-0.966846227645874
1777561095295275000,1.00527490234375,0.3116937577724457,1.0097594261169434,-0.7799215912818909
1777561095313803500,1.023803466796875,0.45158177614212036,1.6768238544464111,-1.1464405059814453
1777561095332332300,1.042332275390625,0.21212279796600342,1.9584324359893799,-1.7676899433135986
1777561095350860800,1.06086083984375,0.0948367565870285,1.9107850790023804,-1.4567598104476929
1777561095369389600,1.0793896484375,-0.06643154472112656,1.6432262659072876,-0.8825469017028809
1777561095387918000,1.09791796875,-0.0798705667257309,1.6120721101760864,-0.9008728265762329
1777561095415711200,1.125711181640625,0.3410152494907379,1.8979568481445312,-0.9680679440498352
1777561095434239700,1.14423974609375,0.3379609286785126,1.5699224472045898,-0.8892664313316345
1777561095452768500,1.1627685546875,0.05085449293255806,1.1630865335464478,-0.8495602011680603
1777561095471297000,1.181297119140625,-0.004123337101191282,1.0378592014312744,-0.753043532371521
1777561095489825800,1.19982568359375,-0.016340631991624832,0.8381064534187317,-0.7878628373146057
1777561095508354300,1.218354248046875,-0.04810560122132301,0.6945532560348511,-0.680350661277771
1777561095526883000,1.236883056640625,-0.0798705667257309,0.6542361974716187,-0.5820014476776123
1777561095545411800,1.255411865234375,-0.13545925915241241,0.665842592716217,-0.54962557554245
1777561095563940400,1.2739404296875,-0.22098033130168915,0.7098248600959778,-0.5661189556121826
1777561095582469000,1.29246923828125,-0.27290382981300354,0.831997811794281,-0.5606211423873901
1777561095600997600,1.31099755859375,-0.3205513060092926,0.9297361969947815,-0.5337430834770203
1777561095619526400,1.3295263671875,-0.35353797674179077,0.8662062287330627,-0.514195442199707
1777561095638055000,1.348054931640625,-0.3620901107788086,0.6493492722511292,-0.505032479763031
1777561095656583700,1.366583740234375,-0.4433351159095764,0.5540543794631958,-0.43661558628082275
1777561095675112400,1.385112548828125,-0.513584554195404,0.481361448764801,-0.35475972294807434
1777561095693641000,1.403640869140625,-0.6449204683303833,0.48502662777900696,-0.2753472924232483
1777561095712169700,1.422169677734375,-0.671187698841095,0.5308414697647095,-0.21426081657409668
1777561095730698200,1.4406982421875,-0.7591522336006165,0.5516108870506287,-0.1824958473443985
1777561095749227000,1.45922705078125,-0.8220712542533875,0.5839866995811462,-0.0743727833032608
1777561095767755500,1.477755615234375,-0.5728384256362915,0.12461641430854797,0.020311253145337105
1777561095786284300,1.4962841796875,-0.16966769099235535,-0.1545487940311432,0.2652680277824402
1777561095804813000,1.51481298828125,0.09972367435693741,-0.32559093832969666,0.5022835731506348
1777561095823341600,1.533341552734375,0.23533566296100616,-0.30482152104377747,0.9805907011032104
1777561095841870300,1.551870361328125,0.3110828995704651,-0.1905898153781891,1.3691006898880005
1777561095860398800,1.57039892578125,0.4137081801891327,-0.5174024701118469,1.7050763368606567
1777561095878927400,1.58892724609375,0.5749764442443848,-0.8998038172721863,2.1192426681518555
1777561095897456000,1.6074560546875,0.8596394658088684,-1.1398736238479614,2.6103780269622803
1777561095915985000,1.62598486328125,1.169347882270813,-1.1783581972122192,3.1558802127838135
1777561095934513400,1.644513427734375,1.226769208908081,-1.3060288429260254,3.6225807666778564
1777561095953042200,1.663042236328125,0.8529199361801147,-1.3066397905349731,3.599368095397949
1777561095971570700,1.68157080078125,0.3202458620071411,-0.8686497211456299,3.3159267902374268
1777561095990099500,1.700099365234375,-0.11835505068302155,-0.8924734592437744,2.972620725631714
1777561096008628200,1.718628173828125,-0.5007563829421997,-1.4825688600540161,2.8938190937042236
1777561096027156700,1.73715673828125,-0.7756455540657043,-2.2223260402679443,2.9414665699005127
1777561096045685500,1.755685546875,-0.4543306827545166,-3.1056365966796875,3.5156795978546143
1777561096064214000,1.774214111328125,0.6042979955673218,-2.4404048919677734,4.409374713897705
1777561096082742800,1.79274267578125,1.2322670221328735,-2.1056509017944336,4.323242664337158
1777561096101271300,1.811271240234375,1.5254820585250854,-2.7427828311920166,3.696495532989502
1777561096119800000,1.829800048828125,1.6452115774154663,-2.7201807498931885,3.503462314605713
1777561096138328800,1.848328857421875,1.292131781578064,-3.151451349258423,3.6457936763763428
1777561096156857300,1.866857421875,0.6519454121589661,-3.131903648376465,3.54255747795105
1777561096175386000,1.88538623046875,0.29397866129875183,-2.654818296432495,2.9738423824310303
1777561096193914600,1.90391455078125,0.14859285950660706,-2.274860382080078,2.3794710636138916
1777561096212443400,1.922443359375,0.12293653935194016,-1.6279546022415161,1.7221804857254028
1777561096230972000,1.940971923828125,0.1663079410791397,-1.2162318229675293,1.0819942951202393
1777561096249500700,1.959500732421875,0.22739441692829132,-0.9004147052764893,0.4534143805503845
1777561096268029400,1.978029541015625,0.4198168218135834,-0.8020654320716858,-0.13484840095043182
1777561096286558000,1.996557861328125,0.549930989742279,-0.730594277381897,-0.6180424690246582
1777561096305086700,2.015086669921875,0.6458367705345154,-0.3756818473339081,-1.039539098739624
1777561096323615200,2.033615234375,0.7820596098899841,0.2761108875274658,-1.5599958896636963
1777561096342144000,2.05214404296875,1.0019710063934326,0.8924734592437744,-2.3150248527526855
1777561096360672800,2.0706728515625,0.9659299254417419,1.4746276140213013,-2.5447099208831787
1777561096379201300,2.089201171875,0.43753188848495483,1.6016874313354492,-2.0187554359436035
1777561096397730000,2.10772998046875,0.46746426820755005,-0.056199558079242706,-2.7181954383850098
1777561096416258600,2.126258544921875,0.08139773458242416,2.721402645111084,-2.576474905014038
1777561096434787300,2.144787353515625,-0.48670652508735657,-0.020769402384757996,-2.1641411781311035
1777561096453316000,2.163316162109375,-0.12324196845293045,0.1948658674955368,-1.8489350080490112
1777561096471844600,2.1818447265625,-0.02611446939408779,1.6462805271148682,-2.294255495071411
1777561096490373400,2.200373291015625,-0.04932733252644539,1.5839723348617554,-2.325409412384033
1777561096508902100,2.218902099609375,-0.18127411603927612,1.9468261003494263,-2.445138931274414
1777561096527430700,2.2374306640625,-0.48304131627082825,2.747058868408203,-3.056614637374878
1777561096545959400,2.25595947265625,-0.8006910085678101,3.174053430557251,-3.487274408340454
1777561096564488000,2.274488037109375,-1.208748698234558,3.3872451782226562,-3.3009605407714844
1777561096583016700,2.2930166015625,-1.3993384838104248,2.453843832015991,-2.0022621154785156
1777561096601545500,2.31154541015625,-0.8947641849517822,0.9138537049293518,-0.7383828163146973
1777561096620074000,2.330073974609375,-0.09269873052835464,0.6798924803733826,-1.1476621627807617
1777561096638602800,2.348602783203125,0.4381427764892578,1.7745622396469116,-2.1647520065307617
1777561096657131500,2.367131591796875,0.6275108456611633,2.103818416595459,-2.3687808513641357
1777561096675660000,2.385659912109375,0.49189886450767517,1.4190388917922974,-1.891695499420166
1777561096694188800,2.404188720703125,0.07040216773748398,0.3237583339214325,-1.5722131729125977
1777561096712717300,2.42271728515625,-0.04199695214629173,0.13744457066059113,-1.902691125869751
1777561096731246000,2.44124609375,0.17547090351581573,0.5021308660507202,-1.992488145828247
1777561096749774800,2.45977490234375,0.18890993297100067,1.1319323778152466,-1.575878381729126
1777561096777567700,2.487567626953125,-0.25579962134361267,0.6456840634346008,-1.1928662061691284
1777561096805360600,2.515360595703125,-0.24113887548446655,0.7159335017204285,-1.0187697410583496
1777561096823889400,2.533889404296875,-0.20570871233940125,0.6273581385612488,-0.883768618106842
1777561096842418200,2.552418212890625,-0.3407098352909088,0.4862483739852905,-0.6864593029022217
1777561096860946700,2.57094677734375,-0.45738500356674194,0.22846342623233795,-0.586888313293457
1777561096879475500,2.589475341796875,-0.513584554195404,0.11423171311616898,-0.5832231640815735
1777561096898004200,2.608004150390625,-0.5899426341056824,0.020158538594841957,-0.42684176564216614
1777561096916532700,2.62653271484375,-0.6491965651512146,-0.23335035145282745,-0.383470356464386
1777561096935061500,2.6450615234375,-0.7145590782165527,-0.27916520833969116,-0.4696022868156433
1777561096953590000,2.663590087890625,-0.718224287033081,-0.0360410213470459,-0.45188722014427185
1777561096972118800,2.682118896484375,-0.7151699662208557,0.008552107028663158,-0.342542439699173
1777561096990647600,2.7006474609375,-0.7414371371269226,-0.21135921776294708,-0.17394374310970306
1777561097009176000,2.719176025390625,-0.49403688311576843,-0.40866854786872864,0.11988221108913422
1777561097027704800,2.737704833984375,-0.02916879393160343,-0.01588248461484909,0.41554075479507446
1777561097046233600,2.756233642578125,0.17852523922920227,0.3738492429256439,1.1223113536834717
1777561097064762000,2.77476220703125,0.32757624983787537,-0.1026252806186676,1.6592614650726318
1777561097083291000,2.793290771484375,0.30375251173973083,-0.7189878225326538,2.023336887359619
1777561097101819600,2.811819580078125,0.388051837682724,-1.507614254951477,2.785696029663086
1777561097120348200,2.83034814453125,0.4436405599117279,-2.5381431579589844,3.8986916542053223
1777561097138877000,2.848876953125,0.20540328323841095,-1.6029092073440552,4.344012260437012
1777561097157405700,2.86740576171875,0.15958842635154724,1.0018181800842285,4.176024436950684
1777561097175934200,2.885934326171875,0.3727802336215973,1.5583161115646362,3.266446590423584
1777561097194463000,2.904462890625,0.4448622763156891,0.24556763470172882,2.086866855621338
1777561097212991700,2.92299169921875,0.10827577859163284,-0.14538581669330597,1.8345797061920166
1777561097231520300,2.941520263671875,-0.18860450387001038,-1.3072506189346313,2.3507604598999023
1777561097250049000,2.960049072265625,-0.30344706773757935,-5.0396342277526855,3.559661865234375
1777561097268577800,2.978577880859375,-0.39141160249710083,-5.143481254577637,4.258491039276123
1777561097287106300,2.997106201171875,0.28298309445381165,-1.9822561740875244,4.14914608001709
1777561097305635000,3.015635009765625,0.5975784659385681,-1.2608249187469482,3.62441349029541
1777561097324163800,3.034163818359375,0.4790706932544708,-1.8906265497207642,3.2988226413726807
1777561097342692400,3.0526923828125,0.4039343297481537,-2.408639907836914,3.4240498542785645
1777561097361221000,3.07122119140625,0.1461493968963623,-2.3897030353546143,3.260338068008423
1777561097379750000,3.08975,-0.05238165333867073,-2.285856008529663,2.6366450786590576
1777561097398278700,3.108278564453125,-0.17883066833019257,-1.8240422010421753,1.8248058557510376
1777561097416807200,3.12680712890625,-0.17821979522705078,-1.368947982788086,1.180343508720398
1777561097435336000,3.1453359375,-0.022449281066656113,-1.0122029781341553,0.6299542784690857
1777561097453864700,3.16386474609375,0.19379685819149017,-0.40255987644195557,0.030085090547800064
1777561097472393200,3.182393310546875,0.4857902228832245,0.14599667489528656,-0.5471821427345276
1777561097490922000,3.200921875,0.7435751557350159,0.5821541547775269,-1.2692242860794067
1777561097509450800,3.21945068359375,0.9726494550704956,1.148425817489624,-2.221562385559082
1777561097527979500,3.2379794921875,0.8840740323066711,1.635895848274231,-2.343735456466675
1777561097546508000,3.256508056640625,0.8132137656211853,0.9486730098724365,-2.475682258605957
1777561097565036800,3.275036865234375,0.6458367705345154,0.9578359723091125,-2.9552111625671387
1777561097583565600,3.293565673828125,0.04046979174017906,1.370169758796692,-2.7426302433013916
1777561097602094000,3.312093994140625,-0.6357575058937073,0.2987128794193268,-2.0835070610046387
1777561097620622800,3.330622802734375,-0.06887500733137131,-0.4886918365955353,-1.3431389331817627
1777561097639151600,3.349151611328125,0.3990474045276642,0.4838049113750458,-1.7218750715255737
1777561097657680100,3.36768017578125,0.5615374445915222,0.8686497211456299,-2.157421588897705
1777561097676209000,3.386208984375,0.38499751687049866,1.6444480419158936,-2.584416151046753
1777561097694737700,3.404737548828125,0.012980876490473747,2.525925874710083,-3.208109140396118
1777561097713266400,3.423266357421875,-0.3578140437602997,3.3432629108428955,-3.8214173316955566
1777561097741059300,3.451059326171875,-0.864220917224884,2.9303183555603027,-3.6919140815734863
1777561097759588000,3.469588134765625,-0.7060069441795349,1.173471212387085,-1.9118540287017822
1777561097778116900,3.488116943359375,-0.2087630331516266,0.02260199747979641,-0.9173662066459656
1777561097796645600,3.506645751953125,-0.03222311660647392,0.23762640357017517,-1.2111921310424805
1777561097815174100,3.525174072265625,0.1931859850883484,1.2137882709503174,-1.7872376441955566
1777561097833703000,3.543702880859375,0.6097957491874695,1.3506220579147339,-1.9766056537628174
1777561097852231700,3.562231689453125,0.892626166343689,1.1997383832931519,-1.873369574546814
1777561097870760400,3.580760498046875,0.5939132571220398,0.9761618971824646,-1.6766711473464966
1777561097898553300,3.60855322265625,-0.00045814859913662076,0.768467903137207,-1.6192498207092285
1777561097917082000,3.62708203125,0.04841103404760361,0.9175189137458801,-1.5202897787094116
1777561097944875300,3.654875244140625,0.11499529331922531,0.7690787315368652,-1.3199260234832764
1777561097963403800,3.67340380859375,-0.1360701322555542,0.48991355299949646,-1.124449372291565
1777561097981932500,3.6919326171875,-0.18432845175266266,0.31031930446624756,-1.0865757465362549
1777561098000461300,3.71046142578125,-0.19471314549446106,0.3848448097705841,-0.8892664313316345
1777561098018989800,3.72898974609375,-0.1727220118045807,0.5290089249610901,-0.6687442064285278
1777561098037518600,3.7475185546875,-0.24663665890693665,0.6707295179367065,-0.569173276424408
1777561098056047400,3.76604736328125,-0.3065013885498047,0.5772672295570374,-0.46654796600341797
1777561098074576100,3.784576171875,-0.35537058115005493,0.40378162264823914,-0.4353938698768616
1777561098093105000,3.80310498046875,-0.38530296087265015,0.13194678723812103,-0.36514443159103394
1777561098111633400,3.82163330078125,-0.4189005196094513,-0.06352993845939636,-0.31932955980300903
1777561098130162200,3.840162109375,-0.5618428587913513,-0.1997527778148651,-0.34193155169487
1777561098148691000,3.85869091796875,-0.6944005489349365,-0.23335035145282745,-0.37430739402770996
1777561098167219700,3.8772197265625,-0.7426588535308838,-0.6041452884674072,-0.37369653582572937
1777561098185748500,3.89574853515625,-0.5422952175140381,-0.41844236850738525,-0.12018764764070511
1777561098204277200,3.91427734375,-0.1519526094198227,-0.15149445831775665,0.24816381931304932
1777561098222805800,3.9328056640625,0.06490438431501389,0.23518294095993042,0.8846849203109741
1777561098241334500,3.95133447265625,0.20906847715377808,-0.012217295356094837,1.3000729084014893
1777561098259863000,3.969863037109375,0.16325360536575317,-0.2364046722650528,1.5767947435379028
1777561098278391800,3.988391845703125,0.04046979174017906,-0.33719736337661743,1.9115486145019531
1777561098296920600,4.006920654296875,-0.02672533318400383,-0.6652317643165588,2.329991102218628
1777561098315449300,4.025449462890625,0.13393209874629974,-1.7482949495315552,3.0978479385375977
1777561098333978000,4.04397802734375,0.19440771639347076,-2.6786420345306396,4.0220866203308105
1777561098361771300,4.071771240234375,0.3568977415561676,1.4245367050170898,3.8858635425567627
1777561098380299800,4.0902998046875,0.5823068618774414,2.995069980621338,3.2029168605804443
1777561098398828500,4.10882861328125,0.4045451879501343,1.3897173404693604,2.0948081016540527
1777561098417357300,4.127357421875,0.21456626057624817,-0.7244856357574463,1.4778345823287964
1777561098435886000,4.145885986328125,-0.02306014485657215,-1.852752923965454,2.115577459335327
1777561098454414800,4.164414794921875,-0.07070759683847427,-3.8264570236206055,3.4936883449554443
1777561098472943400,4.182943359375,0.21578797698020935,-4.298044681549072,4.747793674468994
1777561098491472100,4.20147216796875,0.43753188848495483,-2.366490125656128,4.08256196975708
1777561098510001000,4.2200009765625,0.5523744821548462,-1.4721840620040894,3.3886196613311768
1777561098528529700,4.23852978515625,0.49800750613212585,-1.7782273292541504,3.4747514724731445
1777561098547058400,4.257058349609375,0.46257734298706055,-1.8887939453125,3.2847726345062256
1777561098565587200,4.275587158203125,0.4289797842502594,-2.0073015689849854,2.9915575981140137
1777561098584115700,4.29411572265625,0.18035782873630524,-1.9083415269851685,2.5853323936462402
1777561098602644500,4.31264453125,-0.004734201822429895,-1.6059634685516357,1.9036073684692383
1777561098621173200,4.33117333984375,-0.08170316368341446,-1.3536763191223145,1.3037381172180176
1777561098639702000,4.349701904296875,0.1003345400094986,-0.9382883310317993,0.7478511929512024
1777561098658230800,4.368230712890625,0.36361727118492126,-0.5778780579566956,0.13942988216876984
1777561098676759300,4.38675927734375,0.6207913160324097,-0.20219624042510986,-0.39446592330932617
1777561098695288000,4.4052880859375,0.8633046746253967,0.14233149588108063,-1.131779670715332
1777561098713816800,4.42381689453125,0.9524909257888794,0.5149590373039246,-2.1659739017486572
1777561098732345600,4.442345703125,0.5108356475830078,1.6694934368133545,-1.46714448928833
1777561098750874400,4.460874267578125,0.8962913751602173,-0.3756818473339081,-2.4714062213897705
1777561098769403100,4.479403076171875,0.744796872138977,1.4459168910980225,-2.539212226867676
1777561098787932000,4.497931884765625,0.24083344638347626,1.0293071269989014,-2.649167776107788
1777561098806460700,4.516460693359375,-0.38591381907463074,0.646905779838562,-2.238055944442749
1777561098824989200,4.5349892578125,-0.20082180202007294,-0.05070177838206291,-1.7878484725952148
1777561098843518000,4.55351806640625,-0.04810560122132301,1.0928370952606201,-2.1140503883361816
1777561098862046700,4.572046630859375,0.005039634648710489,0.924238383769989,-2.3700027465820312
1777561098880575500,4.590575439453125,0.04535670951008797,1.137430191040039,-2.7004804611206055
1777561098899104300,4.609104248046875,-0.14523309469223022,1.8442007303237915,-3.219104766845703
1777561098917633000,4.627633056640625,-0.494647741317749,2.704909324645996,-3.542862892150879
1777561098936161500,4.64616162109375,-0.763428270816803,3.140455722808838,-3.3205082416534424
1777561098954690300,4.664690185546875,-0.734717607498169,1.987753987312317,-2.358396291732788
1777561098973219000,4.683218994140625,-0.25641047954559326,0.7733548283576965,-1.5923718214035034
1777561098991747800,4.701747802734375,-0.003512472379952669,0.40805765986442566,-1.603978157043457
1777561099010276600,4.720276611328125,0.20723587274551392,1.3695588111877441,-2.0413572788238525
1777561099028805400,4.738805419921875,0.6275108456611633,1.79410982131958,-2.2429428100585938
1777561099047334100,4.757334228515625,0.920115053653717,1.831372618675232,-2.1024439334869385
1777561099065863000,4.77586279296875,0.6574432253837585,1.1924080848693848,-1.724318504333496
1777561099084391400,4.794391357421875,0.3196350038051605,0.9462295174598694,-1.8330525159835815
1777561099102920200,4.812920166015625,0.09544762223958969,0.593149721622467,-1.7835724353790283
1777561099121449000,4.831448974609375,0.029474224895238876,0.544891357421875,-1.3920080661773682
1777561099139977700,4.849977783203125,-0.027336198836565018,0.7073814272880554,-1.2735003232955933
1777561099158506500,4.868506591796875,-0.11835505068302155,0.5143481492996216,-1.1818705797195435
1777561099177035300,4.88703515625,-0.1672242283821106,0.3695732057094574,-1.0633628368377686
1777561099195564000,4.90556396484375,-0.22525638341903687,0.516791582107544,-0.8532254099845886
1777561099214092800,4.9240927734375,-0.2435823380947113,0.5131264328956604,-0.7334958910942078
1777561099232621600,4.94262158203125,-0.291229784488678,0.3738492429256439,-0.5416843295097351
1777561099251150300,4.961150390625,-0.37919431924819946,0.3481929302215576,-0.3920224606990814
1777561099269679000,4.97967919921875,-0.5288561582565308,0.12217295914888382,-0.32421648502349854
1777561099288207600,4.99820751953125,-0.6174315810203552,-0.1740964651107788,-0.32910341024398804
1777561099306736400,5.016736328125,-0.6772963404655457,-0.2767217457294464,-0.35903576016426086
1777561099325265200,5.03526513671875,-0.6687442064285278,-0.6713404059410095,-0.4298960864543915
1777561099343794000,5.0537939453125,-0.5282453298568726,-0.5815432667732239,-0.32971426844596863
1777561099362322700,5.07232275390625,-0.16294817626476288,-0.143553227186203,0.27687445282936096
1777561099380851500,5.0908515625,0.1052214577794075,0.18325942754745483,0.9103412628173828
1777561099399380200,5.109380126953125,0.3153589367866516,-0.07757982611656189,1.23348867893219
1777561099417909000,5.127908935546875,0.35506516695022583,-0.4367683231830597,1.440571904182434
1777561099436437800,5.146437744140625,0.2493855506181717,-0.4783071279525757,1.7875430583953857
1777561099454966300,5.16496630859375,0.22739441692829132,-0.7984002828598022,2.4326162338256836
1777561099473495000,5.1834951171875,0.3061959743499756,-2.1227550506591797,3.4332127571105957
1777561099492023800,5.20202392578125,0.0850629210472107,-2.6169447898864746,4.191906929016113
1777561099510552600,5.220552490234375,0.09605848789215088,0.4159989058971405,3.88342022895813
1777561099529081300,5.239081298828125,0.5059487819671631,2.4801111221313477,3.3348636627197266
1777561099547610000,5.257610107421875,0.4240928590297699,2.0103559494018555,2.7533202171325684
1777561099566139000,5.276138916015625,0.20601414144039154,0.24801109731197357,2.103971004486084
1777561099584667600,5.294667724609375,-0.03405570983886719,-1.7208061218261719,1.9885175228118896
1777561099603196400,5.313196533203125,-0.291229784488678,-2.25531268119812,2.5523457527160645
1777561099621725200,5.33172509765625,-0.02672533318400383,-3.3438737392425537,3.3654067516326904
1777561099640254000,5.35025390625,0.407599538564682,-2.9345943927764893,4.289034366607666
1777561099658782700,5.36878271484375,0.47296205163002014,-2.0744967460632324,3.8712027072906494
1777561099677311500,5.3873115234375,0.5273290276527405,-1.464242935180664,3.290881395339966
1777561099695840300,5.40584033203125,0.4802924394607544,-1.6438370943069458,3.383732795715332
1777561099714369000,5.424369140625,0.47235119342803955,-2.0628902912139893,3.4802494049072266
1777561099732897800,5.442897705078125,0.42959064245224,-2.115424633026123,3.191310405731201
1777561099751426600,5.461426513671875,0.06673697382211685,-1.9682062864303589,2.4381141662597656
1777561099769955300,5.479955322265625,-0.2490801066160202,-1.7928881645202637,1.6488767862319946
1777561099788484000,5.498484130859375,-0.2240346521139145,-1.2614357471466064,1.0001384019851685
1777561099807012900,5.517012939453125,-0.013897174037992954,-0.822834849357605,0.3269653618335724
1777561099825541400,5.535541259765625,0.35445427894592285,-0.411722868680954,-0.40546149015426636
1777561099844070100,5.554070068359375,0.6928733587265015,0.014660755172371864,-1.1837031841278076
1777561099862599000,5.572598876953125,0.9353867173194885,0.4105011224746704,-2.1531455516815186
1777561099881127700,5.591127685546875,0.8107702732086182,1.3500111103057861,-2.084117889404297
1777561099899656400,5.609656494140625,0.5725330114364624,0.8442151546478271,-1.9136866331100464
1777561099918185200,5.628185302734375,0.6592758297920227,0.37812530994415283,-2.6644394397735596
1777561099936714000,5.6467138671875,0.0386371985077858,2.35305118560791,-2.3156356811523438
1777561099955242800,5.66524267578125,-0.5001455545425415,0.20830489695072174,-1.6913318634033203
1777561099973771500,5.683771484375,-0.39446592330932617,-0.6835576891899109,-1.1207841634750366
1777561099992300300,5.70230029296875,-0.2790125012397766,0.2663370370864868,-1.578932762145996
1777561100010829000,5.7208291015625,-0.187382772564888,0.6102539300918579,-2.0517420768737793
1777561100029357800,5.73935791015625,-0.310166597366333,1.229670763015747,-2.6271767616271973
1777561100047886600,5.757886474609375,-0.29245150089263916,1.8814635276794434,-3.3064582347869873
1777561100066415400,5.776415283203125,-0.21548254787921906,2.6560399532318115,-3.8690648078918457
1777561100084944100,5.794944091796875,-0.2955058515071869,3.524078845977783,-4.049269676208496
1777561100103473000,5.813472900390625,-0.21670427918434143,3.1080799102783203,-3.4750571250915527
1777561100122001700,5.832001708984375,0.10888664424419403,1.8075488805770874,-2.167806386947632
1777561100140530400,5.850530517578125,0.20357069373130798,0.8936951756477356,-1.4237730503082275
1777561100159059200,5.86905908203125,0.2341139316558838,0.7715222239494324,-1.6485713720321655
1777561100177588000,5.887587890625,0.540768027305603,1.2455532550811768,-1.9381211996078491
1777561100196116700,5.90611669921875,0.8370374441146851,1.552207350730896,-1.9045236110687256
1777561100214645500,5.9246455078125,0.949436604976654,1.2424989938735962,-1.7292054891586304
1777561100233174300,5.94317431640625,0.5652026534080505,0.720820426940918,-1.4329360723495483
1777561100251703000,5.961703125,-0.14767655730247498,0.003665188793092966,-1.180648922920227
1777561100270231800,5.980231689453125,-0.5209149122238159,-0.5161807537078857,-1.1464405059814453
1777561100288760600,5.998760498046875,-0.1727220118045807,0.22846342623233795,-1.2625048160552979
1777561100307289300,6.017289306640625,0.21090106666088104,1.008537769317627,-1.0273218154907227
1777561100325818000,6.035818115234375,0.24816381931304932,0.8753692507743835,-0.8886555433273315
1777561100344347000,6.054346923828125,0.036193739622831345,0.3433060050010681,-0.9179770350456238
1777561100362875600,6.072875732421875,-0.03222311660647392,0.10629047453403473,-0.791528046131134
1777561100381404400,6.091404296875,-0.11591159552335739,0.03481929376721382,-0.5429060459136963
1777561100399933200,6.10993310546875,-0.2655734717845917,-0.12034036219120026,-0.4482220411300659
1777561100418462000,6.1284619140625,-0.41706791520118713,-0.34086254239082336,-0.3217730224132538
1777561100436990700,6.14699072265625,-0.503810703754425,-0.3182605504989624,-0.2331976294517517
1777561100455519500,6.16551953125,-0.5838339924812317,-0.4734202027320862,-0.26740604639053345
1777561100474048300,6.18404833984375,-0.6351466774940491,-0.46364638209342957,-0.4225656986236572
1777561100492577000,6.202576904296875,-0.6559160351753235,-0.6328558921813965,-0.6620246767997742
1777561100511105800,6.221105712890625,-0.5532907843589783,-0.8808670043945312,-0.8532254099845886
1777561100529634600,6.239634521484375,-0.4689914286136627,-0.30543237924575806,-0.69012451171875
1777561100548163300,6.258163330078125,-0.3199404180049896,0.05436696484684944,-0.22098033130168915
1777561100566692400,6.2766923828125,-0.3572031855583191,0.06475166976451874,0.3324631452560425
1777561100585220900,6.295220947265625,-0.29733842611312866,-0.33536475896835327,0.7289143800735474
1777561100603749600,6.31374951171875,-0.23625195026397705,-0.47097674012184143,1.1088722944259644
1777561100622278400,6.3322783203125,-0.19043709337711334,-0.7886264324188232,1.6281073093414307
1777561100640807200,6.35080712890625,-0.07376192510128021,-1.072678565979004,2.179718255996704
1777561100659336200,6.369336181640625,0.15775582194328308,-1.4123194217681885,2.763705015182495
1777561100677864700,6.38786474609375,0.2237292230129242,-1.9901974201202393,3.2988226413726807
1777561100696393500,6.4063935546875,-0.05482511222362518,-1.9028438329696655,3.657400131225586
1777561100714922500,6.424922607421875,-0.04810560122132301,0.5962040424346924,3.6818346977233887
1777561100733451300,6.443451171875,0.29336780309677124,2.4459025859832764,3.30248761177063
1777561100751980000,6.46197998046875,0.2029598206281662,1.7977750301361084,2.523024320602417
1777561100770508800,6.4805087890625,0.13515383005142212,0.06719512492418289,1.9335397481918335
1777561100789037600,6.49903759765625,0.17302745580673218,-1.3072506189346313,2.297004222869873
1777561100807566300,6.51756640625,-0.06643154472112656,-2.551582098007202,3.328144073486328
1777561100826095000,6.53609521484375,0.19013166427612305,-3.5918848514556885,4.438696384429932
1777561100844624000,6.554623779296875,0.38988444209098816,-2.2986841201782227,4.282314777374268
1777561100863152600,6.573152587890625,0.5273290276527405,-1.6212351322174072,3.5969245433807373
1777561100881681400,6.591681396484375,0.522442102432251,-1.6279546022415161,3.6445720195770264
1777561100900210200,6.610210205078125,0.47357290983200073,-1.7592905759811401,3.673893451690674
1777561100918739000,6.628739013671875,0.4350884258747101,-1.6731586456298828,3.537670612335205
1777561100937267700,6.647267822265625,0.22495095431804657,-1.4043781757354736,3.036761522293091
1777561100955796500,6.66579638671875,-0.11591159552335739,-1.6322306394577026,2.2591307163238525
1777561100974325200,6.6843251953125,-0.15378521382808685,-1.5045599937438965,1.5560252666473389
1777561100992854000,6.70285400390625,0.012980876490473747,-1.1368193626403809,0.8914044499397278
1777561101011382800,6.7213828125,0.26710063219070435,-0.6872228980064392,0.12904518842697144
1777561101029911800,6.739911865234375,0.5462658405303955,-0.28527384996414185,-0.7078395485877991
1777561101048440600,6.758440673828125,0.7893900275230408,0.12705987691879272,-1.7133229970932007
1777561101066969000,6.776968994140625,0.8681915402412415,0.4575377106666565,-2.3510658740997314
1777561101085498000,6.795498046875,0.25671592354774475,1.5106686353683472,-1.0511455535888672
1777561101104027000,6.81402685546875,0.7686206102371216,-1.7751730680465698,-2.844644546508789
1777561101122555600,6.8325556640625,0.4503600597381592,3.160614252090454,-1.9790492057800293
1777561101141084400,6.85108447265625,0.2597702443599701,-0.750141978263855,-2.159254312515259
1777561101159613200,6.86961328125,-0.010842849500477314,0.7562506198883057,-1.8990259170532227
1777561101178142000,6.888141845703125,0.2848156988620758,0.5491674542427063,-2.1928517818450928
1777561101196670700,6.906670654296875,0.049021899700164795,1.0286962985992432,-2.539212226867676
1777561101215199500,6.925199462890625,-0.16600249707698822,1.1991275548934937,-2.8599162101745605
1777561101233728300,6.943728271484375,-0.22525638341903687,1.37078058719635,-3.316843032836914
1777561101252257000,6.962257080078125,-0.26618432998657227,1.79410982131958,-3.7823219299316406
1777561101270785800,6.980785888671875,-0.5820014476776123,2.6749768257141113,-3.814697742462158
1777561101289314800,6.999314697265625,-0.8697187304496765,2.7537784576416016,-3.230710983276367
1777561101307843600,7.017843505859375,-0.47143489122390747,1.201570987701416,-2.0523529052734375
1777561101326372400,7.036372314453125,0.19379685819149017,-0.10445787757635117,-1.5257874727249146
1777561101344901000,7.054901123046875,0.4173733592033386,0.19669845700263977,-1.9992077350616455
1777561101363430000,7.073429931640625,0.7063124179840088,0.7947350740432739,-2.3938262462615967
1777561101381958700,7.091958740234375,0.984255850315094,1.0348049402236938,-2.3535091876983643
1777561101400487400,7.1104873046875,0.9659299254417419,0.9382883310317993,-1.994931697845459
1777561101419016200,7.12901611328125,0.6415607333183289,0.7776308655738831,-1.7163772583007812
1777561101437545000,7.147544921875,0.21945317089557648,0.389120876789093,-1.661399483680725
1777561101456073700,7.16607373046875,0.030085090547800064,0.14477495849132538,-1.4708096981048584
1777561101474602800,7.184602783203125,0.12354740500450134,0.1588248461484909,-1.4341577291488647
1777561101493131500,7.203131591796875,0.06551524996757507,0.09590577334165573,-1.3278672695159912
1777561101511660300,7.221660400390625,-0.06215549260377884,0.047036588191986084,-1.0584759712219238
1777561101530189000,7.24018896484375,-0.11102467030286789,0.14477495849132538,-1.0566433668136597
1777561101548717800,7.2587177734375,-0.09697478264570236,0.14110976457595825,-1.0499238967895508
1777561101567246600,7.27724658203125,-0.18982623517513275,0.18814635276794434,-0.8165735006332397
1777561101585775400,7.295775390625,-0.28267768025398254,0.18692462146282196,-0.6546943187713623
1777561101604304100,7.31430419921875,-0.4237874448299408,-0.06841685622930527,-0.5105302333831787
1777561101622833000,7.3328330078125,-0.5056433081626892,-0.3127627670764923,-0.41462448239326477
1777561101641362000,7.35136181640625,-0.5215258002281189,-0.32681265473365784,-0.33948808908462524
1777561101659890700,7.369890625,-0.5374082922935486,-0.27488914132118225,-0.4280634820461273
1777561101678419500,7.38841943359375,-0.559399425983429,-0.24312418699264526,-0.46654796600341797
1777561101696948200,7.4069482421875,-0.6223185062408447,-0.5595521330833435,-0.5056433081626892
1777561101715477000,7.42547705078125,-0.5300779342651367,-0.33047783374786377,-0.3614792227745056
1777561101734005800,7.444005859375,-0.42134398221969604,-0.050090912729501724,0.08078686892986298
1777561101752534500,7.462534423828125,-0.32360562682151794,0.2712239623069763,0.6311760544776917
1777561101771063300,7.481063232421875,-0.1562286615371704,0.012217295356094837,0.9702059626579285
1777561101789592300,7.49959228515625,-0.13484840095043182,-0.0977383628487587,1.216995358467102
1777561101808121000,7.51812109375,-0.06154462695121765,-0.08307760953903198,1.6299399137496948
1777561101826649900,7.53664990234375,-0.0010690133785828948,-0.25350889563560486,2.0948081016540527
1777561101845178600,7.5551787109375,0.08933897316455841,-0.7464767694473267,2.484539747238159
1777561101863707400,7.573707275390625,0.2689332067966461,-2.1025965213775635,2.9524621963500977
1777561101882236400,7.592236328125,0.13271036744117737,-3.327991247177124,3.2035276889801025
1777561101900765000,7.610764892578125,0.3196350038051605,-0.6426297426223755,2.8547239303588867
1777561101919294000,7.6292939453125,1.0233511924743652,2.749502420425415,2.693455457687378
1777561101937822700,7.64782275390625,1.2371538877487183,1.4037672281265259,2.190103054046631
1777561101956351500,7.6663515625,0.6488910913467407,-0.6884446144104004,1.4155263900756836
1777561101974880300,7.68488037109375,-0.05787943676114082,-2.704298496246338,1.0593922138214111
1777561101993409000,7.703408935546875,-0.8141300082206726,-5.885071277618408,0.930499792098999
1777561102011938000,7.72193798828125,-1.9876012802124023,-7.136733055114746,1.6928590536117554
1777561102030466800,7.740466796875,-2.1891865730285645,-3.132514476776123,2.734994411468506
1777561102048995600,7.75899560546875,-0.7371610999107361,1.6841541528701782,3.392284870147705
1777561102067524400,7.7775244140625,0.305585116147995,0.3646862804889679,2.2566871643066406
1777561102086053000,7.79605322265625,0.8297070860862732,-0.8448259830474854,1.1980586051940918
1777561102104582100,7.81458203125,1.2756383419036865,-0.6041452884674072,1.5621339082717896
1777561102123111000,7.83311083984375,1.251814603805542,-0.6298015713691711,2.0715951919555664
1777561102141639700,7.8516396484375,1.0404554605484009,-0.8839213252067566,1.77043879032135
1777561102160168400,7.87016845703125,0.7783944606781006,-1.2651009559631348,1.1852303743362427
1777561102178697200,7.888697265625,0.6183478832244873,-1.6022982597351074,0.735633909702301
1777561102197226000,7.90722607421875,0.6183478832244873,-1.5479313135147095,0.29886558651924133
1777561102215755000,7.925755126953125,0.6354520916938782,-1.4385865926742554,-0.2124282270669937
1777561102234283800,7.94428369140625,0.5761982202529907,-1.360395908355713,-0.7695369124412537
1777561102252812500,7.9628125,0.6378955245018005,-1.278540015220642,-1.2930480241775513
1777561102271341300,7.98134130859375,0.8358157277107239,-1.1166608333587646,-1.7273728847503662
1777561102289870000,7.9998701171875,1.077107310295105,-0.6811142563819885,-1.8764238357543945
1777561102308399000,8.018399169921874,1.1192569732666016,-0.30115634202957153,-1.6284128427505493
1777561102326928000,8.036927978515624,0.9921970963478088,-0.8649845123291016,-1.179427146911621
1777561102345456600,8.05545654296875,0.7502946853637695,-1.5473204851150513,-0.3614792227745056
1777561102363985400,8.0739853515625,0.6446150541305542,-1.746462345123291,0.29153522849082947
1777561102382514400,8.092514404296875,0.29764387011528015,-2.321286201477051,0.9879210591316223
1777561102401043000,8.11104296875,0.0844520553946495,-2.5888450145721436,1.3110685348510742
1777561102419572000,8.129572021484375,-0.228921577334404,-2.1502439975738525,0.902400016784668
1777561102438100700,8.148100830078125,-0.5673406720161438,-0.3237583339214325,0.378888875246048
1777561102456629500,8.16662939453125,-0.2484692484140396,1.5766420364379883,-0.7457131743431091
1777561102475158300,8.185158203125,-0.08781181275844574,1.9327762126922607,-1.067638874053955
1777561102493687300,8.203687255859375,-0.08659008145332336,0.7195987105369568,-1.00594162940979
1777561102512216000,8.222216064453125,-0.6559160351753235,0.1380554437637329,-1.910021424293518
1777561102530744800,8.240744873046875,-1.0315978527069092,0.27977606654167175,-2.352898359298706
1777561102549273600,8.259273681640625,-0.36453354358673096,0.3549124300479889,-1.511737585067749
1777561102567802600,8.277802734375,0.4430296719074249,-0.1649334877729416,-1.0908517837524414
1777561102586331400,8.296331298828125,0.5212203860282898,-0.33597561717033386,-1.057865023612976
1777561102604860200,8.314860107421875,0.48701193928718567,-0.4111120104789734,-1.0163263082504272
1777561102623389000,8.333388916015625,0.6757691502571106,-0.31031930446624756,-1.1256710290908813
1777561102641918000,8.35191796875,0.7820596098899841,-0.80389803647995,-1.272889494895935
1777561102660446700,8.37044677734375,0.6030762791633606,-1.2070688009262085,-1.492189884185791
1777561102678975500,8.3889755859375,0.2964221239089966,-1.2498292922973633,-1.6565126180648804
1777561102697504300,8.407504150390626,0.14248420298099518,-1.0195332765579224,-1.5636610984802246
1777561102716033300,8.426033203125,-0.0487164668738842,-0.7666352987289429,-1.1739293336868286
1777561102734562000,8.44456201171875,-0.04993819445371628,-0.29565855860710144,-1.1268928050994873
1777561102753090800,8.4630908203125,0.04657844081521034,-0.05192350596189499,-1.1910336017608643
1777561102771619600,8.48161962890625,0.019700389355421066,-0.1795942485332489,-0.9882264733314514
1777561102790148400,8.5001484375,-0.0847574844956398,-0.04153880476951599,-0.6253728270530701
1777561102808677400,8.518677490234374,-0.15073087811470032,0.24740023910999298,-0.4787652790546417
1777561102827206100,8.5372060546875,-0.08597921580076218,0.2626718580722809,-0.7396045327186584
1777561102845735000,8.55573486328125,-0.17638720571994781,-0.6517927050590515,-1.0902409553527832
1777561102864263700,8.574263671875,-0.2631300091743469,-1.163697361946106,-1.1946988105773926
1777561102882792700,8.592792724609374,-0.2655734717845917,-0.6719512343406677,-0.9772309064865112
1777561102901321500,8.611321533203125,-0.17394374310970306,-0.10384701192378998,-0.6717985272407532
1777561102919850200,8.629850341796875,-0.10674861818552017,0.007330377586185932,-0.40485063195228577
1777561102938379300,8.648379150390625,-0.08842267841100693,-0.02626718580722809,-0.2863428592681885
1777561102956908000,8.666907958984375,-0.13973531126976013,0.09346231073141098,-0.2386954128742218
1777561102975436800,8.685436767578125,-0.40973755717277527,-0.05497783049941063,-0.15073087811470032
1777561102993965600,8.703965576171875,-0.5484038591384888,-0.638353705406189,0.055741410702466965
1777561103012494600,8.72249462890625,-0.558788537979126,-0.5839866995811462,0.20173808932304382
1777561103031023400,8.7410234375,-0.4799869954586029,-0.2834412455558777,0.26648977398872375
1777561103049552100,8.75955224609375,-0.33276858925819397,-0.29626941680908203,0.3733910918235779
1777561103068081000,8.778080810546875,-0.20693044364452362,-0.49480047821998596,0.6617192625999451
1777561103086610000,8.79660986328125,-0.22098033130168915,-1.1154390573501587,1.243262529373169
1777561103114403000,8.824403076171874,-0.38957902789115906,-2.3909246921539307,2.246913433074951
1777561103132931800,8.842931884765624,-0.4757109582424164,-3.3017241954803467,2.9799511432647705
1777561103151460900,8.8614609375,-0.5740602016448975,-3.940077781677246,3.6610653400421143
1777561103169989600,8.87998974609375,-0.45677414536476135,-3.789194345474243,3.71298885345459
1777561103188518400,8.898518310546875,-0.3474293351173401,-3.151451349258423,3.350745916366577
1777561103207047400,8.91704736328125,-0.1409570425748825,-1.9425499439239502,3.168708324432373
1777561103225576200,8.935576171875,-0.13362666964530945,-1.0519092082977295,2.994611978530884
1777561103244105000,8.95410498046875,-0.1776089370250702,-0.7232639193534851,2.8706064224243164
1777561103262634000,8.972634033203125,0.04230238497257233,-0.5919279456138611,2.6647448539733887
1777561103281162800,8.991162841796875,0.3831649422645569,-1.1038326025009155,2.039830207824707
1777561103299691500,9.00969140625,0.6672170758247375,-1.5021164417266846,1.4588978290557861
1777561103318220300,9.02822021484375,0.7594576478004456,-1.619402527809143,1.326951026916504
1777561103336749300,9.046749267578125,0.6036871075630188,-1.6383392810821533,1.8797836303710938
1777561103355278000,9.065278076171875,0.5786416530609131,-2.7953171730041504,2.4594943523406982
1777561103373806800,9.083806884765625,0.697760283946991,-4.207636833190918,2.4356706142425537
1777561103392336000,9.1023359375,1.105207085609436,-4.886307239532471,2.4295618534088135
1777561103410864600,9.12086474609375,1.2475385665893555,-5.016421794891357,2.9213080406188965
1777561103429393400,9.139393310546875,1.2438733577728271,-4.153880596160889,2.135125160217285
1777561103447922400,9.15792236328125,1.2927426099777222,-3.265683174133301,1.430798053741455
1777561103466451200,9.176451171875,1.2035562992095947,-2.497826099395752,1.014188289642334
1777561103484980000,9.19497998046875,1.2298234701156616,-1.9144501686096191,0.7698423266410828
1777561103503509000,9.213509033203126,1.355050802230835,-1.6053526401519775,0.46624255180358887
1777561103522037800,9.232037841796876,1.6226096153259277,-1.4025455713272095,0.04657844081521034
1777561103540566500,9.25056640625,1.753334641456604,-1.0946696996688843,-0.4488328993320465
1777561103559095600,9.269095458984374,1.698967695236206,-0.9572250843048096,-0.7933606505393982
1777561103577624300,9.287624267578124,1.5499166250228882,-1.1325433254241943,-0.9497420191764832
1777561103596153000,9.306153076171874,1.2298234701156616,-1.414151906967163,-0.7896954417228699
1777561103614681900,9.324681884765624,0.6812669634819031,-1.5204424858093262,0.1314886510372162
1777561103633211000,9.3432109375,0.4454731345176697,-1.0488548278808594,1.687361240386963
1777561103651739600,9.36173974609375,0.5175551772117615,-1.7470732927322388,1.2206605672836304
1777561103670268400,9.380268310546874,0.6989820003509521,-2.3817617893218994,1.4240784645080566
1777561103688797400,9.39879736328125,0.9005674123764038,-2.5356996059417725,1.2304344177246094
1777561103707326200,9.417326171875,0.7600684762001038,-1.7220277786254883,0.9091194868087769
1777561103725855000,9.43585498046875,0.22678354382514954,-0.6462949514389038,0.6268999576568604
1777561103744384000,9.454384033203125,-0.36880961060523987,1.4691298007965088,-0.7408262491226196
1777561103762912800,9.472912841796875,-1.0743584632873535,2.5943427085876465,-0.596662163734436
1777561103781441500,9.491441650390625,-0.45616328716278076,0.618806004524231,-0.6046034097671509
1777561103799970600,9.509970458984375,0.2658788859844208,-0.11056652665138245,-1.8672609329223633
1777561103818499300,9.528499267578125,0.13515383005142212,2.2443172931671143,-3.1983351707458496
1777561103837028000,9.547028076171875,-0.22159120440483093,3.4739880561828613,-3.3791513442993164
1777561103855557000,9.56555712890625,-0.5080868005752563,2.5583016872406006,-2.062126874923706
1777561103874086000,9.5840859375,-0.6039925217628479,0.2156352698802948,0.162031888961792
1777561103892614700,9.60261474609375,0.08261945843696594,-1.8393138647079468,-0.7029526233673096
1777561103911143700,9.621143798828125,0.975092887878418,-1.3347395658493042,-2.209956169128418
1777561103929672400,9.63967236328125,1.3049598932266235,-0.056810423731803894,-2.2142322063446045
1777561103948201500,9.658201416015626,1.613446593284607,1.1380411386489868,-2.385885000228882
1777561103966730200,9.676730224609376,1.3556616306304932,0.8662062287330627,-2.1549782752990723
1777561103985259000,9.695259033203126,0.9097303748130798,0.3329212963581085,-1.660788655281067
1777561104003788000,9.7137880859375,0.2756527364253998,-0.05864302068948746,-1.6009238958358765
1777561104022316800,9.73231689453125,-0.10797034949064255,-0.15210533142089844,-1.680947184562683
1777561104040845600,9.750845458984376,-0.03527744114398956,0.4263836145401001,-1.733481526374817
1777561104059374600,9.76937451171875,0.06307178735733032,1.2272273302078247,-1.715766429901123
1777561104077903400,9.7879033203125,0.042913250625133514,0.8619301915168762,-1.559385061264038
1777561104096432000,9.80643212890625,-0.13423752784729004,0.2571740746498108,-1.4512619972229004
1777561104114961200,9.824961181640624,-0.40118545293807983,-0.017104214057326317,-1.3034327030181885
1777561104133490000,9.843489990234374,-0.37003132700920105,-0.1178968995809555,-1.134223222732544
1777561104152018700,9.862018798828124,-0.21670427918434143,0.2461785078048706,-0.9821178317070007
1777561104170547700,9.880547607421875,-0.15378521382808685,0.7391464114189148,-0.8990402221679688
1777561104189076500,9.899076416015625,-0.208152174949646,0.9486730098724365,-0.6583595275878906
1777561104207605200,9.917605224609375,-0.34865108132362366,0.7391464114189148,-0.5264127254486084
1777561104226134300,9.93613427734375,-0.5343539714813232,0.11728604137897491,-0.42012226581573486
1777561104244663000,9.9546630859375,-0.7121156454086304,-0.1380554437637329,-0.47693267464637756
1777561104263192000,9.973192138671875,-0.7243329286575317,-0.10201441496610641,-0.42745262384414673
1777561104281720800,9.991720947265625,-0.6039925217628479,-0.0922405794262886,-0.24724751710891724
1777561104300249600,10.01024951171875,-0.38957902789115906,-0.10567960888147354,0.07528908550739288
1777561104318778600,10.028778564453125,-0.21975859999656677,-0.2889390289783478,0.44730573892593384
1777561104337307400,10.047307373046875,-0.13729186356067657,-0.5039634704589844,0.9414953589439392
1777561104355836400,10.06583642578125,-0.19960007071495056,-0.5564978122711182,1.4607304334640503
1777561104374365200,10.084365234375,-0.1721111536026001,-1.0928370952606201,1.9848524332046509
1777561104392894000,10.10289404296875,-0.017562363296747208,-1.4740166664123535,2.8119633197784424
1777561104411423000,10.121423095703125,0.2383899837732315,-1.8069380521774292,3.680002212524414
1777561104429951700,10.13995166015625,0.5444332361221313,-2.2003350257873535,4.4551897048950195
1777561104448480800,10.158480712890626,0.7570141553878784,-1.9773693084716797,4.800328254699707
1777561104467009500,10.177009521484376,0.5169443488121033,-1.0763437747955322,4.306138515472412
1777561104485538300,10.195538330078126,0.1467602699995041,-0.01588248461484909,3.6305220127105713
1777561104504067300,10.2140673828125,0.045967575162649155,0.22174391150474548,3.180314779281616
1777561104522596000,10.23259619140625,-0.17577634751796722,-0.1185077652335167,2.7930264472961426
1777561104541125000,10.251125,-0.3883572816848755,-0.6805033683776855,2.7392704486846924
1777561104559654000,10.26965380859375,-0.13545925915241241,-1.694538950920105,3.1357216835021973
1777561104578182700,10.2881826171875,0.5590940117835999,-1.5552617311477661,4.272541046142578
1777561104596711700,10.306711669921874,0.8950695991516113,-2.4202463626861572,4.867523193359375
1777561104615240400,10.325240478515624,1.3666572570800781,-2.8509058952331543,4.468017578125
1777561104633769500,10.34376953125,1.3599376678466797,-3.754985809326172,4.41120719909668
1777561104652298200,10.36229833984375,1.08810293674469,-3.7012298107147217,4.637837886810303
1777561104670827000,10.380826904296875,0.735023021697998,-3.1703882217407227,4.246273994445801
1777561104689356000,10.39935595703125,0.6855430006980896,-2.49843692779541,3.3055419921875
1777561104707884800,10.417884765625,0.5517635941505432,-2.263253927230835,2.609766960144043
1777561104726413600,10.43641357421875,0.5352702736854553,-1.9364413022994995,1.9414809942245483
1777561104744942600,10.454942626953125,0.662330150604248,-1.8521419763565063,1.2603667974472046
1777561104763471600,10.4734716796875,0.8663589954376221,-1.6829324960708618,0.5303833484649658
1777561104782000400,10.49200048828125,1.1827869415283203,-1.3139700889587402,-0.06582067906856537
1777561104800529200,10.510529052734375,1.501658320426941,-1.025641918182373,-0.7487674951553345
1777561104819058200,10.52905810546875,1.8193080425262451,-0.729983389377594,-1.6833906173706055
1777561104837587000,10.5475869140625,1.5077669620513916,0.3848448097705841,-1.6174172163009644
1777561104856116000,10.566115966796875,1.5474731922149658,-0.5681042671203613,-2.0266966819763184
1777561104874644700,10.584644775390625,1.6965242624282837,2.0500621795654297,-2.547764301300049
1777561104893173500,10.603173583984375,0.7276926636695862,0.7293725609779358,-2.947269916534424
1777561104911702500,10.62170263671875,0.1876882016658783,0.3952295184135437,-2.1867432594299316
1777561104930231300,10.640231201171876,0.605519711971283,0.4312705397605896,-2.180023670196533
1777561104948760300,10.65876025390625,0.623845636844635,1.7250821590423584,-2.5752532482147217
1777561104967289000,10.6772890625,0.5377137064933777,1.339626431465149,-2.908174514770508
1777561104985817900,10.69581787109375,0.13942988216876984,1.8270965814590454,-3.42557692527771
1777561105004347000,10.714346923828124,-0.35414886474609375,2.635270595550537,-4.059654712677002
1777561105022875600,10.732875732421874,-0.8575014472007751,3.263239622116089,-4.253298759460449
1777561105041404700,10.75140478515625,-0.6944005489349365,3.0280566215515137,-3.4304637908935547
1777561105059933400,10.769933349609374,-0.07681624591350555,1.505781650543213,-2.43047833442688
1777561105078462500,10.78846240234375,0.26221370697021484,0.28038692474365234,-1.89047372341156
1777561105096991200,10.8069912109375,0.21151192486286163,0.8955277800559998,-2.034637928009033
1777561105115520300,10.825520263671875,0.3611738085746765,1.0525200366973877,-2.1580326557159424
1777561105134049000,10.844049072265625,0.7276926636695862,0.9926552772521973,-2.1439826488494873
1777561105152578000,10.862578125,0.8480330109596252,1.0415244102478027,-2.0627377033233643
1777561105171106800,10.88110693359375,0.4637990891933441,0.6988292932510376,-1.7285946607589722
1777561105189635600,10.899635498046875,0.029474224895238876,0.3842339515686035,-1.5001311302185059
1777561105208164600,10.91816455078125,-0.02977965772151947,0.3017672002315521,-1.6650646924972534
1777561105226693400,10.936693359375,0.019700389355421066,0.03543015569448471,-1.6003129482269287
1777561105245222400,10.955222412109375,-0.17455461621284485,-0.04581485688686371,-1.133001446723938
1777561105263751200,10.973751220703125,-0.22708898782730103,0.24006985127925873,-0.9955568909645081
1777561105282280200,10.9922802734375,-0.13484840095043182,0.3995055556297302,-1.0053306818008423
1777561105300809000,11.01080908203125,-0.16844595968723297,0.47464191913604736,-0.8281798958778381
1777561105319337700,11.029337646484375,-0.2649625837802887,0.3909534513950348,-0.7408262491226196
1777561105337866800,11.04786669921875,-0.4329504072666168,-0.10567960888147354,-0.6968439817428589
1777561105356395800,11.066395751953126,-0.6400335431098938,-0.5235111117362976,-0.6180424690246582
1777561105374924500,11.084924560546876,-0.7402154207229614,-0.7629700899124146,-0.5453495383262634
1777561105393453600,11.10345361328125,-0.6125446557998657,-1.0128138065338135,-0.5154171586036682
1777561105411982300,11.121982421875,-0.4805978536605835,-0.38240134716033936,-0.2032652497291565
1777561105430511000,11.140510986328126,-0.10308343172073364,-0.0665842592716217,0.12660172581672668
1777561105449040100,11.1590400390625,0.20418155193328857,-0.013439024798572063,0.5071704983711243
1777561105467569000,11.17756884765625,0.3006981909275055,-0.4043924808502197,0.8449786901473999
1777561105486098000,11.196097900390624,0.212733656167984,-0.8924734592437744,1.1864521503448486
1777561105504626700,11.214626708984374,0.07284562289714813,-0.7177661061286926,1.7362303733825684
1777561105523155700,11.23315576171875,-0.056657709181308746,-0.9022472500801086,2.5712826251983643
1777561105541684500,11.2516845703125,-0.025503603741526604,-2.1111485958099365,3.7007715702056885
1777561105560213200,11.270213134765624,-0.2802342176437378,-2.824638843536377,4.524217128753662
1777561105578742300,11.2887421875,-0.42562004923820496,-0.8594867587089539,4.004371166229248
1777561105597271300,11.307271240234375,0.20112723112106323,1.907119870185852,3.498575210571289
1777561105615800000,11.325800048828125,0.5071704983711243,2.414748430252075,3.0196573734283447
1777561105634329000,11.3443291015625,0.2707658112049103,1.0427461862564087,2.3733623027801514
1777561105662122200,11.372122314453126,0.07162389904260635,-1.0775654315948486,2.1174099445343018
1777561105680651300,11.3906513671875,0.2952004075050354,-1.8283182382583618,2.6818490028381348
1777561105699180000,11.409179931640624,0.39965829253196716,-3.0579891204833984,3.548055410385132
1777561105717709000,11.427708984375,0.41615164279937744,-2.2534801959991455,4.318356037139893
1777561105736237800,11.44623779296875,0.47174033522605896,-1.3194679021835327,4.2151198387146
1777561105754766800,11.464766845703124,0.4234820008277893,-1.454469084739685,3.5969245433807373
1777561105773295600,11.483295654296874,0.3153589367866516,-2.0964879989624023,3.6256351470947266
1777561105791824600,11.50182470703125,0.15347976982593536,-2.402531147003174,3.722151756286621
1777561105810353400,11.520353515625,0.07712167501449585,-2.2168283462524414,3.0135486125946045
1777561105828882400,11.53888232421875,-0.2386954128742218,-2.067777395248413,2.0520474910736084
1777561105847411200,11.5574111328125,-0.2991710305213928,-1.5601485967636108,1.3342814445495605
1777561105865940200,11.575940185546875,-0.15745039284229279,-1.0751219987869263,0.6122392416000366
1777561105884469000,11.594468994140625,0.08323032408952713,-0.7134900689125061,-0.16966769099235535
1777561105902998000,11.612998046875,0.38011062145233154,-0.39339691400527954,-0.986393928527832
1777561105921526800,11.63152685546875,0.633008599281311,0.04886918142437935,-1.8886412382125854
1777561105940055800,11.650055908203125,0.5285507440567017,0.7672461867332458,-2.16841721534729
1777561105958584600,11.66858447265625,-0.17333288490772247,1.4953969717025757,-1.1549925804138184
1777561105977113600,11.687113525390625,0.39477136731147766,-2.033568859100342,-2.2588253021240234
1777561105995642400,11.705642333984375,0.819322407245636,2.7287330627441406,-1.8483240604400635
1777561106014171400,11.72417138671875,0.3630063831806183,-0.3909534513950348,-1.5844305753707886
1777561106032700200,11.7427001953125,0.1259908676147461,-0.5015199780464172,-1.3877320289611816
1777561106051229200,11.761229248046876,0.09972367435693741,0.45937031507492065,-1.9289582967758179
1777561106069758000,11.779758056640626,0.2854265570640564,1.3267983198165894,-2.2698206901550293
1777561106088287000,11.798286865234376,0.22006404399871826,1.3506220579147339,-2.682154417037964
1777561106106815700,11.816815673828126,0.09178243577480316,1.9828671216964722,-3.3009605407714844
1777561106125344800,11.8353447265625,0.03130681812763214,2.8460190296173096,-3.937481641769409
1777561106143873500,11.85387353515625,-0.2386954128742218,3.6694648265838623,-4.190379619598389
1777561106162402600,11.872402587890624,-0.3523162603378296,3.822791814804077,-3.7682721614837646
1777561106180931300,11.890931396484374,-0.01511890348047018,2.020129919052124,-2.852585792541504
1777561106199460400,11.90946044921875,0.18341214954853058,0.37751442193984985,-1.7383683919906616
1777561106217989000,11.927989013671874,0.13209950923919678,0.1893680840730667,-1.3626866340637207
1777561106236518100,11.94651806640625,0.12721258401870728,0.9743293523788452,-1.7860158681869507
1777561106255047000,11.965046875,0.6177369952201843,1.5326597690582275,-2.2569925785064697
1777561106273576000,11.983575927734375,1.0514509677886963,1.544877052307129,-2.41459584236145
1777561106292104700,12.002104736328125,0.8700241446495056,1.0195332765579224,-2.173915147781372
1777561106310633700,12.0206337890625,0.21212279796600342,0.48502662777900696,-1.6094759702682495
1777561106329162800,12.039162841796875,-0.18005239963531494,0.24312418699264526,-1.4201078414916992
1777561106347691500,12.05769140625,0.039248060435056686,0.4269944727420807,-1.5612176656723022
1777561106366220500,12.076220458984375,0.1406516134738922,0.6426297426223755,-1.3504693508148193
1777561106384749300,12.094749267578125,0.06795870512723923,0.29504770040512085,-1.0444260835647583
1777561106403278300,12.1132783203125,0.11194097250699997,0.07574722915887833,-1.0743584632873535
1777561106421807000,12.13180712890625,0.07345648854970932,0.3042106628417969,-1.0768018960952759
1777561106440336100,12.150336181640625,-0.04810560122132301,0.4098902642726898,-0.8422298431396484
1777561106458865000,12.168864990234376,-0.19410228729248047,0.40866854786872864,-0.7029526233673096
1777561106477394000,12.187393798828126,-0.3559814393520355,0.15577052533626556,-0.4653262495994568
1777561106495922700,12.205922607421876,-0.3926333487033844,-0.034208428114652634,-0.24113887548446655
1777561106514451700,12.22445166015625,-0.39568766951560974,-0.21991132199764252,-0.0902552679181099
1777561106532980500,12.24298046875,-0.39996370673179626,-0.3237583339214325,-0.10919208079576492
1777561106551509500,12.261509521484374,-0.45249807834625244,-0.14294235408306122,-0.25641047954559326
1777561106570038300,12.280038330078124,-0.48243045806884766,-0.3530798554420471,-0.4091266989707947
1777561106588567300,12.2985673828125,-0.3413206934928894,-0.5369501113891602,-0.5551233887672424
1777561106607096000,12.317095947265624,-0.15928299725055695,-0.12461641430854797,-0.20509785413742065
1777561106625625000,12.335625,-0.14034618437290192,0.10323614627122879,0.41187557578086853
1777561106644154000,12.354154052734375,-0.20570871233940125,-0.2101374864578247,0.7136427760124207
1777561106662683000,12.372682861328125,-0.22953243553638458,-0.3854556679725647,0.7936660647392273
1777561106681212000,12.3912119140625,-0.19654574990272522,-0.3952295184135437,1.1070396900177002
1777561106699740700,12.40974072265625,-0.15561780333518982,-0.5375609993934631,1.5596904754638672
1777561106718269700,12.428269775390625,-0.02000582218170166,-0.6389645338058472,2.06731915473938
1777561106736798500,12.446798583984375,0.27137666940689087,-1.0965023040771484,2.796691656112671
1777561106755327500,12.465327392578125,0.3043633699417114,-1.9651520252227783,3.5895941257476807
1777561106773856500,12.4838564453125,-0.08597921580076218,-2.1087052822113037,4.0556840896606445
1777561106792385300,12.50238525390625,-0.2380845546722412,0.9309579133987427,3.7294821739196777
1777561106810914300,12.520914306640625,0.15897755324840546,3.819737434387207,3.255451202392578
1777561106829443000,12.539443115234375,0.17791436612606049,2.492328405380249,2.0856449604034424
1777561106847972000,12.55797216796875,0.1663079410791397,-0.5564978122711182,1.0740530490875244
1777561106866500900,12.5765009765625,-0.10063996911048889,-2.184452533721924,2.3684754371643066
1777561106885030000,12.59502978515625,-0.28817546367645264,-3.2125377655029297,4.220617294311523
1777561106903559000,12.613558837890626,-0.3321577310562134,-4.081187725067139,5.466170787811279
1777561106922087700,12.632087646484376,0.05024362727999687,-2.199723958969116,4.8436994552612305
1777561106940616700,12.65061669921875,0.2536616027355194,-1.694538950920105,3.5950920581817627
1777561106959145500,12.6691455078125,-0.03955349326133728,-2.0518949031829834,3.7111563682556152
1777561106977674500,12.687674560546874,-0.13545925915241241,-1.5992439985275269,4.010479927062988
1777561106996203300,12.706203369140624,-0.05177079141139984,-1.2834268808364868,3.428936719894409
1777561107014732300,12.724732177734374,-0.1769980639219284,-1.2681553363800049,2.5016438961029053
1777561107033261300,12.74326123046875,-0.34437501430511475,-1.2143992185592651,1.7527238130569458
1777561107051790000,12.7617900390625,-0.25213444232940674,-0.8466585874557495,1.032514214515686
1777561107070319000,12.780319091796875,-0.03588830679655075,-0.49541133642196655,0.22739441692829132
1777561107088848000,12.798847900390625,0.2548833191394806,-0.13622283935546875,-0.660802960395813
1777561107107377000,12.817376953125,0.5548179149627686,0.2461785078048706,-1.6589560508728027
1777561107125906000,12.835906005859375,0.7790052890777588,0.4196641147136688,-2.483623504638672
1777561107144434700,12.8544345703125,0.28664830327033997,0.5827649831771851,-1.652847409248352
1777561107162963700,12.872963623046875,0.3507890999317169,-0.1802051067352295,-2.4072654247283936
1777561107181492700,12.89149267578125,0.4650208055973053,0.6994401812553406,-2.3822200298309326
1777561107200021500,12.910021484375,0.4637990891933441,0.8429933786392212,-2.1647520065307617
1777561107218550500,12.928550537109375,0.10583232343196869,-0.06230820715427399,-2.139706611633301
1777561107237079300,12.947079345703125,0.33857181668281555,0.3035998046398163,-1.974162220954895
1777561107255608300,12.9656083984375,0.43753188848495483,0.8478803038597107,-2.397491455078125
1777561107274137300,12.984137451171875,0.3764454126358032,1.5204424858093262,-2.8238751888275146
1777561107292666000,13.002666015625,0.30802857875823975,1.3738348484039307,-3.156796455383301
1777561107311195100,13.021195068359376,0.26221370697021484,1.7452406883239746,-3.6051712036132812
1777561107329724000,13.039723876953126,-0.016340631991624832,2.7006332874298096,-3.934427261352539
1777561107348253000,13.0582529296875,-0.504421591758728,3.2174248695373535,-3.6839728355407715
1777561107366781700,13.07678173828125,-0.453719824552536,1.6957606077194214,-2.707810878753662
1777561107385310700,13.095310791015624,0.20418155193328857,0.05070177838206291,-1.384677767753601
1777561107403839700,13.11383984375,0.33490660786628723,-0.2919933497905731,-1.4842487573623657
1777561107422368500,13.132368408203124,0.755181610584259,0.6798924803733826,-2.2478296756744385
1777561107440897500,13.1508974609375,1.2756383419036865,1.4782928228378296,-2.5544838905334473
1777561107459426600,13.169426513671874,1.287855625152588,1.3811652660369873,-2.1830780506134033
1777561107477955300,13.187955322265625,0.6513345837593079,0.9175189137458801,-1.5618284940719604
1777561107496484400,13.206484375,0.012370011769235134,0.33597561717033386,-1.3303108215332031
1777561107515013400,13.225013427734375,-0.2185368686914444,-0.4050033390522003,-1.4463751316070557
1777561107533542100,13.243542236328125,-0.08170316368341446,-0.4263836145401001,-1.5092941522598267
1777561107552071200,13.2620712890625,-0.0792597085237503,0.02932151034474373,-1.11650812625885
1777561107570600000,13.280599853515625,-0.13240493834018707,0.6957749724388123,-0.9839504361152649
1777561107589129000,13.29912890625,-0.0896444097161293,0.5351175665855408,-1.0560325384140015
1777561107607658000,13.317657958984375,-0.1360701322555542,0.13194678723812103,-0.9808961153030396
1777561107626186800,13.336186767578125,-0.23136503994464874,0.22663083672523499,-0.7713695168495178
1777561107644715800,13.3547158203125,-0.3529271185398102,0.07635809481143951,-0.607046902179718
1777561107663244800,13.373244873046875,-0.5459604263305664,-0.2315177470445633,-0.4378373324871063
1777561107681773600,13.391773681640625,-0.6436987519264221,-0.3958403766155243,-0.20693044364452362
1777561107700302600,13.410302490234375,-0.6791289448738098,-0.47525280714035034,-0.1366809904575348
1777561107718831600,13.42883154296875,-0.7029526233673096,-0.7324268817901611,-0.3303251266479492
1777561107737360400,13.4473603515625,-0.5978838801383972,-0.8533781170845032,-0.5319104790687561
1777561107755889400,13.465889404296876,-0.4390590488910675,-0.2864955961704254,-0.17027856409549713
1777561107774418200,13.484418212890626,-0.23747368156909943,0.09040798991918564,0.2811505198478699
1777561107792947200,13.502947265625,-0.010842849500477314,0.21502439677715302,0.8235984444618225
1777561107811476200,13.521476318359374,0.14492766559123993,-0.21930044889450073,1.0001384019851685
1777561107830005200,13.540005126953124,0.1418733447790146,-0.379347026348114,1.170569658279419
1777561107848534000,13.558533935546874,0.06062832847237587,-0.19120067358016968,1.5438079833984375
1777561107867063000,13.57706298828125,-0.037720900028944016,-0.3078758418560028,2.1167991161346436
1777561107885591800,13.595591796875,0.06062832847237587,-1.0024291276931763,2.8993170261383057
1777561107904120800,13.614120849609375,0.05696314200758934,-2.009134292602539,3.612196207046509
1777561107922649900,13.63264990234375,-0.17577634751796722,-2.2137739658355713,3.817446708679199
1777561107941178600,13.6511787109375,-0.22647811472415924,0.39767298102378845,3.3825109004974365
1777561107959707600,13.669707763671875,0.09850194305181503,3.2235333919525146,2.9768967628479004
1777561107978236700,13.688236572265625,0.11316270381212234,2.229656457901001,2.199265956878662
1777561107996765400,13.706765380859375,0.17852523922920227,0.0873536616563797,1.5609122514724731
1777561108015294500,13.72529443359375,0.14859285950660706,-1.2797616720199585,2.056323528289795
1777561108033823500,13.743823486328125,0.295811265707016,-2.0916008949279785,3.341583013534546
1777561108052352300,13.762352294921875,0.21029019355773926,-3.2614071369171143,4.322021007537842
1777561108070881300,13.78088134765625,0.3324631452560425,-2.581514596939087,4.383107662200928
1777561108089410300,13.799410400390625,0.672104001045227,-1.951712965965271,3.917017698287964
1777561108107939300,13.817939208984376,0.6739365458488464,-2.218660831451416,3.7392561435699463
1777561108126468000,13.836468017578126,0.45646870136260986,-2.3909246921539307,3.830885648727417
1777561108144997000,13.8549970703125,0.28725916147232056,-2.274860382080078,3.8211119174957275
1777561108163526000,13.87352587890625,0.09605848789215088,-1.6890411376953125,3.260948896408081
1777561108182055000,13.892054931640626,-0.14462223649024963,-1.434921383857727,2.422842502593994
1777561108200584000,13.910583984375,-0.2087630331516266,-1.3732240200042725,1.7539454698562622
1777561108219113000,13.929113037109374,0.09239330142736435,-1.065959095954895,1.1772891283035278
1777561108237641700,13.947641845703124,0.44119709730148315,-0.8161153197288513,0.6000219583511353
1777561108256170800,13.966170654296874,0.726470947265625,-0.4770853817462921,0.06979130208492279
1777561108274699500,13.984699462890624,0.9708168506622314,-0.10445787757635117,-0.4079049527645111
1777561108293228500,14.003228515625,1.1797325611114502,0.27550002932548523,-1.0572541952133179
1777561108311757600,14.021757568359375,1.2982404232025146,0.6646208763122559,-2.034027099609375
1777561108330286600,14.04028662109375,0.8578068614006042,1.2944225072860718,-1.754861831665039
1777561108348815400,14.0588154296875,0.3617846667766571,0.5687150955200195,-1.9735513925552368
1777561108367344400,14.077344482421875,0.3153589367866516,0.5235111117362976,-2.04196834564209
1777561108385873200,14.095873046875,-0.09330959618091583,0.6078104376792908,-2.0890047550201416
1777561108404402200,14.114402099609375,-0.23258677124977112,-0.2889390289783478,-1.734092354774475
1777561108422931200,14.13293115234375,-0.13423752784729004,0.35124725103378296,-1.9075779914855957
1777561108441460200,14.151460205078125,-0.04321868345141411,1.1343759298324585,-2.406043767929077
1777561108459989000,14.169989013671875,-0.05849030241370201,1.433699607849121,-2.8147122859954834
1777561108478518000,14.18851806640625,-0.10186170041561127,1.6591087579727173,-3.2655303478240967
1777561108497047000,14.207047119140626,-0.003512472379952669,1.9175045490264893,-3.7652177810668945
1777561108524840400,14.23484033203125,-0.1262962967157364,2.98163104057312,-4.161057949066162
1777561108543369200,14.253369140625,-0.10613775253295898,3.375027894973755,-3.8263041973114014
1777561108561898500,14.2718984375,0.04718930274248123,2.7513349056243896,-2.790888547897339
1777561108580427300,14.29042724609375,-0.06765327602624893,1.3585633039474487,-1.751807451248169
1777561108598956300,14.308956298828125,-0.08048143237829208,0.2779434621334076,-1.5899282693862915
1777561108617485000,14.327485107421875,0.16447533667087555,0.9181297421455383,-2.0633485317230225
1777561108636014000,14.34601416015625,0.6317868828773499,1.4104868173599243,-2.204458236694336
1777561108654543000,14.364543212890625,0.8914044499397278,1.7916663885116577,-2.103665590286255
1777561108673072000,14.383072021484375,0.6904299259185791,1.8503093719482422,-1.7664681673049927
1777561108691601000,14.401600830078126,0.21700970828533173,1.3384047746658325,-1.4469859600067139
1777561108710130000,14.4201298828125,-0.14889828860759735,0.5094612240791321,-1.291215419769287
1777561108728659000,14.438658935546876,-0.15378521382808685,0.5015199780464172,-1.4598140716552734
1777561108747188000,14.45718798828125,-0.05299251899123192,0.6010909676551819,-1.4512619972229004
1777561108765716700,14.475716796875,-0.037720900028944016,0.5827649831771851,-1.243567943572998
1777561108784245800,14.494245849609374,-0.12935061752796173,0.3249800503253937,-1.2130247354507446
1777561108802774800,14.51277490234375,-0.19410228729248047,0.15699224174022675,-1.0254892110824585
1777561108830568200,14.540568115234375,-0.28695371747016907,0.07941242307424545,-0.7176133990287781
1777561108849097200,14.55909716796875,-0.3712530732154846,0.14599667489528656,-0.5752819180488586
1777561108867626000,14.5776259765625,-0.5062541961669922,-0.02626718580722809,-0.476321816444397
1777561108886155000,14.596155029296876,-0.5844448804855347,-0.2309068888425827,-0.4066832363605499
1777561108904683800,14.614683837890626,-0.6339249014854431,-0.42394015192985535,-0.425009161233902
1777561108923213000,14.633213134765626,-0.6650790572166443,-0.9034690260887146,-0.505032479763031
1777561108941741800,14.651741943359376,-0.5453495383262634,-0.6432406306266785,-0.37064221501350403
1777561108960270800,14.670270751953124,-0.31932955980300903,-0.11484257876873016,0.21151192486286163
1777561108978799600,14.688799560546874,-0.14889828860759735,0.20708316564559937,0.7429642677307129
1777561108997328600,14.70732861328125,0.06368265300989151,0.017104214057326317,1.0832159519195557
1777561109015857700,14.725857666015624,0.11866047978401184,-0.27977606654167175,1.3116793632507324
1777561109034386700,14.74438671875,0.010537417605519295,-0.3390299379825592,1.5853468179702759
1777561109052915700,14.762915771484375,-0.07192932814359665,-0.3909534513950348,2.075871229171753
1777561109071444500,14.781444580078125,0.022754713892936707,-1.349400281906128,3.0691373348236084
1777561109089973500,14.799973388671875,-0.04199695214629173,-2.670700788497925,4.057516574859619
1777561109108502500,14.81850244140625,-0.20082180202007294,-1.145371437072754,3.802785873413086
1777561109127031600,14.837031494140625,0.2603811025619507,2.3793182373046875,3.1418302059173584
1777561109145560600,14.855560546875,0.6348412036895752,3.3377652168273926,2.584721565246582
1777561109164089300,14.87408935546875,0.6800451874732971,1.6090178489685059,2.011730432510376
1777561109182618400,14.892618408203125,0.29336780309677124,-1.990808367729187,2.149174928665161
1777561109201147400,14.9111474609375,-0.46654796600341797,-3.3377652168273926,3.391674041748047
1777561109219676400,14.929676513671875,-0.7096721529960632,-4.029874801635742,4.267653942108154
1777561109238205200,14.948205078125,-0.5655080676078796,-3.955960273742676,4.785667419433594
1777561109256734200,14.966734130859376,-0.027336198836565018,-1.3823870420455933,4.366003513336182
1777561109275263200,14.98526318359375,0.4039343297481537,-0.9327905178070068,3.5169012546539307
1777561109293792000,15.0037919921875,0.3061959743499756,-1.970038890838623,3.654345750808716
1777561109312321000,15.022321044921876,0.19013166427612305,-2.4300200939178467,4.205956935882568
1777561109330850000,15.04085009765625,0.2280052751302719,-2.565021276473999,3.9781041145324707
1777561109349379000,15.059379150390624,0.14920371770858765,-2.051283836364746,3.2151341438293457
1777561109367907800,15.077907958984374,-0.06826414167881012,-1.5387684106826782,2.456439971923828
1777561109386436900,15.096436767578124,-0.15012001991271973,-1.3359612226486206,1.7765475511550903
1777561109404966000,15.1149658203125,0.009315688163042068,-1.1343759298324585,1.0099122524261475
1777561109423495000,15.133494873046875,0.29886558651924133,-0.9352339506149292,0.33979353308677673
1777561109442023700,15.152023681640625,0.6501128673553467,-0.7544180154800415,-0.19837833940982819
1777561109460552700,15.170552734375,1.0099122524261475,-0.4831940531730652,-0.6687442064285278
1777561109479081700,15.189081787109375,1.2457059621810913,0.06108647957444191,-1.2936588525772095
1777561109497610800,15.20761083984375,1.0551161766052246,0.925460159778595,-1.1128429174423218
1777561109516139800,15.226139892578125,0.605519711971283,0.749531090259552,-0.753654420375824
1777561109534668800,15.244668701171875,1.170569658279419,-1.4288127422332764,-1.6687299013137817
1777561109553197600,15.263197509765625,1.1852303743362427,1.7996076345443726,-1.2655590772628784
1777561109571726600,15.2817265625,0.5774199366569519,-0.9932661056518555,-1.8599305152893066
1777561109590255600,15.300255615234375,0.36544984579086304,0.45509424805641174,-1.8587088584899902
1777561109608784600,15.31878466796875,0.46135562658309937,0.1545487940311432,-2.1421501636505127
1777561109627313400,15.3373134765625,0.44791659712791443,0.3426951467990875,-2.327242136001587
1777561109645842400,15.355842529296876,0.4760163724422455,0.6957749724388123,-2.6283984184265137
1777561109664371500,15.374371337890626,0.49861836433410645,0.9486730098724365,-2.8348708152770996
1777561109682900500,15.392900390625,0.4894554018974304,1.276707410812378,-3.0999860763549805
1777561109701429500,15.411429443359374,0.32391104102134705,1.9474369287490845,-3.445124626159668
1777561109719958300,15.429958251953124,0.05513054504990578,2.4691154956817627,-3.5801258087158203
1777561109738487300,15.4484873046875,-0.08720094710588455,2.713461399078369,-3.4585635662078857
1777561109757016300,15.467016357421874,0.11621702462434769,2.20461106300354,-3.0914340019226074
1777561109775545300,15.48554541015625,0.2292270064353943,1.5265511274337769,-2.573420524597168
1777561109794074400,15.504074462890625,0.05757400393486023,1.0739002227783203,-1.8367177248001099
1777561109812603400,15.522603271484375,-0.07315105944871902,0.573602020740509,-1.289382815361023
1777561109831132200,15.541132080078125,0.0386371985077858,0.5503891706466675,-1.5147919654846191
1777561109849661200,15.5596611328125,0.2390008419752121,0.5564978122711182,-1.9289582967758179
1777561109868190200,15.578190185546875,0.2292270064353943,0.6316341757774353,-1.9845468997955322
1777561109886719200,15.59671923828125,-0.10430516302585602,0.1637117564678192,-1.844048023223877
1777561109905248300,15.615248291015625,-0.6375901103019714,-0.6004800796508789,-1.4451533555984497
1777561109923777000,15.633777099609375,-0.7976366877555847,-0.7843503952026367,-1.3687952756881714
1777561109942306000,15.65230615234375,-0.34315329790115356,-0.5021308660507202,-1.7004948854446411
1777561109960835000,15.6708349609375,0.2383899837732315,-0.4526508152484894,-1.827554702758789
1777561109979364000,15.689364013671875,0.29214608669281006,-0.5100721120834351,-1.4078905582427979
1777561109997893000,15.70789306640625,0.12415826320648193,-0.573602020740509,-1.2227985858917236
1777561110016422100,15.726422119140626,-0.07559451460838318,-0.739757239818573,-1.1171189546585083
1777561110034951000,15.744950927734376,-0.3315468728542328,-0.3640754222869873,-0.9234748482704163
1777561110053480000,15.76347998046875,-0.4030180275440216,-0.08307760953903198,-0.9027054309844971
1777561110072009000,15.782009033203124,-0.4445568323135376,0.14110976457595825,-0.884379506111145
1777561110090538000,15.8005380859375,-0.5264127254486084,0.32070401310920715,-0.772591233253479
1777561110109067000,15.81906689453125,-0.494647741317749,0.49052441120147705,-0.7170025110244751
1777561110127595800,15.837595703125,-0.4280634820461273,0.43982264399528503,-0.7066178321838379
1777561110146125000,15.856125,-0.3248273432254791,0.3194822669029236,-0.8623883724212646
1777561110164653800,15.87465380859375,-0.3168860971927643,0.2052505612373352,-0.9204205274581909
1777561110183182800,15.893182861328125,-0.40546149015426636,-0.001832594396546483,-0.6876810193061829
1777561110201711900,15.9117119140625,-0.4909825623035431,-0.24312418699264526,-0.30833399295806885
1777561110220241000,15.930240966796875,-0.4140135943889618,-0.5845975875854492,0.04169152304530144
1777561110238770000,15.94877001953125,-0.4451677203178406,-1.0128138065338135,0.5829176902770996
1777561110257298700,15.967298583984375,-0.2948949635028839,-1.186299443244934,0.9366084337234497
1777561110275827700,15.98582763671875,-0.10430516302585602,-1.128878116607666,1.1253656148910522
1777561110294356700,16.004356689453125,-0.07192932814359665,-1.1117738485336304,1.772882342338562
1777561110312885800,16.0228857421875,-0.053603384643793106,-1.1331541538238525,2.565173864364624
1777561110331414800,16.041414794921874,-0.09330959618091583,-1.5027273893356323,3.459480047225952
1777561110349943800,16.05994384765625,-0.05482511222362518,-2.1899502277374268,4.002538681030273
1777561110368472800,16.078472900390626,0.03558287397027016,-3.2601852416992188,3.942063093185425
1777561110387001600,16.097001708984376,0.06612611562013626,-3.498422622680664,3.6586217880249023
1777561110405531000,16.11553076171875,-0.12751802802085876,-2.6609270572662354,3.2395687103271484
1777561110424059600,16.1340595703125,0.5377137064933777,2.8509058952331543,0.7973312735557556
1777561110442588700,16.152588623046874,0.005039634648710489,-4.705491542816162,3.5779876708984375
1777561110461117700,16.17111767578125,-0.641866147518158,-3.378693103790283,3.2921030521392822
1777561110479646700,16.189646728515626,-0.28267768025398254,-2.489274024963379,2.9121451377868652
1777561110498175700,16.20817578125,-0.04505127668380737,-1.6627739667892456,2.2737913131713867
1777561110516704800,16.226704833984375,-0.16600249707698822,-0.870482325553894,2.3043346405029297
1777561110535233800,16.24523388671875,-0.1922696828842163,-1.3518437147140503,2.7740895748138428
1777561110553762600,16.263762451171875,-0.13362666964530945,-1.99936044216156,2.9628469944000244
1777561110572291600,16.28229150390625,0.233503058552742,-2.4489569664001465,2.777143955230713
1777561110590820600,16.300820556640623,0.9738711714744568,-2.464839458465576,2.2841761112213135
1777561110609349600,16.319349609375,1.4857758283615112,-2.246149778366089,1.8315253257751465
1777561110627878700,16.337878662109375,1.5975641012191772,-2.2082762718200684,1.4081960916519165
1777561110646407700,16.35640771484375,1.5755729675292969,-2.0549490451812744,1.0160208940505981
1777561110664936700,16.374936767578124,1.3574942350387573,-1.7275255918502808,0.7838922142982483
1777561110683465700,16.3934658203125,1.197447657585144,-1.3335177898406982,0.4949531853199005
1777561110701994500,16.411994384765624,1.114980936050415,-1.0684025287628174,0.0386371985077858
1777561110720523800,16.430523681640626,1.096655011177063,-0.822834849357605,-0.513584554195404
1777561110739052500,16.449052490234376,1.1766782999038696,-0.5778780579566956,-1.126281976699829
1777561110757581600,16.46758154296875,1.2053889036178589,-0.6957749724388123,-1.5612176656723022
1777561110776110600,16.486110595703124,1.077107310295105,-1.2137882709503174,-1.7328706979751587
1777561110794639600,16.5046396484375,0.6299542784690857,-2.0378448963165283,-1.0041090250015259
1777561110813168600,16.523168701171876,0.13271036744117737,-2.1838417053222656,1.0526727437973022
1777561110831697700,16.54169775390625,0.4851793646812439,-1.6255111694335938,1.4088069200515747
1777561110850226700,16.560226806640625,0.8101593852043152,-1.9553781747817993,1.3910918235778809
1777561110868755700,16.578755615234375,0.8071050643920898,-2.3060145378112793,1.6604832410812378
1777561110887284700,16.59728466796875,0.9127846956253052,-2.3658792972564697,0.8211549520492554
1777561110905813800,16.615813720703127,1.1388046741485596,-2.263864755630493,0.16264274716377258
1777561110924342500,16.634342529296877,1.0893245935440063,-0.8662062287330627,-0.3779725730419159
1777561110942871800,16.652871826171875,0.5535961985588074,0.9969313144683838,-1.5428917407989502
1777561110961400600,16.671400634765625,-1.3406955003738403,1.026863694190979,-1.0877974033355713
1777561110979929600,16.6899296875,-1.966831922531128,-0.26389357447624207,-0.6504182815551758
1777561110998458600,16.708458740234374,-0.7102830410003662,-1.201570987701416,-0.558788537979126
1777561111016987600,16.726987548828124,0.14737112820148468,-0.471587598323822,-1.2606722116470337
1777561111035516700,16.7455166015625,0.12476912885904312,0.9462295174598694,-2.2948663234710693
1777561111054045700,16.764045654296876,0.1565341055393219,1.2797616720199585,-2.526384115219116
1777561111072574700,16.78257470703125,0.16019928455352783,0.037262752652168274,-1.696218729019165
1777561111091103700,16.801103759765624,0.26282456517219543,-1.201570987701416,-1.216689944267273
1777561111109632800,16.8196328125,0.5847502946853638,-0.9083559513092041,-1.4060579538345337
1777561111128161800,16.838161865234376,0.9140064120292664,-0.4728093445301056,-1.735314130783081
1777561111146690800,16.85669091796875,1.207221508026123,-0.2919933497905731,-1.725540280342102
1777561111165219800,16.8752197265625,0.9500474333763123,-0.18325942754745483,-1.6015347242355347
1777561111183748900,16.893748779296875,0.5426006317138672,-0.33231043815612793,-1.6198606491088867
1777561111202278000,16.91227783203125,0.26648977398872375,-0.7226530313491821,-1.5929826498031616
1777561111220807000,16.930806884765627,-0.09086613357067108,-0.657290518283844,-1.4604250192642212
1777561111239336000,16.9493359375,-0.2331976294517517,-0.5681042671203613,-1.511737585067749
1777561111257865000,16.967864990234375,-0.22159120440483093,-0.5681042671203613,-1.3345868587493896
1777561111276394000,16.98639404296875,-0.20021092891693115,0.033597562462091446,-1.0120502710342407
1777561111294923000,17.004923095703123,-0.20021092891693115,0.8081740736961365,-0.7939714789390564
1777561111313452000,17.0234521484375,-0.3150535225868225,0.3237583339214325,-0.846505880355835
1777561111331981000,17.04198095703125,-0.5343539714813232,-0.8307760953903198,-1.077412724494934
1777561111350509800,17.060509765625,-0.5416843295097351,-0.9828814268112183,-0.9821178317070007
1777561111369039000,17.0790390625,-0.5190823674201965,-0.3433060050010681,-0.754265308380127
1777561111387568000,17.097568115234374,-0.31932955980300903,0.07941242307424545,-0.6210967898368835
1777561111406097000,17.116096923828124,-0.01206457894295454,0.3347539007663727,-0.5447386503219604
1777561111424626200,17.134626220703126,0.08628465235233307,0.5033525824546814,-0.4634936451911926
1777561111443155000,17.153155029296876,-0.31444263458251953,0.01588248461484909,-0.24174973368644714
1777561111461684200,17.171684326171874,-0.7457131743431091,-1.0403027534484863,0.11377356201410294
1777561111480213200,17.190213134765624,-0.6430879235267639,-1.5326597690582275,0.20418155193328857
1777561111498742000,17.208741943359374,-0.34987279772758484,-1.3237439393997192,0.20967933535575867
1777561111517271300,17.227271240234376,-0.1776089370250702,-0.6450732350349426,0.3208567202091217
1777561111535800000,17.245800048828126,0.2078467458486557,-0.4422661066055298,0.9030108451843262
1777561111554329000,17.2643291015625,0.23044873774051666,-1.3011419773101807,1.9469788074493408
1777561111582122800,17.292122802734376,-0.018173227086663246,-3.098306179046631,3.1784820556640625
1777561111600651800,17.31065185546875,-0.10797034949064255,-3.563174247741699,3.900524377822876
1777561111619180800,17.329180908203124,-0.050549060106277466,-2.952920436859131,4.178467750549316
1777561111637709800,17.347709716796874,0.02825249545276165,-2.2400412559509277,4.062403678894043
1777561111656238800,17.36623876953125,-0.07070759683847427,-1.592524528503418,3.9377870559692383
1777561111674768000,17.384767822265626,-0.16355904936790466,-1.0494656562805176,3.7869033813476562
1777561111693297000,17.403296875,-0.11896591633558273,-1.64872407913208,3.442375659942627
1777561111721090600,17.431090576171876,-0.3254382014274597,-2.654207468032837,3.1558802127838135
1777561111739619600,17.44961962890625,-0.17516547441482544,-1.8723005056381226,3.0856306552886963
1777561111758148400,17.4681484375,0.6171261668205261,-0.0665842592716217,3.4888014793395996
1777561111776677600,17.486677734375,0.6867647171020508,-0.32620179653167725,4.020864486694336
1777561111795206700,17.50520654296875,0.614682674407959,-3.2986698150634766,4.406931400299072
1777561111813735700,17.523735595703126,1.1937824487686157,-4.547888278961182,5.099040985107422
1777561111832264700,17.5422646484375,1.5603013038635254,-3.934580087661743,5.706851482391357
1777561111850793700,17.560793701171875,1.1644610166549683,-3.92602801322937,5.524202823638916
1777561111869322800,17.57932275390625,0.8639155030250549,-4.082409381866455,4.824151992797852
1777561111887851800,17.597851806640627,0.6702713966369629,-3.5607306957244873,4.270097732543945
1777561111906380800,17.616380859375,0.48823368549346924,-2.411083221435547,3.6610653400421143
1777561111924909800,17.634909912109375,0.6360629796981812,-1.2828160524368286,2.900538682937622
1777561111943438800,17.65343896484375,0.9915862679481506,-0.720820426940918,2.3984079360961914
1777561111961967900,17.6719677734375,1.3794853687286377,-0.6615665555000305,1.9646939039230347
1777561111980497000,17.690496826171874,1.651320219039917,-0.8973603844642639,1.485164999961853
1777561111999026000,17.70902587890625,1.820529818534851,-1.1081087589263916,1.0447314977645874
1777561112017555000,17.727554931640626,1.908494234085083,-1.2284491062164307,0.7203623056411743
1777561112036084000,17.746083984375,2.008676052093506,-0.988990068435669,0.3990474045276642
1777561112054613000,17.764613037109374,2.0599887371063232,-0.6908880472183228,-0.2545779049396515
1777561112073142000,17.78314208984375,2.254243850708008,-0.6835576891899109,-1.2399027347564697
1777561112091671300,17.80167138671875,2.003789186477661,-0.4557051360607147,-0.9063706398010254
1777561112110200000,17.820199951171876,1.8461860418319702,-0.3964512348175049,-0.606436014175415
1777561112128729000,17.83872900390625,1.8180862665176392,-0.4868592321872711,-1.373071312904358
1777561112147258400,17.85725830078125,1.2933534383773804,1.1197150945663452,-2.235612392425537
1777561112165787400,17.875787353515626,0.7307469844818115,0.9486730098724365,-2.1916301250457764
1777561112184316400,17.89431640625,0.9921970963478088,1.3365721702575684,-2.399935007095337
1777561112202845400,17.912845458984375,0.9469931125640869,2.4385721683502197,-3.04012131690979
1777561112221374500,17.93137451171875,0.8413135409355164,2.4825544357299805,-3.3370015621185303
1777561112239903500,17.949903564453123,0.4857902228832245,2.4495677947998047,-3.8464627265930176
1777561112258432500,17.9684326171875,-0.24541492760181427,3.3493716716766357,-4.428617000579834
1777561112276961500,17.98696142578125,-1.1507165431976318,3.856389284133911,-4.275900840759277
1777561112295490600,18.005490478515625,-1.486692190170288,3.081812858581543,-3.3791513442993164
1777561112314019800,18.024019775390624,-1.0877974033355713,1.3994911909103394,-2.1226024627685547
1777561112332548900,18.042548828125,-0.6913462281227112,-0.14233149588108063,-1.5764893293380737
1777561112351077600,18.06107763671875,-0.0694858655333519,-0.35735589265823364,-1.957058072090149
1777561112369607000,18.07960693359375,0.70753413438797,1.0427461862564087,-2.581361770629883
1777561112388136000,18.098135986328124,1.2951860427856445,1.2192860841751099,-3.0407321453094482
1777561112406691600,18.116691650390624,1.3556616306304932,1.1899645328521729,-2.8513641357421875
1777561112425194000,18.135194091796876,1.004414439201355,1.1899645328521729,-1.8104504346847534
1777561112443723000,18.153722900390626,0.6653844714164734,1.0592395067214966,-1.7175990343093872
1777561112462252000,18.172251953125,0.41615164279937744,0.185092031955719,-1.809228777885437
1777561112480781300,18.19078125,0.1253799945116043,-0.328645259141922,-1.6675081253051758
1777561112499310300,18.209310302734377,-0.1727220118045807,-0.17715078592300415,-1.4598140716552734
1777561112517839400,18.22783935546875,-0.19165882468223572,0.29138249158859253,-1.346804141998291
1777561112536368400,18.246368408203125,-0.16416990756988525,0.544891357421875,-1.2942698001861572
1777561112554897400,18.2648974609375,-0.26129740476608276,0.471587598323822,-1.2429571151733398
1777561112573426400,18.283426513671873,-0.30222535133361816,0.3536907136440277,-1.1220059394836426
1777561112591955500,18.30195556640625,-0.3559814393520355,0.38850998878479004,-1.0401500463485718
1777561112610484700,18.320484619140625,-0.41584619879722595,0.26939135789871216,-0.8275690674781799
1777561112629013800,18.339013671875,-0.41095927357673645,0.1282816082239151,-0.6760746240615845
1777561112647542800,18.357542724609374,-0.4341721534729004,-0.031154103577136993,-0.47326749563217163
1777561112666071800,18.37607177734375,-0.5929969549179077,-0.5937605500221252,-0.25213444232940674
1777561112684600800,18.394600830078126,-0.35903576016426086,-0.41905322670936584,0.03252854943275452
1777561112703130000,18.413130126953124,-0.12446369975805283,0.16554436087608337,0.5517635941505432
1777561112721659100,18.4316591796875,0.08689551800489426,0.01954767294228077,1.0960441827774048
1777561112740188200,18.450188232421876,0.09544762223958969,-0.41294458508491516,1.588401198387146
1777561112758717200,18.46871728515625,0.06795870512723923,-0.9327905178070068,2.0801472663879395
1777561112777246200,18.48724609375,-0.056657709181308746,-1.1618647575378418,2.5883867740631104
1777561112795775200,18.505775146484375,-0.08109229803085327,-1.8191553354263306,3.3715155124664307
1777561112814304500,18.524304443359377,-0.1824958473443985,-2.557080030441284,4.279260635375977
1777561112832833500,18.54283349609375,-0.3309359848499298,-1.2699878215789795,4.521773815155029
1777561112851362600,18.561362548828125,-0.041386090219020844,0.9657772183418274,3.852876901626587
1777561112869891600,18.5798916015625,0.37583455443382263,1.4410300254821777,2.910923480987549
1777561112888420900,18.5984208984375,0.34345871210098267,0.3530798554420471,2.134514331817627
1777561112906950000,18.616949951171875,0.33918267488479614,-0.4838049113750458,1.9121594429016113
1777561112925479000,18.63547900390625,0.28848087787628174,-1.064737319946289,3.0691373348236084
1777561112944008200,18.65400830078125,-0.010842849500477314,-3.062265157699585,4.1925177574157715
1777561112962537200,18.672537109375,-0.0743727833032608,-4.192975997924805,4.485732555389404
1777561112981066200,18.691066162109376,0.08078686892986298,-2.8148648738861084,4.14242696762085
1777561112999595500,18.709595458984374,0.24572035670280457,-1.9938626289367676,3.7288713455200195
1777561113018124500,18.72812451171875,0.48884454369544983,-1.5552617311477661,3.492466688156128
1777561113036653600,18.746653564453126,0.4442514181137085,-1.666439175605774,3.2291839122772217
1777561113055182800,18.765182861328125,0.3269653618335724,-1.9205588102340698,2.8651084899902344
1777561113073711900,18.7837119140625,0.29214608669281006,-1.7159191370010376,2.321438789367676
1777561113092241000,18.802240966796877,0.2188423126935959,-1.4556907415390015,1.670867919921875
1777561113110770000,18.82077001953125,0.18096868693828583,-1.0775654315948486,0.9549343585968018
1777561113129299200,18.83929931640625,0.3104720115661621,-0.7098248600959778,0.17424917221069336
1777561113147828200,18.857828125,0.5181660652160645,-0.4581485986709595,-0.6455313563346863
1777561113166357500,18.876357421875,0.8321505188941956,-0.3500255048274994,-1.6131411790847778
1777561113184886500,18.894886474609375,0.9989166259765625,-0.27000224590301514,-2.3070836067199707
1777561113203415600,18.91341552734375,0.263435423374176,1.1032217741012573,-0.9118683934211731
1777561113231209500,18.94120947265625,0.6232348084449768,0.41355544328689575,-2.251494884490967
1777561113249738500,18.959738525390627,0.7893900275230408,1.18446683883667,-2.3987133502960205
1777561113268267500,18.978267578125,0.458301305770874,0.2926042377948761,-1.9698861837387085
1777561113286796800,18.996796875,0.4137081801891327,-0.021991131827235222,-1.74203360080719
1777561113305325800,19.015325927734374,0.4558578431606293,1.1142174005508423,-2.1384849548339844
1777561113323855000,19.033855224609376,0.37400195002555847,1.227838158607483,-2.4011566638946533
1777561113342384000,19.052384033203126,0.11682789027690887,1.3811652660369873,-2.7224717140197754
1777561113360913400,19.070913330078124,-0.06643154472112656,1.9633194208145142,-3.361436128616333
1777561113379442400,19.0894423828125,-0.32971426844596863,2.8509058952331543,-3.9637489318847656
1777561113398025000,19.10802490234375,-0.3987419903278351,3.263239622116089,-3.763996124267578
1777561113416500700,19.126500732421874,0.06856957077980042,1.9663736820220947,-2.4463608264923096
1777561113435030000,19.145030029296876,0.31291547417640686,0.637742817401886,-1.5392265319824219
1777561113453559000,19.16355908203125,0.2023489624261856,0.17165300250053406,-1.549611210823059
1777561113472088300,19.18208837890625,0.397825688123703,0.7232639193534851,-1.930790901184082
1777561113490617300,19.200617431640627,0.8229875564575195,1.6676608324050903,-2.1977386474609375
1777561113509146600,19.219146728515625,1.1711804866790771,1.7977750301361084,-2.2783730030059814
1777561113527675600,19.237675537109375,0.8975130915641785,1.5858049392700195,-2.031583547592163
1777561113546205000,19.256204833984373,0.15958842635154724,1.163697361946106,-1.6143629550933838
1777561113564734200,19.274734130859375,-0.13729186356067657,0.4575377106666565,-1.5343396663665771
1777561113583263200,19.29326318359375,0.07223475724458694,0.44959646463394165,-1.7670791149139404
1777561113601792500,19.31179248046875,0.16569706797599792,0.6994401812553406,-1.6216932535171509
1777561113620321500,19.330321533203126,0.03802633285522461,0.5888736248016357,-1.274111270904541
1777561113638850800,19.348850830078124,-0.02000582218170166,0.37629270553588867,-1.2557852268218994
1777561113657379800,19.3673798828125,-0.07315105944871902,0.24923282861709595,-1.1226167678833008
1777561113675909000,19.3859091796875,-0.16294817626476288,0.36774060130119324,-0.9222530722618103
1777561113694438100,19.404438232421874,-0.2490801066160202,0.28466299176216125,-0.6504182815551758
1777561113712967400,19.422967529296876,-0.3107774555683136,0.23273947834968567,-0.32421648502349854
1777561113731496700,19.44149658203125,-0.3975202441215515,0.0818558782339096,-0.13362666964530945
1777561113750026000,19.46002587890625,-0.569173276424408,-0.03298669680953026,-0.2380845546722412
1777561113768555000,19.478554931640623,-0.6094903349876404,-0.13500112295150757,-0.3877464234828949
1777561113787084300,19.497084228515625,-0.4848739206790924,-0.3292561173439026,-0.46715885400772095
1777561113805613600,19.515613525390624,-0.24785839021205902,0.033597562462091446,-0.09758564829826355
1777561113824142600,19.534142578125,-0.04260781779885292,0.1331685185432434,0.4222602844238281
1777561113842671900,19.552671875,-0.008399390615522861,-0.04459312930703163,0.8309288024902344
1777561113861201200,19.571201171875,0.025809036567807198,-0.45448338985443115,1.1669044494628906
1777561113879730200,19.589730224609376,-0.027947064489126205,-0.5711585879325867,1.5193734169006348
1777561113898259500,19.608259521484374,-0.1311832070350647,-0.8081740736961365,2.131459951400757
1777561113916788700,19.626788818359376,-0.1727220118045807,-1.515555500984192,3.025765895843506
1777561113935318000,19.645318115234375,-0.35903576016426086,-2.3377795219421387,4.059959888458252
1777561113953847000,19.663846923828125,-0.6620246767997742,-1.334128737449646,4.392881393432617
1777561113972376300,19.682376220703127,-0.36025750637054443,1.5894701480865479,4.012312412261963
1777561113990905600,19.700905517578125,-0.23014330863952637,2.578460216522217,3.6372416019439697
1777561114009435000,19.719434814453123,-0.42134398221969604,0.7470875978469849,2.8687736988067627
1777561114027964000,19.7379638671875,-0.44577857851982117,-0.8436042666435242,2.573725938796997
1777561114055757800,19.7657578125,-0.6479747891426086,-3.523468017578125,3.386786937713623
1777561114074287000,19.784287109375,-0.6436987519264221,-4.040259838104248,4.809491157531738
1777561114092816400,19.80281640625,-0.3211621642112732,-1.2302817106246948,5.169290542602539
1777561114111345700,19.821345703125,0.04046979174017906,-0.471587598323822,3.408778190612793
1777561114129875000,19.839875,0.15836669504642487,-1.5680898427963257,3.2206318378448486
1777561114148404200,19.858404296875,0.1406516134738922,-2.1300854682922363,3.6787803173065186
1777561114166933200,19.876933349609374,0.28237223625183105,-2.0195188522338867,3.190699577331543
1777561114185462500,19.895462646484376,0.16081015765666962,-1.7825034856796265,2.4820964336395264
1777561114203991800,19.91399169921875,0.04413498193025589,-1.4001020193099976,1.8608468770980835
1777561114222521000,19.93252099609375,0.0435241162776947,-0.9999856352806091,1.1858412027359009
1777561114241050400,19.95105029296875,0.12904518842697144,-0.6750055551528931,0.44730573892593384
1777561114259579400,19.969579345703124,0.34406960010528564,-0.3787361681461334,-0.39080074429512024
1777561114278108700,19.988108642578126,0.7197514176368713,-0.18692462146282196,-1.3681844472885132
1777561114296638000,20.006637939453125,0.9341649413108826,0.2162461280822754,-2.3205225467681885
1777561114315167200,20.025167236328127,0.26099199056625366,0.5613847374916077,-1.1641556024551392
1777561114333696500,20.043696533203125,0.6421716213226318,-0.8442151546478271,-2.037081241607666
1777561114352225800,20.062225830078123,0.5346593856811523,2.2363760471343994,-1.8446589708328247
1777561114370755000,20.080755126953125,0.790611743927002,-0.0818558782339096,-2.0517420768737793
1777561114389284400,20.099284423828124,0.39965829253196716,-0.030543239787220955,-1.541059136390686
1777561114407813600,20.117813720703126,0.6904299259185791,-0.033597562462091446,-1.89047372341156
1777561114426343000,20.136343017578124,0.7142536640167236,0.7275399565696716,-2.1745259761810303
1777561114444872200,20.1548720703125,0.5590940117835999,0.9914335608482361,-2.3651156425476074
1777561114463401500,20.1734013671875,0.4381427764892578,1.3994911909103394,-2.8183774948120117
1777561114481930800,20.1919306640625,0.28298309445381165,2.1948370933532715,-3.439626932144165
1777561114500460000,20.2104599609375,-0.14462223649024963,3.2253661155700684,-3.936870813369751
1777561114518989300,20.2289892578125,-0.4915934205055237,3.7708683013916016,-3.947866439819336
1777561114537518600,20.2475185546875,-0.14828743040561676,2.3536620140075684,-2.81898832321167
1777561114556048000,20.2660478515625,0.4088212549686432,0.4673115611076355,-1.7029383182525635
1777561114574577200,20.2845771484375,0.45158177614212036,0.2309068888425827,-1.8037309646606445
1777561114593106700,20.303106689453124,0.5975784659385681,1.1740821599960327,-2.1335978507995605
1777561114611636000,20.321635986328126,1.019685983657837,2.1642940044403076,-2.2423319816589355
1777561114630165200,20.340165283203124,1.3910918235778809,2.397033452987671,-2.4152066707611084
1777561114648694500,20.358694580078126,1.1766782999038696,1.7849469184875488,-2.2166755199432373
1777561114667223800,20.377223876953124,0.41004297137260437,0.8313869833946228,-1.7218750715255737
1777561114685753000,20.395753173828126,-0.24236060678958893,-0.04764745384454727,-1.3706278800964355
1777561114704282400,20.414282470703125,-0.060322895646095276,0.050090912729501724,-1.5893174409866333
1777561114722811600,20.432811767578126,0.2945895493030548,0.7159335017204285,-1.5844305753707886
1777561114741341200,20.451341064453125,0.16997312009334564,0.6517927050590515,-1.2191333770751953
1777561114759870500,20.469870361328127,-0.028557928279042244,0.10567960888147354,-1.0548107624053955
1777561114778399700,20.488399658203125,-0.041386090219020844,-0.020158538594841957,-1.0511455535888672
1777561114796929000,20.506928955078124,-0.12812888622283936,-0.08918625861406326,-0.9057597517967224
1777561114815458300,20.525458251953125,-0.23136503994464874,0.018325943499803543,-0.6650790572166443
1777561114833987600,20.543987548828124,-0.37369653582572937,-0.08002328872680664,-0.5233584046363831
1777561114852517000,20.56251708984375,-0.49892380833625793,-0.2809978127479553,-0.4341721534729004
1777561114871046400,20.58104638671875,-0.5123628377914429,-0.22418737411499023,-0.3413206934928894
1777561114889575700,20.59957568359375,-0.5447386503219604,-0.3646862804889679,-0.3584249019622803
1777561114908105000,20.61810498046875,-0.6339249014854431,-0.3433060050010681,-0.42623090744018555
1777561114926634200,20.63663427734375,-0.7225003242492676,-0.665842592716217,-0.3620901107788086
1777561114945163800,20.655163818359377,-0.48304131627082825,-0.6304124593734741,-0.18677189946174622
1777561114963693000,20.673693115234375,-0.2130390852689743,0.01893680728971958,0.295811265707016
1777561114982222300,20.692222412109373,-0.030390523374080658,0.33231043815612793,0.7765618562698364
1777561115000751600,20.710751708984375,0.03130681812763214,0.021380268037319183,1.113759160041809
1777561115019281200,20.72928125,0.08872810751199722,-0.4263836145401001,1.5291472673416138
1777561115037810400,20.747810546875,0.15286891162395477,-0.462424635887146,2.067929983139038
1777561115056339700,20.766339599609374,0.14248420298099518,-0.4838049113750458,2.5608978271484375
1777561115074869000,20.784868896484376,0.025809036567807198,-0.8271108865737915,2.9933900833129883
1777561115093398500,20.8033984375,-0.11835505068302155,-1.1710277795791626,3.56760311126709
1777561115111927800,20.821927734375,-0.22708898782730103,-0.46364638209342957,3.9836020469665527
1777561115130457000,20.84045703125,-0.1366809904575348,1.5796962976455688,3.705658435821533
1777561115148986600,20.858986572265625,0.05513054504990578,2.1972806453704834,2.871828079223633
1777561115167516000,20.877515869140623,0.20173808932304382,0.870482325553894,2.199265956878662
1777561115186045200,20.896045166015625,0.2805396616458893,-0.7367029190063477,1.9042181968688965
1777561115204574700,20.91457470703125,0.05024362727999687,-1.8784091472625732,2.679405689239502
1777561115223104000,20.93310400390625,-0.2698495090007782,-3.9724535942077637,4.065457820892334
1777561115241633300,20.95163330078125,-0.3016144931316376,-3.9822275638580322,5.270082950592041
1777561115260162800,20.970162841796874,-0.09697478264570236,-2.003025531768799,4.50222635269165
1777561115278692000,20.988692138671876,0.18952079117298126,-1.3567306995391846,3.1955864429473877
1777561115297221400,21.007221435546874,0.21029019355773926,-1.748905897140503,3.269500970840454
1777561115315751000,21.0257509765625,0.17913609743118286,-1.7232495546340942,3.4185519218444824
1777561115334280200,21.0442802734375,0.22495095431804657,-1.5424336194992065,2.8400630950927734
1777561115352809700,21.062809814453125,0.11927134543657303,-1.4569125175476074,2.0465497970581055
1777561115371339000,21.081339111328123,0.05635227635502815,-1.1869102716445923,1.3513855934143066
1777561115389868300,21.099868408203125,0.1614210158586502,-0.7849612236022949,0.6745474338531494
1777561115408397800,21.118397705078124,0.3379609286785126,-0.4935787320137024,-0.10674861818552017
1777561115426927000,21.136927001953126,0.6104066371917725,-0.15149445831775665,-0.9925025701522827
1777561115445456400,21.155456298828124,0.8553634285926819,0.10018182545900345,-2.0798418521881104
1777561115463986000,21.17398583984375,0.5572614073753357,0.2461785078048706,-2.1079416275024414
1777561115482515500,21.192515380859376,0.3416261374950409,0.4520399272441864,-1.8672609329223633
1777561115501044700,21.211044677734375,0.4992292523384094,-0.7806851863861084,-2.0664029121398926
1777561115519574000,21.229573974609377,0.7680097222328186,1.461188554763794,-2.2288928031921387
1777561115538103600,21.248103515625,0.46807512640953064,0.06108647957444191,-1.8037309646606445
1777561115556632800,21.2666328125,0.061850059777498245,-0.09651663154363632,-1.7139338254928589
1777561115575162000,21.285162109375,0.0001527161948615685,0.6542361974716187,-2.1946845054626465
1777561115593691600,21.303691650390626,-0.09697478264570236,1.164919137954712,-2.396880626678467
1777561115612221200,21.32222119140625,-0.22647811472415924,1.5167772769927979,-2.8147122859954834
1777561115630750500,21.34075048828125,-0.2845102846622467,1.5143338441848755,-3.216050386428833
1777561115649280000,21.359280029296876,-0.35475972294807434,2.2198827266693115,-3.602116823196411
1777561115667809300,21.377809326171874,-0.6015490889549255,3.0390522480010986,-3.680307626724243
1777561115686338600,21.396338623046876,-0.007177661173045635,2.310290575027466,-2.959487199783325
1777561115704868000,21.4148681640625,0.8431460857391357,0.4453204274177551,-2.040135622024536
1777561115723397600,21.433397705078125,0.7057015299797058,0.47097674012184143,-1.9423972368240356
1777561115741927000,21.451927001953123,0.7472403645515442,1.4269801378250122,-2.0163118839263916
1777561115760456400,21.47045654296875,1.0300707817077637,1.7403537034988403,-1.9766056537628174
1777561115778985700,21.48898583984375,1.2731949090957642,1.7385212182998657,-2.0492985248565674
1777561115797515300,21.507515380859374,0.9567669630050659,1.4159845113754272,-2.0908374786376953
1777561115816044500,21.52604443359375,0.3116937577724457,0.6707295179367065,-1.7285946607589722
1777561115834574000,21.544573974609374,-0.19165882468223572,0.3689623177051544,-1.4775291681289673
1777561115853103400,21.563103271484376,-0.14401137828826904,0.6774490475654602,-1.4775291681289673
1777561115871633000,21.5816328125,0.25732678174972534,1.0622938871383667,-1.5764893293380737
1777561115890162200,21.600162109375,0.2738201320171356,0.6841685771942139,-1.3773473501205444
1777561115908691700,21.618691650390623,0.03741546720266342,0.18631376326084137,-1.0994038581848145
1777561115927221000,21.637220947265625,0.02825249545276165,0.04459312930703163,-0.9821178317070007
1777561115945750500,21.65575048828125,0.07651081681251526,0.2461785078048706,-0.8703296184539795
1777561115964279800,21.67427978515625,-0.02672533318400383,0.2974911332130432,-0.7499892115592957
1777561115982809300,21.692809326171876,-0.21731515228748322,0.22846342623233795,-0.6125446557998657
1777561116001339000,21.7113388671875,-0.3095557391643524,0.24984370172023773,-0.5416843295097351
1777561116019868200,21.7298681640625,-0.4225656986236572,-0.06414080411195755,-0.4555523991584778
1777561116038397700,21.748397705078126,-0.5300779342651367,-0.30543237924575806,-0.44089165329933167
1777561116056927200,21.76692724609375,-0.49281516671180725,-0.1233946830034256,-0.569173276424408
1777561116075456500,21.78545654296875,-0.41523534059524536,-0.24373504519462585,-0.6742420196533203
1777561116093986000,21.803986083984373,-0.35903576016426086,-0.5870410799980164,-0.7402154207229614
1777561116112515600,21.822515625,-0.2130390852689743,-0.22357651591300964,-0.44089165329933167
1777561116131044900,21.841044921875,-0.12690715491771698,0.04581485688686371,0.18829907476902008
1777561116149574400,21.859574462890624,-0.19960007071495056,-0.2510654330253601,0.6183478832244873
1777561116168103700,21.878103759765626,-0.22953243553638458,-0.6847794055938721,0.8846849203109741
1777561116186633200,21.89663330078125,-0.23441936075687408,-0.6316341757774353,1.326951026916504
1777561116205162800,21.915162841796874,-0.27656903862953186,-0.49663305282592773,1.7942625284194946
1777561116223692000,21.933692138671876,-0.2887863218784332,-0.5442805290222168,2.2511894702911377
1777561116242221600,21.9522216796875,-0.10430516302585602,-1.2119556665420532,2.91703200340271
1777561116260751000,21.970751220703125,-0.10674861818552017,-2.5998404026031494,3.7539167404174805
1777561116279280400,21.9892802734375,-0.3572031855583191,-2.2449281215667725,4.146091938018799
1777561116297810000,22.007809814453125,-0.17883066833019257,1.0800089836120605,3.799731731414795
1777561116316339200,22.026339111328124,0.25671592354774475,2.6981897354125977,3.0422592163085938
1777561116334868700,22.04486865234375,0.20051635801792145,1.4080432653427124,2.0630431175231934
1777561116353398300,22.063398193359376,0.12232567369937897,-0.27977606654167175,1.8223623037338257
1777561116371927600,22.081927490234374,0.026419902220368385,-0.7086031436920166,2.975064277648926
1777561116390457000,22.10045703125,-0.2906189262866974,-3.0421066284179688,4.218173980712891
1777561116408986600,22.118986572265626,-0.5380191802978516,-4.752528190612793,4.88768196105957
1777561116427516000,22.137515869140625,-0.2887863218784332,-2.2754712104797363,4.67937707901001
1777561116446045400,22.15604541015625,0.2292270064353943,-0.7018836140632629,3.660454511642456
1777561116464575000,22.174574951171873,0.43569931387901306,-0.8808670043945312,3.3519678115844727
1777561116483104500,22.1931044921875,0.48701193928718567,-1.1612539291381836,3.55172061920166
1777561116501633800,22.2116337890625,0.48334676027297974,-1.470962405204773,3.4796385765075684
1777561116520163300,22.230163330078124,0.449138343334198,-1.701869249343872,3.0392050743103027
1777561116538692900,22.24869287109375,0.24022257328033447,-1.673769474029541,2.129627227783203
1777561116557222100,22.26722216796875,0.16875138878822327,-1.3634501695632935,1.4033091068267822
1777561116575751700,22.285751708984375,0.28298309445381165,-1.0403027534484863,0.7234166264533997
1777561116594281200,22.30428125,0.5334376692771912,-0.720820426940918,-0.064598947763443
1777561116612810500,22.322810546875,0.8578068614006042,-0.4831940531730652,-0.9680679440498352
1777561116631340000,22.341340087890625,1.2389864921569824,-0.20647229254245758,-2.0547964572906494
1777561116649869600,22.35986962890625,1.2279908657073975,0.6108647584915161,-2.0181446075439453
1777561116668399000,22.378399169921874,0.07834340631961823,0.18387030065059662,-1.2160791158676147
1777561116686928400,22.396928466796876,0.551152765750885,-1.5418226718902588,-1.7792963981628418
1777561116705458000,22.4154580078125,1.1473567485809326,1.434921383857727,-1.3394737243652344
1777561116723987500,22.433987548828124,0.22495095431804657,-1.3402373790740967,-1.4976876974105835
1777561116742516700,22.452516845703126,0.32391104102134705,0.3787361681461334,-1.7456988096237183
1777561116761046300,22.47104638671875,0.37522369623184204,0.7348703145980835,-2.1836888790130615
1777561116779575800,22.489575927734375,0.07773254066705704,1.176525592803955,-2.6357288360595703
1777561116798105300,22.508105224609373,0.052076224237680435,1.7153083086013794,-3.106705665588379
1777561116816634600,22.526634521484375,0.005039634648710489,1.859472393989563,-3.4322965145111084
1777561116835164200,22.5451640625,-0.08231402933597565,2.505767345428467,-3.928318738937378
1777561116853693700,22.563693603515624,-0.3663661479949951,3.138012409210205,-3.883725643157959
1777561116872223200,22.58222314453125,-0.3627009689807892,2.830747365951538,-3.1952810287475586
1777561116890752800,22.600752685546876,-0.08659008145332336,1.2870920896530151,-2.1335978507995605
1777561116909282000,22.619281982421874,0.15531237423419952,0.3805687427520752,-1.531285285949707
1777561116927811600,22.6378115234375,0.4344775676727295,0.5998691916465759,-1.6717841625213623
1777561116946341000,22.656341064453127,0.7777835726737976,1.2760965824127197,-2.159865140914917
1777561116964870700,22.67487060546875,1.0630574226379395,1.2846486568450928,-2.1494803428649902
1777561116983400000,22.69339990234375,0.9860884547233582,1.4049890041351318,-1.9998185634613037
1777561117001929500,22.711929443359374,0.5340485572814941,1.2064579725265503,-1.937510371208191
1777561117020459000,22.730458984375,0.03802633285522461,0.2938259541988373,-1.6088651418685913
1777561117038988500,22.748988525390626,-0.40607234835624695,-0.33169957995414734,-1.2802199125289917
1777561117057518000,22.76751806640625,-0.24541492760181427,0.08002328872680664,-1.2973240613937378
1777561117076047400,22.78604736328125,0.18341214954853058,0.7977893948554993,-1.4329360723495483
1777561117094577000,22.804576904296876,0.162031888961792,0.6151408553123474,-1.218522548675537
1777561117113106400,22.8231064453125,-0.1000291109085083,0.19364413619041443,-1.024267554283142
1777561117131636000,22.841635986328125,-0.15256348252296448,0.036651886999607086,-0.9185879230499268
1777561117150165200,22.860165283203123,-0.12324196845293045,0.05742128938436508,-0.8593340516090393
1777561117168694800,22.87869482421875,-0.2240346521139145,0.23518294095993042,-0.8086322546005249
1777561117187224300,22.897224365234376,-0.37980517745018005,0.13683371245861053,-0.6363683938980103
1777561117205753900,22.91575390625,-0.47754353284835815,-0.05803215503692627,-0.4848739206790924
1777561117224283400,22.934283447265624,-0.46715885400772095,0.030543239787220955,-0.3480401933193207
1777561117242813000,22.95281298828125,-0.48792824149131775,0.025045456364750862,-0.19165882468223572
1777561117261342200,22.97134228515625,-0.5746710300445557,-0.059864748269319534,-0.19960007071495056
1777561117279871700,22.989871826171875,-0.5282453298568726,-0.39767298102378845,-0.39568766951560974
1777561117298401300,23.0084013671875,-0.41157013177871704,-0.2260199636220932,-0.43050694465637207
1777561117316930800,23.026930908203123,-0.23991714417934418,0.22785256803035736,-0.0798705667257309
1777561117335460400,23.04546044921875,-0.24480405449867249,0.29626941680908203,0.41004297137260437
1777561117353990000,23.063989990234376,-0.19165882468223572,-0.16859868168830872,0.6672170758247375
1777561117372519400,23.08251953125,-0.16050471365451813,-0.4673115611076355,0.8156571984291077
1777561117391048700,23.101048583984376,-0.09453132748603821,-0.4007273018360138,1.0679444074630737
1777561117409578200,23.119578125,-0.1049160286784172,-0.3078758418560028,1.4381283521652222
1777561117428107800,23.138107666015625,-0.07070759683847427,-0.33536475896835327,1.9500330686569214
1777561117446637300,23.15663720703125,0.10583232343196869,-1.1123847961425781,2.741713762283325
1777561117465166600,23.17516650390625,0.11988221108913422,-2.265697479248047,3.6421284675598145
1777561117483696400,23.1936962890625,-0.05849030241370201,-1.4966187477111816,4.083172798156738
1777561117502225700,23.2122255859375,0.0948367565870285,1.869246244430542,3.755749464035034
1777561117520755200,23.230755126953124,0.22250749170780182,2.9290966987609863,3.1833691596984863
1777561117539284700,23.24928466796875,-0.00045814859913662076,1.1331541538238525,2.4399466514587402
1777561117557814300,23.267814208984376,0.022754713892936707,-0.8985821008682251,2.2762348651885986
1777561117576343800,23.28634375,-0.09697478264570236,-2.475834846496582,2.933525323867798
1777561117594873300,23.304873291015625,-0.41034841537475586,-5.004815101623535,4.334238529205322
1777561117613402600,23.323402587890627,-0.3119991719722748,-3.6199846267700195,5.731896877288818
