time,seconds_elapsed,z,y,x
1777561094480013800,0.190013916015625,0.535728394985199,-0.6053670048713684,0.5674933791160583
1777561094498542600,0.20854248046875,0.4196641147136688,-0.6908880472183228,0.6145299673080444
1777561094517071400,0.2270712890625,0.3384190797805786,-0.6090322136878967,0.5473348498344421
1777561094535599900,0.245599853515625,0.26389357447624207,-0.7147117853164673,0.5723803043365479
1777561094554128600,0.264128662109375,0.24495677649974823,-0.7104357481002808,0.5613847374916077
1777561094572657200,0.2826572265625,0.23396120965480804,-0.7116574645042419,0.5839866995811462
1777561094591186000,0.30118603515625,0.19792018830776215,-0.5809323787689209,0.5497782826423645
1777561094609714700,0.319714599609375,0.19914191961288452,-0.33047783374786377,0.4312705397605896
1777561094628243200,0.3382431640625,0.2663370370864868,-0.3341430425643921,0.30543237924575806
1777561094646772000,0.35677197265625,0.2724456787109375,-0.3897317349910736,0.1997527778148651
1777561094665300500,0.375300537109375,0.27550002932548523,-0.3549124300479889,0.12522727251052856
1777561094683829200,0.393829345703125,0.2608392536640167,-0.3280344009399414,0.09590577334165573
1777561094702358000,0.41235791015625,0.24251331388950348,-0.2565632164478302,0.07819069176912308
1777561094720886500,0.430886474609375,0.24984370172023773,-0.32681265473365784,0.04825831577181816
1777561094739415300,0.449415283203125,0.258395791053772,-0.3689623177051544,0.07452550530433655
1777561094757943800,0.46794384765625,0.23823726177215576,-0.42882707715034485,0.14782927930355072
1777561094776472600,0.48647265625,0.21746785938739777,-0.4831940531730652,0.1802051067352295
1777561094795001000,0.5050009765625,0.1698204129934311,-0.48013970255851746,0.24862197041511536
1777561094813529900,0.52352978515625,0.11239911615848541,-0.4825831651687622,0.30115634202957153
1777561094832058600,0.54205859375,0.13683371245861053,-0.5259546041488647,0.3121519088745117
1777561094850587100,0.560587158203125,0.13622283935546875,-0.5522217750549316,0.35185810923576355
1777561094869116000,0.579115966796875,0.1288924664258957,-0.6102539300918579,0.35796675086021423
1777561094887644400,0.59764453125,0.06230820715427399,-0.5943714380264282,0.29016077518463135
1777561094906173200,0.616173095703125,0.02260199747979641,-0.5510000586509705,0.23457208275794983
1777561094924701700,0.63470166015625,0.028099779039621353,-0.5436696410179138,0.1594357043504715
1777561094943230500,0.65323046875,0.0616973415017128,-0.5491674542427063,0.053145237267017365
1777561094961759000,0.671759033203125,0.1533270627260208,-0.45020735263824463,-0.1490510106086731
1777561094980287700,0.690287841796875,0.20769402384757996,-0.17287473380565643,-0.4410443603992462
1777561094998816500,0.70881640625,0.14294235408306122,-0.03237583488225937,-0.7006618976593018
1777561095017345000,0.727344970703125,0.08429934084415436,-0.08002328872680664,-0.7764091491699219
1777561095035873800,0.745873779296875,0.08124501258134842,-0.08429934084415436,-0.7055488228797913
1777561095054402600,0.764402587890625,0.004276053514331579,0.2577849328517914,-0.17165300250053406
1777561095072931000,0.78293115234375,-0.0818558782339096,0.9352339506149292,0.2657261788845062
1777561095091459800,0.8014599609375,-0.3445277214050293,1.1252129077911377,0.36712974309921265
1777561095109988400,0.81998828125,-0.6120865345001221,1.0225876569747925,-0.1026252806186676
1777561095128517000,0.83851708984375,-0.5907062292098999,0.7373138070106506,-0.8582650423049927
1777561095147045600,0.857045654296875,-0.647516667842865,0.9120211005210876,-0.9095776677131653
1777561095165574400,0.875574462890625,-0.8087849617004395,2.5857906341552734,-0.9541707634925842
1777561095184103200,0.894103271484375,-0.9651663303375244,3.5772242546081543,-1.2638791799545288
1777561095202631700,0.912631591796875,-1.0806198120117188,3.6670212745666504,-1.4001020193099976
1777561095221160400,0.931160400390625,-1.043357014656067,2.841132164001465,-1.3359612226486206
1777561095239689000,0.94968896484375,-0.4935787320137024,1.1875211000442505,-1.0708459615707397
1777561095258217700,0.9682177734375,0,-0.22663083672523499,-0.8973603844642639
1777561095276746200,0.986746337890625,0.17104214429855347,-0.06291907280683517,-0.9621120095252991
1777561095295275000,1.00527490234375,0.3133736252784729,1.0109812021255493,-0.7751874327659607
1777561095313803500,1.023803466796875,0.45326167345046997,1.6780455112457275,-1.1417062282562256
1777561095332332300,1.042332275390625,0.21380266547203064,1.9596542119979858,-1.7629557847976685
1777561095350860800,1.06086083984375,0.09651663154363632,1.9120067358016968,-1.4520255327224731
1777561095369389600,1.0793896484375,-0.06475166976451874,1.6444480419158936,-0.8778126835823059
1777561095387918000,1.09791796875,-0.07819069176912308,1.6132938861846924,-0.896138608455658
1777561095406446800,1.11644677734375,0.20769402384757996,1.7910555601119995,-1.025641918182373
1777561095424975600,1.1349755859375,0.3909534513950348,1.7849469184875488,-0.905912458896637
1777561095443504000,1.153504150390625,0.1997527778148651,1.3353503942489624,-0.8790343999862671
1777561095462033000,1.172032958984375,-0.009773836471140385,1.1087195873260498,-0.7568614482879639
1777561095480561400,1.1905615234375,0.003665188793092966,0.943786084651947,-0.7849612236022949
1777561095499090200,1.209090087890625,-0.039706211537122726,0.7757982611656189,-0.7367029190063477
1777561095517618700,1.22761865234375,-0.08124501258134842,0.5955931544303894,-0.6365211009979248
1777561095536147500,1.2461474609375,-0.056199558079242706,0.6713404059410095,-0.5412262082099915
1777561095554676000,1.264676025390625,-0.1954767256975174,0.6884446144104004,-0.5491674542427063
1777561095573204700,1.283204833984375,-0.2467893660068512,0.7690787315368652,-0.5583304166793823
1777561095591733200,1.301733154296875,-0.2675587832927704,0.8912517428398132,-0.5473348498344421
1777561095610262000,1.320261962890625,-0.34208428859710693,0.9120211005210876,-0.5235111117362976
1777561095628790800,1.338790771484375,-0.3433060050010681,0.7519745230674744,-0.5106829404830933
1777561095647319300,1.3573193359375,-0.4404335021972656,0.6133082509040833,-0.471587598323822
1777561095665848000,1.37584814453125,-0.4410443603992462,0.5247328281402588,-0.3915643095970154
1777561095684376800,1.394376953125,-0.5766563415527344,0.4673115611076355,-0.318871408700943
1777561095702905300,1.4129052734375,-0.6169734001159668,0.5436696410179138,-0.22968515753746033
1777561095721434000,1.43143408203125,-0.7379246354103088,0.5082395076751709,-0.19242240488529205
1777561095739962600,1.449962646484375,-0.8069523572921753,0.5992583632469177,-0.13561198115348816
1777561095758491400,1.468491455078125,-0.7348703145980835,0.39889469742774963,-0.029932374134659767
1777561095777020000,1.48702001953125,-0.39767298102378845,0.01954767294228077,0.16615521907806396
1777561095795548700,1.505548583984375,-0.006108647678047419,-0.29565855860710144,0.35735589265823364
1777561095814077200,1.5240771484375,0.1740964651107788,-0.35246896743774414,0.729983389377594
1777561095832606000,1.54260595703125,0.2834412455558777,-0.185092031955719,1.2089014053344727
1777561095851134500,1.561134521484375,0.3494146466255188,-0.32559093832969666,1.5247185230255127
1777561095869663200,1.579663330078125,0.49418962001800537,-0.7202095985412598,1.922391414642334
1777561095888191700,1.598191650390625,0.6982184648513794,-1.0396918058395386,2.3506076335906982
1777561095906720500,1.616720458984375,1.0299180746078491,-1.1685843467712402,2.8826708793640137
1777561095925249300,1.635249267578125,1.2553271055221558,-1.2095122337341309,3.4324491024017334
1777561095943777800,1.65377783203125,1.0818414688110352,-1.3628393411636353,3.6780169010162354
1777561095962306600,1.672306640625,0.5852084755897522,-1.0891718864440918,3.470322847366333
1777561095980835000,1.6908349609375,0.09407317638397217,-0.7843503952026367,3.144120931625366
1777561095999363800,1.70936376953125,-0.3023780584335327,-1.1618647575378418,2.9022185802459717
1777561096017892400,1.727892333984375,-0.6750055551528931,-1.7989968061447144,2.916879415512085
1777561096036421000,1.746421142578125,-0.7159335017204285,-2.7482805252075195,3.101971387863159
1777561096054949600,1.76494970703125,0.01282816007733345,-3.0445499420166016,4.046978950500488
1777561096073478400,1.783478515625,1.035415768623352,-1.9297218322753906,4.519177436828613
1777561096092007000,1.8020068359375,1.3530654907226562,-2.4623959064483643,3.987114429473877
1777561096110535700,1.82053564453125,1.646891474723816,-2.6725335121154785,3.557065725326538
1777561096129064400,1.839064453125,1.5247185230255127,-2.9235987663269043,3.5637850761413574
1777561096147593000,1.857593017578125,0.988990068435669,-3.274846076965332,3.665799617767334
1777561096166121700,1.876121826171875,0.41294458508491516,-2.8912229537963867,3.300502300262451
1777561096184650200,1.894650146484375,0.21930044889450073,-2.4740023612976074,2.6755876541137695
1777561096203179000,1.913178955078125,0.10506874322891235,-1.9327762126922607,2.064723014831543
1777561096221707800,1.931707763671875,0.15577052533626556,-1.4092650413513184,1.3964369297027588
1777561096240236300,1.950236328125,0.185092031955719,-1.0580178499221802,0.7751874327659607
1777561096258765000,1.96876513671875,0.3170388340950012,-0.8240565657615662,0.15271618962287903
1777561096277293600,1.98729345703125,0.49541133642196655,-0.7819069027900696,-0.389120876789093
1777561096295822300,2.005822265625,0.5943714380264282,-0.6065887212753296,-0.8173370957374573
1777561096314351000,2.02435107421875,0.7031053900718689,-0.05436696484684944,-1.2699878215789795
1777561096332879600,2.042879638671875,0.896138608455658,0.5998691916465759,-1.916893720626831
1777561096351408400,2.061408447265625,1.0720677375793457,1.148425817489624,-2.5528039932250977
1777561096369937000,2.07993701171875,0.6591231226921082,1.9120067358016968,-2.221104383468628
1777561096388465700,2.098465576171875,0.4453204274177551,0.04825831577181816,-2.4287984371185303
1777561096406994400,2.116994384765625,0.5112938284873962,2.3402230739593506,-2.5686864852905273
1777561096425523000,2.13552294921875,-0.39767298102378845,1.3909391164779663,-2.4287984371185303
1777561096444051700,2.1540517578125,-0.32009315490722656,-0.4062250852584839,-1.8319834470748901
1777561096471844600,2.1818447265625,-0.024434590712189674,1.6475023031234741,-2.2895212173461914
1777561096490373400,2.200373291015625,-0.04764745384454727,1.5851941108703613,-2.3206753730773926
1777561096508902100,2.218902099609375,-0.1795942485332489,1.9480477571487427,-2.4404048919677734
1777561096527430700,2.2374306640625,-0.481361448764801,2.7482805252075195,-3.051880359649658
1777561096545959400,2.25595947265625,-0.7990111112594604,3.1752750873565674,-3.4825401306152344
1777561096564488000,2.274488037109375,-1.2070688009262085,3.3884668350219727,-3.2962262630462646
1777561096583016700,2.2930166015625,-1.3976585865020752,2.4550654888153076,-1.997527837753296
1777561096601545500,2.31154541015625,-0.8930842876434326,0.915075421333313,-0.7336485981941223
1777561096620074000,2.330073974609375,-0.09101885557174683,0.6811142563819885,-1.1429280042648315
1777561096638602800,2.348602783203125,0.43982264399528503,1.775783896446228,-2.160017967224121
1777561096657131500,2.367131591796875,0.6291907429695129,2.1050400733947754,-2.364046812057495
1777561096675660000,2.385659912109375,0.4935787320137024,1.4202606678009033,-1.8869613409042358
1777561096694188800,2.404188720703125,0.0720820426940918,0.3249800503253937,-1.5674790143966675
1777561096712717300,2.42271728515625,-0.040317077189683914,0.1386663019657135,-1.8979568481445312
1777561096731246000,2.44124609375,0.17715078592300415,0.5033525824546814,-1.987753987312317
1777561096749774800,2.45977490234375,0.1905898153781891,1.1331541538238525,-1.5711442232131958
1777561096777567700,2.487567626953125,-0.25411975383758545,0.646905779838562,-1.1881320476531982
1777561096805360600,2.515360595703125,-0.23945899307727814,0.7171552777290344,-1.0140355825424194
1777561096823889400,2.533889404296875,-0.20402882993221283,0.62857985496521,-0.8790343999862671
1777561096842418200,2.552418212890625,-0.3390299379825592,0.4874700903892517,-0.6817250847816467
1777561096860946700,2.57094677734375,-0.4557051360607147,0.22968515753746033,-0.5821541547775269
1777561096879475500,2.589475341796875,-0.5119046568870544,0.11545344442129135,-0.5784889459609985
1777561096898004200,2.608004150390625,-0.5882627964019775,0.021380268037319183,-0.4221075773239136
1777561096916532700,2.62653271484375,-0.647516667842865,-0.23212862014770508,-0.3787361681461334
1777561096935061500,2.6450615234375,-0.7128791809082031,-0.2779434621334076,-0.46486809849739075
1777561096953590000,2.663590087890625,-0.7165443897247314,-0.03481929376721382,-0.4471530318260193
1777561096972118800,2.682118896484375,-0.7134900689125061,0.009773836471140385,-0.337808221578598
1777561096990647600,2.7006474609375,-0.739757239818573,-0.2101374864578247,-0.1692095398902893
1777561097009176000,2.719176025390625,-0.4923570156097412,-0.40744680166244507,0.12461641430854797
1777561097027704800,2.737704833984375,-0.027488915249705315,-0.014660755172371864,0.4202749729156494
1777561097046233600,2.756233642578125,0.1802051067352295,0.3750709891319275,1.1270455121994019
1777561097064762000,2.77476220703125,0.3292561173439026,-0.10140355676412582,1.663995623588562
1777561097083291000,2.793290771484375,0.30543237924575806,-0.7177661061286926,2.028071165084839
1777561097101819600,2.811819580078125,0.3897317349910736,-1.5063925981521606,2.7904303073883057
1777561097120348200,2.83034814453125,0.4453204274177551,-2.536921501159668,3.903425931930542
1777561097138877000,2.848876953125,0.20708316564559937,-1.6016874313354492,4.348746299743652
1777561097157405700,2.86740576171875,0.16126830875873566,1.0030399560928345,4.180758476257324
1777561097175934200,2.885934326171875,0.3744601011276245,1.5595377683639526,3.2711808681488037
1777561097194463000,2.904462890625,0.4465421438217163,0.2467893660068512,2.0916008949279785
1777561097212991700,2.92299169921875,0.10995566099882126,-0.1441640853881836,1.8393138647079468
1777561097231520300,2.941520263671875,-0.18692462146282196,-1.3060288429260254,2.355494499206543
1777561097250049000,2.960049072265625,-0.3017672002315521,-5.038412570953369,3.5643959045410156
1777561097268577800,2.978577880859375,-0.3897317349910736,-5.14225959777832,4.263225078582764
1777561097287106300,2.997106201171875,0.28466299176216125,-1.981034517288208,4.153880596160889
1777561097305635000,3.015635009765625,0.5992583632469177,-1.2596031427383423,3.62914776802063
1777561097324163800,3.034163818359375,0.48075059056282043,-1.8894047737121582,3.3035566806793213
1777561097342692400,3.0526923828125,0.4056142270565033,-2.4074180126190186,3.428783893585205
1777561097361221000,3.07122119140625,0.14782927930355072,-2.388481378555298,3.2650723457336426
1777561097379750000,3.08975,-0.05070177838206291,-2.2846343517303467,2.6413793563842773
1777561097398278700,3.108278564453125,-0.17715078592300415,-1.8228205442428589,1.8295400142669678
1777561097416807200,3.12680712890625,-0.17653992772102356,-1.36772620677948,1.1850776672363281
1777561097435336000,3.1453359375,-0.020769402384757996,-1.0109812021255493,0.6346884965896606
1777561097453864700,3.16386474609375,0.1954767256975174,-0.4013381600379944,0.03481929376721382
1777561097472393200,3.182393310546875,0.4874700903892517,0.14721840620040894,-0.5424479246139526
1777561097490922000,3.200921875,0.7452550530433655,0.583375871181488,-1.2644901275634766
1777561097509450800,3.21945068359375,0.9743293523788452,1.1496474742889404,-2.2168283462524414
1777561097527979500,3.2379794921875,0.8857539296150208,1.637117624282837,-2.339001178741455
1777561097546508000,3.256508056640625,0.8148936033248901,0.9498947262763977,-2.4709479808807373
1777561097565036800,3.275036865234375,0.647516667842865,0.9590576887130737,-2.950476884841919
1777561097583565600,3.293565673828125,0.04214967042207718,1.3713914155960083,-2.737895965576172
1777561097602094000,3.312093994140625,-0.6340776681900024,0.29993459582328796,-2.078772783279419
1777561097620622800,3.330622802734375,-0.06719512492418289,-0.4874700903892517,-1.3384047746658325
1777561097639151600,3.349151611328125,0.4007273018360138,0.48502662777900696,-1.7171409130096436
1777561097657680100,3.36768017578125,0.5632173418998718,0.8698714375495911,-2.1526875495910645
1777561097676209000,3.386208984375,0.38667741417884827,1.64566969871521,-2.579681873321533
1777561097694737700,3.404737548828125,0.014660755172371864,2.5271475315093994,-3.2033748626708984
1777561097713266400,3.423266357421875,-0.35613417625427246,3.344484567642212,-3.816683053970337
1777561097741059300,3.451059326171875,-0.8625410795211792,2.931540012359619,-3.6871798038482666
1777561097759588000,3.469588134765625,-0.7043271064758301,1.174692988395691,-1.907119870185852
1777561097778116900,3.488116943359375,-0.20708316564559937,0.023823726922273636,-0.9126319885253906
1777561097796645600,3.506645751953125,-0.030543239787220955,0.23884813487529755,-1.2064579725265503
1777561097815174100,3.525174072265625,0.1948658674955368,1.2150100469589233,-1.7825034856796265
1777561097833703000,3.543702880859375,0.6114756464958191,1.3518437147140503,-1.9718714952468872
1777561097852231700,3.562231689453125,0.8943060636520386,1.2009601593017578,-1.8686354160308838
1777561097870760400,3.580760498046875,0.5955931544303894,0.9773836731910706,-1.6719368696212769
1777561097898553300,3.60855322265625,0.001221729558892548,0.7696896195411682,-1.6145156621932983
1777561097917082000,3.62708203125,0.050090912729501724,0.9187406301498413,-1.515555500984192
1777561097935611000,3.64561083984375,0.164322629570961,0.9053016304969788,-1.397047758102417
1777561097954139400,3.664139404296875,-0.008552107028663158,0.5974257588386536,-1.2095122337341309
1777561097972668200,3.682668212890625,-0.1844811588525772,0.38240134716033936,-1.0958913564682007
1777561097991197000,3.701197021484375,-0.18753549456596375,0.3585776388645172,-1.0018181800842285
1777561098009725400,3.719725341796875,-0.17531819641590118,0.39400777220726013,-0.749531090259552
1777561098028254200,3.738254150390625,-0.21258094906806946,0.6908880472183228,-0.6298015713691711
1777561098046783000,3.756782958984375,-0.27550002932548523,0.6310232877731323,-0.4929678738117218
1777561098065311700,3.775311767578125,-0.33719736337661743,0.4789179861545563,-0.4459312856197357
1777561098083840500,3.793840576171875,-0.3659079968929291,0.2864955961704254,-0.3946186602115631
1777561098102369300,3.812369384765625,-0.3915643095970154,0.029932374134659767,-0.33597561717033386
1777561098120897800,3.830897705078125,-0.4789179861545563,-0.13072505593299866,-0.3194822669029236
1777561098139426600,3.849426513671875,-0.6304124593734741,-0.18692462146282196,-0.3640754222869873
1777561098157955300,3.867955322265625,-0.7470875978469849,-0.4630354940891266,-0.3640754222869873
1777561098176484000,3.886484130859375,-0.6786707639694214,-0.4770853817462921,-0.2987128794193268
1777561098195012900,3.905012939453125,-0.3335321843624115,-0.39278605580329895,0.056199558079242706
1777561098213541400,3.923541259765625,-0.01954767294228077,0.16065743565559387,0.5583304166793823
1777561098232070100,3.942070068359375,0.15210533142089844,0.16737695038318634,1.1331541538238525
1777561098250599000,3.960598876953125,0.20891575515270233,-0.17165300250053406,1.4434734582901
1777561098269127400,3.97912744140625,0.10506874322891235,-0.27488914132118225,1.7452406883239746
1777561098287656200,3.99765625,-0.009162971749901772,-0.4422661066055298,2.0964879989624023
1777561098306185000,4.01618505859375,0.03543015569448471,-1.1032217741012573,2.6645922660827637
1777561098324713700,4.034713623046875,0.1948658674955368,-2.400698661804199,3.604712963104248
1777561098343242500,4.053242431640625,0.17165300250053406,-2.0323472023010254,4.1923651695251465
1777561098361771300,4.071771240234375,0.3585776388645172,1.4257583618164062,3.8905978202819824
1777561098380299800,4.0902998046875,0.5839866995811462,2.9962916374206543,3.207650899887085
1777561098398828500,4.10882861328125,0.4062250852584839,1.3909391164779663,2.0995421409606934
1777561098417357300,4.127357421875,0.2162461280822754,-0.7232639193534851,1.4825688600540161
1777561098435886000,4.145885986328125,-0.021380268037319183,-1.8515311479568481,2.120311737060547
1777561098454414800,4.164414794921875,-0.06902772188186646,-3.825235366821289,3.498422622680664
1777561098472943400,4.182943359375,0.21746785938739777,-4.296823024749756,4.752528190612793
1777561098491472100,4.20147216796875,0.43921178579330444,-2.3652684688568115,4.087296009063721
1777561098510001000,4.2200009765625,0.5540543794631958,-1.470962405204773,3.3933539390563965
1777561098528529700,4.23852978515625,0.49968740344047546,-1.777005672454834,3.4794857501983643
1777561098547058400,4.257058349609375,0.46425724029541016,-1.887572169303894,3.2895069122314453
1777561098565587200,4.275587158203125,0.430659681558609,-2.006079912185669,2.9962916374206543
1777561098584115700,4.29411572265625,0.18203771114349365,-1.907119870185852,2.59006667137146
1777561098602644500,4.31264453125,-0.0030543238390237093,-1.6047418117523193,1.9083415269851685
1777561098621173200,4.33117333984375,-0.08002328872680664,-1.352454662322998,1.3084723949432373
1777561098639702000,4.349701904296875,0.10201441496610641,-0.9370665550231934,0.7525854110717773
1777561098658230800,4.368230712890625,0.3652971386909485,-0.5766563415527344,0.1441640853881836
1777561098676759300,4.38675927734375,0.6224712133407593,-0.2009745091199875,-0.3897317349910736
1777561098695288000,4.4052880859375,0.8649845123291016,0.143553227186203,-1.1270455121994019
1777561098713816800,4.42381689453125,0.9541707634925842,0.5161807537078857,-2.1612396240234375
1777561098732345600,4.442345703125,0.5125155448913574,1.6707152128219604,-1.4624103307724
1777561098750874400,4.460874267578125,0.8979712128639221,-0.3744601011276245,-2.466671943664551
1777561098769403100,4.479403076171875,0.7464767694473267,1.4471386671066284,-2.534477949142456
1777561098787932000,4.497931884765625,0.24251331388950348,1.0305289030075073,-2.6444337368011475
1777561098806460700,4.516460693359375,-0.3842339515686035,0.648127555847168,-2.2333216667175293
1777561098824989200,4.5349892578125,-0.19914191961288452,-0.049480047076940536,-1.7831143140792847
1777561098843518000,4.55351806640625,-0.046425722539424896,1.094058871269226,-2.109316110610962
1777561098862046700,4.572046630859375,0.006719512399286032,0.925460159778595,-2.3652684688568115
1777561098880575500,4.590575439453125,0.047036588191986084,1.138651967048645,-2.6957461833953857
1777561098899104300,4.609104248046875,-0.143553227186203,1.8454225063323975,-3.2143704891204834
1777561098917633000,4.627633056640625,-0.4929678738117218,2.7061309814453125,-3.5381288528442383
1777561098936161500,4.64616162109375,-0.7617483735084534,3.1416776180267334,-3.3157739639282227
1777561098954690300,4.664690185546875,-0.7330377101898193,1.9889757633209229,-2.3536620140075684
1777561098973219000,4.683218994140625,-0.25473061203956604,0.7745765447616577,-1.5876375436782837
1777561098991747800,4.701747802734375,-0.001832594396546483,0.40927940607070923,-1.5992439985275269
1777561099010276600,4.720276611328125,0.20891575515270233,1.37078058719635,-2.036623239517212
1777561099028805400,4.738805419921875,0.6291907429695129,1.795331597328186,-2.238208532333374
1777561099047334100,4.757334228515625,0.9217949509620667,1.832594394683838,-2.0977096557617188
1777561099065863000,4.77586279296875,0.6591231226921082,1.1936297416687012,-1.719584345817566
1777561099084391400,4.794391357421875,0.32131487131118774,0.9474512934684753,-1.8283182382583618
1777561099102920200,4.812920166015625,0.09712749719619751,0.5943714380264282,-1.7788382768630981
1777561099121449000,4.831448974609375,0.031154103577136993,0.546113133430481,-1.387273907661438
1777561099139977700,4.849977783203125,-0.0256563201546669,0.7086031436920166,-1.268766164779663
1777561099158506500,4.868506591796875,-0.11667517572641373,0.5155698657035828,-1.1771364212036133
1777561099177035300,4.88703515625,-0.16554436087608337,0.3707949221134186,-1.0586286783218384
1777561099195564000,4.90556396484375,-0.22357651591300964,0.5180133581161499,-0.8484911918640137
1777561099214092800,4.9240927734375,-0.2419024556875229,0.5143481492996216,-0.7287616729736328
1777561099232621600,4.94262158203125,-0.28954991698265076,0.3750709891319275,-0.5369501113891602
1777561099251150300,4.961150390625,-0.37751442193984985,0.3494146466255188,-0.38728827238082886
1777561099269679000,4.97967919921875,-0.5271763205528259,0.1233946830034256,-0.3194822669029236
1777561099288207600,4.99820751953125,-0.6157516837120056,-0.17287473380565643,-0.3243691921234131
1777561099306736400,5.016736328125,-0.675616443157196,-0.27550002932548523,-0.3543015718460083
1777561099325265200,5.03526513671875,-0.667064368724823,-0.6701186895370483,-0.4251618981361389
1777561099343794000,5.0537939453125,-0.526565432548523,-0.5803215503692627,-0.3249800503253937
1777561099362322700,5.07232275390625,-0.16126830875873566,-0.14233149588108063,0.2816086709499359
1777561099380851500,5.0908515625,0.10690133273601532,0.1844811588525772,0.915075421333313
1777561099399380200,5.109380126953125,0.3170388340950012,-0.07635809481143951,1.2382229566574097
1777561099417909000,5.127908935546875,0.35674503445625305,-0.4355465769767761,1.4453060626983643
1777561099436437800,5.146437744140625,0.2510654330253601,-0.4770853817462921,1.792277216911316
1777561099454966300,5.16496630859375,0.22907429933547974,-0.7971785664558411,2.4373505115509033
1777561099473495000,5.1834951171875,0.3078758418560028,-2.1215333938598633,3.4379470348358154
1777561099492023800,5.20202392578125,0.08674279600381851,-2.615722894668579,4.196640968322754
1777561099510552600,5.220552490234375,0.0977383628487587,0.4172206521034241,3.8881542682647705
1777561099529081300,5.239081298828125,0.5076286196708679,2.481332778930664,3.339597702026367
1777561099547610000,5.257610107421875,0.4257727563381195,2.011577606201172,2.758054494857788
1777561099566139000,5.276138916015625,0.20769402384757996,0.24923282861709595,2.1087052822113037
1777561099584667600,5.294667724609375,-0.03237583488225937,-1.719584345817566,1.9932518005371094
1777561099603196400,5.313196533203125,-0.28954991698265076,-2.2540910243988037,2.557080030441284
1777561099621725200,5.33172509765625,-0.025045456364750862,-3.3426520824432373,3.37014102935791
1777561099640254000,5.35025390625,0.40927940607070923,-2.933372735977173,4.293768405914307
1777561099658782700,5.36878271484375,0.47464191913604736,-2.073275089263916,3.875936985015869
1777561099677311500,5.3873115234375,0.5290089249610901,-1.463021159172058,3.2956154346466064
1777561099695840300,5.40584033203125,0.4819723069667816,-1.6426154375076294,3.3884668350219727
1777561099714369000,5.424369140625,0.4740310609340668,-2.061668634414673,3.4849836826324463
1777561099732897800,5.442897705078125,0.4312705397605896,-2.1142029762268066,3.196044445037842
1777561099751426600,5.461426513671875,0.06841685622930527,-1.9669846296310425,2.4428482055664062
1777561099769955300,5.479955322265625,-0.24740023910999298,-1.7916663885116577,1.6536109447479248
1777561099788484000,5.498484130859375,-0.22235478460788727,-1.26021409034729,1.0048725605010986
1777561099807012900,5.517012939453125,-0.012217295356094837,-0.8216131329536438,0.33169957995414734
1777561099825541400,5.535541259765625,0.35613417625427246,-0.4105011224746704,-0.4007273018360138
1777561099844070100,5.554070068359375,0.6945532560348511,0.01588248461484909,-1.1789690256118774
1777561099862599000,5.572598876953125,0.9370665550231934,0.411722868680954,-2.148411512374878
1777561099881127700,5.591127685546875,0.8124501705169678,1.351232886314392,-2.079383611679077
1777561099899656400,5.609656494140625,0.574212908744812,0.8454368710517883,-1.9089524745941162
1777561099918185200,5.628185302734375,0.6609556674957275,0.379347026348114,-2.65970516204834
1777561099936714000,5.6467138671875,0.040317077189683914,2.3542728424072266,-2.310901403427124
1777561099955242800,5.66524267578125,-0.4984656572341919,0.20952661335468292,-1.6865977048873901
1777561099973771500,5.683771484375,-0.39278605580329895,-0.6823359727859497,-1.1160500049591064
1777561099992300300,5.70230029296875,-0.277332603931427,0.2675587832927704,-1.5741984844207764
1777561100010829000,5.7208291015625,-0.18570289015769958,0.6114756464958191,-2.0470077991485596
1777561100029357800,5.73935791015625,-0.3084867000579834,1.230892539024353,-2.6224424839019775
1777561100047886600,5.757886474609375,-0.29077163338661194,1.8826853036880493,-3.3017241954803467
1777561100066415400,5.776415283203125,-0.21380266547203064,2.657261848449707,-3.864330530166626
1777561100084944100,5.794944091796875,-0.2938259541988373,3.5253007411956787,-4.0445356369018555
1777561100103473000,5.813472900390625,-0.21502439677715302,3.109301805496216,-3.470322847366333
1777561100122001700,5.832001708984375,0.11056652665138245,1.8087706565856934,-2.163072109222412
1777561100140530400,5.850530517578125,0.2052505612373352,0.8949168920516968,-1.4190388917922974
1777561100159059200,5.86905908203125,0.235793799161911,0.7727439403533936,-1.6438370943069458
1777561100177588000,5.887587890625,0.5424479246139526,1.2467750310897827,-1.933387041091919
1777561100196116700,5.90611669921875,0.8387173414230347,1.553429126739502,-1.8997894525527954
1777561100214645500,5.9246455078125,0.9511164426803589,1.2437206506729126,-1.7244713306427002
1777561100233174300,5.94317431640625,0.5668824911117554,0.7220421433448792,-1.4282019138336182
1777561100251703000,5.961703125,-0.14599667489528656,0.004886918235570192,-1.1759146451950073
1777561100270231800,5.980231689453125,-0.5192350745201111,-0.5149590373039246,-1.1417062282562256
1777561100288760600,5.998760498046875,-0.17104214429855347,0.22968515753746033,-1.2577705383300781
1777561100307289300,6.017289306640625,0.21258094906806946,1.0097594261169434,-1.0225876569747925
1777561100325818000,6.035818115234375,0.24984370172023773,0.8765909671783447,-0.8839213252067566
1777561100344347000,6.054346923828125,0.03787361457943916,0.3445277214050293,-0.9132428169250488
1777561100362875600,6.072875732421875,-0.030543239787220955,0.10751219838857651,-0.7867938280105591
1777561100381404400,6.091404296875,-0.11423171311616898,0.0360410213470459,-0.5381718873977661
1777561100399933200,6.10993310546875,-0.26389357447624207,-0.11911863088607788,-0.44348782300949097
1777561100418462000,6.1284619140625,-0.4153880476951599,-0.3396408259868622,-0.3170388340950012
1777561100436990700,6.14699072265625,-0.5021308660507202,-0.3170388340950012,-0.22846342623233795
1777561100455519500,6.16551953125,-0.5821541547775269,-0.472198486328125,-0.2626718580722809
1777561100474048300,6.18404833984375,-0.6334667801856995,-0.462424635887146,-0.41783151030540466
1777561100492577000,6.202576904296875,-0.6542361974716187,-0.6316341757774353,-0.657290518283844
1777561100511105800,6.221105712890625,-0.5516108870506287,-0.8796452879905701,-0.8484911918640137
1777561100529634600,6.239634521484375,-0.4673115611076355,-0.3042106628417969,-0.685390293598175
1777561100548163300,6.258163330078125,-0.3182605504989624,0.05558869615197182,-0.2162461280822754
1777561100566692400,6.2766923828125,-0.3555232882499695,0.06597339361906052,0.33719736337661743
1777561100585220900,6.295220947265625,-0.29565855860710144,-0.3341430425643921,0.7336485981941223
1777561100603749600,6.31374951171875,-0.23457208275794983,-0.46975502371788025,1.1136064529418945
1777561100622278400,6.3322783203125,-0.18875721096992493,-0.7874047160148621,1.6328415870666504
1777561100640807200,6.35080712890625,-0.0720820426940918,-1.071456789970398,2.184452533721924
1777561100659336200,6.369336181640625,0.1594357043504715,-1.4110976457595825,2.768439292907715
1777561100677864700,6.38786474609375,0.2254091054201126,-1.9889757633209229,3.3035566806793213
1777561100696393500,6.4063935546875,-0.053145237267017365,-1.9016220569610596,3.6621344089508057
1777561100714922500,6.424922607421875,-0.046425722539424896,0.5974257588386536,3.6865689754486084
1777561100733451300,6.443451171875,0.29504770040512085,2.4471242427825928,3.3072218894958496
1777561100751980000,6.46197998046875,0.20463970303535461,1.7989968061447144,2.5277583599090576
1777561100770508800,6.4805087890625,0.13683371245861053,0.06841685622930527,1.9382739067077637
1777561100789037600,6.49903759765625,0.1747073233127594,-1.3060288429260254,2.3017385005950928
1777561100807566300,6.51756640625,-0.06475166976451874,-2.5503604412078857,3.332878351211548
1777561100826095000,6.53609521484375,0.19181154668331146,-3.590663194656372,4.443430423736572
1777561100844624000,6.554623779296875,0.3915643095970154,-2.2974624633789062,4.287048816680908
1777561100863152600,6.573152587890625,0.5290089249610901,-1.6200133562088013,3.601658821105957
1777561100881681400,6.591681396484375,0.5241219997406006,-1.6267329454421997,3.649306297302246
1777561100900210200,6.610210205078125,0.47525280714035034,-1.7580687999725342,3.6786277294158936
1777561100918739000,6.628739013671875,0.4367683231830597,-1.6719368696212769,3.542404890060425
1777561100937267700,6.647267822265625,0.22663083672523499,-1.4031563997268677,3.0414958000183105
1777561100955796500,6.66579638671875,-0.11423171311616898,-1.6310089826583862,2.263864755630493
1777561100974325200,6.6843251953125,-0.15210533142089844,-1.5033382177352905,1.5607595443725586
1777561100992854000,6.70285400390625,0.014660755172371864,-1.135597586631775,0.896138608455658
1777561101011382800,6.7213828125,0.26878049969673157,-0.6860011219978333,0.1337793916463852
1777561101029911800,6.739911865234375,0.5479456782341003,-0.28405213356018066,-0.7031053900718689
1777561101048440600,6.758440673828125,0.7910698652267456,0.1282816082239151,-1.7085888385772705
1777561101066969000,6.776968994140625,0.8698714375495911,0.45875945687294006,-2.3463315963745117
1777561101085498000,6.795498046875,0.258395791053772,1.5118902921676636,-1.046411395072937
1777561101104027000,6.81402685546875,0.7703005075454712,-1.7739512920379639,-2.8399102687835693
1777561101122555600,6.8325556640625,0.4520399272441864,3.1618361473083496,-1.9743149280548096
1777561101141084400,6.85108447265625,0.2614501118659973,-0.748920202255249,-2.154520034790039
1777561101159613200,6.86961328125,-0.009162971749901772,0.7574723362922668,-1.894291639328003
1777561101178142000,6.888141845703125,0.2864955961704254,0.5503891706466675,-2.188117742538452
1777561101196670700,6.906670654296875,0.05070177838206291,1.0299180746078491,-2.534477949142456
1777561101215199500,6.925199462890625,-0.164322629570961,1.2003493309020996,-2.855181932449341
1777561101233728300,6.943728271484375,-0.22357651591300964,1.3720022439956665,-3.3121087551116943
1777561101252257000,6.962257080078125,-0.26450446248054504,1.795331597328186,-3.777587890625
1777561101270785800,6.980785888671875,-0.5803215503692627,2.6761984825134277,-3.8099637031555176
1777561101289314800,6.999314697265625,-0.8680388331413269,2.755000114440918,-3.2259769439697266
1777561101307843600,7.017843505859375,-0.46975502371788025,1.202792763710022,-2.0476186275482178
1777561101326372400,7.036372314453125,0.1954767256975174,-0.10323614627122879,-1.5210533142089844
1777561101344901000,7.054901123046875,0.41905322670936584,0.19792018830776215,-1.9944734573364258
1777561101363430000,7.073429931640625,0.7079922556877136,0.7959567904472351,-2.389092206954956
1777561101381958700,7.091958740234375,0.9859357476234436,1.0360267162322998,-2.3487751483917236
1777561101400487400,7.1104873046875,0.9676098227500916,0.9395100474357605,-1.9901974201202393
1777561101419016200,7.12901611328125,0.6432406306266785,0.7788525819778442,-1.711643099784851
1777561101437545000,7.147544921875,0.2211330533027649,0.3903425931930542,-1.656665325164795
1777561101456073700,7.16607373046875,0.03176496922969818,0.14599667489528656,-1.4660754203796387
1777561101474602800,7.184602783203125,0.12522727251052856,0.16004657745361328,-1.4294235706329346
1777561101493131500,7.203131591796875,0.06719512492418289,0.09712749719619751,-1.323133111000061
1777561101511660300,7.221660400390625,-0.06047561392188072,0.04825831577181816,-1.053741693496704
1777561101530189000,7.24018896484375,-0.10934479534626007,0.14599667489528656,-1.0519092082977295
1777561101548717800,7.2587177734375,-0.09529490768909454,0.14233149588108063,-1.045189619064331
1777561101567246600,7.27724658203125,-0.18814635276794434,0.1893680840730667,-0.8118392825126648
1777561101585775400,7.295775390625,-0.2809978127479553,0.18814635276794434,-0.6499601006507874
1777561101604304100,7.31430419921875,-0.4221075773239136,-0.06719512492418289,-0.5057960152626038
1777561101622833000,7.3328330078125,-0.5039634704589844,-0.31154105067253113,-0.4098902642726898
1777561101641362000,7.35136181640625,-0.5198459029197693,-0.32559093832969666,-0.3347539007663727
1777561101659890700,7.369890625,-0.535728394985199,-0.27366742491722107,-0.42332929372787476
1777561101678419500,7.38841943359375,-0.5577195286750793,-0.2419024556875229,-0.4618137776851654
1777561101696948200,7.4069482421875,-0.6206386089324951,-0.5583304166793823,-0.5009090900421143
1777561101715477000,7.42547705078125,-0.5283980369567871,-0.3292561173439026,-0.35674503445625305
1777561101734005800,7.444005859375,-0.4196641147136688,-0.04886918142437935,0.08552107214927673
1777561101752534500,7.462534423828125,-0.32192572951316833,0.2724456787109375,0.6359102129936218
1777561101771063300,7.481063232421875,-0.1545487940311432,0.013439024798572063,0.9749401807785034
1777561101789592300,7.49959228515625,-0.1331685185432434,-0.09651663154363632,1.2217295169830322
1777561101808121000,7.51812109375,-0.059864748269319534,-0.0818558782339096,1.6346741914749146
1777561101826649900,7.53664990234375,0.000610864779446274,-0.2522871494293213,2.0995421409606934
1777561101845178600,7.5551787109375,0.09101885557174683,-0.7452550530433655,2.489274024963379
1777561101863707400,7.573707275390625,0.2706131041049957,-2.101374864578247,2.9571964740753174
1777561101882236400,7.592236328125,0.13439024984836578,-3.3267695903778076,3.208261728286743
1777561101900765000,7.610764892578125,0.32131487131118774,-0.6414080262184143,2.8594579696655273
1777561101919294000,7.6292939453125,1.0250310897827148,2.7507240772247314,2.6981897354125977
1777561101937822700,7.64782275390625,1.2388337850570679,1.4049890041351318,2.1948370933532715
1777561101956351500,7.6663515625,0.6505709886550903,-0.6872228980064392,1.4202606678009033
1777561101974880300,7.68488037109375,-0.056199558079242706,-2.7030766010284424,1.0641264915466309
1777561101993409000,7.703408935546875,-0.8124501705169678,-5.883849620819092,0.9352339506149292
1777561102011938000,7.72193798828125,-1.9859213829040527,-7.13551139831543,1.6975932121276855
1777561102030466800,7.740466796875,-2.187506675720215,-3.1312928199768066,2.7397284507751465
1777561102048995600,7.75899560546875,-0.7354812026023865,1.6853759288787842,3.397019147872925
1777561102067524400,7.7775244140625,0.3072649836540222,0.3659079968929291,2.2614214420318604
1777561102086053000,7.79605322265625,0.8313869833946228,-0.8436042666435242,1.202792763710022
1777561102104582100,7.81458203125,1.2773182392120361,-0.6029235124588013,1.5668681859970093
1777561102123111000,7.83311083984375,1.2534945011138916,-0.62857985496521,2.076329469680786
1777561102141639700,7.8516396484375,1.0421353578567505,-0.8826996088027954,1.7751730680465698
1777561102160168400,7.87016845703125,0.7800742983818054,-1.2638791799545288,1.1899645328521729
1777561102178697200,7.888697265625,0.6200277805328369,-1.601076602935791,0.740368127822876
1777561102197226000,7.90722607421875,0.6200277805328369,-1.546709656715393,0.3035998046398163
1777561102215755000,7.925755126953125,0.6371319890022278,-1.4373648166656494,-0.20769402384757996
1777561102234283800,7.94428369140625,0.5778780579566956,-1.359174132347107,-0.7648026943206787
1777561102252812500,7.9628125,0.6395754218101501,-1.2773182392120361,-1.288313865661621
1777561102271341300,7.98134130859375,0.8374956250190735,-1.1154390573501587,-1.722638726234436
1777561102289870000,7.9998701171875,1.0787872076034546,-0.6798924803733826,-1.8716896772384644
1777561102308399000,8.018399169921874,1.1209368705749512,-0.29993459582328796,-1.6236785650253296
1777561102326928000,8.036927978515624,0.9938769936561584,-0.8637627959251404,-1.174692988395691
1777561102345456600,8.05545654296875,0.7519745230674744,-1.5460987091064453,-0.35674503445625305
1777561102363985400,8.0739853515625,0.6462949514389038,-1.7452406883239746,0.29626941680908203
1777561102382514400,8.092514404296875,0.2993237376213074,-2.3200645446777344,0.9926552772521973
1777561102401043000,8.11104296875,0.08613193035125732,-2.587623119354248,1.3158026933670044
1777561102419572000,8.129572021484375,-0.22724169492721558,-2.149022340774536,0.9071341753005981
1777561102438100700,8.148100830078125,-0.5656607747077942,-0.3225366175174713,0.3836230933666229
1777561102456629500,8.16662939453125,-0.2467893660068512,1.5778636932373047,-0.7409789562225342
1777561102475158300,8.185158203125,-0.08613193035125732,1.9339978694915771,-1.062904715538025
1777561102493687300,8.203687255859375,-0.08491020649671555,0.720820426940918,-1.0012073516845703
1777561102512216000,8.222216064453125,-0.6542361974716187,0.13927717506885529,-1.905287265777588
1777561102530744800,8.240744873046875,-1.0299180746078491,0.2809978127479553,-2.3481643199920654
1777561102549273600,8.259273681640625,-0.36285367608070374,0.35613417625427246,-1.5070034265518188
1777561102567802600,8.277802734375,0.44470956921577454,-0.1637117564678192,-1.0861176252365112
1777561102586331400,8.296331298828125,0.5229002237319946,-0.3347539007663727,-1.053130865097046
1777561102604860200,8.314860107421875,0.4886918365955353,-0.4098902642726898,-1.0115920305252075
1777561102623389000,8.333388916015625,0.6774490475654602,-0.3090975880622864,-1.1209368705749512
1777561102641918000,8.35191796875,0.7837395071983337,-0.8026763200759888,-1.2681553363800049
1777561102660446700,8.37044677734375,0.6047561168670654,-1.2058470249176025,-1.4874557256698608
1777561102678975500,8.3889755859375,0.2981020212173462,-1.2486076354980469,-1.6517783403396606
1777561102697504300,8.407504150390626,0.1441640853881836,-1.018311619758606,-1.5589269399642944
1777561102716033300,8.426033203125,-0.047036588191986084,-0.7654135823249817,-1.1691951751708984
1777561102734562000,8.44456201171875,-0.04825831577181816,-0.29443681240081787,-1.1221586465835571
1777561102753090800,8.4630908203125,0.04825831577181816,-0.05070177838206291,-1.186299443244934
1777561102771619600,8.48161962890625,0.021380268037319183,-0.17837251722812653,-0.9834923148155212
1777561102790148400,8.5001484375,-0.08307760953903198,-0.040317077189683914,-0.6206386089324951
1777561102808677400,8.518677490234374,-0.1490510106086731,0.24862197041511536,-0.4740310609340668
1777561102827206100,8.5372060546875,-0.08429934084415436,0.26389357447624207,-0.7348703145980835
1777561102845735000,8.55573486328125,-0.1747073233127594,-0.6505709886550903,-1.0855066776275635
1777561102864263700,8.574263671875,-0.2614501118659973,-1.1624757051467896,-1.1899645328521729
1777561102882792700,8.592792724609374,-0.26389357447624207,-0.6707295179367065,-0.972496747970581
1777561102901321500,8.611321533203125,-0.17226386070251465,-0.1026252806186676,-0.667064368724823
1777561102919850200,8.629850341796875,-0.10506874322891235,0.008552107028663158,-0.4001164436340332
1777561102938379300,8.648379150390625,-0.08674279600381851,-0.025045456364750862,-0.2816086709499359
1777561102956908000,8.666907958984375,-0.1380554437637329,0.09468404203653336,-0.23396120965480804
1777561102975436800,8.685436767578125,-0.40805765986442566,-0.053756099194288254,-0.14599667489528656
1777561102993965600,8.703965576171875,-0.5467239618301392,-0.6371319890022278,0.06047561392188072
1777561103012494600,8.72249462890625,-0.5571087002754211,-0.5827649831771851,0.20647229254245758
1777561103031023400,8.7410234375,-0.4783071279525757,-0.2822195291519165,0.2712239623069763
1777561103049552100,8.75955224609375,-0.33108872175216675,-0.29504770040512085,0.37812530994415283
1777561103068081000,8.778080810546875,-0.2052505612373352,-0.4935787320137024,0.66645348072052
1777561103086610000,8.79660986328125,-0.21930044889450073,-1.1142174005508423,1.2479966878890991
1777561103114403000,8.824403076171874,-0.38789913058280945,-2.3897030353546143,2.251647472381592
1777561103132931800,8.842931884765624,-0.4740310609340668,-3.300502300262451,2.9846854209899902
1777561103151460900,8.8614609375,-0.5723803043365479,-3.9388561248779297,3.665799617767334
1777561103169989600,8.87998974609375,-0.45509424805641174,-3.7879724502563477,3.7177231311798096
1777561103188518400,8.898518310546875,-0.34574946761131287,-3.1502296924591064,3.355480194091797
1777561103207047400,8.91704736328125,-0.13927717506885529,-1.9413282871246338,3.1734426021575928
1777561103225576200,8.935576171875,-0.13194678723812103,-1.0506874322891235,2.9993460178375244
1777561103244105000,8.95410498046875,-0.17592905461788177,-0.7220421433448792,2.875340461730957
1777561103262634000,8.972634033203125,0.043982263654470444,-0.5907062292098999,2.6694791316986084
1777561103281162800,8.991162841796875,0.3848448097705841,-1.1026109457015991,2.0445644855499268
1777561103299691500,9.00969140625,0.6688969135284424,-1.5008947849273682,1.4636319875717163
1777561103318220300,9.02822021484375,0.7611374855041504,-1.618180751800537,1.331685185432434
1777561103336749300,9.046749267578125,0.6053670048713684,-1.637117624282837,1.884517788887024
1777561103355278000,9.065278076171875,0.5803215503692627,-2.794095516204834,2.464228630065918
1777561103373806800,9.083806884765625,0.6994401812553406,-4.206414699554443,2.4404048919677734
1777561103392336000,9.1023359375,1.1068869829177856,-4.885085582733154,2.434296131134033
1777561103410864600,9.12086474609375,1.249218463897705,-5.015199661254883,2.926042318344116
1777561103429393400,9.139393310546875,1.2455532550811768,-4.152658939361572,2.139859437942505
1777561103447922400,9.15792236328125,1.2944225072860718,-3.2644612789154053,1.4355322122573853
1777561103466451200,9.176451171875,1.2052361965179443,-2.4966044425964355,1.0189224481582642
1777561103484980000,9.19497998046875,1.2315033674240112,-1.9132285118103027,0.7745765447616577
1777561103503509000,9.213509033203126,1.3567306995391846,-1.6041308641433716,0.47097674012184143
1777561103522037800,9.232037841796876,1.6242893934249878,-1.4013237953186035,0.0513126403093338
1777561103540566500,9.25056640625,1.7550145387649536,-1.0934479236602783,-0.44409868121147156
1777561103559095600,9.269095458984374,1.7006475925445557,-0.9560033679008484,-0.7886264324188232
1777561103577624300,9.287624267578124,1.5515965223312378,-1.1313215494155884,-0.9450078010559082
1777561103596153000,9.306153076171874,1.2315033674240112,-1.4129302501678467,-0.7849612236022949
1777561103614681900,9.324681884765624,0.6829468011856079,-1.5192207098007202,0.13622283935546875
1777561103633211000,9.3432109375,0.4471530318260193,-1.0476330518722534,1.692095398902893
1777561103651739600,9.36173974609375,0.5192350745201111,-1.7458515167236328,1.2253947257995605
1777561103670268400,9.380268310546874,0.7006618976593018,-2.380540132522583,1.4288127422332764
1777561103688797400,9.39879736328125,0.9022472500801086,-2.534477949142456,1.2351685762405396
1777561103707326200,9.417326171875,0.7617483735084534,-1.7208061218261719,0.9138537049293518
1777561103725855000,9.43585498046875,0.22846342623233795,-0.6450732350349426,0.6316341757774353
1777561103744384000,9.454384033203125,-0.36712974309921265,1.4703515768051147,-0.7360920310020447
1777561103762912800,9.472912841796875,-1.072678565979004,2.595564365386963,-0.5919279456138611
1777561103781441500,9.491441650390625,-0.45448338985443115,0.6200277805328369,-0.5998691916465759
1777561103799970600,9.509970458984375,0.2675587832927704,-0.10934479534626007,-1.8625266551971436
1777561103818499300,9.528499267578125,0.13683371245861053,2.2455389499664307,-3.193601131439209
1777561103837028000,9.547028076171875,-0.21991132199764252,3.4752097129821777,-3.3744170665740967
1777561103855557000,9.56555712890625,-0.5064069032669067,2.559523344039917,-2.0573925971984863
1777561103874086000,9.5840859375,-0.6023126840591431,0.21685700118541718,0.16676609218120575
1777561103892614700,9.60261474609375,0.08429934084415436,-1.8380920886993408,-0.6982184648513794
1777561103911143700,9.621143798828125,0.9767727851867676,-1.3335177898406982,-2.2052218914031982
1777561103929672400,9.63967236328125,1.3066397905349731,-0.05558869615197182,-2.2094979286193848
1777561103948201500,9.658201416015626,1.6151264905929565,1.1392627954483032,-2.381150960922241
1777561103966730200,9.676730224609376,1.3573415279388428,0.8674280047416687,-2.1502439975738525
1777561103985259000,9.695259033203126,0.9114102721214294,0.3341430425643921,-1.6560543775558472
1777561104003788000,9.7137880859375,0.277332603931427,-0.05742128938436508,-1.5961896181106567
1777561104022316800,9.73231689453125,-0.10629047453403473,-0.15088360011577606,-1.6762129068374634
1777561104040845600,9.750845458984376,-0.033597562462091446,0.4276053309440613,-1.7287473678588867
1777561104059374600,9.76937451171875,0.06475166976451874,1.2284491062164307,-1.7110322713851929
1777561104077903400,9.7879033203125,0.04459312930703163,0.8631519079208374,-1.554650902748108
1777561104096432000,9.80643212890625,-0.13255766034126282,0.258395791053772,-1.4465278387069702
1777561104114961200,9.824961181640624,-0.3995055556297302,-0.01588248461484909,-1.2986985445022583
1777561104133490000,9.843489990234374,-0.36835145950317383,-0.11667517572641373,-1.1294889450073242
1777561104152018700,9.862018798828124,-0.21502439677715302,0.24740023910999298,-0.9773836731910706
1777561104170547700,9.880547607421875,-0.15210533142089844,0.740368127822876,-0.8943060636520386
1777561104189076500,9.899076416015625,-0.20647229254245758,0.9498947262763977,-0.6536253094673157
1777561104207605200,9.917605224609375,-0.34697118401527405,0.740368127822876,-0.5216785073280334
1777561104226134300,9.93613427734375,-0.5326740741729736,0.1185077652335167,-0.4153880476951599
1777561104244663000,9.9546630859375,-0.7104357481002808,-0.13683371245861053,-0.472198486328125
1777561104263192000,9.973192138671875,-0.7226530313491821,-0.10079269111156464,-0.42271843552589417
1777561104281720800,9.991720947265625,-0.6023126840591431,-0.09101885557174683,-0.24251331388950348
1777561104300249600,10.01024951171875,-0.38789913058280945,-0.10445787757635117,0.08002328872680664
1777561104318778600,10.028778564453125,-0.21807873249053955,-0.2877173125743866,0.4520399272441864
1777561104337307400,10.047307373046875,-0.13561198115348816,-0.5027416944503784,0.9462295174598694
1777561104355836400,10.06583642578125,-0.19792018830776215,-0.555276095867157,1.4654645919799805
1777561104374365200,10.084365234375,-0.17043127119541168,-1.0916153192520142,1.989586591720581
1777561104392894000,10.10289404296875,-0.01588248461484909,-1.472795009613037,2.816697597503662
1777561104411423000,10.121423095703125,0.24006985127925873,-1.8057162761688232,3.6847362518310547
1777561104429951700,10.13995166015625,0.546113133430481,-2.199113130569458,4.45992374420166
1777561104448480800,10.158480712890626,0.758694052696228,-1.9761475324630737,4.805062294006348
1777561104467009500,10.177009521484376,0.5186241865158081,-1.0751219987869263,4.310872554779053
1777561104485538300,10.195538330078126,0.1484401375055313,-0.014660755172371864,3.635256290435791
1777561104504067300,10.2140673828125,0.04764745384454727,0.22296564280986786,3.185049057006836
1777561104522596000,10.23259619140625,-0.1740964651107788,-0.11728604137897491,2.7977607250213623
1777561104541125000,10.251125,-0.38667741417884827,-0.6792816519737244,2.744004487991333
1777561104559654000,10.26965380859375,-0.1337793916463852,-1.693317174911499,3.140455722808838
1777561104578182700,10.2881826171875,0.5607738494873047,-1.5540399551391602,4.277275085449219
1777561104596711700,10.306711669921874,0.8967494964599609,-2.4190244674682617,4.872257709503174
1777561104615240400,10.325240478515624,1.3683371543884277,-2.849684238433838,4.472752094268799
1777561104633769500,10.34376953125,1.3616175651550293,-3.7537641525268555,4.4159417152404785
1777561104652298200,10.36229833984375,1.08978271484375,-3.700007915496826,4.642572402954102
1777561104670827000,10.380826904296875,0.7367029190063477,-3.1691665649414062,4.251008033752441
1777561104689356000,10.39935595703125,0.6872228980064392,-2.4972152709960938,3.3102762699127197
1777561104707884800,10.417884765625,0.5534434914588928,-2.2620322704315186,2.6145012378692627
1777561104726413600,10.43641357421875,0.5369501113891602,-1.935219645500183,1.9462151527404785
1777561104744942600,10.454942626953125,0.6640099883079529,-1.85092031955719,1.2651009559631348
1777561104763471600,10.4734716796875,0.8680388331413269,-1.6817107200622559,0.5351175665855408
1777561104782000400,10.49200048828125,1.18446683883667,-1.3127484321594238,-0.06108647957444191
1777561104800529200,10.510529052734375,1.5033382177352905,-1.0244202613830566,-0.7440332770347595
1777561104819058200,10.52905810546875,1.8209879398345947,-0.7287616729736328,-1.6786564588546753
1777561104837587000,10.5475869140625,1.5094468593597412,0.3860665261745453,-1.6126830577850342
1777561104856116000,10.566115966796875,1.5491530895233154,-0.5668824911117554,-2.0219624042510986
1777561104874644700,10.584644775390625,1.6982040405273438,2.051283836364746,-2.543030023574829
1777561104893173500,10.603173583984375,0.7293725609779358,0.730594277381897,-2.942535638809204
1777561104911702500,10.62170263671875,0.1893680840730667,0.3964512348175049,-2.182008981704712
1777561104930231300,10.640231201171876,0.6071996092796326,0.4324922561645508,-2.1752893924713135
1777561104948760300,10.65876025390625,0.6255255341529846,1.7263038158416748,-2.570518970489502
1777561104967289000,10.6772890625,0.5393936038017273,1.3408482074737549,-2.903440237045288
1777561104985817900,10.69581787109375,0.14110976457595825,1.8283182382583618,-3.4208426475524902
1777561105004347000,10.714346923828124,-0.35246896743774414,2.6364924907684326,-4.054920196533203
1777561105022875600,10.732875732421874,-0.8558215498924255,3.2644612789154053,-4.248564720153809
1777561105041404700,10.75140478515625,-0.6927206516265869,3.029278516769409,-3.425729751586914
1777561105059933400,10.769933349609374,-0.07513637095689774,1.5070034265518188,-2.42574405670166
1777561105078462500,10.78846240234375,0.26389357447624207,0.2816086709499359,-1.8857395648956299
1777561105096991200,10.8069912109375,0.21319180727005005,0.8967494964599609,-2.0299036502838135
1777561105115520300,10.825520263671875,0.36285367608070374,1.053741693496704,-2.1532983779907227
1777561105134049000,10.844049072265625,0.7293725609779358,0.9938769936561584,-2.1392483711242676
1777561105152578000,10.862578125,0.8497129082679749,1.0427461862564087,-2.0580034255981445
1777561105171106800,10.88110693359375,0.46547895669937134,0.7000510096549988,-1.7238603830337524
1777561105189635600,10.899635498046875,0.031154103577136993,0.3854556679725647,-1.4953969717025757
1777561105208164600,10.91816455078125,-0.028099779039621353,0.3029889166355133,-1.6603304147720337
1777561105226693400,10.936693359375,0.021380268037319183,0.036651886999607086,-1.5955787897109985
1777561105245222400,10.955222412109375,-0.17287473380565643,-0.04459312930703163,-1.1282672882080078
1777561105263751200,10.973751220703125,-0.2254091054201126,0.2412915825843811,-0.9908226728439331
1777561105282280200,10.9922802734375,-0.1331685185432434,0.4007273018360138,-1.000596523284912
1777561105300809000,11.01080908203125,-0.16676609218120575,0.47586366534233093,-0.823445737361908
1777561105319337700,11.029337646484375,-0.2632827162742615,0.39217519760131836,-0.7360920310020447
1777561105337866800,11.04786669921875,-0.4312705397605896,-0.10445787757635117,-0.6921098232269287
1777561105356395800,11.066395751953126,-0.638353705406189,-0.5222893953323364,-0.6133082509040833
1777561105374924500,11.084924560546876,-0.7385355234146118,-0.7617483735084534,-0.5406153202056885
1777561105393453600,11.10345361328125,-0.6108647584915161,-1.0115920305252075,-0.5106829404830933
1777561105411982300,11.121982421875,-0.4789179861545563,-0.3811796307563782,-0.19853104650974274
1777561105430511000,11.140510986328126,-0.10140355676412582,-0.06536252796649933,0.13133592903614044
1777561105449040100,11.1590400390625,0.205861434340477,-0.012217295356094837,0.5119046568870544
1777561105467569000,11.17756884765625,0.3023780584335327,-0.40317076444625854,0.8497129082679749
1777561105486098000,11.196097900390624,0.21441353857517242,-0.8912517428398132,1.1911863088607788
1777561105504626700,11.214626708984374,0.07452550530433655,-0.7165443897247314,1.740964651107788
1777561105523155700,11.23315576171875,-0.05497783049941063,-0.9010255336761475,2.576016664505005
1777561105541684500,11.2516845703125,-0.023823726922273636,-2.10992693901062,3.705505847930908
1777561105560213200,11.270213134765624,-0.27855435013771057,-2.8234169483184814,4.528951644897461
1777561105578742300,11.2887421875,-0.42394015192985535,-0.8582650423049927,4.009105682373047
1777561105597271300,11.307271240234375,0.20280711352825165,1.9083415269851685,3.503309488296509
1777561105615800000,11.325800048828125,0.5088503360748291,2.4159700870513916,3.0243914127349854
1777561105634329000,11.3443291015625,0.2724456787109375,1.0439679622650146,2.378096580505371
1777561105662122200,11.372122314453126,0.07330377399921417,-1.0763437747955322,2.1221442222595215
1777561105680651300,11.3906513671875,0.2968802750110626,-1.8270965814590454,2.6865832805633545
1777561105699180000,11.409179931640624,0.4013381600379944,-3.056767463684082,3.5527894496917725
1777561105717709000,11.427708984375,0.41783151030540466,-2.252258539199829,4.323090076446533
1777561105736237800,11.44623779296875,0.4734202027320862,-1.3182462453842163,4.21985387802124
1777561105754766800,11.464766845703124,0.4251618981361389,-1.453247308731079,3.601658821105957
1777561105773295600,11.483295654296874,0.3170388340950012,-2.095266103744507,3.6303694248199463
1777561105791824600,11.50182470703125,0.15515965223312378,-2.4013094902038574,3.726886034011841
1777561105810353400,11.520353515625,0.07880155742168427,-2.215606451034546,3.018282890319824
1777561105828882400,11.53888232421875,-0.2370155304670334,-2.0665555000305176,2.056781768798828
1777561105847411200,11.5574111328125,-0.2974911332130432,-1.5589269399642944,1.3390156030654907
1777561105865940200,11.575940185546875,-0.15577052533626556,-1.0739002227783203,0.6169734001159668
1777561105884469000,11.594468994140625,0.08491020649671555,-0.7122683525085449,-0.1649334877729416
1777561105902998000,11.612998046875,0.38179048895835876,-0.39217519760131836,-0.9816597104072571
1777561105921526800,11.63152685546875,0.6346884965896606,0.050090912729501724,-1.8839069604873657
1777561105940055800,11.650055908203125,0.5302306413650513,0.768467903137207,-2.1636829376220703
1777561105958584600,11.66858447265625,-0.17165300250053406,1.4966187477111816,-1.1502584218978882
1777561105977113600,11.687113525390625,0.3964512348175049,-2.0323472023010254,-2.2540910243988037
1777561105995642400,11.705642333984375,0.8210022449493408,2.729954719543457,-1.8435899019241333
1777561106014171400,11.72417138671875,0.3646862804889679,-0.3897317349910736,-1.5796962976455688
1777561106032700200,11.7427001953125,0.12767073512077332,-0.500298261642456,-1.3829978704452515
1777561106051229200,11.761229248046876,0.10140355676412582,0.46059203147888184,-1.9242240190505981
1777561106069758000,11.779758056640626,0.287106454372406,1.3280199766159058,-2.2650866508483887
1777561106088287000,11.798286865234376,0.22174391150474548,1.3518437147140503,-2.6774203777313232
1777561106106815700,11.816815673828126,0.09346231073141098,1.9840887784957886,-3.2962262630462646
1777561106125344800,11.8353447265625,0.03298669680953026,2.847240686416626,-3.9327473640441895
1777561106143873500,11.85387353515625,-0.2370155304670334,3.6706864833831787,-4.185645580291748
1777561106162402600,11.872402587890624,-0.35063639283180237,3.8240134716033936,-3.763537883758545
1777561106180931300,11.890931396484374,-0.013439024798572063,2.0213515758514404,-2.847851514816284
1777561106199460400,11.90946044921875,0.185092031955719,0.3787361681461334,-1.7336342334747314
1777561106217989000,11.927989013671874,0.1337793916463852,0.1905898153781891,-1.357952356338501
1777561106236518100,11.94651806640625,0.1288924664258957,0.9755510687828064,-1.7812817096710205
1777561106255047000,11.965046875,0.6194168925285339,1.533881425857544,-2.252258539199829
1777561106273576000,11.983575927734375,1.053130865097046,1.5460987091064453,-2.4098615646362305
1777561106292104700,12.002104736328125,0.8717040419578552,1.0207550525665283,-2.1691808700561523
1777561106310633700,12.0206337890625,0.21380266547203064,0.4862483739852905,-1.6047418117523193
1777561106329162800,12.039162841796875,-0.17837251722812653,0.24434591829776764,-1.415373682975769
1777561106347691500,12.05769140625,0.0409279391169548,0.42821621894836426,-1.556483507156372
1777561106366220500,12.076220458984375,0.14233149588108063,0.6438514590263367,-1.3457350730895996
1777561106384749300,12.094749267578125,0.06963858753442764,0.29626941680908203,-1.0396918058395386
1777561106403278300,12.1132783203125,0.11362084746360779,0.0769689604640007,-1.0696241855621338
1777561106421807000,12.13180712890625,0.07513637095689774,0.30543237924575806,-1.0720677375793457
1777561106440336100,12.150336181640625,-0.046425722539424896,0.4111120104789734,-0.8374956250190735
1777561106458865000,12.168864990234376,-0.19242240488529205,0.4098902642726898,-0.6982184648513794
1777561106477394000,12.187393798828126,-0.3543015718460083,0.15699224174022675,-0.46059203147888184
1777561106495922700,12.205922607421876,-0.3909534513950348,-0.03298669680953026,-0.2364046722650528
1777561106514451700,12.22445166015625,-0.39400777220726013,-0.21868959069252014,-0.08552107214927673
1777561106532980500,12.24298046875,-0.39828383922576904,-0.3225366175174713,-0.10445787757635117
1777561106551509500,12.261509521484374,-0.4508182108402252,-0.14172062277793884,-0.2516762912273407
1777561106570038300,12.280038330078124,-0.48075059056282043,-0.35185810923576355,-0.4043924808502197
1777561106588567300,12.2985673828125,-0.3396408259868622,-0.535728394985199,-0.5503891706466675
1777561106607096000,12.317095947265624,-0.15760311484336853,-0.1233946830034256,-0.2003636509180069
1777561106625625000,12.335625,-0.1386663019657135,0.10445787757635117,0.4166097939014435
1777561106644154000,12.354154052734375,-0.20402882993221283,-0.20891575515270233,0.7183769941329956
1777561106662683000,12.372682861328125,-0.22785256803035736,-0.3842339515686035,0.7984002828598022
1777561106681212000,12.3912119140625,-0.1948658674955368,-0.39400777220726013,1.1117738485336304
1777561106699740700,12.40974072265625,-0.1539379209280014,-0.536339282989502,1.564424753189087
1777561106718269700,12.428269775390625,-0.018325943499803543,-0.637742817401886,2.0720534324645996
1777561106736798500,12.446798583984375,0.2730565667152405,-1.0952805280685425,2.8014259338378906
1777561106755327500,12.465327392578125,0.30604326725006104,-1.9639302492141724,3.5943284034729004
1777561106773856500,12.4838564453125,-0.08429934084415436,-2.107483386993408,4.060418128967285
1777561106792385300,12.50238525390625,-0.2364046722650528,0.9321796298027039,3.7342164516448975
1777561106810914300,12.520914306640625,0.16065743565559387,3.8209590911865234,3.2601852416992188
1777561106829443000,12.539443115234375,0.1795942485332489,2.4935500621795654,2.090379238128662
1777561106847972000,12.55797216796875,0.16798780858516693,-0.555276095867157,1.0787872076034546
1777561106866500900,12.5765009765625,-0.09896009415388107,-2.1832306385040283,2.3732097148895264
1777561106885030000,12.59502978515625,-0.2864955961704254,-3.2113161087036133,4.225351810455322
1777561106903559000,12.613558837890626,-0.33047783374786377,-4.079966068267822,5.47090482711792
1777561106922087700,12.632087646484376,0.05192350596189499,-2.1985023021698,4.848433971405029
1777561106940616700,12.65061669921875,0.25534147024154663,-1.693317174911499,3.5998260974884033
1777561106959145500,12.6691455078125,-0.03787361457943916,-2.050673007965088,3.715890407562256
1777561106977674500,12.687674560546874,-0.1337793916463852,-1.598022222518921,4.015213966369629
1777561106996203300,12.706203369140624,-0.050090912729501724,-1.2822052240371704,3.433670997619629
1777561107014732300,12.724732177734374,-0.17531819641590118,-1.266933560371399,2.506378173828125
1777561107033261300,12.74326123046875,-0.3426951467990875,-1.2131774425506592,1.757457971572876
1777561107051790000,12.7617900390625,-0.25045454502105713,-0.8454368710517883,1.0372483730316162
1777561107070319000,12.780319091796875,-0.034208428114652634,-0.49418962001800537,0.23212862014770508
1777561107088848000,12.798847900390625,0.2565632164478302,-0.13500112295150757,-0.6560688018798828
1777561107107377000,12.817376953125,0.5564978122711182,0.24740023910999298,-1.654221773147583
1777561107125906000,12.835906005859375,0.7806851863861084,0.42088583111763,-2.478889226913452
1777561107144434700,12.8544345703125,0.2883281707763672,0.5839866995811462,-1.6481131315231323
1777561107162963700,12.872963623046875,0.35246896743774414,-0.17898337543010712,-2.402531147003174
1777561107181492700,12.89149267578125,0.4667007029056549,0.7006618976593018,-2.377485752105713
1777561107200021500,12.910021484375,0.46547895669937134,0.8442151546478271,-2.160017967224121
1777561107218550500,12.928550537109375,0.10751219838857651,-0.06108647957444191,-2.134972333908081
1777561107237079300,12.947079345703125,0.3402516841888428,0.30482152104377747,-1.9694280624389648
1777561107255608300,12.9656083984375,0.43921178579330444,0.8491020202636719,-2.3927574157714844
1777561107274137300,12.984137451171875,0.37812530994415283,1.5216641426086426,-2.819140911102295
1777561107292666000,13.002666015625,0.30970844626426697,1.3750566244125366,-3.152062177658081
1777561107311195100,13.021195068359376,0.26389357447624207,1.746462345123291,-3.6004369258880615
1777561107329724000,13.039723876953126,-0.014660755172371864,2.701854944229126,-3.9296932220458984
1777561107348253000,13.0582529296875,-0.5027416944503784,3.21864652633667,-3.6792385578155518
1777561107366781700,13.07678173828125,-0.4520399272441864,1.6969823837280273,-2.7030766010284424
1777561107385310700,13.095310791015624,0.205861434340477,0.05192350596189499,-1.3799434900283813
1777561107403839700,13.11383984375,0.33658650517463684,-0.29077163338661194,-1.479514479637146
1777561107422368500,13.132368408203124,0.7568614482879639,0.6811142563819885,-2.2430953979492188
1777561107440897500,13.1508974609375,1.2773182392120361,1.479514479637146,-2.5497496128082275
1777561107459426600,13.169426513671874,1.2895355224609375,1.3823870420455933,-2.1783437728881836
1777561107477955300,13.187955322265625,0.6530144214630127,0.9187406301498413,-1.5570943355560303
1777561107496484400,13.206484375,0.014049889519810677,0.33719736337661743,-1.3255765438079834
1777561107515013400,13.225013427734375,-0.21685700118541718,-0.40378162264823914,-1.441640853881836
1777561107533542100,13.243542236328125,-0.08002328872680664,-0.4251618981361389,-1.5045599937438965
1777561107552071200,13.2620712890625,-0.07757982611656189,0.030543239787220955,-1.1117738485336304
1777561107570600000,13.280599853515625,-0.13072505593299866,0.6969966888427734,-0.9792162179946899
1777561107589129000,13.29912890625,-0.08796452730894089,0.536339282989502,-1.0512982606887817
1777561107607658000,13.317657958984375,-0.13439024984836578,0.1331685185432434,-0.9761618971824646
1777561107626186800,13.336186767578125,-0.22968515753746033,0.22785256803035736,-0.7666352987289429
1777561107644715800,13.3547158203125,-0.35124725103378296,0.07757982611656189,-0.6023126840591431
1777561107663244800,13.373244873046875,-0.5442805290222168,-0.23029601573944092,-0.43310311436653137
1777561107681773600,13.391773681640625,-0.6420188546180725,-0.3946186602115631,-0.20219624042510986
1777561107700302600,13.410302490234375,-0.6774490475654602,-0.4740310609340668,-0.13194678723812103
1777561107718831600,13.42883154296875,-0.7012727856636047,-0.7312051653862,-0.32559093832969666
1777561107737360400,13.4473603515625,-0.5962040424346924,-0.8521563410758972,-0.5271763205528259
1777561107755889400,13.465889404296876,-0.4373791813850403,-0.28527384996414185,-0.16554436087608337
1777561107774418200,13.484418212890626,-0.235793799161911,0.09162971377372742,0.28588470816612244
1777561107792947200,13.502947265625,-0.009162971749901772,0.2162461280822754,0.8283326625823975
1777561107811476200,13.521476318359374,0.14660754799842834,-0.21807873249053955,1.0048725605010986
1777561107830005200,13.540005126953124,0.143553227186203,-0.37812530994415283,1.1753038167953491
1777561107848534000,13.558533935546874,0.06230820715427399,-0.1899789422750473,1.5485422611236572
1777561107867063000,13.57706298828125,-0.0360410213470459,-0.3066541254520416,2.1215333938598633
1777561107885591800,13.595591796875,0.06230820715427399,-1.0012073516845703,2.9040510654449463
1777561107904120800,13.614120849609375,0.05864302068948746,-2.0079126358032227,3.6169302463531494
1777561107922649900,13.63264990234375,-0.1740964651107788,-2.212552309036255,3.822180986404419
1777561107941178600,13.6511787109375,-0.22479823231697083,0.39889469742774963,3.3872451782226562
1777561107959707600,13.669707763671875,0.10018182545900345,3.22475528717041,2.98163104057312
1777561107978236700,13.688236572265625,0.11484257876873016,2.2308781147003174,2.204000234603882
1777561107996765400,13.706765380859375,0.1802051067352295,0.08857539296150208,1.5656464099884033
1777561108015294500,13.72529443359375,0.15027274191379547,-1.278540015220642,2.0610578060150146
1777561108033823500,13.743823486328125,0.2974911332130432,-2.090379238128662,3.3463172912597656
1777561108052352300,13.762352294921875,0.21197007596492767,-3.2601852416992188,4.326755046844482
1777561108070881300,13.78088134765625,0.3341430425643921,-2.5802929401397705,4.387841701507568
1777561108089410300,13.799410400390625,0.6737838387489319,-1.950491189956665,3.9217519760131836
1777561108107939300,13.817939208984376,0.675616443157196,-2.2174391746520996,3.743990182876587
1777561108126468000,13.836468017578126,0.4581485986709595,-2.3897030353546143,3.8356199264526367
1777561108144997000,13.8549970703125,0.2889390289783478,-2.2736387252807617,3.8258461952209473
1777561108163526000,13.87352587890625,0.0977383628487587,-1.6878193616867065,3.265683174133301
1777561108182055000,13.892054931640626,-0.14294235408306122,-1.433699607849121,2.4275765419006348
1777561108200584000,13.910583984375,-0.20708316564559937,-1.3720022439956665,1.758679747581482
1777561108219113000,13.929113037109374,0.09407317638397217,-1.064737319946289,1.1820234060287476
1777561108237641700,13.947641845703124,0.4428769648075104,-0.8148936033248901,0.6047561168670654
1777561108256170800,13.966170654296874,0.7281508445739746,-0.47586366534233093,0.07452550530433655
1777561108274699500,13.984699462890624,0.972496747970581,-0.10323614627122879,-0.40317076444625854
1777561108293228500,14.003228515625,1.1814124584197998,0.2767217457294464,-1.0525200366973877
1777561108311757600,14.021757568359375,1.2999202013015747,0.665842592716217,-2.0292928218841553
1777561108330286600,14.04028662109375,0.8594867587089539,1.2956441640853882,-1.7501275539398193
1777561108348815400,14.0588154296875,0.3634645342826843,0.5699368119239807,-1.9688172340393066
1777561108367344400,14.077344482421875,0.3170388340950012,0.5247328281402588,-2.03723406791687
1777561108385873200,14.095873046875,-0.09162971377372742,0.6090322136878967,-2.084270715713501
1777561108404402200,14.114402099609375,-0.2309068888425827,-0.2877173125743866,-1.729358196258545
1777561108422931200,14.13293115234375,-0.13255766034126282,0.35246896743774414,-1.9028438329696655
1777561108441460200,14.151460205078125,-0.04153880476951599,1.135597586631775,-2.4013094902038574
1777561108459989000,14.169989013671875,-0.056810423731803894,1.434921383857727,-2.8099780082702637
1777561108478518000,14.18851806640625,-0.10018182545900345,1.6603304147720337,-3.260796308517456
1777561108497047000,14.207047119140626,-0.001832594396546483,1.9187263250350952,-3.760483503341675
1777561108515576000,14.225576171875,-0.05253437161445618,2.543030023574829,-4.1257805824279785
1777561108534104800,14.244104736328126,-0.15271618962287903,3.3316564559936523,-4.065305233001709
1777561108552633900,14.2626337890625,0.004886918235570192,3.118464708328247,-3.372584342956543
1777561108571162600,14.28116259765625,-0.027488915249705315,2.2064435482025146,-2.1978914737701416
1777561108589691600,14.299691650390624,-0.08124501258134842,0.5729911923408508,-1.5479313135147095
1777561108608220700,14.318220703125,0.003665188793092966,0.5277871489524841,-1.8099923133850098
1777561108626749700,14.336749755859374,0.36285367608070374,1.2168426513671875,-2.1887285709381104
1777561108645278500,14.355278564453124,0.8497129082679749,1.635895848274231,-2.1887285709381104
1777561108663807500,14.373807373046875,0.822834849357605,1.8771874904632568,-1.9376630783081055
1777561108682336500,14.39233642578125,0.472198486328125,1.6633847951889038,-1.5833615064620972
1777561108700865500,14.410865478515625,-0.01282816007733345,0.8747583627700806,-1.3292417526245117
1777561108719394300,14.429394287109375,-0.17898337543010712,0.40744680166244507,-1.3555089235305786
1777561108737923300,14.44792333984375,-0.10384701192378998,0.5962040424346924,-1.508836030960083
1777561108756452400,14.466452392578125,-0.013439024798572063,0.6041452884674072,-1.320078730583191
1777561108774981400,14.4849814453125,-0.07635809481143951,0.4471530318260193,-1.2247838973999023
1777561108793510100,14.50351025390625,-0.164322629570961,0.24434591829776764,-1.1417062282562256
1777561108812039200,14.5220390625,-0.2205221801996231,0.10018182545900345,-0.9071341753005981
1777561108830568200,14.540568115234375,-0.28527384996414185,0.08063415437936783,-0.7128791809082031
1777561108849097200,14.55909716796875,-0.3695732057094574,0.14721840620040894,-0.5705476999282837
1777561108867626000,14.5776259765625,-0.5045742988586426,-0.025045456364750862,-0.471587598323822
1777561108886155000,14.596155029296876,-0.5827649831771851,-0.22968515753746033,-0.401949018239975
1777561108904683800,14.614683837890626,-0.6322450637817383,-0.42271843552589417,-0.4202749729156494
1777561108923213000,14.633213134765626,-0.6633991599082947,-0.9022472500801086,-0.500298261642456
1777561108941741800,14.651741943359376,-0.5436696410179138,-0.6420188546180725,-0.3659079968929291
1777561108960270800,14.670270751953124,-0.3176496922969818,-0.11362084746360779,0.2162461280822754
1777561108978799600,14.688799560546874,-0.14721840620040894,0.20830489695072174,0.7476984858512878
1777561108997328600,14.70732861328125,0.06536252796649933,0.018325943499803543,1.0879502296447754
1777561109015857700,14.725857666015624,0.12034036219120026,-0.27855435013771057,1.3164136409759521
1777561109034386700,14.74438671875,0.012217295356094837,-0.337808221578598,1.590080976486206
1777561109052915700,14.762915771484375,-0.07024945318698883,-0.3897317349910736,2.0806055068969727
1777561109071444500,14.781444580078125,0.024434590712189674,-1.3481786251068115,3.073871612548828
1777561109089973500,14.799973388671875,-0.040317077189683914,-2.6694791316986084,4.06225061416626
1777561109108502500,14.81850244140625,-0.19914191961288452,-1.1441497802734375,3.8075201511383057
1777561109127031600,14.837031494140625,0.2620609998703003,2.380540132522583,3.146564483642578
1777561109145560600,14.855560546875,0.6365211009979248,3.338986873626709,2.5894558429718018
1777561109164089300,14.87408935546875,0.6817250847816467,1.6102395057678223,2.0164647102355957
1777561109182618400,14.892618408203125,0.29504770040512085,-1.989586591720581,2.153909206390381
1777561109201147400,14.9111474609375,-0.46486809849739075,-3.336543321609497,3.3964080810546875
1777561109219676400,14.929676513671875,-0.7079922556877136,-4.028653144836426,4.272388458251953
1777561109238205200,14.948205078125,-0.56382817029953,-3.9547386169433594,4.790401458740234
1777561109256734200,14.966734130859376,-0.0256563201546669,-1.3811652660369873,4.370737552642822
1777561109275263200,14.98526318359375,0.4056142270565033,-0.9315688014030457,3.5216355323791504
1777561109293792000,15.0037919921875,0.3078758418560028,-1.9688172340393066,3.6590800285339355
1777561109312321000,15.022321044921876,0.19181154668331146,-2.4287984371185303,4.210690975189209
1777561109330850000,15.04085009765625,0.22968515753746033,-2.5637993812561035,3.9828383922576904
1777561109349379000,15.059379150390624,0.15088360011577606,-2.0500621795654297,3.2198681831359863
1777561109367907800,15.077907958984374,-0.0665842592716217,-1.5375466346740723,2.461174249649048
1777561109386436900,15.096436767578124,-0.1484401375055313,-1.3347395658493042,1.7812817096710205
1777561109404966000,15.1149658203125,0.010995565913617611,-1.1331541538238525,1.0146464109420776
1777561109423495000,15.133494873046875,0.30054548382759094,-0.934012234210968,0.3445277214050293
1777561109442023700,15.152023681640625,0.6517927050590515,-0.7531962990760803,-0.19364413619041443
1777561109460552700,15.170552734375,1.0115920305252075,-0.4819723069667816,-0.6640099883079529
1777561109479081700,15.189081787109375,1.247385859489441,0.06230820715427399,-1.2889246940612793
1777561109497610800,15.20761083984375,1.0567960739135742,0.9266818761825562,-1.1081087589263916
1777561109516139800,15.226139892578125,0.6071996092796326,0.7507528066635132,-0.748920202255249
1777561109534668800,15.244668701171875,1.1722495555877686,-1.4275909662246704,-1.663995623588562
1777561109553197600,15.263197509765625,1.1869102716445923,1.8008294105529785,-1.2608249187469482
1777561109571726600,15.2817265625,0.5790998339653015,-0.9920443892478943,-1.8551963567733765
1777561109590255600,15.300255615234375,0.36712974309921265,0.4563159942626953,-1.8539745807647705
1777561109608784600,15.31878466796875,0.4630354940891266,0.15577052533626556,-2.137415885925293
1777561109627313400,15.3373134765625,0.44959646463394165,0.3439168632030487,-2.322507858276367
1777561109645842400,15.355842529296876,0.4776962697505951,0.6969966888427734,-2.623664140701294
1777561109664371500,15.374371337890626,0.500298261642456,0.9498947262763977,-2.83013653755188
1777561109682900500,15.392900390625,0.49113526940345764,1.2779290676116943,-3.0952517986297607
1777561109701429500,15.411429443359374,0.32559093832969666,1.9486587047576904,-3.4403903484344482
1777561109719958300,15.429958251953124,0.056810423731803894,2.470337152481079,-3.5753915309906006
1777561109738487300,15.4484873046875,-0.08552107214927673,2.7146830558776855,-3.453829526901245
1777561109757016300,15.467016357421874,0.1178968995809555,2.2058327198028564,-3.0866997241973877
1777561109775545300,15.48554541015625,0.2309068888425827,1.5277727842330933,-2.5686864852905273
1777561109794074400,15.504074462890625,0.05925388261675835,1.0751219987869263,-1.8319834470748901
1777561109812603400,15.522603271484375,-0.07147117704153061,0.5748237371444702,-1.2846486568450928
1777561109831132200,15.541132080078125,0.040317077189683914,0.5516108870506287,-1.5100576877593994
1777561109849661200,15.5596611328125,0.2406807243824005,0.5577195286750793,-1.9242240190505981
1777561109868190200,15.578190185546875,0.2309068888425827,0.6328558921813965,-1.979812741279602
1777561109886719200,15.59671923828125,-0.1026252806186676,0.1649334877729416,-1.8393138647079468
1777561109905248300,15.615248291015625,-0.6359102129936218,-0.5992583632469177,-1.4404191970825195
1777561109923777000,15.633777099609375,-0.7959567904472351,-0.7831286191940308,-1.3640609979629517
1777561109942306000,15.65230615234375,-0.34147340059280396,-0.5009090900421143,-1.6957606077194214
1777561109960835000,15.6708349609375,0.24006985127925873,-0.4514290690422058,-1.8228205442428589
1777561109979364000,15.689364013671875,0.2938259541988373,-0.5088503360748291,-1.4031563997268677
1777561109997893000,15.70789306640625,0.12583814561367035,-0.5723803043365479,-1.2180644273757935
1777561110016422100,15.726422119140626,-0.07391463965177536,-0.7385355234146118,-1.1123847961425781
1777561110034951000,15.744950927734376,-0.3298669755458832,-0.36285367608070374,-0.9187406301498413
1777561110053480000,15.76347998046875,-0.4013381600379944,-0.0818558782339096,-0.8979712128639221
1777561110072009000,15.782009033203124,-0.4428769648075104,0.14233149588108063,-0.8796452879905701
1777561110090538000,15.8005380859375,-0.5247328281402588,0.32192572951316833,-0.767857015132904
1777561110109067000,15.81906689453125,-0.4929678738117218,0.4917461574077606,-0.7122683525085449
1777561110127595800,15.837595703125,-0.4263836145401001,0.4410443603992462,-0.7018836140632629
1777561110146125000,15.856125,-0.3231474757194519,0.32070401310920715,-0.8576541543006897
1777561110164653800,15.87465380859375,-0.31520622968673706,0.20647229254245758,-0.915686309337616
1777561110183182800,15.893182861328125,-0.40378162264823914,-0.000610864779446274,-0.6829468011856079
1777561110201711900,15.9117119140625,-0.48930269479751587,-0.2419024556875229,-0.3035998046398163
1777561110220241000,15.930240966796875,-0.41233372688293457,-0.583375871181488,0.046425722539424896
1777561110238770000,15.94877001953125,-0.44348782300949097,-1.0115920305252075,0.5876519083976746
1777561110257298700,15.967298583984375,-0.2932150959968567,-1.1850776672363281,0.9413426518440247
1777561110275827700,15.98582763671875,-0.1026252806186676,-1.12765634059906,1.130099892616272
1777561110294356700,16.004356689453125,-0.07024945318698883,-1.110552191734314,1.7776165008544922
1777561110312885800,16.0228857421875,-0.05192350596189499,-1.1319323778152466,2.5699081420898438
1777561110331414800,16.041414794921874,-0.09162971377372742,-1.5015056133270264,3.4642140865325928
1777561110349943800,16.05994384765625,-0.053145237267017365,-2.1887285709381104,4.007272720336914
1777561110368472800,16.078472900390626,0.037262752652168274,-3.2589635848999023,3.9467973709106445
1777561110387001600,16.097001708984376,0.06780599057674408,-3.4972009658813477,3.663356065750122
1777561110405531000,16.11553076171875,-0.12583814561367035,-2.65970516204834,3.244302749633789
1777561110424059600,16.1340595703125,0.5393936038017273,2.8521275520324707,0.8020654320716858
1777561110442588700,16.152588623046874,0.006719512399286032,-4.704269886016846,3.5827219486236572
1777561110461117700,16.17111767578125,-0.6401863098144531,-3.377471446990967,3.296837329864502
1777561110479646700,16.189646728515626,-0.2809978127479553,-2.4880521297454834,2.916879415512085
1777561110498175700,16.20817578125,-0.043371398001909256,-1.6615521907806396,2.2785255908966064
1777561110516704800,16.226704833984375,-0.164322629570961,-0.8692606091499329,2.3090689182281494
1777561110535233800,16.24523388671875,-0.1905898153781891,-1.3506220579147339,2.7788238525390625
1777561110553762600,16.263762451171875,-0.13194678723812103,-1.998138666152954,2.967581033706665
1777561110572291600,16.28229150390625,0.23518294095993042,-2.447735071182251,2.7818782329559326
1777561110590820600,16.300820556640623,0.9755510687828064,-2.4636175632476807,2.288910388946533
1777561110609349600,16.319349609375,1.4874557256698608,-2.2449281215667725,1.8362594842910767
1777561110627878700,16.337878662109375,1.5992439985275269,-2.207054376602173,1.4129302501678467
1777561110646407700,16.35640771484375,1.5772528648376465,-2.053727388381958,1.0207550525665283
1777561110664936700,16.374936767578124,1.359174132347107,-1.7263038158416748,0.7886264324188232
1777561110683465700,16.3934658203125,1.1991275548934937,-1.3322961330413818,0.49968740344047546
1777561110701994500,16.411994384765624,1.1166608333587646,-1.0671807527542114,0.043371398001909256
1777561110720523800,16.430523681640626,1.0983349084854126,-0.8216131329536438,-0.5088503360748291
1777561110739052500,16.449052490234376,1.1783581972122192,-0.5766563415527344,-1.1215476989746094
1777561110757581600,16.46758154296875,1.2070688009262085,-0.6945532560348511,-1.556483507156372
1777561110776110600,16.486110595703124,1.0787872076034546,-1.212566614151001,-1.728136420249939
1777561110794639600,16.5046396484375,0.6316341757774353,-2.036623239517212,-0.9993748068809509
1777561110813168600,16.523168701171876,0.13439024984836578,-2.18261981010437,1.0574069023132324
1777561110831697700,16.54169775390625,0.4868592321872711,-1.6242893934249878,1.4135410785675049
1777561110850226700,16.560226806640625,0.8118392825126648,-1.9541563987731934,1.395825982093811
1777561110868755700,16.578755615234375,0.8087849617004395,-2.304792881011963,1.665217399597168
1777561110887284700,16.59728466796875,0.9144645929336548,-2.3646576404571533,0.8258891701698303
1777561110905813800,16.615813720703127,1.1404845714569092,-2.2626430988311768,0.16737695038318634
1777561110924342500,16.634342529296877,1.091004490852356,-0.8649845123291016,-0.37323838472366333
1777561110942871800,16.652871826171875,0.555276095867157,0.998153030872345,-1.5381574630737305
1777561110961400600,16.671400634765625,-1.3390156030654907,1.028085470199585,-1.0830632448196411
1777561110979929600,16.6899296875,-1.9651520252227783,-0.2626718580722809,-0.6456840634346008
1777561110998458600,16.708458740234374,-0.7086031436920166,-1.2003493309020996,-0.5540543794631958
1777561111016987600,16.726987548828124,0.1490510106086731,-0.47036588191986084,-1.255937933921814
1777561111035516700,16.7455166015625,0.12644900381565094,0.9474512934684753,-2.2901320457458496
1777561111054045700,16.764045654296876,0.15821397304534912,1.2809834480285645,-2.5216498374938965
1777561111072574700,16.78257470703125,0.16187916696071625,0.03848448023200035,-1.6914845705032349
1777561111091103700,16.801103759765624,0.26450446248054504,-1.2003493309020996,-1.2119556665420532
1777561111109632800,16.8196328125,0.5864301919937134,-0.9071341753005981,-1.4013237953186035
1777561111128161800,16.838161865234376,0.915686309337616,-0.471587598323822,-1.7305799722671509
1777561111146690800,16.85669091796875,1.2089014053344727,-0.29077163338661194,-1.7208061218261719
1777561111165219800,16.8752197265625,0.9517273306846619,-0.18203771114349365,-1.5968005657196045
1777561111183748900,16.893748779296875,0.5442805290222168,-0.33108872175216675,-1.6151264905929565
1777561111202278000,16.91227783203125,0.268169641494751,-0.721431314945221,-1.588248372077942
1777561111220807000,16.930806884765627,-0.08918625861406326,-0.6560688018798828,-1.4556907415390015
1777561111239336000,16.9493359375,-0.2315177470445633,-0.5668824911117554,-1.5070034265518188
1777561111257865000,16.967864990234375,-0.21991132199764252,-0.5668824911117554,-1.32985258102417
1777561111276394000,16.98639404296875,-0.19853104650974274,0.03481929376721382,-1.007315993309021
1777561111294923000,17.004923095703123,-0.19853104650974274,0.8093958497047424,-0.7892373204231262
1777561111313452000,17.0234521484375,-0.3133736252784729,0.3249800503253937,-0.84177166223526
1777561111331981000,17.04198095703125,-0.5326740741729736,-0.8295543789863586,-1.072678565979004
1777561111350509800,17.060509765625,-0.5400044918060303,-0.9816597104072571,-0.9773836731910706
1777561111369039000,17.0790390625,-0.5174024701118469,-0.34208428859710693,-0.749531090259552
1777561111387568000,17.097568115234374,-0.3176496922969818,0.08063415437936783,-0.6163625717163086
1777561111406097000,17.116096923828124,-0.010384701192378998,0.33597561717033386,-0.5400044918060303
1777561111424626200,17.134626220703126,0.08796452730894089,0.5045742988586426,-0.45875945687294006
1777561111443155000,17.153155029296876,-0.3127627670764923,0.017104214057326317,-0.2370155304670334
1777561111461684200,17.171684326171874,-0.7440332770347595,-1.0390809774398804,0.1185077652335167
1777561111480213200,17.190213134765624,-0.6414080262184143,-1.5314379930496216,0.20891575515270233
1777561111498742000,17.208741943359374,-0.3481929302215576,-1.3225222826004028,0.21441353857517242
1777561111517271300,17.227271240234376,-0.17592905461788177,-0.6438514590263367,0.32559093832969666
1777561111535800000,17.245800048828126,0.20952661335468292,-0.4410443603992462,0.9077450633049011
1777561111554329000,17.2643291015625,0.23212862014770508,-1.2999202013015747,1.951712965965271
1777561111582122800,17.292122802734376,-0.01649334840476513,-3.0970845222473145,3.1832163333892822
1777561111600651800,17.31065185546875,-0.10629047453403473,-3.561952590942383,3.9052584171295166
1777561111619180800,17.329180908203124,-0.04886918142437935,-2.9516985416412354,4.183201789855957
1777561111637709800,17.347709716796874,0.029932374134659767,-2.2388193607330322,4.067137718200684
1777561111656238800,17.36623876953125,-0.06902772188186646,-1.591302752494812,3.942521333694458
1777561111674768000,17.384767822265626,-0.16187916696071625,-1.0482439994812012,3.791637659072876
1777561111693297000,17.403296875,-0.11728604137897491,-1.6475023031234741,3.4471099376678467
1777561111721090600,17.431090576171876,-0.3237583339214325,-2.6529858112335205,3.160614252090454
1777561111739619600,17.44961962890625,-0.17348559200763702,-1.8710788488388062,3.090364933013916
1777561111758148400,17.4681484375,0.618806004524231,-0.06536252796649933,3.4935357570648193
1777561111776677600,17.486677734375,0.6884446144104004,-0.3249800503253937,4.025599002838135
1777561111795206700,17.50520654296875,0.6163625717163086,-3.29744815826416,4.411665439605713
1777561111813735700,17.523735595703126,1.1954623460769653,-4.546666622161865,5.1037750244140625
1777561111832264700,17.5422646484375,1.561981201171875,-3.9333584308624268,5.711585521697998
1777561111850793700,17.560793701171875,1.1661409139633179,-3.9248061180114746,5.528937339782715
1777561111869322800,17.57932275390625,0.8655954003334045,-4.081187725067139,4.828886032104492
1777561111887851800,17.597851806640627,0.6719512343406677,-3.559509038925171,4.274831771850586
1777561111906380800,17.616380859375,0.48991355299949646,-2.4098615646362305,3.665799617767334
1777561111924909800,17.634909912109375,0.637742817401886,-1.2815942764282227,2.905272960662842
1777561111943438800,17.65343896484375,0.9932661056518555,-0.7195987105369568,2.403141975402832
1777561111961967900,17.6719677734375,1.3811652660369873,-0.6603448390960693,1.9694280624389648
1777561111980497000,17.690496826171874,1.6530001163482666,-0.896138608455658,1.4898991584777832
1777561111999026000,17.70902587890625,1.8222095966339111,-1.1068869829177856,1.0494656562805176
1777561112017555000,17.727554931640626,1.9101741313934326,-1.2272273302078247,0.7250964641571045
1777561112036084000,17.746083984375,2.0103559494018555,-0.9877683520317078,0.40378162264823914
1777561112054613000,17.764613037109374,2.061668634414673,-0.6896663308143616,-0.24984370172023773
1777561112073142000,17.78314208984375,2.2559237480163574,-0.6823359727859497,-1.2351685762405396
1777561112091671300,17.80167138671875,2.0054690837860107,-0.45448338985443115,-0.9016364216804504
1777561112110200000,17.820199951171876,1.8478659391403198,-0.3952295184135437,-0.6017017960548401
1777561112128729000,17.83872900390625,1.8197661638259888,-0.48563748598098755,-1.3683371543884277
1777561112147258400,17.85725830078125,1.29503333568573,1.1209368705749512,-2.2308781147003174
1777561112165787400,17.875787353515626,0.7324268817901611,0.9498947262763977,-2.1868958473205566
1777561112184316400,17.89431640625,0.9938769936561584,1.3377938270568848,-2.395200729370117
1777561112202845400,17.912845458984375,0.9486730098724365,2.439793825149536,-3.0353870391845703
1777561112221374500,17.93137451171875,0.8429933786392212,2.483776092529297,-3.3322672843933105
1777561112239903500,17.949903564453123,0.4874700903892517,2.450789451599121,-3.841728687286377
1777561112258432500,17.9684326171875,-0.24373504519462585,3.350593328475952,-4.423882961273193
1777561112276961500,17.98696142578125,-1.1490366458892822,3.8576111793518066,-4.2711663246154785
1777561112295490600,18.005490478515625,-1.4850122928619385,3.0830345153808594,-3.3744170665740967
1777561112314019800,18.024019775390624,-1.0861176252365112,1.4007129669189453,-2.117868185043335
1777561112332548900,18.042548828125,-0.6896663308143616,-0.14110976457595825,-1.571755051612854
1777561112351077600,18.06107763671875,-0.06780599057674408,-0.35613417625427246,-1.9523237943649292
1777561112369607000,18.07960693359375,0.7092140316963196,1.0439679622650146,-2.576627731323242
1777561112388136000,18.098135986328124,1.2968659400939941,1.2205078601837158,-3.0359978675842285
1777561112406691600,18.116691650390624,1.3573415279388428,1.1911863088607788,-2.8466298580169678
1777561112425194000,18.135194091796876,1.0060943365097046,1.1911863088607788,-1.8057162761688232
1777561112443723000,18.153722900390626,0.667064368724823,1.0604612827301025,-1.712864875793457
1777561112462252000,18.172251953125,0.41783151030540466,0.18631376326084137,-1.8044945001602173
1777561112480781300,18.19078125,0.12705987691879272,-0.3274235129356384,-1.6627739667892456
1777561112499310300,18.209310302734377,-0.17104214429855347,-0.17592905461788177,-1.4550799131393433
1777561112517839400,18.22783935546875,-0.1899789422750473,0.2926042377948761,-1.3420698642730713
1777561112536368400,18.246368408203125,-0.16249002516269684,0.546113133430481,-1.2895355224609375
1777561112554897400,18.2648974609375,-0.25961753726005554,0.4728093445301056,-1.2382229566574097
1777561112573426400,18.283426513671873,-0.30054548382759094,0.3549124300479889,-1.1172716617584229
1777561112591955500,18.30195556640625,-0.3543015718460083,0.3897317349910736,-1.035415768623352
1777561112610484700,18.320484619140625,-0.41416633129119873,0.2706131041049957,-0.822834849357605
1777561112629013800,18.339013671875,-0.40927940607070923,0.12950333952903748,-0.6713404059410095
1777561112647542800,18.357542724609374,-0.4324922561645508,-0.029932374134659767,-0.4685332775115967
1777561112666071800,18.37607177734375,-0.5913171172142029,-0.5925388336181641,-0.24740023910999298
1777561112684600800,18.394600830078126,-0.35735589265823364,-0.41783151030540466,0.037262752652168274
1777561112703130000,18.413130126953124,-0.12278381735086441,0.16676609218120575,0.5564978122711182
1777561112721659100,18.4316591796875,0.08857539296150208,0.020769402384757996,1.100778341293335
1777561112740188200,18.450188232421876,0.09712749719619751,-0.411722868680954,1.5931353569030762
1777561112758717200,18.46871728515625,0.06963858753442764,-0.9315688014030457,2.084881544113159
1777561112777246200,18.48724609375,-0.05497783049941063,-1.1606431007385254,2.59312105178833
1777561112795775200,18.505775146484375,-0.07941242307424545,-1.8179335594177246,3.3762495517730713
1777561112814304500,18.524304443359377,-0.18081597983837128,-2.5558581352233887,4.283994674682617
1777561112832833500,18.54283349609375,-0.3292561173439026,-1.268766164779663,4.52650785446167
1777561112851362600,18.561362548828125,-0.039706211537122726,0.9669989347457886,3.8576111793518066
1777561112869891600,18.5798916015625,0.37751442193984985,1.4422518014907837,2.9156575202941895
1777561112888420900,18.5984208984375,0.3451386094093323,0.3543015718460083,2.1392483711242676
1777561112906950000,18.616949951171875,0.34086254239082336,-0.4825831651687622,1.916893720626831
1777561112925479000,18.63547900390625,0.29016077518463135,-1.063515543937683,3.073871612548828
1777561112944008200,18.65400830078125,-0.009162971749901772,-3.0610435009002686,4.197251796722412
1777561112962537200,18.672537109375,-0.07269290834665298,-4.191754341125488,4.490467071533203
1777561112981066200,18.691066162109376,0.0824667438864708,-2.813643217086792,4.14716100692749
1777561112999595500,18.709595458984374,0.24740023910999298,-1.9926408529281616,3.7336056232452393
1777561113018124500,18.72812451171875,0.49052441120147705,-1.5540399551391602,3.4972009658813477
1777561113036653600,18.746653564453126,0.4459312856197357,-1.665217399597168,3.2339181900024414
1777561113055182800,18.765182861328125,0.328645259141922,-1.9193371534347534,2.869842767715454
1777561113073711900,18.7837119140625,0.2938259541988373,-1.7146974802017212,2.3261730670928955
1777561113092241000,18.802240966796877,0.2205221801996231,-1.454469084739685,1.6756020784378052
1777561113110770000,18.82077001953125,0.18264856934547424,-1.0763437747955322,0.9596685767173767
1777561113129299200,18.83929931640625,0.3121519088745117,-0.7086031436920166,0.17898337543010712
1777561113147828200,18.857828125,0.5198459029197693,-0.4569268524646759,-0.6407971382141113
1777561113166357500,18.876357421875,0.8338304162025452,-0.3488037884235382,-1.6084070205688477
1777561113184886500,18.894886474609375,1.000596523284912,-0.26878049969673157,-2.302349328994751
1777561113203415600,18.91341552734375,0.26511532068252563,1.1044435501098633,-0.9071341753005981
1777561113221944800,18.93194482421875,0.9144645929336548,-2.0909900665283203,-2.727511167526245
1777561113240473900,18.950473876953126,0.6145299673080444,2.9211554527282715,-2.146578788757324
1777561113259003100,18.969003173828124,0.6878337264060974,-0.1331685185432434,-2.4049746990203857
1777561113277532200,18.9875322265625,0.3659079968929291,0.11972949653863907,-1.682321548461914
1777561113296061200,19.006061279296876,0.4465421438217163,0.5668824911117554,-1.9339978694915771
1777561113314590500,19.024590576171875,0.4422661066055298,1.2418880462646484,-2.2730278968811035
1777561113333119700,19.04311962890625,0.2510654330253601,1.2644901275634766,-2.525925874710083
1777561113351648800,19.061648681640627,0.015271619893610477,1.6102395057678223,-2.99751353263855
1777561113370177800,19.080177734375,-0.19181154668331146,2.3823726177215576,-3.7097818851470947
1777561113388707000,19.09870703125,-0.3909534513950348,3.232696294784546,-3.984670877456665
1777561113407236000,19.117236083984373,-0.20708316564559937,2.73850679397583,-3.1978771686553955
1777561113425765400,19.135765380859375,0.2565632164478302,1.2217295169830322,-1.8515311479568481
1777561113444294400,19.15429443359375,0.26511532068252563,0.2981020212173462,-1.442862629890442
1777561113472088300,19.18208837890625,0.3995055556297302,0.7244856357574463,-1.9260566234588623
1777561113490617300,19.200617431640627,0.8246674537658691,1.6688826084136963,-2.193004608154297
1777561113509146600,19.219146728515625,1.1728603839874268,1.7989968061447144,-2.2736387252807617
1777561113527675600,19.237675537109375,0.8991929292678833,1.5870267152786255,-2.0268492698669434
1777561113546205000,19.256204833984373,0.16126830875873566,1.164919137954712,-1.609628677368164
1777561113564734200,19.274734130859375,-0.13561198115348816,0.45875945687294006,-1.5296053886413574
1777561113583263200,19.29326318359375,0.07391463965177536,0.4508182108402252,-1.7623448371887207
1777561113601792500,19.31179248046875,0.16737695038318634,0.7006618976593018,-1.6169590950012207
1777561113620321500,19.330321533203126,0.039706211537122726,0.5900954008102417,-1.2693769931793213
1777561113638850800,19.348850830078124,-0.018325943499803543,0.37751442193984985,-1.2510510683059692
1777561113657379800,19.3673798828125,-0.07147117704153061,0.25045454502105713,-1.117882490158081
1777561113675909000,19.3859091796875,-0.16126830875873566,0.3689623177051544,-0.9175189137458801
1777561113694438100,19.404438232421874,-0.24740023910999298,0.28588470816612244,-0.6456840634346008
1777561113712967400,19.422967529296876,-0.3090975880622864,0.23396120965480804,-0.3194822669029236
1777561113731496700,19.44149658203125,-0.3958403766155243,0.08307760953903198,-0.1288924664258957
1777561113750026000,19.46002587890625,-0.5674933791160583,-0.03176496922969818,-0.23335035145282745
1777561113768555000,19.478554931640623,-0.6078104376792908,-0.1337793916463852,-0.38301220536231995
1777561113787084300,19.497084228515625,-0.4831940531730652,-0.3280344009399414,-0.462424635887146
1777561113805613600,19.515613525390624,-0.2461785078048706,0.03481929376721382,-0.09285144507884979
1777561113824142600,19.534142578125,-0.0409279391169548,0.13439024984836578,0.4269944727420807
1777561113842671900,19.552671875,-0.006719512399286032,-0.043371398001909256,0.8356630206108093
1777561113861201200,19.571201171875,0.027488915249705315,-0.45326167345046997,1.1716386079788208
1777561113879730200,19.589730224609376,-0.02626718580722809,-0.5699368119239807,1.524107575416565
1777561113898259500,19.608259521484374,-0.12950333952903748,-0.8069523572921753,2.1361942291259766
1777561113916788700,19.626788818359376,-0.17104214429855347,-1.5143338441848755,3.0305001735687256
1777561113935318000,19.645318115234375,-0.35735589265823364,-2.3365578651428223,4.064694404602051
1777561113953847000,19.663846923828125,-0.6603448390960693,-1.33290696144104,4.397615432739258
1777561113972376300,19.682376220703127,-0.3585776388645172,1.5906919240951538,4.017046928405762
1777561113990905600,19.700905517578125,-0.22846342623233795,2.579681873321533,3.6419758796691895
1777561114009435000,19.719434814453123,-0.4196641147136688,0.7483093738555908,2.8735079765319824
1777561114027964000,19.7379638671875,-0.44409868121147156,-0.842382550239563,2.578460216522217
1777561114055757800,19.7657578125,-0.6462949514389038,-3.5222463607788086,3.3915212154388428
1777561114074287000,19.784287109375,-0.6420188546180725,-4.039037704467773,4.814225196838379
1777561114092816400,19.80281640625,-0.3194822669029236,-1.2290599346160889,5.17402458190918
1777561114111345700,19.821345703125,0.04214967042207718,-0.47036588191986084,3.4135124683380127
1777561114129875000,19.839875,0.16004657745361328,-1.5668681859970093,3.2253661155700684
1777561114148404200,19.858404296875,0.14233149588108063,-2.12886381149292,3.6835145950317383
1777561114166933200,19.876933349609374,0.28405213356018066,-2.0182971954345703,3.1954336166381836
1777561114185462500,19.895462646484376,0.16249002516269684,-1.7812817096710205,2.486830472946167
1777561114203991800,19.91399169921875,0.04581485688686371,-1.3988803625106812,1.8655810356140137
1777561114231785700,19.94178564453125,0.07635809481143951,-0.8203914165496826,0.8350521326065063
1777561114250315000,19.96031494140625,0.21502439677715302,-0.5149590373039246,0.040317077189683914
1777561114268844300,19.97884423828125,0.5186241865158081,-0.2834412455558777,-0.8393282294273376
1777561114287373600,19.99737353515625,0.8900299668312073,-0.018325943499803543,-1.9181153774261475
1777561114305902800,20.01590283203125,0.7379246354103088,0.4477638900279999,-2.0628902912139893
1777561114324432100,20.03443212890625,0.1545487940311432,0.48013970255851746,-1.0903936624526978
1777561114342961400,20.05296142578125,0.7440332770347595,-1.3371829986572266,-2.230267286300659
1777561114361490400,20.071490478515624,0.6175842881202698,2.393979072570801,-2.014631986618042
1777561114380019700,20.090019775390626,0.6530144214630127,-0.18325942754745483,-1.775783896446228
1777561114398549000,20.108549072265625,0.5253437161445618,-0.1533270627260208,-1.6279546022415161
1777561114417078300,20.127078369140627,0.7183769941329956,0.4776962697505951,-2.089768409729004
1777561114435607600,20.145607666015625,0.657290518283844,0.8203914165496826,-2.2259912490844727
1777561114454136800,20.16413671875,0.4868592321872711,1.164919137954712,-2.573573350906372
1777561114472666000,20.182666015625,0.3860665261745453,1.7550145387649536,-3.098306179046631
1777561114491195400,20.2011953125,0.10018182545900345,2.6896376609802246,-3.7317728996276855
1777561114509724700,20.219724609375,-0.37812530994415283,3.6315910816192627,-4.0304856300354
1777561114528254000,20.23825390625,-0.3811796307563782,3.3096654415130615,-3.4886486530303955
1777561114546783500,20.256783447265626,0.14721840620040894,1.313359260559082,-2.1612396240234375
1777561114565312800,20.275312744140624,0.45509424805641174,0.14538581669330597,-1.635895848274231
1777561114583841800,20.293841796875,0.48502662777900696,0.6316341757774353,-1.9901974201202393
1777561114602371300,20.312371337890625,0.7812960743904114,1.6322306394577026,-2.1587960720062256
1777561114620900600,20.330900634765626,1.268766164779663,2.452622175216675,-2.355494499206543
1777561114639430000,20.349429931640625,1.3548980951309204,2.1282529830932617,-2.3591597080230713
1777561114657959200,20.367959228515623,0.8491020202636719,1.3487894535064697,-1.9792019128799438
1777561114676488400,20.386488525390625,-0.014660755172371864,0.33658650517463684,-1.472795009613037
1777561114695017700,20.405017822265624,-0.2260199636220932,-0.16187916696071625,-1.4508038759231567
1777561114713547000,20.423547119140625,0.16554436087608337,0.4373791813850403,-1.654221773147583
1777561114732076300,20.442076171875,0.2834412455558777,0.8057306408882141,-1.3891065120697021
1777561114750605800,20.460605712890626,0.039706211537122726,0.37812530994415283,-1.1123847961425781
1777561114769135000,20.479135009765624,-0.03909534588456154,0.029932374134659767,-1.043357014656067
1777561114787664400,20.497664306640626,-0.07147117704153061,-0.09896009415388107,-0.998153030872345
1777561114815458300,20.525458251953125,-0.22968515753746033,0.01954767294228077,-0.6603448390960693
1777561114833987600,20.543987548828124,-0.37201663851737976,-0.07880155742168427,-0.5186241865158081
1777561114852517000,20.56251708984375,-0.4972439408302307,-0.27977606654167175,-0.42943793535232544
1777561114871046400,20.58104638671875,-0.5106829404830933,-0.22296564280986786,-0.33658650517463684
1777561114889575700,20.59957568359375,-0.5430588126182556,-0.3634645342826843,-0.3536907136440277
1777561114908105000,20.61810498046875,-0.6322450637817383,-0.34208428859710693,-0.4214966893196106
1777561114926634200,20.63663427734375,-0.720820426940918,-0.6646208763122559,-0.35735589265823364
1777561114945163800,20.655163818359377,-0.481361448764801,-0.6291907429695129,-0.18203771114349365
1777561114963693000,20.673693115234375,-0.21135921776294708,0.020158538594841957,0.30054548382759094
1777561114982222300,20.692222412109373,-0.02871064469218254,0.3335321843624115,0.7812960743904114
1777561115000751600,20.710751708984375,0.03298669680953026,0.02260199747979641,1.1184934377670288
1777561115019281200,20.72928125,0.09040798991918564,-0.4251618981361389,1.533881425857544
1777561115037810400,20.747810546875,0.1545487940311432,-0.4612029194831848,2.072664260864258
1777561115056339700,20.766339599609374,0.1441640853881836,-0.4825831651687622,2.5656321048736572
1777561115074869000,20.784868896484376,0.027488915249705315,-0.8258891701698303,2.998124361038208
1777561115093398500,20.8033984375,-0.11667517572641373,-1.1698060035705566,3.5723371505737305
1777561115111927800,20.821927734375,-0.2254091054201126,-0.462424635887146,3.9883360862731934
1777561115130457000,20.84045703125,-0.13500112295150757,1.5809180736541748,3.710392713546753
1777561115148986600,20.858986572265625,0.056810423731803894,2.1985023021698,2.8765623569488525
1777561115167516000,20.877515869140623,0.20341797173023224,0.8717040419578552,2.204000234603882
1777561115186045200,20.896045166015625,0.2822195291519165,-0.7354812026023865,1.9089524745941162
1777561115204574700,20.91457470703125,0.05192350596189499,-1.8771874904632568,2.6841397285461426
1777561115223104000,20.93310400390625,-0.268169641494751,-3.9712319374084473,4.070191860198975
1777561115241633300,20.95163330078125,-0.29993459582328796,-3.9810056686401367,5.27481746673584
1777561115260162800,20.970162841796874,-0.09529490768909454,-2.0018038749694824,4.506960391998291
1777561115278692000,20.988692138671876,0.19120067358016968,-1.3555089235305786,3.2003204822540283
1777561115297221400,21.007221435546874,0.21197007596492767,-1.747684121131897,3.274235248565674
1777561115315751000,21.0257509765625,0.18081597983837128,-1.7220277786254883,3.423286199569702
1777561115334280200,21.0442802734375,0.22663083672523499,-1.5412118434906006,2.844797372817993
1777561115352809700,21.062809814453125,0.12095122784376144,-1.4556907415390015,2.051283836364746
1777561115371339000,21.081339111328123,0.05803215503692627,-1.1856884956359863,1.3561197519302368
1777561115389868300,21.099868408203125,0.16310089826583862,-0.7837395071983337,0.6792816519737244
1777561115408397800,21.118397705078124,0.3396408259868622,-0.4923570156097412,-0.10201441496610641
1777561115426927000,21.136927001953126,0.6120865345001221,-0.15027274191379547,-0.9877683520317078
1777561115445456400,21.155456298828124,0.8570432662963867,0.10140355676412582,-2.0751075744628906
1777561115463986000,21.17398583984375,0.5589412450790405,0.24740023910999298,-2.1032073497772217
1777561115482515500,21.192515380859376,0.3433060050010681,0.45326167345046997,-1.8625266551971436
1777561115501044700,21.211044677734375,0.5009090900421143,-0.7794634699821472,-2.061668634414673
1777561115519574000,21.229573974609377,0.7696896195411682,1.4624103307724,-2.224158763885498
1777561115538103600,21.248103515625,0.46975502371788025,0.06230820715427399,-1.7989968061447144
1777561115556632800,21.2666328125,0.06352993845939636,-0.09529490768909454,-1.7091996669769287
1777561115575162000,21.285162109375,0.001832594396546483,0.6554579138755798,-2.1899502277374268
1777561115593691600,21.303691650390626,-0.09529490768909454,1.1661409139633179,-2.392146587371826
1777561115612221200,21.32222119140625,-0.22479823231697083,1.5179989337921143,-2.8099780082702637
1777561115630750500,21.34075048828125,-0.2828303873538971,1.515555500984192,-3.2113161087036133
1777561115649280000,21.359280029296876,-0.3530798554420471,2.221104383468628,-3.5973827838897705
1777561115667809300,21.377809326171874,-0.5998691916465759,3.040273904800415,-3.6755733489990234
1777561115686338600,21.396338623046876,-0.0054977829568088055,2.3115122318267822,-2.9547529220581055
1777561115704868000,21.4148681640625,0.8448259830474854,0.4465421438217163,-2.0354013442993164
1777561115723397600,21.433397705078125,0.7073814272880554,0.472198486328125,-1.9376630783081055
1777561115741927000,21.451927001953123,0.748920202255249,1.4282019138336182,-2.011577606201172
1777561115760456400,21.47045654296875,1.0317505598068237,1.7415754795074463,-1.9718714952468872
1777561115778985700,21.48898583984375,1.2748748064041138,1.7397428750991821,-2.0445644855499268
1777561115797515300,21.507515380859374,0.9584468603134155,1.4172062873840332,-2.0861032009124756
1777561115816044500,21.52604443359375,0.3133736252784729,0.6719512343406677,-1.7238603830337524
1777561115834574000,21.544573974609374,-0.1899789422750473,0.370184063911438,-1.472795009613037
1777561115853103400,21.563103271484376,-0.14233149588108063,0.6786707639694214,-1.472795009613037
1777561115871633000,21.5816328125,0.25900667905807495,1.063515543937683,-1.571755051612854
1777561115890162200,21.600162109375,0.27550002932548523,0.685390293598175,-1.3726131916046143
1777561115908691700,21.618691650390623,0.03909534588456154,0.18753549456596375,-1.0946696996688843
1777561115927221000,21.637220947265625,0.029932374134659767,0.04581485688686371,-0.9773836731910706
1777561115945750500,21.65575048828125,0.07819069176912308,0.24740023910999298,-0.8655954003334045
1777561115964279800,21.67427978515625,-0.025045456364750862,0.2987128794193268,-0.7452550530433655
1777561115982809300,21.692809326171876,-0.2156352698802948,0.22968515753746033,-0.6078104376792908
1777561116001339000,21.7113388671875,-0.3078758418560028,0.2510654330253601,-0.5369501113891602
1777561116019868200,21.7298681640625,-0.42088583111763,-0.06291907280683517,-0.4508182108402252
1777561116038397700,21.748397705078126,-0.5283980369567871,-0.3042106628417969,-0.4361574649810791
1777561116056927200,21.76692724609375,-0.49113526940345764,-0.12217295914888382,-0.564439058303833
1777561116075456500,21.78545654296875,-0.41355544328689575,-0.24251331388950348,-0.6695078015327454
1777561116093986000,21.803986083984373,-0.35735589265823364,-0.5858193039894104,-0.7354812026023865
1777561116112515600,21.822515625,-0.21135921776294708,-0.22235478460788727,-0.4361574649810791
1777561116131044900,21.841044921875,-0.12522727251052856,0.047036588191986084,0.19303326308727264
1777561116149574400,21.859574462890624,-0.19792018830776215,-0.24984370172023773,0.6230821013450623
1777561116168103700,21.878103759765626,-0.22785256803035736,-0.6835576891899109,0.8894191384315491
1777561116186633200,21.89663330078125,-0.23273947834968567,-0.6304124593734741,1.331685185432434
1777561116205162800,21.915162841796874,-0.27488914132118225,-0.49541133642196655,1.7989968061447144
1777561116223692000,21.933692138671876,-0.287106454372406,-0.5430588126182556,2.2559237480163574
1777561116242221600,21.9522216796875,-0.1026252806186676,-1.2107340097427368,2.9217662811279297
1777561116260751000,21.970751220703125,-0.10506874322891235,-2.598618745803833,3.7586510181427
1777561116279280400,21.9892802734375,-0.3555232882499695,-2.243706226348877,4.1508259773254395
1777561116297810000,22.007809814453125,-0.17715078592300415,1.081230640411377,3.8044657707214355
1777561116316339200,22.026339111328124,0.258395791053772,2.699411392211914,3.0469934940338135
1777561116334868700,22.04486865234375,0.20219624042510986,1.4092650413513184,2.067777395248413
1777561116353398300,22.063398193359376,0.12400554865598679,-0.27855435013771057,1.8270965814590454
1777561116371927600,22.081927490234374,0.028099779039621353,-0.7073814272880554,2.9797983169555664
1777561116390457000,22.10045703125,-0.2889390289783478,-3.0408849716186523,4.222908020019531
1777561116408986600,22.118986572265626,-0.536339282989502,-4.751306056976318,4.892416000366211
1777561116427516000,22.137515869140625,-0.287106454372406,-2.27424955368042,4.68411111831665
1777561116446045400,22.15604541015625,0.2309068888425827,-0.7006618976593018,3.665188789367676
1777561116464575000,22.174574951171873,0.4373791813850403,-0.8796452879905701,3.3567018508911133
1777561116483104500,22.1931044921875,0.4886918365955353,-1.1600322723388672,3.556454658508301
1777561116501633800,22.2116337890625,0.48502662777900696,-1.469740629196167,3.484372615814209
1777561116520163300,22.230163330078124,0.4508182108402252,-1.7006475925445557,3.0439391136169434
1777561116538692900,22.24869287109375,0.2419024556875229,-1.6725478172302246,2.134361505508423
1777561116557222100,22.26722216796875,0.17043127119541168,-1.362228512763977,1.4080432653427124
1777561116575751700,22.285751708984375,0.28466299176216125,-1.0390809774398804,0.7281508445739746
1777561116594281200,22.30428125,0.5351175665855408,-0.7195987105369568,-0.059864748269319534
1777561116612810500,22.322810546875,0.8594867587089539,-0.4819723069667816,-0.963333785533905
1777561116631340000,22.341340087890625,1.240666389465332,-0.2052505612373352,-2.0500621795654297
1777561116649869600,22.35986962890625,1.229670763015747,0.6120865345001221,-2.0134103298187256
1777561116668399000,22.378399169921874,0.08002328872680664,0.185092031955719,-1.211344838142395
1777561116686928400,22.396928466796876,0.5528326034545898,-1.5406010150909424,-1.7745622396469116
1777561116705458000,22.4154580078125,1.1490366458892822,1.4361430406570435,-1.3347395658493042
1777561116723987500,22.433987548828124,0.22663083672523499,-1.3390156030654907,-1.4929535388946533
1777561116742516700,22.452516845703126,0.32559093832969666,0.3799578845500946,-1.740964651107788
1777561116761046300,22.47104638671875,0.37690356373786926,0.7360920310020447,-2.178954601287842
1777561116779575800,22.489575927734375,0.07941242307424545,1.1777472496032715,-2.6309945583343506
1777561116798105300,22.508105224609373,0.053756099194288254,1.7165300846099854,-3.101971387863159
1777561116816634600,22.526634521484375,0.006719512399286032,1.860694169998169,-3.4275622367858887
1777561116835164200,22.5451640625,-0.08063415437936783,2.506989002227783,-3.923584461212158
1777561116853693700,22.563693603515624,-0.3646862804889679,3.1392340660095215,-3.8789913654327393
1777561116872223200,22.58222314453125,-0.3610210716724396,2.8319690227508545,-3.190546751022339
1777561116890752800,22.600752685546876,-0.08491020649671555,1.288313865661621,-2.12886381149292
1777561116909282000,22.619281982421874,0.15699224174022675,0.38179048895835876,-1.5265511274337769
1777561116927811600,22.6378115234375,0.4361574649810791,0.6010909676551819,-1.6670500040054321
1777561116946341000,22.656341064453127,0.7794634699821472,1.2773182392120361,-2.1551308631896973
1777561116964870700,22.67487060546875,1.064737319946289,1.2858703136444092,-2.1447463035583496
1777561116983400000,22.69339990234375,0.9877683520317078,1.4062107801437378,-1.9950844049453735
1777561117001929500,22.711929443359374,0.535728394985199,1.2076796293258667,-1.9327762126922607
1777561117020459000,22.730458984375,0.039706211537122726,0.29504770040512085,-1.6041308641433716
1777561117038988500,22.748988525390626,-0.4043924808502197,-0.33047783374786377,-1.275485634803772
1777561117057518000,22.76751806640625,-0.24373504519462585,0.08124501258134842,-1.2925899028778076
1777561117076047400,22.78604736328125,0.185092031955719,0.7990111112594604,-1.4282019138336182
1777561117094577000,22.804576904296876,0.1637117564678192,0.6163625717163086,-1.2137882709503174
1777561117113106400,22.8231064453125,-0.09834922850131989,0.1948658674955368,-1.0195332765579224
1777561117131636000,22.841635986328125,-0.15088360011577606,0.03787361457943916,-0.9138537049293518
1777561117150165200,22.860165283203123,-0.12156209349632263,0.05864302068948746,-0.8545998334884644
1777561117168694800,22.87869482421875,-0.22235478460788727,0.2364046722650528,-0.80389803647995
1777561117187224300,22.897224365234376,-0.37812530994415283,0.1380554437637329,-0.6316341757774353
1777561117205753900,22.91575390625,-0.47586366534233093,-0.056810423731803894,-0.48013970255851746
1777561117224283400,22.934283447265624,-0.46547895669937134,0.03176496922969818,-0.3433060050010681
1777561117242813000,22.95281298828125,-0.4862483739852905,0.02626718580722809,-0.18692462146282196
1777561117261342200,22.97134228515625,-0.5729911923408508,-0.05864302068948746,-0.1948658674955368
1777561117279871700,22.989871826171875,-0.526565432548523,-0.3964512348175049,-0.3909534513950348
1777561117298401300,23.0084013671875,-0.4098902642726898,-0.22479823231697083,-0.4257727563381195
1777561117316930800,23.026930908203123,-0.23823726177215576,0.22907429933547974,-0.07513637095689774
1777561117335460400,23.04546044921875,-0.24312418699264526,0.2974911332130432,0.4147771894931793
1777561117353990000,23.063989990234376,-0.1899789422750473,-0.16737695038318634,0.6719512343406677
1777561117372519400,23.08251953125,-0.1588248461484909,-0.46608981490135193,0.8203914165496826
1777561117391048700,23.101048583984376,-0.09285144507884979,-0.3995055556297302,1.072678565979004
1777561117409578200,23.119578125,-0.10323614627122879,-0.3066541254520416,1.442862629890442
1777561117428107800,23.138107666015625,-0.06902772188186646,-0.3341430425643921,1.9547673463821411
1777561117446637300,23.15663720703125,0.10751219838857651,-1.1111630201339722,2.746448040008545
1777561117465166600,23.17516650390625,0.12156209349632263,-2.2644758224487305,3.646862745285034
1777561117483696400,23.1936962890625,-0.056810423731803894,-1.4953969717025757,4.087907314300537
1777561117502225700,23.2122255859375,0.09651663154363632,1.8704679012298584,3.760483503341675
1777561117520755200,23.230755126953124,0.22418737411499023,2.9303183555603027,3.188103199005127
1777561117539284700,23.24928466796875,0.001221729558892548,1.1343759298324585,2.44468092918396
1777561117557814300,23.267814208984376,0.024434590712189674,-0.8973603844642639,2.2809691429138184
1777561117576343800,23.28634375,-0.09529490768909454,-2.4746131896972656,2.9382596015930176
1777561117594873300,23.304873291015625,-0.40866854786872864,-5.003593444824219,4.338972568511963
1777561117613402600,23.323402587890627,-0.31031930446624756,-3.618762969970703,5.736630916595459
1777561117631932200,23.34193212890625,0.10201441496610641,-1.2064579725265503,4.430602073669434
1777561117650461700,23.360461669921875,0.34574946761131287,-1.2705987691879272,3.1691665649414062
