time,seconds_elapsed,z,y,x
1777561094467744000,0.177743896484375,-44.10000228881836,93.82500457763672,108.84375762939453
1777561094487744000,0.197743896484375,-45.13125228881836,95.28750610351562,110.28750610351562
1777561094497744100,0.207744140625,-46.837501525878906,93.50625610351562,108.30000305175781
1777561094507744000,0.217743896484375,-46.51875305175781,93.9937515258789,109.0875015258789
1777561094517744000,0.227744140625,-44.98125076293945,94.6875,109.59375762939453
1777561094527744000,0.237743896484375,-46.85625076293945,92.92500305175781,108.60000610351562
1777561094537744100,0.247744140625,-46.743751525878906,92.1187515258789,108.16875457763672
1777561094547744000,0.257743896484375,-45.30000305175781,93.28125,106.80000305175781
1777561094557744000,0.267744140625,-45.58125305175781,92.64375305175781,103.29375457763672
1777561094567744000,0.277743896484375,-45.5625,92.4000015258789,101.55000305175781
1777561094577744100,0.287744140625,-46.48125076293945,92.28750610351562,101.70000457763672
1777561094587744000,0.297743896484375,-49.275001525878906,92.08125305175781,105.41250610351562
1777561094597744000,0.307744140625,-44.45625305175781,92.6812515258789,98.47500610351562
1777561094607744000,0.317743896484375,-47.625,92.4000015258789,106.68750762939453
1777561094617744100,0.327744140625,-46.06875228881836,92.0250015258789,104.17500305175781
1777561094627744000,0.337743896484375,-48.50625228881836,92.28750610351562,105.1500015258789
1777561094637744000,0.347744140625,-47.60625076293945,92.13750457763672,104.94375610351562
1777561094647744000,0.357743896484375,-45.150001525878906,92.85000610351562,104.73750305175781
1777561094657744100,0.367744140625,-45.78750228881836,91.3125,103.61250305175781
1777561094667744000,0.377743896484375,-48.281253814697266,89.94375610351562,103.5562515258789
1777561094677744000,0.387744140625,-49.312503814697266,92.56875610351562,108.75000762939453
1777561094687744000,0.397743896484375,-48.95625305175781,93.9000015258789,109.2750015258789
1777561094697744100,0.407744140625,-51.150001525878906,94.10625457763672,114.16875457763672
1777561094707744000,0.417743896484375,-51.656253814697266,92.19375610351562,112.96875762939453
1777561094717744000,0.427744140625,-52.837501525878906,94.03125,114.48750305175781
1777561094727744000,0.437743896484375,-53.00625228881836,93.54375457763672,114.5250015258789
1777561094737744100,0.447744140625,-53.775001525878906,93.0562515258789,113.75625610351562
1777561094747744000,0.457743896484375,-52.556251525878906,93.09375,114.01875305175781
1777561094757744000,0.467744140625,-51.88125228881836,94.5,112.57500457763672
1777561094767744000,0.477743896484375,-52.98750305175781,93.8062515258789,114.58125305175781
1777561094777744100,0.487744140625,-51.150001525878906,93.58125305175781,113.08125305175781
1777561094787744000,0.497743896484375,-52.875003814697266,92.79375457763672,114.5250015258789
1777561094797744000,0.507744140625,-51.337501525878906,93.48750305175781,115.05000305175781
1777561094807744000,0.517743896484375,-49.80000305175781,93.5250015258789,113.60625457763672
1777561094817744100,0.527744140625,-53.306251525878906,93.48750305175781,114.11250305175781
1777561094827744000,0.537743896484375,-53.64375305175781,93.16875457763672,115.33125305175781
1777561094837744000,0.547744140625,-54.656253814697266,94.20000457763672,115.5562515258789
1777561094847744000,0.557743896484375,-54.69375228881836,93.6187515258789,115.85625457763672
1777561094857744100,0.567744140625,-56.062503814697266,93.3375015258789,115.5562515258789
1777561094867744000,0.577743896484375,-56.23125076293945,92.98125457763672,115.78125762939453
1777561094877744000,0.587744140625,-52.51875305175781,95.36250305175781,116.70000457763672
1777561094887744000,0.597743896484375,-55.14375305175781,93.65625,116.15625762939453
1777561094897744100,0.607744140625,-54.35625076293945,94.25625610351562,115.96875762939453
1777561094907744000,0.617743896484375,-54.35625076293945,94.25625610351562,115.96875762939453
1777561094917744000,0.627744140625,-55.42500305175781,94.63125610351562,116.7750015258789
1777561094927744000,0.637743896484375,-54.07500076293945,93.65625,115.29375457763672
1777561094937744100,0.647744140625,-57.000003814697266,93.03750610351562,116.10000610351562
1777561094947744000,0.657743896484375,-57.000003814697266,93.03750610351562,116.10000610351562
1777561094957744000,0.667744140625,-55.89375305175781,93.45000457763672,114.73125457763672
1777561094967744000,0.677743896484375,-56.681251525878906,93.1500015258789,115.12500762939453
1777561094977744100,0.687744140625,-55.61250305175781,93.13125610351562,115.9312515258789
1777561094987744000,0.697743896484375,-54.35625076293945,94.20000457763672,115.53750610351562
1777561094997744000,0.707744140625,-55.91250228881836,93.13125610351562,115.0875015258789
1777561095007744000,0.717743896484375,-55.16250228881836,93.28125,116.10000610351562
1777561095017744100,0.727744140625,-55.91250228881836,92.7750015258789,114.31875610351562
1777561095027744000,0.737743896484375,-55.275001525878906,94.3125,115.44375610351562
1777561095037744000,0.747744140625,-55.931251525878906,92.92500305175781,115.33125305175781
1777561095047744000,0.757743896484375,-55.38750076293945,95.10000610351562,115.7437515258789
1777561095057744100,0.767744140625,-54.07500076293945,93.69375610351562,115.57500457763672
1777561095067744000,0.777743896484375,-53.587501525878906,94.40625,115.2750015258789
1777561095087744000,0.797743896484375,-53.00625228881836,93.0562515258789,113.73750305175781
1777561095097744100,0.807744140625,-53.156253814697266,93.45000457763672,114.65625762939453
1777561095107744000,0.817743896484375,-52.42500305175781,91.8375015258789,112.21875762939453
1777561095117744000,0.827744140625,-52.81875228881836,94.72500610351562,114.9000015258789
1777561095127744000,0.837743896484375,-53.56875228881836,95.5875015258789,116.4937515258789
1777561095137744100,0.847744140625,-52.218753814697266,94.29375457763672,115.3687515258789
1777561095147744000,0.857743896484375,-52.06875228881836,94.89375305175781,116.0250015258789
1777561095157744000,0.867744140625,-52.500003814697266,94.76250457763672,114.31875610351562
1777561095167744000,0.877743896484375,-50.70000076293945,94.21875,114.88125610351562
1777561095177744100,0.887744140625,-49.312503814697266,94.48125457763672,113.34375762939453
1777561095187744000,0.897743896484375,-48.22500228881836,95.19375610351562,113.8687515258789
1777561095197744000,0.907744140625,-46.35000228881836,95.79375457763672,112.10625457763672
1777561095207744000,0.917743896484375,-44.55000305175781,96,114.35625457763672
1777561095217744100,0.927744140625,-45.13125228881836,95.79375457763672,112.06875610351562
1777561095227744000,0.937743896484375,-43.743751525878906,96.28125762939453,111.9937515258789
1777561095237744000,0.947744140625,-43.44375228881836,96.75000762939453,113.47500610351562
1777561095247744000,0.957743896484375,-43.63125228881836,95.70000457763672,113.13750457763672
1777561095257744100,0.967744140625,-42.525001525878906,96.31875610351562,111.39375305175781
1777561095267744000,0.977743896484375,-42.95625305175781,97.59375762939453,112.50000762939453
1777561095277744000,0.987744140625,-42.056251525878906,97.12500762939453,112.66875457763672
1777561095287744000,0.997743896484375,-41.13750076293945,96.9000015258789,112.03125762939453
1777561095297744100,1.007744140625,-41.15625,96.18750762939453,111.48750305175781
1777561095307744000,1.017743896484375,-41.4375,97.16250610351562,112.0875015258789
1777561095317744000,1.027744140625,-38.28750228881836,95.64375305175781,111.1500015258789
1777561095327744000,1.037743896484375,-39.76875305175781,97.70625305175781,114.13125610351562
1777561095337744100,1.047744140625,-38.17500305175781,95.56875610351562,114.11250305175781
1777561095347744000,1.057743896484375,-37.53750228881836,95.4937515258789,111.8062515258789
1777561095357744000,1.067744140625,-37.53750228881836,95.4937515258789,111.8062515258789
1777561095367744000,1.077743896484375,-38.13750076293945,96.8062515258789,114.0562515258789
1777561095377744100,1.087744140625,-35.587501525878906,94.4625015258789,110.71875762939453
1777561095387744000,1.097743896484375,-35.587501525878906,95.25,111.86250305175781
1777561095397744000,1.107744140625,-35.25,95.5875015258789,110.7750015258789
1777561095407744000,1.117743896484375,-34.33125305175781,95.73750305175781,110.92500305175781
1777561095417744100,1.127744140625,-33.431251525878906,95.2125015258789,109.95000457763672
1777561095427744000,1.137743896484375,-33.26250076293945,95.51250457763672,109.44375610351562
1777561095437744000,1.147744140625,-32.83125305175781,95.60625457763672,111.84375762939453
1777561095447744000,1.157743896484375,-32.71875,94.38750457763672,111.18750762939453
1777561095457744100,1.167744140625,-32.85000228881836,94.3687515258789,110.2125015258789
1777561095467744000,1.177743896484375,-32.73750305175781,93.54375457763672,111.31875610351562
1777561095477744000,1.187744140625,-31.33125114440918,95.28750610351562,112.1812515258789
1777561095487744000,1.197743896484375,-31.350000381469727,93.73125457763672,110.04375457763672
1777561095497744100,1.207744140625,-30.881250381469727,94.98750305175781,112.66875457763672
1777561095507744000,1.217743896484375,-31.031251907348633,94.4625015258789,110.88750457763672
1777561095517744000,1.227744140625,-30.900001525878906,94.42500305175781,111.4312515258789
1777561095527744000,1.237743896484375,-29.118751525878906,93.3375015258789,111.75000762939453
1777561095537744100,1.247744140625,-29.662500381469727,94.76250457763672,111.18750762939453
1777561095547744000,1.257743896484375,-30.150001525878906,93.67500305175781,110.56875610351562
1777561095557744000,1.267744140625,-30.150001525878906,93.63750457763672,110.26875305175781
1777561095567744000,1.277743896484375,-28.61250114440918,93.28125,107.90625762939453
1777561095577744100,1.287744140625,-28.312501907348633,93.1875,108.16875457763672
1777561095587744000,1.297743896484375,-27.412500381469727,93.26250457763672,109.42500305175781
1777561095597744000,1.307744140625,-26.981250762939453,92.90625,110.47500610351562
1777561095607744000,1.317743896484375,-28.631250381469727,92.64375305175781,107.79375457763672
1777561095617744100,1.327744140625,-26.45625114440918,93.86250305175781,108.5250015258789
1777561095627744000,1.337743896484375,-26.45625114440918,94.0875015258789,108.28125762939453
1777561095637744000,1.347744140625,-28.593751907348633,93.76875305175781,108.7125015258789
1777561095647744000,1.357743896484375,-27.11250114440918,93.1875,108.97500610351562
1777561095657744100,1.367744140625,-25.42500114440918,93.22500610351562,108.37500762939453
1777561095667744000,1.377743896484375,-26.64375114440918,93.01875305175781,107.81250762939453
1777561095677744000,1.387744140625,-24.806251525878906,92.75625610351562,106.01250457763672
1777561095687744000,1.397743896484375,-24.993751525878906,92.04375457763672,107.15625762939453
1777561095697744100,1.407744140625,-27.075000762939453,93.5625,107.2125015258789
1777561095707744000,1.417743896484375,-26.437501907348633,93.86250305175781,106.8375015258789
1777561095717744000,1.427744140625,-27.093751907348633,92.0250015258789,105.22500610351562
1777561095727744000,1.437743896484375,-25.106250762939453,93.1500015258789,107.08125305175781
1777561095737744100,1.447744140625,-25.556251525878906,92.8687515258789,106.76250457763672
1777561095747744000,1.457743896484375,-26.306251525878906,92.38125610351562,103.44375610351562
1777561095757744000,1.467744140625,-24.11250114440918,93.16875457763672,101.98125457763672
1777561095767744000,1.477743896484375,-25.05000114440918,91.95000457763672,100.50000762939453
1777561095777744100,1.487744140625,-23.287500381469727,94.05000305175781,99.58125305175781
1777561095787744000,1.497743896484375,-22.42500114440918,92.625,99.1500015258789
1777561095797744000,1.507744140625,-22.42500114440918,92.625,99.1500015258789
1777561095807744000,1.517743896484375,-22.61250114440918,92.19375610351562,99.63750457763672
1777561095817744100,1.527744140625,-23.8125,92.625,100.03125762939453
1777561095827744000,1.537743896484375,-23.8125,92.625,100.03125762939453
1777561095837744000,1.547744140625,-26.212501525878906,94.35000610351562,102.39375305175781
1777561095847744000,1.557743896484375,-25.593751907348633,93.91875457763672,100.33125305175781
1777561095857744100,1.567744140625,-26.156251907348633,95.47500610351562,101.62500762939453
1777561095867744000,1.577743896484375,-25.762500762939453,94.14375305175781,102.76875305175781
1777561095877744000,1.587744140625,-26.212501525878906,94.35000610351562,102.39375305175781
1777561095887744000,1.597743896484375,-27.86250114440918,95.32500457763672,103.89375305175781
1777561095897744100,1.607744140625,-29.981250762939453,95.9625015258789,104.92500305175781
1777561095907744000,1.617743896484375,-31.218751907348633,96.03750610351562,106.23750305175781
1777561095917744000,1.627744140625,-29.64375114440918,98.5875015258789,109.23750305175781
1777561095927744000,1.637743896484375,-31.537500381469727,96.56250762939453,109.03125762939453
1777561095937744100,1.647744140625,-32.71875,96.86250305175781,107.56875610351562
1777561095947744000,1.657743896484375,-34.66875076293945,98.7750015258789,110.38125610351562
1777561095957744000,1.667744140625,-35.625,97.16250610351562,108.84375762939453
1777561095967744000,1.677743896484375,-36.91875076293945,99.01875305175781,109.50000762939453
1777561095977744100,1.687744140625,-38.0625,97.31250762939453,110.62500762939453
1777561095987744000,1.697743896484375,-36.35625076293945,97.5562515258789,108.93750762939453
1777561095997744000,1.707744140625,-39.5625,98.75625610351562,111.91875457763672
1777561096007744000,1.717743896484375,-41.0625,98.55000305175781,110.51250457763672
1777561096017744100,1.727744140625,-43.61250305175781,99.31875610351562,109.7437515258789
1777561096027744000,1.737743896484375,-44.36250305175781,99.8062515258789,110.55000305175781
1777561096037744000,1.747744140625,-45.525001525878906,100.53750610351562,109.59375762939453
1777561096047744000,1.757743896484375,-44.025001525878906,99.84375762939453,109.14375305175781
1777561096057744100,1.767744140625,-47.55000305175781,99.0562515258789,108.8062515258789
1777561096067744000,1.777743896484375,-49.500003814697266,99.56250762939453,107.9625015258789
1777561096077744000,1.787744140625,-51.91875076293945,101.23125457763672,111.73125457763672
1777561096087744000,1.797743896484375,-53.025001525878906,98.83125305175781,108.0562515258789
1777561096097744100,1.807744140625,-55.63125228881836,98.17500305175781,108.56250762939453
1777561096107744000,1.817743896484375,-57.656253814697266,97.01250457763672,108.26250457763672
1777561096117744000,1.827744140625,-58.087501525878906,98.1187515258789,109.89375305175781
1777561096127744000,1.837743896484375,-59.70000076293945,95.4937515258789,109.01250457763672
1777561096137744100,1.847744140625,-61.931251525878906,96.69375610351562,108.60000610351562
1777561096147744000,1.857743896484375,-63.78750228881836,95.00625610351562,107.34375762939453
1777561096157744000,1.867744140625,-61.01250076293945,92.47500610351562,107.90625762939453
1777561096167744000,1.877743896484375,-64.95000457763672,92.9625015258789,108.67500305175781
1777561096177744100,1.887744140625,-65.70000457763672,91.85625457763672,105.37500762939453
1777561096187744000,1.897743896484375,-68.28750610351562,92.36250305175781,107.10000610351562
1777561096197744000,1.907744140625,-68.71875,92.94375610351562,105.93750762939453
1777561096207744000,1.917743896484375,-70.10625457763672,92.64375305175781,107.19375610351562
1777561096217744100,1.927744140625,-70.10625457763672,91.3125,104.1187515258789
1777561096227744000,1.937743896484375,-71.51250457763672,91.14375305175781,106.38750457763672
1777561096237744000,1.947744140625,-70.6500015258789,89.90625,105.56250762939453
1777561096247744000,1.957743896484375,-70.6500015258789,89.90625,105.56250762939453
1777561096257744100,1.967744140625,-70.29375457763672,91.03125,105.6187515258789
1777561096267744000,1.977743896484375,-71.4937515258789,90.76875305175781,103.76250457763672
1777561096277744000,1.987744140625,-70.91250610351562,90.82500457763672,105.03750610351562
1777561096287744000,1.997743896484375,-68.73750305175781,90.9000015258789,103.01250457763672
1777561096297744100,2.007744140625,-71.19375610351562,91.53750610351562,105.60000610351562
1777561096307744000,2.017743896484375,-70.91250610351562,90.9375,105.75000762939453
1777561096317744000,2.027744140625,-71.64375305175781,90.88125610351562,103.6500015258789
1777561096327744000,2.037743896484375,-70.59375,91.14375305175781,105.50625610351562
1777561096337744100,2.047744140625,-71.75625610351562,92.9625015258789,106.03125762939453
1777561096347744000,2.057743896484375,-69.39375305175781,91.23750305175781,106.20000457763672
1777561096357744000,2.067744140625,-68.55000305175781,93,105.37500762939453
1777561096367744000,2.077743896484375,-67.03125,93.63750457763672,107.3062515258789
1777561096377744100,2.087744140625,-65.98125457763672,92.88750457763672,106.42500305175781
1777561096387744000,2.097743896484375,-66.13125610351562,93.30000305175781,106.6500015258789
1777561096397744000,2.107744140625,-65.51250457763672,93.5625,106.81875610351562
1777561096407744000,2.117743896484375,-61.650001525878906,95.73750305175781,108.97500610351562
1777561096417744100,2.127744140625,-63.618751525878906,95.90625,108.35625457763672
1777561096427744000,2.137743896484375,-62.73750305175781,94.29375457763672,106.7437515258789
1777561096437744000,2.147744140625,-61.312503814697266,96.95625305175781,108.76875305175781
1777561096447744000,2.157743896484375,-61.556251525878906,93.86250305175781,108.03750610351562
1777561096457744100,2.167744140625,-60.13125228881836,95.92500305175781,108.54375457763672
1777561096467744000,2.177743896484375,-60.69375228881836,97.06875610351562,108.63750457763672
1777561096477744000,2.187744140625,-58.10625076293945,97.05000305175781,108.56250762939453
1777561096487744000,2.197743896484375,-56.45625305175781,96.45000457763672,107.83125305175781
1777561096497744100,2.207744140625,-56.88750076293945,96.82500457763672,107.08125305175781
1777561096507744000,2.217743896484375,-57.48750305175781,97.68750762939453,109.51875305175781
1777561096517744000,2.227744140625,-55.218753814697266,97.78125762939453,110.17500305175781
1777561096527744000,2.237743896484375,-54.60000228881836,98.13750457763672,110.08125305175781
1777561096537744100,2.247744140625,-55.031253814697266,99.3375015258789,111.45000457763672
1777561096547744000,2.257743896484375,-52.181251525878906,97.89375305175781,110.9625015258789
1777561096557744000,2.267744140625,-49.837501525878906,99.73125457763672,110.83125305175781
1777561096567744000,2.277743896484375,-47.25,99.65625762939453,110.32500457763672
1777561096577744100,2.287744140625,-47.212501525878906,99.93750762939453,107.98125457763672
1777561096587744000,2.297743896484375,-47.53125,99.18750762939453,107.13750457763672
1777561096597744000,2.307744140625,-46.40625,100.3687515258789,106.63125610351562
1777561096607744000,2.317743896484375,-44.32500076293945,100.23750305175781,109.21875762939453
1777561096617744100,2.327744140625,-44.90625,101.0250015258789,109.53750610351562
1777561096627744000,2.337743896484375,-44.60625076293945,101.56875610351562,110.62500762939453
1777561096637744000,2.347744140625,-42.337501525878906,100.91250610351562,110.43750762939453
1777561096647744000,2.357743896484375,-42.60000228881836,101.28750610351562,108.82500457763672
1777561096657744100,2.367744140625,-40.837501525878906,99.45000457763672,107.28750610351562
1777561096667744000,2.377743896484375,-39.45000076293945,100.29375457763672,107.98125457763672
1777561096677744000,2.387744140625,-37.91250228881836,100.23750305175781,107.64375305175781
1777561096687744000,2.397743896484375,-37.91250228881836,100.23750305175781,107.64375305175781
1777561096697744100,2.407744140625,-39.65625,98.64375305175781,107.81250762939453
1777561096707744000,2.417743896484375,-39.65625,98.64375305175781,107.81250762939453
1777561096717744000,2.427744140625,-36.16875076293945,98.06250762939453,107.17500305175781
1777561096727744000,2.437743896484375,-35.8125,99.97500610351562,108.39375305175781
1777561096737744100,2.447744140625,-36.45000076293945,98.70000457763672,107.3062515258789
1777561096747744000,2.457743896484375,-34.931251525878906,99.0562515258789,108.03750610351562
1777561096757744000,2.467744140625,-34.3125,99.78750610351562,109.72500610351562
1777561096767744000,2.477743896484375,-32.681251525878906,98.08125305175781,107.38125610351562
1777561096777744100,2.487744140625,-32.212501525878906,98.66250610351562,108.03750610351562
1777561096787744000,2.497743896484375,-31.89375114440918,98.7750015258789,107.90625762939453
1777561096797744000,2.507744140625,-33.41250228881836,98.83125305175781,108.2437515258789
1777561096807744000,2.517743896484375,-31.743751525878906,98.56875610351562,107.3062515258789
1777561096817744100,2.527744140625,-32.212501525878906,98.00625610351562,106.0875015258789
1777561096827744000,2.537743896484375,-32.23125076293945,98.0250015258789,107.92500305175781
1777561096837744000,2.547744140625,-31.462501525878906,98.92500305175781,109.76250457763672
1777561096847744000,2.557743896484375,-31.481250762939453,97.68750762939453,108.11250305175781
1777561096857744100,2.567744140625,-30.712501525878906,97.4625015258789,106.6500015258789
1777561096867744000,2.577743896484375,-29.475000381469727,97.95000457763672,105.7125015258789
1777561096877744000,2.587744140625,-29.493751525878906,97.35000610351562,105.88125610351562
1777561096887744000,2.597743896484375,-29.437501907348633,99.3375015258789,106.68750762939453
1777561096897744100,2.607744140625,-30.093751907348633,98.06250762939453,107.3062515258789
1777561096907744000,2.617743896484375,-28.818750381469727,99.45000457763672,106.5562515258789
1777561096917744000,2.627744140625,-30.67500114440918,98.45625305175781,106.5562515258789
1777561096927744000,2.637743896484375,-29.512500762939453,97.2750015258789,107.00625610351562
1777561096937744100,2.647744140625,-30.375001907348633,98.55000305175781,106.42500305175781
1777561096947744000,2.657743896484375,-29.287500381469727,98.17500305175781,103.78125762939453
1777561096957744000,2.667744140625,-27.468751907348633,98.43750762939453,105.6187515258789
1777561096967744000,2.677743896484375,-27.95625114440918,97.12500762939453,104.4000015258789
1777561096977744100,2.687744140625,-29.493751525878906,96.84375762939453,104.10000610351562
1777561096987744000,2.697743896484375,-28.725000381469727,97.0875015258789,104.1187515258789
1777561096997744000,2.707744140625,-30.11250114440918,96.30000305175781,103.72500610351562
1777561097007744000,2.717743896484375,-30.356250762939453,98.28750610351562,104.53125762939453
1777561097017744100,2.727744140625,-30.993751525878906,97.10625457763672,104.19375610351562
1777561097027744000,2.737743896484375,-30.056251525878906,98.38125610351562,105.2437515258789
1777561097037744000,2.747744140625,-28.406251907348633,97.57500457763672,104.90625762939453
1777561097047744000,2.757743896484375,-30.225000381469727,97.63125610351562,105.2437515258789
1777561097057744100,2.767744140625,-30.356250762939453,98.34375762939453,104.9625015258789
1777561097067744000,2.777743896484375,-30.937501907348633,98.60625457763672,103.33125305175781
1777561097077744000,2.787744140625,-30.187501907348633,98.38125610351562,104.4000015258789
1777561097087744000,2.797743896484375,-33.65625,99.31875610351562,103.96875762939453
1777561097097744100,2.807744140625,-32.90625,98.79375457763672,104.55000305175781
1777561097107744000,2.817743896484375,-35.04375076293945,98.73750305175781,104.17500305175781
1777561097117744000,2.827744140625,-36.09375,99.76875305175781,106.0875015258789
1777561097127744000,2.837743896484375,-36.09375,99.76875305175781,106.0875015258789
1777561097137744100,2.847744140625,-37.03125,98.9625015258789,105.69375610351562
1777561097147744000,2.857743896484375,-34.85625076293945,100.40625762939453,106.1812515258789
1777561097157744000,2.867744140625,-37.875,100.44375610351562,104.71875762939453
1777561097167744000,2.877743896484375,-38.51250076293945,99.75000762939453,105.16875457763672
1777561097177744100,2.887744140625,-40.85625076293945,101.70000457763672,104.75625610351562
1777561097187744000,2.897743896484375,-39.88125228881836,101.00625610351562,108.54375457763672
1777561097197744000,2.907744140625,-42.5625,102.01875305175781,107.83125305175781
1777561097207744000,2.917743896484375,-43.181251525878906,101.83125305175781,107.38125610351562
1777561097217744100,2.927744140625,-45.337501525878906,100.50000762939453,105.91875457763672
1777561097227744000,2.937743896484375,-46.05000305175781,101.88750457763672,106.91250610351562
1777561097237744000,2.947744140625,-44.681251525878906,101.88750457763672,106.03125762939453
1777561097247744000,2.957743896484375,-47.00625228881836,100.87500762939453,107.5875015258789
1777561097257744100,2.967744140625,-48.82500076293945,100.42500305175781,106.14375305175781
1777561097267744000,2.977743896484375,-49.275001525878906,101.23125457763672,107.43750762939453
1777561097277744000,2.987744140625,-51.750003814697266,99.63750457763672,105.91875457763672
1777561097287744000,2.997743896484375,-53.94375228881836,101.36250305175781,104.90625762939453
1777561097297744100,3.007744140625,-54.093753814697266,102.4312515258789,107.08125305175781
1777561097307744000,3.017743896484375,-56.437503814697266,99.65625762939453,105.0562515258789
1777561097317744000,3.027744140625,-57.78750228881836,100.14375305175781,105.0562515258789
1777561097327744000,3.037743896484375,-58.125003814697266,99.88125610351562,105.7125015258789
1777561097337744100,3.047744140625,-59.493751525878906,99.2437515258789,104.7750015258789
1777561097347744000,3.057743896484375,-61.087501525878906,97.2750015258789,104.0250015258789
1777561097357744000,3.067744140625,-62.775001525878906,97.33125305175781,105.35625457763672
1777561097367744000,3.077743896484375,-64.16250610351562,96.65625762939453,105.82500457763672
1777561097377744100,3.087744140625,-63.54375076293945,96.09375762939453,102.73125457763672
1777561097387744000,3.097743896484375,-62.343753814697266,95.79375457763672,103.35000610351562
1777561097397744000,3.107744140625,-66.73125457763672,96.35625457763672,103.72500610351562
1777561097407744000,3.117743896484375,-67.05000305175781,94.91250610351562,100.63125610351562
1777561097417744100,3.127744140625,-67.85625457763672,94.2750015258789,102.22500610351562
1777561097427744000,3.137743896484375,-66.01875305175781,94.40625,101.4937515258789
1777561097437744000,3.147744140625,-67.8375015258789,93.58125305175781,99.97500610351562
1777561097447744000,3.157743896484375,-68.25,94.4625015258789,99.16875457763672
1777561097457744100,3.167744140625,-68.13750457763672,94.23750305175781,101.10000610351562
1777561097467744000,3.177743896484375,-66.75,95.55000305175781,102.4312515258789
1777561097477744000,3.187744140625,-67.38750457763672,94.48125457763672,102.8062515258789
1777561097487744000,3.197743896484375,-66.30000305175781,95.66250610351562,103.14375305175781
1777561097497744100,3.207744140625,-67.6875,94.875,102.9000015258789
1777561097507744000,3.217743896484375,-66.30000305175781,94.85625457763672,102.01875305175781
1777561097517744000,3.227744140625,-64.66875457763672,94.57500457763672,103.4625015258789
1777561097527744000,3.237743896484375,-65.17500305175781,96.30000305175781,101.55000305175781
1777561097537744100,3.247744140625,-63.712501525878906,94.7437515258789,101.2125015258789
1777561097547744000,3.257743896484375,-63.656253814697266,96.91875457763672,103.31250762939453
1777561097557744000,3.267744140625,-62.60625076293945,97.12500762939453,104.73750305175781
1777561097567744000,3.277743896484375,-63.093753814697266,96.8062515258789,105.95625305175781
1777561097577744100,3.287744140625,-63.093753814697266,96.8062515258789,105.95625305175781
1777561097587744000,3.297743896484375,-59.94375228881836,100.05000305175781,106.9312515258789
1777561097597744000,3.307744140625,-59.94375228881836,100.05000305175781,106.9312515258789
1777561097607744000,3.317743896484375,-59.56875228881836,98.34375762939453,107.15625762939453
1777561097617744100,3.327744140625,-58.312503814697266,98.43750762939453,105.30000305175781
1777561097627744000,3.337743896484375,-58.16250228881836,98.28750610351562,105.13125610351562
1777561097637744000,3.347744140625,-57.337501525878906,100.25625610351562,105.76875305175781
1777561097647744000,3.357743896484375,-55.650001525878906,97.31250762939453,106.98750305175781
1777561097657744100,3.367744140625,-56.85000228881836,97.33125305175781,106.1812515258789
1777561097667744000,3.377743896484375,-55.53750228881836,100.40625762939453,106.87500762939453
1777561097677744000,3.387744140625,-55.218753814697266,100.78125762939453,106.80000305175781
1777561097687744000,3.397743896484375,-55.275001525878906,99.3375015258789,107.23125457763672
1777561097697744100,3.407744140625,-52.53750228881836,99.41250610351562,106.89375305175781
1777561097707744000,3.417743896484375,-50.212501525878906,100.7437515258789,107.51250457763672
1777561097717744000,3.427744140625,-49.63125228881836,100.4625015258789,108.9937515258789
1777561097727744000,3.437743896484375,-51.01875305175781,99.58125305175781,108.00000762939453
1777561097747744000,3.457743896484375,-45.31875228881836,100.81875610351562,105.56250762939453
1777561097757744000,3.467744140625,-43.05000305175781,100.59375762939453,106.57500457763672
1777561097767744000,3.477743896484375,-43.05000305175781,100.48125457763672,105.86250305175781
1777561097777744100,3.487744140625,-41.0625,100.2750015258789,104.34375762939453
1777561097787744000,3.497743896484375,-41.51250076293945,100.76250457763672,105.16875457763672
1777561097797744000,3.507744140625,-40.275001525878906,101.55000305175781,106.25625610351562
1777561097807744000,3.517743896484375,-40.3125,100.3687515258789,105.0562515258789
1777561097817744100,3.527744140625,-40.44375228881836,100.35000610351562,104.06250762939453
1777561097827744000,3.537743896484375,-39.39375305175781,100.40625762939453,104.47500610351562
1777561097837744000,3.547744140625,-39.54375076293945,99.93750762939453,103.81875610351562
1777561097847744000,3.557743896484375,-35.775001525878906,100.20000457763672,105.60000610351562
1777561097857744100,3.567744140625,-35.775001525878906,100.20000457763672,105.60000610351562
1777561097867744000,3.577743896484375,-36.13125228881836,98.41875457763672,105.41250610351562
1777561097877744000,3.587744140625,-34.61250305175781,98.94375610351562,107.3062515258789
1777561097887744000,3.597743896484375,-35.55000305175781,98.13750457763672,106.89375305175781
1777561097907744000,3.617743896484375,-33.993751525878906,97.2750015258789,101.04375457763672
1777561097917744000,3.627744140625,-30.918750762939453,97.96875762939453,101.53125762939453
1777561097927744000,3.637743896484375,-31.687501907348633,97.50000762939453,100.05000305175781
1777561097937744100,3.647744140625,-30.150001525878906,96.76875305175781,97.61250305175781
1777561097947744000,3.657743896484375,-26.006250381469727,96.07500457763672,92.85000610351562
1777561097957744000,3.667744140625,-27.412500381469727,96.2437515258789,94.89375305175781
1777561097967744000,3.677743896484375,-26.587501525878906,96.39375305175781,91.6500015258789
1777561097977744100,3.687744140625,-26.83125114440918,94.89375305175781,93.35625457763672
1777561097987744000,3.697743896484375,-26.64375114440918,96.75000762939453,96.65625762939453
1777561097997744000,3.707744140625,-29.26875114440918,96.45000457763672,98.79375457763672
1777561098007744000,3.717743896484375,-26.287500381469727,94.98750305175781,99.13125610351562
1777561098017744100,3.727744140625,-26.043750762939453,96.7125015258789,97.20000457763672
1777561098027744000,3.737743896484375,-26.043750762939453,96.7125015258789,97.20000457763672
1777561098037744000,3.747744140625,-27.20625114440918,96.28125762939453,102.78750610351562
1777561098047744000,3.757743896484375,-26.006250381469727,96.69375610351562,104.81250762939453
1777561098057744100,3.767744140625,-27.506250381469727,97.35000610351562,104.98125457763672
1777561098067744000,3.777743896484375,-29.493751525878906,96.45000457763672,104.0250015258789
1777561098077744000,3.787744140625,-28.631250381469727,94.89375305175781,102.7125015258789
1777561098087744000,3.797743896484375,-27.187501907348633,97.0875015258789,104.08125305175781
1777561098097744100,3.807744140625,-27.243751525878906,95.85000610351562,104.1187515258789
1777561098107744000,3.817743896484375,-27.056251525878906,96.16875457763672,102.91875457763672
1777561098117744000,3.827744140625,-26.17500114440918,96.28125762939453,104.60625457763672
1777561098127744000,3.837743896484375,-28.125001907348633,97.0875015258789,104.94375610351562
1777561098137744100,3.847744140625,-26.887500762939453,96.54375457763672,102.13125610351562
1777561098147744000,3.857743896484375,-26.306251525878906,95.625,101.79375457763672
1777561098157744000,3.867744140625,-26.962501525878906,94.6875,102.20625305175781
1777561098167744000,3.877743896484375,-28.70625114440918,96.88125610351562,102.67500305175781
1777561098177744100,3.887744140625,-26.943750381469727,94.59375,101.47500610351562
1777561098187744000,3.897743896484375,-26.381250381469727,96.82500457763672,99.76875305175781
1777561098197744000,3.907744140625,-28.856250762939453,96.7125015258789,102.35625457763672
1777561098207744000,3.917743896484375,-27.093751907348633,95.625,103.51875305175781
1777561098217744100,3.927744140625,-27.637500762939453,96.45000457763672,101.43750762939453
1777561098227744000,3.937743896484375,-29.17500114440918,96.13125610351562,101.83125305175781
1777561098237744000,3.947744140625,-27.787500381469727,96.07500457763672,100.51875305175781
1777561098247744000,3.957743896484375,-27.037500381469727,96.65625762939453,102.01875305175781
1777561098257744100,3.967744140625,-26.681251525878906,97.38750457763672,101.0250015258789
1777561098267744000,3.977743896484375,-27.787500381469727,96.91875457763672,102.09375762939453
1777561098277744000,3.987744140625,-28.70625114440918,96.45000457763672,101.45625305175781
1777561098287744000,3.997743896484375,-30.787500381469727,98.43750762939453,103.87500762939453
1777561098297744100,4.007744140625,-30.693750381469727,97.10625457763672,104.17500305175781
1777561098307744000,4.017743896484375,-31.387500762939453,97.76250457763672,101.7750015258789
1777561098317744000,4.027744140625,-32.306251525878906,98.0250015258789,102.69375610351562
1777561098327744000,4.037743896484375,-32.92500305175781,97.87500762939453,102.54375457763672
1777561098337744100,4.047744140625,-36.41250228881836,98.9625015258789,104.81250762939453
1777561098347744000,4.057743896484375,-36.5625,98.73750305175781,104.2125015258789
1777561098357744000,4.067744140625,-36.243751525878906,99.0562515258789,104.70000457763672
1777561098367744000,4.077743896484375,-37.29375076293945,99.35625457763672,104.08125305175781
1777561098377744100,4.087744140625,-39.60000228881836,98.26875305175781,103.50000762939453
1777561098387744000,4.097743896484375,-39.13125228881836,99.01875305175781,103.50000762939453
1777561098397744000,4.107744140625,-39.375,100.8375015258789,104.83125305175781
1777561098407744000,4.117743896484375,-40.44375228881836,100.89375305175781,105.30000305175781
1777561098417744100,4.127744140625,-39.41250228881836,99.69375610351562,103.91250610351562
1777561098427744000,4.137743896484375,-41.868751525878906,99.58125305175781,105.65625762939453
1777561098437744000,4.147744140625,-43.25625228881836,98.55000305175781,104.4937515258789
1777561098447744000,4.157743896484375,-43.51875305175781,99.78750610351562,104.45625305175781
1777561098457744100,4.167744140625,-43.98750305175781,98.19375610351562,102.0562515258789
1777561098467744000,4.177743896484375,-47.32500076293945,99.48750305175781,104.08125305175781
1777561098477744000,4.187744140625,-47.32500076293945,99.48750305175781,104.08125305175781
1777561098487744000,4.197743896484375,-49.61250305175781,99.56250762939453,104.5875015258789
1777561098497744100,4.207744140625,-50.812503814697266,99.88125610351562,104.9625015258789
1777561098507744000,4.217743896484375,-52.66875076293945,99.1500015258789,105.9937515258789
1777561098517744000,4.227744140625,-52.031253814697266,99.37500762939453,104.04375457763672
1777561098527744000,4.237743896484375,-54.03750228881836,99.28125762939453,105.91875457763672
1777561098537744100,4.247744140625,-54.48750305175781,99.26250457763672,104.94375610351562
1777561098547744000,4.257743896484375,-55.23750305175781,99.8062515258789,106.1812515258789
1777561098557744000,4.267744140625,-58.031253814697266,97.68750762939453,104.45625305175781
1777561098567744000,4.277743896484375,-58.031253814697266,97.98750305175781,104.79375457763672
1777561098577744100,4.287744140625,-58.837501525878906,96.84375762939453,105.4312515258789
1777561098587744000,4.297743896484375,-58.80000305175781,97.25625610351562,103.96875762939453
1777561098597744000,4.307744140625,-60.31875228881836,96.41250610351562,102.4312515258789
1777561098607744000,4.317743896484375,-62.625003814697266,96.16875457763672,102.45000457763672
1777561098617744100,4.327744140625,-61.57500076293945,95.5875015258789,101.88750457763672
1777561098627744000,4.337743896484375,-62.212501525878906,94.4625015258789,101.83125305175781
1777561098637744000,4.347744140625,-62.306251525878906,95.26875305175781,99.73125457763672
1777561098647744000,4.357743896484375,-62.19375228881836,95.5875015258789,102.75000762939453
1777561098657744100,4.367744140625,-62.73750305175781,95.9625015258789,100.14375305175781
1777561098667744000,4.377743896484375,-62.19375228881836,95.13750457763672,102.2437515258789
1777561098677744000,4.387744140625,-63.093753814697266,94.78125,100.63125610351562
1777561098687744000,4.397743896484375,-61.312503814697266,92.9625015258789,98.4000015258789
1777561098697744100,4.407744140625,-60.806251525878906,95.15625,100.6500015258789
1777561098707744000,4.417743896484375,-62.08125305175781,93.5625,100.80000305175781
1777561098717744000,4.427744140625,-61.087501525878906,96.37500762939453,102.16875457763672
1777561098727744000,4.437743896484375,-60.056251525878906,95.36250305175781,102.07500457763672
1777561098737744100,4.447744140625,-58.95000076293945,96.63750457763672,102.30000305175781
1777561098747744000,4.457743896484375,-59.00625228881836,95.88750457763672,103.98750305175781
1777561098757744000,4.467744140625,-57.937503814697266,95.34375,102.01875305175781
1777561098767744000,4.477743896484375,-58.51875305175781,95.88750457763672,101.43750762939453
1777561098777744100,4.487744140625,-55.968753814697266,95.55000305175781,103.42500305175781
1777561098787744000,4.497743896484375,-54.993751525878906,95.2125015258789,98.53125762939453
1777561098797744000,4.507744140625,-51.618751525878906,94.20000457763672,93.30000305175781
1777561098807744000,4.517743896484375,-52.031253814697266,96.78750610351562,97.48125457763672
1777561098817744100,4.527744140625,-50.83125305175781,96.9937515258789,98.06250762939453
1777561098827744000,4.537743896484375,-51.88125228881836,98.06250762939453,101.1187515258789
1777561098837744000,4.547744140625,-51.806251525878906,97.12500762939453,104.0250015258789
1777561098847744000,4.557743896484375,-52.72500228881836,97.2750015258789,104.23125457763672
1777561098857744100,4.567744140625,-50.212501525878906,98.36250305175781,101.4000015258789
1777561098867744000,4.577743896484375,-48.900001525878906,96.41250610351562,100.01250457763672
1777561098877744000,4.587744140625,-48.056251525878906,98.5875015258789,100.40625762939453
1777561098887744000,4.597743896484375,-48.281253814697266,97.4625015258789,102.16875457763672
1777561098897744100,4.607744140625,-48.843753814697266,99.07500457763672,103.76250457763672
1777561098907744000,4.617743896484375,-48.843753814697266,99.07500457763672,103.76250457763672
1777561098917744000,4.627744140625,-46.16250228881836,99.11250305175781,106.66875457763672
1777561098927744000,4.637743896484375,-44.90625,99.97500610351562,106.51875305175781
1777561098937744100,4.647744140625,-43.40625,99.00000762939453,105.86250305175781
1777561098947744000,4.657743896484375,-42.618751525878906,100.33125305175781,106.51875305175781
1777561098957744000,4.667744140625,-43.10625076293945,99.00000762939453,105.86250305175781
1777561098967744000,4.677743896484375,-39.993751525878906,101.04375457763672,105.45000457763672
1777561098977744100,4.687744140625,-40.76250076293945,100.80000305175781,105.4312515258789
1777561098987744000,4.697743896484375,-40.03125,99.88125610351562,105.93750762939453
1777561098997744000,4.707744140625,-38.868751525878906,98.55000305175781,105.37500762939453
1777561099007744000,4.717743896484375,-40.03125,99.46875762939453,104.8687515258789
1777561099017744100,4.727744140625,-37.33125305175781,99.22500610351562,105.75000762939453
1777561099027744000,4.737743896484375,-36.28125,98.53125762939453,105.30000305175781
1777561099037744000,4.747744140625,-36.41250228881836,99.01875305175781,105.26250457763672
1777561099047744000,4.757743896484375,-34.98750305175781,100.33125305175781,104.90625762939453
1777561099057744100,4.767744140625,-34.03125,97.16250610351562,104.55000305175781
1777561099067744000,4.777743896484375,-34.14375305175781,98.66250610351562,105.41250610351562
1777561099077744000,4.787744140625,-30.825000762939453,97.42500305175781,102.97500610351562
1777561099087744000,4.797743896484375,-32.400001525878906,95.8125,102.9937515258789
1777561099097744100,4.807744140625,-31.14375114440918,97.20000457763672,103.9312515258789
1777561099107744000,4.817743896484375,-29.606250762939453,97.53750610351562,103.66875457763672
1777561099117744000,4.827744140625,-28.387500762939453,97.3687515258789,103.4625015258789
1777561099127744000,4.837743896484375,-28.61250114440918,95.64375305175781,103.5562515258789
1777561099137744100,4.847744140625,-28.14375114440918,95.53125,102.82500457763672
1777561099147744000,4.857743896484375,-26.287500381469727,95.85000610351562,100.70625305175781
1777561099157744000,4.867744140625,-28.14375114440918,94.57500457763672,100.51875305175781
1777561099167744000,4.877743896484375,-25.556251525878906,94.875,100.9312515258789
1777561099177744100,4.887744140625,-26.287500381469727,94.8375015258789,98.1187515258789
1777561099187744000,4.897743896484375,-23.100000381469727,93.26250457763672,95.0625
1777561099197744000,4.907744140625,-22.98750114440918,93.09375,97.2750015258789
1777561099207744000,4.917743896484375,-22.33125114440918,94.61250305175781,97.40625762939453
1777561099217744100,4.927744140625,-26.212501525878906,94.40625,102.84375762939453
1777561099227744000,4.937743896484375,-25.293750762939453,94.98750305175781,103.35000610351562
1777561099237744000,4.947744140625,-25.743751525878906,95.19375610351562,103.96875762939453
1777561099247744000,4.957743896484375,-25.743751525878906,94.80000305175781,102.9000015258789
1777561099257744100,4.967744140625,-25.481250762939453,93.69375610351562,102.26250457763672
1777561099267744000,4.977743896484375,-27.58125114440918,95.15625,104.56875610351562
1777561099277744000,4.987744140625,-24.975000381469727,94.61250305175781,101.71875762939453
1777561099287744000,4.997743896484375,-24.525001525878906,94.875,102.60000610351562
1777561099297744100,5.007744140625,-24.787500381469727,95.26875305175781,100.98750305175781
1777561099307744000,5.017743896484375,-25.725000381469727,94.95000457763672,102.22500610351562
1777561099317744000,5.027744140625,-24.693750381469727,93.9375,101.28750610351562
1777561099327744000,5.037743896484375,-24.506250381469727,94.51875305175781,100.12500762939453
1777561099337744100,5.047744140625,-24.037500381469727,94.5,100.12500762939453
1777561099347744000,5.057743896484375,-26.306251525878906,95.625,101.79375457763672
1777561099357744000,5.067744140625,-26.17500114440918,95.79375457763672,103.80000305175781
1777561099367744000,5.077743896484375,-26.17500114440918,95.79375457763672,103.80000305175781
1777561099377744100,5.087744140625,-24.20625114440918,94.40625,100.23750305175781
1777561099387744000,5.097743896484375,-25.275001525878906,94.125,100.06875610351562
1777561099397744000,5.107744140625,-25.218751907348633,96.16875457763672,101.17500305175781
1777561099407744000,5.117743896484375,-25.500001907348633,96.54375457763672,101.25000762939453
1777561099417744100,5.127744140625,-26.006250381469727,94.81875610351562,100.51875305175781
1777561099427744000,5.137743896484375,-26.137500762939453,95.8687515258789,101.70000457763672
1777561099437744000,5.147744140625,-26.887500762939453,96.6187515258789,102.56250762939453
1777561099447744000,5.157743896484375,-28.106250762939453,95.85000610351562,100.76250457763672
1777561099457744100,5.167744140625,-26.906251907348633,96.76875305175781,103.59375762939453
1777561099467744000,5.177743896484375,-27.975000381469727,96.28125762939453,102.82500457763672
1777561099477744000,5.187744140625,-28.51875114440918,97.4625015258789,101.51250457763672
1777561099487744000,5.197743896484375,-30.937501907348633,98.88750457763672,105.22500610351562
1777561099497744100,5.207744140625,-32.28750228881836,98.60625457763672,102.5250015258789
1777561099507744000,5.217743896484375,-32.32500076293945,98.1187515258789,103.42500305175781
1777561099517744000,5.227744140625,-32.94375228881836,98.55000305175781,105.50625610351562
1777561099527744000,5.237743896484375,-35.28750228881836,101.04375457763672,106.31250762939453
1777561099537744100,5.247744140625,-34.95000076293945,101.3062515258789,104.66250610351562
1777561099547744000,5.257743896484375,-36.45000076293945,101.41875457763672,103.7437515258789
1777561099557744000,5.267744140625,-35.681251525878906,101.3062515258789,102.9937515258789
1777561099567744000,5.277743896484375,-36.91875076293945,101.26875305175781,104.43750762939453
1777561099577744100,5.287744140625,-36.900001525878906,102.09375762939453,104.15625762939453
1777561099587744000,5.297743896484375,-38.75625228881836,101.28750610351562,104.47500610351562
1777561099597744000,5.307744140625,-39.01875305175781,101.41875457763672,102.82500457763672
1777561099607744000,5.317743896484375,-40.03125,103.0875015258789,103.16250610351562
1777561099617744100,5.327744140625,-41.73750305175781,102.76875305175781,104.41875457763672
1777561099627744000,5.337743896484375,-43.85625076293945,102.82500457763672,103.9312515258789
1777561099637744000,5.347744140625,-44.51250076293945,101.13750457763672,103.48125457763672
1777561099647744000,5.357743896484375,-47.10000228881836,101.41875457763672,103.59375762939453
1777561099657744100,5.367744140625,-48.900001525878906,101.2125015258789,102.18750762939453
1777561099667744000,5.377743896484375,-50.400001525878906,101.83125305175781,102.07500457763672
1777561099677744000,5.387744140625,-50.250003814697266,102.22500610351562,103.96875762939453
1777561099687744000,5.397743896484375,-52.087501525878906,102.30000305175781,104.45625305175781
1777561099697744100,5.407744140625,-54.07500076293945,102.5250015258789,105.97500610351562
1777561099707744000,5.417743896484375,-54.39375305175781,101.34375762939453,103.91250610351562
1777561099717744000,5.427744140625,-55.01250076293945,100.81875610351562,103.68750762939453
1777561099727744000,5.437743896484375,-57.50625228881836,98.9625015258789,102.84375762939453
1777561099737744100,5.447744140625,-58.72500228881836,98.9625015258789,102.88125610351562
1777561099747744000,5.457743896484375,-61.16250228881836,98.94375610351562,103.50000762939453
1777561099757744000,5.467744140625,-59.45625305175781,99.7125015258789,103.7437515258789
1777561099767744000,5.477743896484375,-61.48125076293945,98.15625762939453,102.37500762939453
1777561099777744100,5.487744140625,-62.062503814697266,97.06875610351562,98.36250305175781
1777561099787744000,5.497743896484375,-61.087501525878906,98.41875457763672,97.33125305175781
1777561099797744000,5.507744140625,-61.087501525878906,98.41875457763672,97.33125305175781
1777561099807744000,5.517743896484375,-62.062503814697266,97.06875610351562,98.36250305175781
1777561099817744100,5.527744140625,-61.462501525878906,96.54375457763672,97.40625762939453
1777561099827744000,5.537743896484375,-62.04375076293945,97.70625305175781,98.4937515258789
1777561099837744000,5.547744140625,-62.00625228881836,99.58125305175781,100.25625610351562
1777561099847744000,5.557743896484375,-62.66250228881836,98.62500762939453,101.36250305175781
1777561099857744100,5.567744140625,-61.25625228881836,97.87500762939453,97.0875015258789
1777561099867744000,5.577743896484375,-61.312503814697266,96.95625305175781,97.61250305175781
1777561099877744000,5.587744140625,-57.91875076293945,97.3687515258789,96.18750762939453
1777561099887744000,5.597743896484375,-58.368751525878906,99.41250610351562,99.9937515258789
1777561099897744100,5.607744140625,-58.687503814697266,99.50625610351562,102.26250457763672
1777561099907744000,5.617743896484375,-58.42500305175781,99.58125305175781,105.37500762939453
1777561099917744000,5.627744140625,-58.10625076293945,99.6187515258789,103.96875762939453
1777561099927744000,5.637743896484375,-57.88125228881836,102.60000610351562,106.51875305175781
1777561099937744100,5.647744140625,-56.36250305175781,101.62500762939453,104.0250015258789
1777561099947744000,5.657743896484375,-55.125003814697266,102.0562515258789,104.4937515258789
1777561099957744000,5.667744140625,-55.44375228881836,102.37500762939453,105.84375762939453
1777561099967744000,5.677743896484375,-53.962501525878906,101.0250015258789,105.11250305175781
1777561099977744100,5.687744140625,-54.86250305175781,101.56875610351562,105.39375305175781
1777561099987744000,5.697743896484375,-52.875003814697266,100.91250610351562,103.51875305175781
1777561099997744000,5.707744140625,-54.375003814697266,101.60625457763672,103.96875762939453
1777561100007744000,5.717743896484375,-51.150001525878906,102.78750610351562,104.4000015258789
1777561100017744100,5.727744140625,-54.69375228881836,101.45625305175781,103.80000305175781
1777561100027744000,5.737743896484375,-51.69375228881836,104.32500457763672,103.01250457763672
1777561100037744000,5.747744140625,-51.375003814697266,104.75625610351562,104.2125015258789
1777561100047744000,5.757743896484375,-50.04375076293945,104.06250762939453,104.60625457763672
1777561100057744100,5.767744140625,-46.06875228881836,104.45625305175781,104.00625610351562
1777561100067744000,5.777743896484375,-48.73125076293945,101.75625610351562,102.4312515258789
1777561100077744000,5.787744140625,-44.118751525878906,103.7437515258789,103.40625762939453
1777561100087744000,5.797743896484375,-43.21875,103.70625305175781,103.9312515258789
1777561100097744100,5.807744140625,-40.61250305175781,104.28750610351562,103.68750762939453
1777561100107744000,5.817743896484375,-39.07500076293945,104.10000610351562,102.48750305175781
1777561100117744000,5.827744140625,-37.462501525878906,102.75000762939453,103.4625015258789
1777561100127744000,5.837743896484375,-38.625,104.53125762939453,103.68750762939453
1777561100137744100,5.847744140625,-35.13750076293945,103.91250610351562,102.91875457763672
1777561100147744000,5.857743896484375,-35.66250228881836,101.98125457763672,103.40625762939453
1777561100157744000,5.867744140625,-36.67500305175781,102.91875457763672,102.0562515258789
1777561100167744000,5.877743896484375,-36.07500076293945,103.23750305175781,103.3687515258789
1777561100177744100,5.887744140625,-33.525001525878906,102.26250457763672,102.69375610351562
1777561100187744000,5.897743896484375,-34.06875228881836,103.80000305175781,102.9937515258789
1777561100197744000,5.907744140625,-32.71875,103.59375762939453,103.35000610351562
1777561100207744000,5.917743896484375,-32.19375228881836,101.47500610351562,103.35000610351562
1777561100217744100,5.927744140625,-30.86250114440918,100.89375305175781,104.47500610351562
1777561100227744000,5.937743896484375,-31.293750762939453,101.0250015258789,102.82500457763672
1777561100237744000,5.947744140625,-29.137500762939453,102.09375762939453,103.38750457763672
1777561100247744000,5.957743896484375,-29.137500762939453,102.09375762939453,103.38750457763672
1777561100257744100,5.967744140625,-29.193750381469727,100.2750015258789,103.76250457763672
1777561100267744000,5.977743896484375,-29.062501907348633,100.12500762939453,103.57500457763672
1777561100277744000,5.987744140625,-30.075000762939453,101.06250762939453,103.0875015258789
1777561100287744000,5.997743896484375,-29.193750381469727,99.76875305175781,101.9625015258789
1777561100297744100,6.007744140625,-27.075000762939453,99.0562515258789,100.50000762939453
1777561100307744000,6.017743896484375,-25.556251525878906,99.95625305175781,102.46875762939453
1777561100317744000,6.027744140625,-27.993751525878906,98.90625762939453,100.35000610351562
1777561100327744000,6.037743896484375,-26.92500114440918,99.41250610351562,102.11250305175781
1777561100337744100,6.047744140625,-26.662500381469727,99.0562515258789,103.87500762939453
1777561100347744000,6.057743896484375,-25.837501525878906,101.00625610351562,104.51250457763672
1777561100357744000,6.067744140625,-25.162500381469727,97.2750015258789,100.25625610351562
1777561100367744000,6.077743896484375,-23.006250381469727,98.13750457763672,100.21875762939453
1777561100377744100,6.087744140625,-24.637500762939453,99.09375762939453,99.88125610351562
1777561100387744000,6.097743896484375,-23.943750381469727,97.25625610351562,100.21875762939453
1777561100397744000,6.107744140625,-23.943750381469727,97.12500762939453,99.20625305175781
1777561100407744000,6.117743896484375,-24.562501907348633,97.33125305175781,101.51250457763672
1777561100417744100,6.127744140625,-24.506250381469727,97.98750305175781,99.2437515258789
1777561100427744000,6.137743896484375,-24.712501525878906,97.53750610351562,102.13125610351562
1777561100437744000,6.147744140625,-23.17500114440918,97.16250610351562,99.46875762939453
1777561100447744000,6.157743896484375,-24.67500114440918,97.91250610351562,100.35000610351562
1777561100457744100,6.167744140625,-23.943750381469727,96.97500610351562,99.88125610351562
1777561100467744000,6.177743896484375,-22.275001525878906,96.9937515258789,99.28125762939453
1777561100477744000,6.187744140625,-24.037500381469727,97.16250610351562,96.11250305175781
1777561100487744000,6.197743896484375,-22.03125,97.76250457763672,95.04375457763672
1777561100497744100,6.207744140625,-21.131250381469727,97.89375305175781,96.88125610351562
1777561100507744000,6.217743896484375,-20.475000381469727,95.38125610351562,96.8062515258789
1777561100517744000,6.227744140625,-22.181251525878906,97.12500762939453,93.22500610351562
1777561100527744000,6.237743896484375,-22.106250762939453,95.71875,95.64375305175781
1777561100537744100,6.247744140625,-21.168750762939453,96.03750610351562,94.40625
1777561100547744000,6.257743896484375,-21.150001525878906,96.9937515258789,95.00625610351562
1777561100557744000,6.267744140625,-22.05000114440918,97.53750610351562,95.28750610351562
1777561100567744000,6.277743896484375,-22.087501525878906,97.1812515258789,97.05000305175781
1777561100577744100,6.287744140625,-21.46875,97.85625457763672,98.28750610351562
1777561100587744000,6.297743896484375,-19.96875,96.35625457763672,96.54375457763672
1777561100597744000,6.307744140625,-22.068750381469727,97.91250610351562,97.89375305175781
1777561100607744000,6.317743896484375,-24.337501525878906,98.6812515258789,98.79375457763672
1777561100617744100,6.327744140625,-23.71875,97.87500762939453,96.65625762939453
1777561100627744000,6.337743896484375,-24.093751907348633,97.5562515258789,100.5562515258789
1777561100637744000,6.347744140625,-26.100000381469727,100.76250457763672,100.23750305175781
1777561100647744000,6.357743896484375,-27.543750762939453,99.16875457763672,101.23125457763672
1777561100657744100,6.367744140625,-27.731250762939453,102.4312515258789,102.30000305175781
1777561100667744000,6.377743896484375,-28.218751907348633,101.36250305175781,100.96875762939453
1777561100677744000,6.387744140625,-30.825000762939453,101.38125610351562,103.59375762939453
1777561100687744000,6.397743896484375,-30.825000762939453,101.38125610351562,103.59375762939453
1777561100697744100,6.407744140625,-31.350000381469727,103.7437515258789,103.48125457763672
1777561100707744000,6.417743896484375,-32.681251525878906,103.85625457763672,100.85625457763672
1777561100717744000,6.427744140625,-33.88125228881836,103.31250762939453,98.81250762939453
1777561100727744000,6.437743896484375,-37.78125,105.97500610351562,102.5250015258789
1777561100737744100,6.447744140625,-37.78125,105.97500610351562,102.5250015258789
1777561100747744000,6.457743896484375,-40.70625305175781,105.11250305175781,102.58125305175781
1777561100757744000,6.467744140625,-39.67500305175781,104.2125015258789,102.37500762939453
1777561100767744000,6.477743896484375,-39.78750228881836,104.79375457763672,101.23125457763672
1777561100777744100,6.487744140625,-40.21875,105.48750305175781,100.80000305175781
1777561100787744000,6.497743896484375,-42.525001525878906,104.66250610351562,101.13750457763672
1777561100797744000,6.507744140625,-41.64375305175781,104.15625762939453,101.15625762939453
1777561100807744000,6.517743896484375,-44.8125,104.6812515258789,101.19375610351562
1777561100817744100,6.527744140625,-45.5625,104.94375610351562,101.26875305175781
1777561100827744000,6.537743896484375,-47.962501525878906,106.29375457763672,102.86250305175781
1777561100837744000,6.547744140625,-49.556251525878906,104.41875457763672,102.82500457763672
1777561100847744000,6.557743896484375,-53.32500076293945,105.9000015258789,104.34375762939453
1777561100857744100,6.567744140625,-54.150001525878906,103.16250610351562,102.7125015258789
1777561100867744000,6.577743896484375,-55.80000305175781,103.85625457763672,102.31875610351562
1777561100877744000,6.587744140625,-56.26875305175781,103.12500762939453,101.4937515258789
1777561100887744000,6.597743896484375,-57.31875228881836,102.86250305175781,99.76875305175781
1777561100897744100,6.607744140625,-59.66250228881836,101.85000610351562,101.32500457763672
1777561100907744000,6.617743896484375,-61.06875228881836,100.25625610351562,99.78750610351562
1777561100917744000,6.627744140625,-62.45625305175781,100.44375610351562,101.85000610351562
1777561100927744000,6.637743896484375,-64.14375305175781,99.73125457763672,102.03750610351562
1777561100937744100,6.647744140625,-65.73750305175781,97.31250762939453,100.91250610351562
1777561100947744000,6.657743896484375,-65.8687515258789,98.04375457763672,100.76250457763672
1777561100957744000,6.667744140625,-66.1500015258789,98.43750762939453,100.85625457763672
1777561100967744000,6.677743896484375,-65.4375,97.10625457763672,100.29375457763672
1777561100977744100,6.687744140625,-67.57500457763672,95.98125457763672,97.7437515258789
1777561100987744000,6.697743896484375,-68.8125,96.45000457763672,100.81875610351562
1777561100997744000,6.707744140625,-68.98125457763672,95.7750015258789,99.7125015258789
1777561101007744000,6.717743896484375,-70.95000457763672,95.70000457763672,100.03125762939453
1777561101017744100,6.727744140625,-69.75,95.04375457763672,98.88750457763672
1777561101027744000,6.737743896484375,-71.23125457763672,96.69375610351562,99.95625305175781
1777561101037744000,6.747744140625,-69.88125610351562,96.84375762939453,101.92500305175781
1777561101047744000,6.757743896484375,-70.5,96.22500610351562,100.96875762939453
1777561101057744100,6.767744140625,-68.0250015258789,97.06875610351562,100.9312515258789
1777561101067744000,6.777743896484375,-68.88750457763672,98.7750015258789,101.41875457763672
1777561101077744000,6.787744140625,-67.38750457763672,97.80000305175781,100.76250457763672
1777561101087744000,6.797743896484375,-68.08125305175781,99.58125305175781,100.12500762939453
1777561101097744100,6.807744140625,-66.41250610351562,100.42500305175781,102.50625610351562
1777561101107744000,6.817743896484375,-66.58125305175781,99.30000305175781,100.7437515258789
1777561101117744000,6.827744140625,-64.57500457763672,100.87500762939453,103.10625457763672
1777561101127744000,6.837743896484375,-64.57500457763672,100.87500762939453,103.10625457763672
1777561101137744100,6.847744140625,-64.96875,98.75625610351562,103.98750305175781
1777561101147744000,6.857743896484375,-65.85000610351562,98.90625762939453,102.3375015258789
1777561101157744000,6.867744140625,-63.73125076293945,99.76875305175781,104.85000610351562
1777561101167744000,6.877743896484375,-62.56875228881836,102.03750610351562,103.42500305175781
1777561101177744100,6.887744140625,-63.525001525878906,100.06875610351562,101.79375457763672
1777561101187744000,6.897743896484375,-62.13750076293945,100.98750305175781,102.22500610351562
1777561101197744000,6.907744140625,-60.30000305175781,101.13750457763672,101.4937515258789
1777561101207744000,6.917743896484375,-60.562503814697266,101.71875762939453,101.19375610351562
1777561101217744100,6.927744140625,-58.556251525878906,102.82500457763672,101.2125015258789
1777561101227744000,6.937743896484375,-58.91250228881836,102.73125457763672,104.71875762939453
1777561101237744000,6.947744140625,-57.20625305175781,103.10625457763672,103.91250610351562
1777561101247744000,6.957743896484375,-57.093753814697266,102.75000762939453,104.9625015258789
1777561101257744100,6.967744140625,-54.58125305175781,103.81875610351562,102.84375762939453
1777561101267744000,6.977743896484375,-53.156253814697266,105.97500610351562,104.06250762939453
1777561101277744000,6.987744140625,-50.156253814697266,104.47500610351562,102.28125762939453
1777561101287744000,6.997743896484375,-47.56875228881836,105.00000762939453,103.44375610351562
1777561101297744100,7.007744140625,-49.35000228881836,105.45000457763672,102.16875457763672
1777561101307744000,7.017743896484375,-46.125,106.5562515258789,102.1500015258789
1777561101317744000,7.027744140625,-46.462501525878906,105.63750457763672,102.69375610351562
1777561101327744000,7.037743896484375,-43.875,105.35625457763672,100.7437515258789
1777561101337744100,7.047744140625,-45.525001525878906,105.9000015258789,101.0250015258789
1777561101347744000,7.057743896484375,-42.9375,106.35000610351562,102.45000457763672
1777561101357744000,7.067744140625,-43.181251525878906,103.70625305175781,102.2437515258789
1777561101367744000,7.077743896484375,-41.306251525878906,105.82500457763672,104.00625610351562
1777561101377744100,7.087744140625,-43.16250228881836,105.3375015258789,104.94375610351562
1777561101387744000,7.097743896484375,-40.275001525878906,105.16875457763672,104.70000457763672
1777561101397744000,7.107744140625,-39.01875305175781,105.75000762939453,103.50000762939453
1777561101407744000,7.117743896484375,-38.493751525878906,103.78125762939453,103.68750762939453
1777561101417744100,7.127744140625,-37.91250228881836,103.95000457763672,105.67500305175781
1777561101427744000,7.137743896484375,-38.34375,104.53125762939453,105.37500762939453
1777561101437744000,7.147744140625,-37.59375,104.79375457763672,107.23125457763672
1777561101447744000,7.157743896484375,-36.26250076293945,103.50000762939453,106.10625457763672
1777561101457744100,7.167744140625,-34.931251525878906,102.26250457763672,105.26250457763672
1777561101467744000,7.177743896484375,-34.63125228881836,102.00000762939453,105.20625305175781
1777561101477744000,7.187744140625,-34.16250228881836,103.10625457763672,106.81875610351562
1777561101487744000,7.197743896484375,-33.78750228881836,104.4937515258789,105.2437515258789
1777561101497744100,7.207744140625,-32.34375,101.81250762939453,103.98750305175781
1777561101507744000,7.217743896484375,-33.54375076293945,102.5250015258789,104.5875015258789
1777561101517744000,7.227744140625,-31.387500762939453,103.20000457763672,104.08125305175781
1777561101527744000,7.237743896484375,-34.61250305175781,102.1500015258789,104.53125762939453
1777561101537744100,7.247744140625,-32.17500305175781,102.76875305175781,105.4312515258789
1777561101547744000,7.257743896484375,-32.962501525878906,102.31875610351562,106.50000762939453
1777561101557744000,7.267744140625,-33.712501525878906,102.1500015258789,105.35625457763672
1777561101567744000,7.277743896484375,-33.712501525878906,102.1500015258789,105.35625457763672
1777561101577744100,7.287744140625,-31.443750381469727,101.64375305175781,104.4937515258789
1777561101587744000,7.297743896484375,-32.0625,101.38125610351562,105.31875610351562
1777561101597744000,7.307744140625,-29.193750381469727,100.89375305175781,105.4312515258789
1777561101607744000,7.317743896484375,-31.256250381469727,102.88125610351562,105.30000305175781
1777561101617744100,7.327744140625,-29.17500114440918,101.53125762939453,105.54375457763672
1777561101627744000,7.337743896484375,-31.012500762939453,101.04375457763672,104.64375305175781
1777561101637744000,7.347744140625,-29.493751525878906,100.66875457763672,103.8375015258789
1777561101647744000,7.357743896484375,-30.187501907348633,101.70000457763672,102.35625457763672
1777561101657744100,7.367744140625,-30.187501907348633,102.48750305175781,103.50000762939453
1777561101667744000,7.377743896484375,-29.437501907348633,101.62500762939453,101.90625762939453
1777561101677744000,7.387744140625,-28.687501907348633,101.25000762939453,101.81250762939453
1777561101687744000,7.397743896484375,-30.637500762939453,102.75000762939453,103.5562515258789
1777561101697744100,7.407744140625,-29.287500381469727,100.95000457763672,100.63125610351562
1777561101707744000,7.417743896484375,-28.556251525878906,101.04375457763672,103.03125762939453
1777561101717744000,7.427744140625,-29.381250381469727,102.76875305175781,101.13750457763672
1777561101727744000,7.437743896484375,-30.637500762939453,101.88750457763672,101.98125457763672
1777561101737744100,7.447744140625,-29.887500762939453,101.9625015258789,102.39375305175781
1777561101747744000,7.457743896484375,-29.26875114440918,102.22500610351562,102.58125305175781
1777561101757744000,7.467744140625,-28.593751907348633,102.75000762939453,99.26250457763672
1777561101767744000,7.477743896484375,-27.58125114440918,102.46875762939453,101.73750305175781
1777561101777744100,7.487744140625,-29.287500381469727,101.47500610351562,101.71875762939453
1777561101787744000,7.497743896484375,-30.656251907348633,101.04375457763672,100.40625762939453
1777561101797744000,7.507744140625,-30.150001525878906,102.97500610351562,102.60000610351562
1777561101807744000,7.517743896484375,-32.08125305175781,103.31250762939453,100.59375762939453
1777561101817744100,7.527744140625,-31.293750762939453,103.29375457763672,98.73750305175781
1777561101827744000,7.537743896484375,-28.89375114440918,101.10000610351562,94.875
1777561101837744000,7.547744140625,-32.10000228881836,101.0250015258789,95.92500305175781
1777561101847744000,7.557743896484375,-33.88125228881836,101.94375610351562,95.4375
1777561101857744100,7.567744140625,-32.625,104.00625610351562,97.6500015258789
1777561101867744000,7.577743896484375,-33,101.66250610351562,96.91875457763672
1777561101877744000,7.587744140625,-35.0625,103.38750457763672,96.73125457763672
1777561101887744000,7.597743896484375,-39.712501525878906,101.75625610351562,98.38125610351562
1777561101897744100,7.607744140625,-39.16875076293945,104.90625762939453,101.08125305175781
1777561101907744000,7.617743896484375,-42.20625305175781,104.85000610351562,100.7437515258789
1777561101917744000,7.627744140625,-42.243751525878906,104.4937515258789,102.50625610351562
1777561101927744000,7.637743896484375,-43.59375,104.92500305175781,102.0562515258789
1777561101937744100,7.647744140625,-45.41250228881836,104.92500305175781,102.11250305175781
1777561101947744000,7.657743896484375,-43.72500228881836,105.35625457763672,101.5875015258789
1777561101957744000,7.667744140625,-44.92500305175781,101.6812515258789,102.03750610351562
1777561101967744000,7.677743896484375,-46.98750305175781,104.25000762939453,103.42500305175781
1777561101977744100,7.687744140625,-48.82500076293945,104.55000305175781,105.37500762939453
1777561101987744000,7.697743896484375,-50.08125305175781,103.51875305175781,105.20625305175781
1777561101997744000,7.707744140625,-49.29375076293945,104.10000610351562,104.8687515258789
1777561102007744000,7.717743896484375,-51.39375305175781,104.04375457763672,103.6500015258789
1777561102017744100,7.727744140625,-51.39375305175781,104.04375457763672,103.6500015258789
1777561102027744000,7.737743896484375,-54.60000228881836,103.66875457763672,103.51875305175781
1777561102037744000,7.747744140625,-53.92500305175781,104.98125457763672,101.4937515258789
1777561102047744000,7.757743896484375,-56.212501525878906,103.9312515258789,100.21875762939453
1777561102057744100,7.767744140625,-56.85000228881836,103.61250305175781,101.45625305175781
1777561102067744000,7.777743896484375,-57.13125228881836,104.81250762939453,102.82500457763672
1777561102077744000,7.787744140625,-58.837501525878906,102.9937515258789,100.53750610351562
1777561102087744000,7.797743896484375,-60.54375076293945,103.16250610351562,102.60000610351562
1777561102097744100,7.807744140625,-62.70000076293945,101.8687515258789,101.41875457763672
1777561102107744000,7.817743896484375,-60.11250305175781,102.35625457763672,102.1500015258789
1777561102117744000,7.827744140625,-62.681251525878906,102.31875610351562,101.92500305175781
1777561102127744000,7.837743896484375,-61.85625076293945,99.4312515258789,100.0875015258789
1777561102137744100,7.847744140625,-62.88750076293945,100.40625762939453,100.72500610351562
1777561102147744000,7.857743896484375,-61.85625076293945,99.9000015258789,101.5875015258789
1777561102157744000,7.867744140625,-63.375003814697266,100.40625762939453,102.4312515258789
1777561102167744000,7.877743896484375,-65.36250305175781,100.23750305175781,103.01250457763672
1777561102177744100,7.887744140625,-67.63125610351562,100.20000457763672,102.63750457763672
1777561102187744000,7.897743896484375,-66.9000015258789,100.03125762939453,103.29375457763672
1777561102197744000,7.907744140625,-67.63125610351562,101.10000610351562,104.64375305175781
1777561102207744000,7.917743896484375,-68.8687515258789,100.01250457763672,103.06875610351562
1777561102217744100,7.927744140625,-67.51875305175781,99.20625305175781,102.73125457763672
1777561102227744000,7.937743896484375,-67.63125610351562,100.20000457763672,102.63750457763672
1777561102237744000,7.947744140625,-65.6812515258789,100.35000610351562,104.5875015258789
1777561102247744000,7.957743896484375,-66.7125015258789,100.38750457763672,102.22500610351562
1777561102257744100,7.967744140625,-66.5625,99.93750762939453,100.87500762939453
1777561102267744000,7.977743896484375,-65.8125,100.03125762939453,101.56875610351562
1777561102277744000,7.987744140625,-64.16250610351562,98.32500457763672,99.22500610351562
1777561102287744000,7.997743896484375,-65.94375610351562,99.50625610351562,98.79375457763672
1777561102297744100,8.007744140625,-65.5875015258789,101.73750305175781,101.32500457763672
1777561102307744000,8.017743896484374,-62.88750076293945,100.16250610351562,99.11250305175781
1777561102317744000,8.027744140625,-64.0875015258789,101.04375457763672,100.87500762939453
1777561102327744000,8.037743896484375,-63.468753814697266,101.73750305175781,102.11250305175781
1777561102337744100,8.047744140625,-62.681251525878906,101.71875762939453,100.40625762939453
1777561102347744000,8.057743896484375,-62.92500305175781,100.0875015258789,102.76875305175781
1777561102357744000,8.067744140625,-61.61250305175781,102.6187515258789,102.2437515258789
1777561102367744000,8.077743896484375,-62.56875228881836,100.51875305175781,98.88750457763672
1777561102377744100,8.087744140625,-62.718753814697266,100.87500762939453,100.51875305175781
1777561102387744000,8.097743896484374,-63.35625076293945,101.00625610351562,102.26250457763672
1777561102397744000,8.107744140625,-63.16875076293945,100.76250457763672,99.8062515258789
1777561102407744000,8.117743896484376,-64.25625610351562,100.38750457763672,99.76875305175781
1777561102417744100,8.127744140625,-64.23750305175781,100.14375305175781,98.0250015258789
1777561102427744000,8.137743896484375,-64.9312515258789,100.1812515258789,94.10625457763672
1777561102437744000,8.147744140625,-64.53750610351562,100.06875610351562,97.59375762939453
1777561102447744000,8.157743896484375,-64.10625457763672,98.9625015258789,96.8062515258789
1777561102457744100,8.167744140625,-64.10625457763672,98.9625015258789,96.8062515258789
1777561102467744000,8.177743896484374,-66.03750610351562,100.89375305175781,98.92500305175781
1777561102477744000,8.187744140625,-66,102.07500457763672,98.43750762939453
1777561102487744000,8.197743896484376,-64.95000457763672,101.32500457763672,97.5562515258789
1777561102497744100,8.207744140625,-63.88125228881836,101.3062515258789,97.53750610351562
1777561102507744000,8.217743896484375,-64.35000610351562,100.50000762939453,97.10625457763672
1777561102517744000,8.227744140625,-62.775001525878906,102.11250305175781,97.0875015258789
1777561102527744000,8.237743896484375,-63.95625305175781,103.5562515258789,98.38125610351562
1777561102537744100,8.247744140625,-61.05000305175781,103.42500305175781,96.73125457763672
1777561102547744000,8.257743896484374,-60.281253814697266,103.6500015258789,96.46875762939453
1777561102557744000,8.267744140625,-60.468753814697266,102.5250015258789,95.70000457763672
1777561102567744000,8.277743896484376,-59.56875228881836,102.46875762939453,96.93750762939453
1777561102577744100,8.287744140625,-59.92500305175781,104.28750610351562,94.05000305175781
1777561102587744000,8.297743896484375,-60.375003814697266,105.13125610351562,96.46875762939453
1777561102597744000,8.307744140625,-58.462501525878906,103.63125610351562,96.41250610351562
1777561102607744000,8.317743896484375,-59.400001525878906,102.63750457763672,96.39375305175781
1777561102617744100,8.327744140625,-58.91250228881836,104.38125610351562,98.1187515258789
1777561102627744000,8.337743896484374,-57.843753814697266,104.3062515258789,97.66875457763672
1777561102637744000,8.347744140625,-57.13125228881836,102.82500457763672,97.78125762939453
1777561102647744000,8.357743896484376,-54.806251525878906,104.19375610351562,96.84375762939453
1777561102657744100,8.367744140625,-55.98750305175781,104.83125305175781,97.01250457763672
1777561102667744000,8.377743896484375,-56.062503814697266,103.57500457763672,98.60625457763672
1777561102677744000,8.387744140625,-54.76875305175781,105.28125762939453,97.48125457763672
1777561102687744000,8.397743896484375,-53.88750076293945,104.88750457763672,98.23125457763672
1777561102697744100,8.407744140625,-52.462501525878906,106.01250457763672,98.26875305175781
1777561102707744000,8.417743896484374,-52.650001525878906,105.01875305175781,97.51875305175781
1777561102717744000,8.427744140625,-53.10000228881836,105.09375762939453,97.96875762939453
1777561102727744000,8.437743896484376,-52.63125228881836,105.67500305175781,97.63125610351562
1777561102737744100,8.447744140625,-51.58125305175781,105.50625610351562,98.28750610351562
1777561102747744000,8.457743896484375,-51.22500228881836,105.73125457763672,95.4937515258789
1777561102757744000,8.467744140625,-50.17500305175781,104.75625610351562,94.01250457763672
1777561102767744000,8.477743896484375,-49.16250228881836,103.48125457763672,93.75
1777561102777744100,8.487744140625,-47.90625,104.75625610351562,93.95625305175781
1777561102787744000,8.497743896484375,-48.937503814697266,105.8062515258789,94.3125
1777561102797744000,8.507744140625,-47.13750076293945,104.15625762939453,92.4000015258789
1777561102807744000,8.517743896484374,-46.98750305175781,103.89375305175781,91.5
1777561102817744100,8.527744140625,-47.00625228881836,103.29375457763672,91.66875457763672
1777561102827744000,8.537743896484375,-44.681251525878906,104.0250015258789,90.76875305175781
1777561102837744000,8.547744140625,-47.88750076293945,104.64375305175781,93.22500610351562
1777561102847744000,8.557743896484375,-47.493751525878906,104.2125015258789,96.2437515258789
1777561102857744100,8.567744140625,-47.47500228881836,104.5875015258789,96.31875610351562
1777561102867744000,8.577743896484375,-47.10000228881836,106.38750457763672,94.95000457763672
1777561102877744000,8.587744140625,-47.868751525878906,107.15625762939453,97.6500015258789
1777561102887744000,8.597743896484374,-46.81875228881836,106.44375610351562,97.06875610351562
1777561102897744100,8.607744140625,-46.81875228881836,106.44375610351562,97.06875610351562
1777561102907744000,8.617743896484376,-47.88750076293945,105.65625762939453,95.9625015258789
1777561102917744000,8.627744140625,-44.26875305175781,104.15625762939453,94.16250610351562
1777561102927744000,8.637743896484375,-43.48125076293945,105.9000015258789,95.88750457763672
1777561102937744100,8.647744140625,-43.98750305175781,103.91250610351562,94.25625610351562
1777561102947744000,8.657743896484375,-45.9375,104.73750305175781,95.5875015258789
1777561102957744000,8.667744140625,-43.21875,104.71875762939453,95.51250457763672
1777561102967744000,8.677743896484374,-44.23125076293945,105.54375457763672,95.13750457763672
1777561102977744100,8.687744140625,-43.931251525878906,105.93750762939453,95.34375
1777561102987744000,8.697743896484376,-45.01875305175781,104.19375610351562,92.7750015258789
1777561102997744000,8.707744140625,-44.70000076293945,104.7750015258789,93.30000305175781
1777561103007744000,8.717743896484375,-43.61250305175781,105.46875762939453,93.84375
1777561103017744100,8.727744140625,-43.931251525878906,104.66250610351562,92.56875610351562
1777561103027744000,8.737743896484375,-42.712501525878906,104.45625305175781,92.0625
1777561103037744000,8.747744140625,-42.11250305175781,105.07500457763672,93.7125015258789
1777561103047744000,8.757743896484374,-41.19375228881836,104.4000015258789,91.59375
1777561103057744100,8.767744140625,-43.63125228881836,104.23125457763672,92.19375610351562
1777561103067744000,8.777743896484376,-44.51250076293945,105.9000015258789,93.375
1777561103077744000,8.787744140625,-43.03125,104.60625457763672,93.09375
1777561103087744000,8.797743896484375,-42.67500305175781,105.9000015258789,93.31875610351562
1777561103097744100,8.807744140625,-41.962501525878906,104.9625015258789,93.84375
1777561103107744000,8.817743896484375,-43.181251525878906,103.16250610351562,89.15625
1777561103117744000,8.827744140625,-44.19375228881836,104.73750305175781,89.625
1777561103127744000,8.837743896484374,-46.6875,103.98750305175781,92.23125457763672
1777561103137744100,8.847744140625,-45.11250305175781,105.5250015258789,92.47500610351562
1777561103147744000,8.857743896484376,-44.587501525878906,102.75000762939453,91.3687515258789
1777561103157744000,8.867744140625,-45.35625076293945,102.48750305175781,91.33125305175781
1777561103167744000,8.877743896484375,-47.868751525878906,104.28750610351562,90.75
1777561103177744100,8.887744140625,-48.35625076293945,103.68750762939453,90.9375
1777561103187744000,8.897743896484375,-49.125003814697266,103.3687515258789,91.33125305175781
1777561103197744000,8.907744140625,-52.44375228881836,104.51250457763672,92.34375
1777561103207744000,8.917743896484374,-51.73125076293945,102.4312515258789,90.78750610351562
1777561103217744100,8.927744140625,-52.29375076293945,103.21875762939453,89.4000015258789
1777561103227744000,8.937743896484376,-52.968753814697266,101.94375610351562,90.01875305175781
1777561103237744000,8.947744140625,-54.86250305175781,100.72500610351562,91.95000457763672
1777561103247744000,8.957743896484375,-56.23125076293945,100.40625762939453,91.3687515258789
1777561103257744100,8.967744140625,-54.26250076293945,100.44375610351562,91.7437515258789
1777561103267744000,8.977743896484375,-58.781253814697266,101.43750762939453,91.63125610351562
1777561103277744000,8.987744140625,-57.30000305175781,100.4625015258789,91.8375015258789
1777561103287744000,8.997743896484375,-58.63125228881836,101.34375762939453,91.89375305175781
1777561103297744100,9.007744140625,-58.63125228881836,101.25000762939453,91.16250610351562
1777561103307744000,9.017743896484374,-58.087501525878906,99.82500457763672,91.72500610351562
1777561103317744000,9.027744140625,-58.63125228881836,101.64375305175781,92.23125457763672
1777561103327744000,9.037743896484375,-60.20625305175781,100.59375762939453,93.48750305175781
1777561103337744100,9.047744140625,-60.39375305175781,99.95625305175781,94.21875
1777561103347744000,9.057743896484375,-60.39375305175781,99.95625305175781,94.21875
1777561103357744000,9.067744140625,-62.306251525878906,101.0250015258789,93.0562515258789
1777561103367744000,9.077743896484375,-60.39375305175781,99.0562515258789,92.34375
1777561103377744100,9.087744140625,-63.11250305175781,99.86250305175781,93.5625
1777561103387744000,9.097743896484374,-63.431251525878906,99.4312515258789,93.20625305175781
1777561103397744000,9.107744140625,-63.88125228881836,99.3375015258789,92.4937515258789
1777561103407744000,9.117743896484376,-64.5,98.62500762939453,91.95000457763672
1777561103417744100,9.127744140625,-64.51875305175781,98.38125610351562,91.91250610351562
1777561103427744000,9.137743896484375,-65.90625,96.9937515258789,90.13125610351562
1777561103437744000,9.147744140625,-65.38125610351562,94.33125305175781,88.05000305175781
1777561103447744000,9.157743896484375,-67.6875,94.44375610351562,90.5250015258789
1777561103457744100,9.167744140625,-67.63125610351562,95.1187515258789,89.25
1777561103467744000,9.177743896484374,-67.57500457763672,96.63750457763672,88.5562515258789
1777561103477744000,9.187744140625,-68.38125610351562,95.47500610351562,89.0625
1777561103487744000,9.197743896484376,-68.8125,96.16875457763672,89.47500610351562
1777561103497744100,9.207744140625,-66.91875457763672,94.21875,89.0625
1777561103507744000,9.217743896484375,-69.91875457763672,95.2125015258789,89.75625610351562
1777561103517744000,9.227744140625,-67.63125610351562,95.94375610351562,90.54375457763672
1777561103527744000,9.237743896484375,-66.41250610351562,94.6500015258789,86.8687515258789
1777561103537744100,9.247744140625,-66.9000015258789,93.9000015258789,86.88750457763672
1777561103547744000,9.257743896484374,-67.61250305175781,95.625,88.35000610351562
1777561103557744000,9.267744140625,-66.5625,94.875,87.48750305175781
1777561103567744000,9.277743896484376,-66.4312515258789,94.61250305175781,88.2750015258789
1777561103577744100,9.287744140625,-68.0625,96.1500015258789,89.45625305175781
1777561103587744000,9.297743896484375,-67.63125610351562,95.71875,90.76875305175781
1777561103597744000,9.307744140625,-66.9000015258789,95.34375,90.67500305175781
1777561103607744000,9.317743896484375,-66.86250305175781,95.8687515258789,90.07500457763672
1777561103617744100,9.327744140625,-68.1187515258789,95.66250610351562,92.88750457763672
1777561103627744000,9.337743896484374,-69.5625,97.33125305175781,91.5562515258789
1777561103637744000,9.347744140625,-69.46875,96.01875305175781,91.875
1777561103647744000,9.357743896484376,-68.4937515258789,93.3375015258789,91.48125457763672
1777561103657744100,9.367744140625,-68.28750610351562,94.25625610351562,90.09375
1777561103667744000,9.377743896484375,-71.23125457763672,92.8687515258789,90.75
1777561103677744000,9.387744140625,-69.26250457763672,92.79375457763672,90.26250457763672
1777561103687744000,9.397743896484375,-69.58125305175781,91.7437515258789,88.23750305175781
1777561103697744100,9.407744140625,-69.5625,92.4937515258789,89.08125305175781
1777561103707744000,9.417743896484374,-68.83125305175781,91.89375305175781,89.23125457763672
1777561103717744000,9.427744140625,-72.45000457763672,92.19375610351562,88.66875457763672
1777561103727744000,9.437743896484376,-70.8375015258789,91.25625610351562,90
1777561103737744100,9.447744140625,-72.9937515258789,90.0562515258789,89.41875457763672
1777561103747744000,9.457743896484375,-71.45625305175781,91.6875,92.08125305175781
1777561103757744000,9.467744140625,-71.0250015258789,90.67500305175781,91.1812515258789
1777561103767744000,9.477743896484375,-72.9937515258789,90.58125305175781,90.50625610351562
1777561103777744100,9.487744140625,-73.9312515258789,90.63750457763672,92.51250457763672
1777561103787744000,9.497743896484375,-73.9312515258789,90.63750457763672,92.51250457763672
1777561103797744000,9.507744140625,-74.53125,90.91875457763672,92.71875
1777561103807744000,9.517743896484374,-73.125,91.91250610351562,92.73750305175781
1777561103817744100,9.527744140625,-72.50625610351562,92.4937515258789,93.39375305175781
1777561103827744000,9.537743896484375,-71.26875305175781,93.01875305175781,93.60000610351562
1777561103837744000,9.547744140625,-68.4000015258789,93,94.3687515258789
1777561103847744000,9.557743896484375,-70.875,92.90625,97.10625457763672
1777561103857744100,9.567744140625,-71.23125457763672,95.70000457763672,97.35000610351562
1777561103867744000,9.577743896484375,-69.0562515258789,96.54375457763672,97.1812515258789
1777561103877744000,9.587744140625,-66.50625610351562,95.45625305175781,96.6187515258789
1777561103887744000,9.597743896484374,-69.91875457763672,94.0875015258789,97.44375610351562
1777561103897744100,9.607744140625,-67.63125610351562,93.4312515258789,95.56875610351562
1777561103907744000,9.617743896484376,-69.58125305175781,94.8375015258789,96.58125305175781
1777561103917744000,9.627744140625,-67.7437515258789,94.85625457763672,95.98125457763672
1777561103927744000,9.637743896484375,-68.45625305175781,96.26250457763672,96.97500610351562
1777561103937744100,9.647744140625,-67.66875457763672,97.16250610351562,96.41250610351562
1777561103947744000,9.657743896484375,-67.35000610351562,98.26875305175781,98.0250015258789
1777561103957744000,9.667744140625,-64.61250305175781,98.47500610351562,99.41250610351562
1777561103967744000,9.677743896484374,-65.4000015258789,97.8375015258789,99.30000305175781
1777561103977744100,9.687744140625,-63.431251525878906,97.4625015258789,99.31875610351562
1777561103987744000,9.697743896484376,-65.2125015258789,97.7437515258789,97.03125762939453
1777561103997744000,9.707744140625,-63.993751525878906,99.20625305175781,100.23750305175781
1777561104007744000,9.717743896484375,-63.67500305175781,99.50625610351562,100.57500457763672
1777561104017744100,9.727744140625,-62.156253814697266,99.37500762939453,99.65625762939453
1777561104027744000,9.737743896484375,-64.14375305175781,99.97500610351562,102.07500457763672
1777561104037744000,9.747744140625,-62.531253814697266,97.87500762939453,101.36250305175781
1777561104047744000,9.757743896484374,-61.218753814697266,100.6500015258789,101.56875610351562
1777561104057744100,9.767744140625,-62.45625305175781,100.61250305175781,103.01250457763672
1777561104067744000,9.777743896484376,-60.993751525878906,98.36250305175781,100.42500305175781
1777561104077744000,9.787744140625,-59.812503814697266,100.85625457763672,99.60000610351562
1777561104087744000,9.797743896484375,-59.70000076293945,101.0250015258789,101.60625457763672
1777561104097744100,9.807744140625,-61.10625076293945,99.60000610351562,101.23125457763672
1777561104107744000,9.817743896484375,-59.88750076293945,100.5562515258789,103.48125457763672
1777561104117744000,9.827744140625,-58.312503814697266,101.66250610351562,102.5250015258789
1777561104127744000,9.837743896484374,-57.656253814697266,102.22500610351562,100.50000762939453
1777561104137744100,9.847744140625,-58.01250076293945,101.15625762939453,101.71875762939453
1777561104147744000,9.857743896484376,-56.64375305175781,101.26875305175781,101.56875610351562
1777561104157744000,9.867744140625,-57.243751525878906,101.9625015258789,102.9937515258789
1777561104167744000,9.877743896484375,-58.10625076293945,102.93750762939453,101.92500305175781
1777561104177744100,9.887744140625,-56.681251525878906,99.97500610351562,101.32500457763672
1777561104187744000,9.897743896484375,-57.056251525878906,102.11250305175781,100.61250305175781
1777561104197744000,9.907744140625,-56.587501525878906,102.3375015258789,100.35000610351562
1777561104207744000,9.917743896484374,-55.687503814697266,102.8062515258789,101.98125457763672
1777561104217744100,9.927744140625,-57.656253814697266,102.82500457763672,102.03750610351562
1777561104227744000,9.937743896484376,-57.656253814697266,102.82500457763672,102.03750610351562
1777561104237744000,9.947744140625,-56.41875076293945,102.93750762939453,101.0250015258789
1777561104247744000,9.957743896484375,-56.36250305175781,105.11250305175781,103.14375305175781
1777561104257744100,9.967744140625,-60.07500076293945,103.7437515258789,103.10625457763672
1777561104267744000,9.977743896484375,-60.07500076293945,103.7437515258789,103.10625457763672
1777561104277744000,9.987744140625,-58.10625076293945,103.23750305175781,102.26250457763672
1777561104287744000,9.997743896484375,-56.10000228881836,103.78125762939453,102.60000610351562
1777561104297744100,10.007744140625,-57.26250076293945,104.08125305175781,99.58125305175781
1777561104307744000,10.017743896484374,-57.31875228881836,103.4625015258789,101.28750610351562
1777561104317744000,10.027744140625,-56.118751525878906,103.06875610351562,102.03750610351562
1777561104327744000,10.037743896484375,-55.80000305175781,103.35000610351562,100.53750610351562
1777561104337744100,10.047744140625,-57.31875228881836,103.3687515258789,100.57500457763672
1777561104347744000,10.057743896484375,-59.26875305175781,103.10625457763672,98.73750305175781
1777561104357744000,10.067744140625,-58.98750305175781,102.7125015258789,99.50625610351562
1777561104367744000,10.077743896484375,-61.10625076293945,103.38750457763672,100.66875457763672
1777561104377744100,10.087744140625,-61.53750228881836,103.9312515258789,100.0875015258789
1777561104387744000,10.097743896484374,-62.812503814697266,102.09375762939453,99.48750305175781
1777561104397744000,10.107744140625,-63.093753814697266,102.65625762939453,99.88125610351562
1777561104407744000,10.117743896484376,-62.70000076293945,101.47500610351562,100.35000610351562
1777561104417744100,10.127744140625,-64.3125,101.4937515258789,97.01250457763672
1777561104427744000,10.137743896484375,-66.84375,98.70000457763672,96.69375610351562
1777561104437744000,10.147744140625,-69.60000610351562,99.09375762939453,99.37500762939453
1777561104447744000,10.157743896484375,-69.8062515258789,96.28125762939453,95.45625305175781
1777561104457744100,10.167744140625,-73.06875610351562,95.66250610351562,98.81250762939453
1777561104467744000,10.177743896484374,-74.4375,94.89375305175781,97.01250457763672
1777561104477744000,10.187744140625,-75.28125,92.23125457763672,95.8125
1777561104487744000,10.197743896484376,-76.33125305175781,92.73750305175781,96.63750457763672
1777561104497744100,10.207744140625,-77.00625610351562,91.8375015258789,98.19375610351562
1777561104507744000,10.217743896484375,-80.08125305175781,90.50625610351562,97.59375762939453
1777561104517744000,10.227744140625,-77.94375610351562,90.07500457763672,95.47500610351562
1777561104527744000,10.237743896484375,-77.98125457763672,89.25,96.73125457763672
1777561104537744100,10.247744140625,-80.90625,88.95000457763672,98.0250015258789
1777561104547744000,10.257743896484374,-81.76875305175781,85.1812515258789,95.2125015258789
1777561104557744000,10.267744140625,-80.23125457763672,86.38125610351562,97.51875305175781
1777561104567744000,10.277743896484376,-83.60625457763672,85.5,97.44375610351562
1777561104577744100,10.287744140625,-84.13125610351562,83.47500610351562,96.35625457763672
1777561104587744000,10.297743896484375,-84.48750305175781,81.30000305175781,94.25625610351562
1777561104597744000,10.307744140625,-84.9375,81.2437515258789,93.84375
1777561104607744000,10.317743896484375,-83.8687515258789,76.85625457763672,93.67500305175781
1777561104617744100,10.327744140625,-85.0875015258789,75.86250305175781,91.125
1777561104627744000,10.337743896484374,-86.66250610351562,73.61250305175781,88.48125457763672
1777561104637744000,10.347744140625,-86.8125,73.3125,87.30000305175781
1777561104647744000,10.357743896484376,-86.25,71.94375610351562,88.14375305175781
1777561104657744100,10.367744140625,-88.44375610351562,69.5625,85.48125457763672
1777561104667744000,10.377743896484375,-86.08125305175781,67.48125457763672,84.88125610351562
1777561104677744000,10.387744140625,-86.08125305175781,67.48125457763672,84.88125610351562
1777561104687744000,10.397743896484375,-86.25,66.69375610351562,84.60000610351562
1777561104697744100,10.407744140625,-85.53750610351562,65.4000015258789,84.3375015258789
1777561104707744000,10.417743896484374,-85.53750610351562,63.900001525878906,80.79375457763672
1777561104717744000,10.427744140625,-85.01250457763672,61.06875228881836,79.40625
1777561104727744000,10.437743896484376,-85.61250305175781,61.650001525878906,79.95000457763672
1777561104737744100,10.447744140625,-83.17500305175781,61.05000305175781,77.51250457763672
1777561104747744000,10.457743896484375,-81.8062515258789,60.78750228881836,76.57500457763672
1777561104757744000,10.467744140625,-84.26250457763672,59.66250228881836,76.57500457763672
1777561104767744000,10.477743896484375,-81.46875,61.10625076293945,76.20000457763672
1777561104787744000,10.497743896484375,-81.46875,59.92500305175781,72.45000457763672
1777561104797744000,10.507744140625,-79.63125610351562,59.212501525878906,69.30000305175781
1777561104807744000,10.517743896484374,-79.3125,59.00625228881836,67.8375015258789
1777561104817744100,10.527744140625,-79.48125457763672,59.04375076293945,68.98125457763672
1777561104827744000,10.537743896484375,-81.11250305175781,60.187503814697266,69.11250305175781
1777561104837744000,10.547744140625,-82.0875015258789,62.906253814697266,69.78750610351562
1777561104847744000,10.557743896484375,-81.73125457763672,62.98125076293945,66.82500457763672
1777561104857744100,10.567744140625,-80.04375457763672,63.82500076293945,67.51875305175781
1777561104867744000,10.577743896484375,-82.01250457763672,64.42500305175781,69.09375
1777561104877744000,10.587744140625,-79.98750305175781,65.04375457763672,67.33125305175781
1777561104887744000,10.597743896484374,-80.41875457763672,65.56875610351562,66.73125457763672
1777561104897744100,10.607744140625,-78.9375,66.28125,59.625003814697266
1777561104907744000,10.617743896484376,-78.88125610351562,69.78750610351562,64.81875610351562
1777561104917744000,10.627744140625,-82.57500457763672,69.63750457763672,68.98125457763672
1777561104927744000,10.637743896484375,-82.81875610351562,71.10000610351562,67.85625457763672
1777561104937744100,10.647744140625,-79.875,72.69375610351562,67.6500015258789
1777561104947744000,10.657743896484375,-80.19375610351562,71.5875015258789,66.88125610351562
1777561104957744000,10.667744140625,-82.70625305175781,72.35625457763672,63.562503814697266
1777561104967744000,10.677743896484374,-81.76875305175781,74.4937515258789,67.20000457763672
1777561104977744100,10.687744140625,-81.16875457763672,74.4000015258789,67.44375610351562
1777561104987744000,10.697743896484376,-80.92500305175781,78.07500457763672,70.40625
1777561104997744000,10.707744140625,-81.9937515258789,77.92500305175781,71.10000610351562
1777561105007744000,10.717743896484375,-82.76250457763672,77.94375610351562,71.1187515258789
1777561105017744100,10.727744140625,-82.3687515258789,80.8125,72.09375
1777561105027744000,10.737743896484375,-84.9000015258789,84.5250015258789,77.8125
1777561105037744000,10.747744140625,-86.25,85.42500305175781,78.86250305175781
1777561105047744000,10.757743896484374,-84.84375,87.67500305175781,82.35000610351562
1777561105057744100,10.767744140625,-86.4937515258789,88.05000305175781,81.48750305175781
1777561105067744000,10.777743896484376,-85.57500457763672,87.65625,80.53125
1777561105077744000,10.787744140625,-81.65625,89.2125015258789,75.78750610351562
1777561105087744000,10.797743896484375,-84.41250610351562,89.47500610351562,77.60625457763672
1777561105097744100,10.807744140625,-79.8375015258789,89.66250610351562,77.23125457763672
1777561105107744000,10.817743896484375,-79.8375015258789,89.66250610351562,77.23125457763672
1777561105117744000,10.827744140625,-85.29375457763672,91.89375305175781,82.1812515258789
1777561105127744000,10.837743896484374,-83.98125457763672,91.35000610351562,84.45000457763672
1777561105137744100,10.847744140625,-82.1812515258789,95.0625,85.25625610351562
1777561105147744000,10.857743896484376,-82.1812515258789,95.0625,85.25625610351562
1777561105157744000,10.867744140625,-83.83125305175781,95.98125457763672,86.3062515258789
1777561105167744000,10.877743896484375,-81.84375,96.67500305175781,87.65625
1777561105177744100,10.887744140625,-81.2437515258789,95.66250610351562,85.91250610351562
1777561105187744000,10.897743896484375,-82.40625,97.98750305175781,88.21875
1777561105197744000,10.907744140625,-80.28750610351562,97.57500457763672,87.09375
1777561105207744000,10.917743896484374,-80.56875610351562,98.2125015258789,87.22500610351562
1777561105217744100,10.927744140625,-79.61250305175781,98.85000610351562,86.47500610351562
1777561105227744000,10.937743896484376,-79.875,99.97500610351562,85.5562515258789
1777561105237744000,10.947744140625,-78.88125610351562,99.0562515258789,87.9000015258789
1777561105247744000,10.957743896484375,-80.94375610351562,101.25000762939453,89.2125015258789
1777561105257744100,10.967744140625,-76.70625305175781,100.51875305175781,88.53750610351562
1777561105267744000,10.977743896484375,-78.9375,101.7750015258789,88.5562515258789
1777561105277744000,10.987744140625,-78.0562515258789,100.98750305175781,88.23750305175781
1777561105287744000,10.997743896484375,-76.72500610351562,102.6187515258789,84.9937515258789
1777561105297744100,11.007744140625,-76.48125457763672,101.5875015258789,86.4937515258789
1777561105307744000,11.017743896484374,-75.69375610351562,102.9000015258789,88.5562515258789
1777561105317744000,11.027744140625,-77.7750015258789,103.70625305175781,86.36250305175781
1777561105327744000,11.037743896484375,-76.29375457763672,102.88125610351562,87.58125305175781
1777561105337744100,11.047744140625,-76.57500457763672,103.31250762939453,86.25
1777561105347744000,11.057743896484375,-76.21875,104.47500610351562,85.76250457763672
1777561105357744000,11.067744140625,-76.23750305175781,104.43750762939453,87.16875457763672
1777561105367744000,11.077743896484375,-76.1812515258789,105.07500457763672,85.59375
1777561105377744100,11.087744140625,-75.01875305175781,103.72500610351562,84.88125610351562
1777561105387744000,11.097743896484374,-73.40625,106.03125762939453,85.2750015258789
1777561105397744000,11.107744140625,-75.9375,102.76875305175781,83.45625305175781
1777561105407744000,11.117743896484376,-73.89375305175781,104.4937515258789,83.3062515258789
1777561105417744100,11.127744140625,-75.28125,104.81250762939453,84.67500305175781
1777561105427744000,11.137743896484375,-74.60625457763672,106.14375305175781,84.3375015258789
1777561105437744000,11.147744140625,-74.4375,106.81875610351562,83.90625
1777561105447744000,11.157743896484375,-74.92500305175781,104.75625610351562,80.83125305175781
1777561105457744100,11.167744140625,-74.19375610351562,104.17500305175781,81.13125610351562
1777561105467744000,11.177743896484374,-76.44375610351562,104.83125305175781,81.31875610351562
1777561105477744000,11.187744140625,-75.31875610351562,102.56250762939453,81.97500610351562
1777561105487744000,11.197743896484376,-75.4312515258789,103.0875015258789,80.53125
1777561105497744100,11.207744140625,-77.1187515258789,102.56250762939453,80.34375
1777561105507744000,11.217743896484375,-76.33125305175781,102.9937515258789,78.9937515258789
1777561105517744000,11.227744140625,-76.66875457763672,102.6187515258789,80.60625457763672
1777561105527744000,11.237743896484375,-78.5625,100.50000762939453,79.8375015258789
1777561105537744100,11.247744140625,-79.78125,99.75000762939453,78.03750610351562
1777561105547744000,11.257743896484374,-79.78125,99.75000762939453,78.03750610351562
1777561105557744000,11.267744140625,-80.51250457763672,99.4312515258789,75.88125610351562
1777561105567744000,11.277743896484376,-80.8687515258789,97.0875015258789,73.4625015258789
1777561105577744100,11.287744140625,-82.33125305175781,94.6500015258789,73.7437515258789
1777561105587744000,11.297743896484375,-83.1187515258789,93.7125015258789,73.29375457763672
1777561105597744000,11.307744140625,-83.53125,90.91875457763672,72.91875457763672
1777561105607744000,11.317743896484375,-84.46875,90.76875305175781,74.47500610351562
1777561105617744100,11.327744140625,-84.82500457763672,89.70000457763672,75.69375610351562
1777561105627744000,11.337743896484374,-87.1500015258789,87.9375,74.70000457763672
1777561105637744000,11.347744140625,-88.7437515258789,86.6812515258789,76.35000610351562
1777561105647744000,11.357743896484376,-87.11250305175781,84.9000015258789,74.4000015258789
1777561105667744000,11.377743896484375,-89.25,83.85000610351562,72.28125
1777561105677744000,11.387744140625,-90.82500457763672,82.72500610351562,73.10625457763672
1777561105687744000,11.397743896484375,-89.0250015258789,81.4312515258789,71.9625015258789
1777561105697744100,11.407744140625,-89.04375457763672,80.2125015258789,69.6187515258789
1777561105707744000,11.417743896484374,-88.53750610351562,76.96875,68.70000457763672
1777561105717744000,11.427744140625,-87.75,77.47500610351562,67.9312515258789
1777561105727744000,11.437743896484376,-85.9312515258789,75.35625457763672,62.812503814697266
1777561105737744100,11.447744140625,-85.8375015258789,74.85000610351562,65.25
1777561105747744000,11.457743896484375,-87.11250305175781,73.48125457763672,66.1500015258789
1777561105757744000,11.467744140625,-86.38125610351562,72.45000457763672,65.94375610351562
1777561105767744000,11.477743896484375,-85.03125,72.07500457763672,65.98125457763672
1777561105777744100,11.487744140625,-86.7750015258789,69.67500305175781,64.01250457763672
1777561105787744000,11.497743896484375,-84.2437515258789,67.3125,62.36250305175781
1777561105797744000,11.507744140625,-82.53750610351562,67.95000457763672,61.593753814697266
1777561105807744000,11.517743896484374,-82.59375,66.26250457763672,60.281253814697266
1777561105817744100,11.527744140625,-77.625,64.1812515258789,58.91250228881836
1777561105827744000,11.537743896484375,-79.61250305175781,63.806251525878906,58.89375305175781
1777561105837744000,11.547744140625,-78.09375,63.806251525878906,58.85625076293945
1777561105847744000,11.557743896484375,-76.42500305175781,64.10625457763672,60.13125228881836
1777561105857744100,11.567744140625,-76.16250610351562,61.500003814697266,55.968753814697266
1777561105867744000,11.577743896484375,-75.09375,62.250003814697266,56.775001525878906
1777561105877744000,11.587744140625,-73.42500305175781,62.08125305175781,56.56875228881836
1777561105887744000,11.597743896484374,-74.98125457763672,61.10625076293945,56.70000076293945
1777561105897744100,11.607744140625,-75.07500457763672,61.72500228881836,54.843753814697266
1777561105907744000,11.617743896484376,-75.11250305175781,62.13750076293945,57.750003814697266
1777561105917744000,11.627744140625,-74.47500610351562,63.35625076293945,59.23125076293945
1777561105927744000,11.637743896484375,-74.45625305175781,63.13125228881836,57.78750228881836
1777561105937744100,11.647744140625,-74.8125,65.88750457763672,56.906253814697266
1777561105947744000,11.657743896484375,-76.53750610351562,65.0250015258789,58.76250076293945
1777561105957744000,11.667744140625,-75.86250305175781,65.7750015258789,56.212501525878906
1777561105967744000,11.677743896484374,-76.76250457763672,66.5250015258789,57.91875076293945
1777561105977744100,11.687744140625,-75.2437515258789,65.71875,54.900001525878906
1777561105987744000,11.697743896484376,-74.41875457763672,67.7437515258789,55.968753814697266
1777561105997744000,11.707744140625,-74.41875457763672,67.7437515258789,55.968753814697266
1777561106007744000,11.717743896484375,-76.25625610351562,68.71875,59.32500076293945
1777561106017744100,11.727744140625,-77.28750610351562,68.60625457763672,56.775001525878906
1777561106027744000,11.737743896484375,-77.28750610351562,68.60625457763672,56.775001525878906
1777561106037744000,11.747744140625,-76.6500015258789,70.91250610351562,60.58125305175781
1777561106047744000,11.757743896484374,-74.8125,69.46875,56.73750305175781
1777561106057744100,11.767744140625,-77.04375457763672,69.63750457763672,53.587501525878906
1777561106067744000,11.777743896484376,-75.48750305175781,71.0250015258789,54.50625228881836
1777561106077744000,11.787744140625,-76.7437515258789,70.6500015258789,55.462501525878906
1777561106087744000,11.797743896484375,-77.79375457763672,71.66250610351562,57.243751525878906
1777561106097744100,11.807744140625,-77.28750610351562,72.9375,57.468753814697266
1777561106107744000,11.817743896484375,-78.11250305175781,75.46875,58.53750228881836
1777561106117744000,11.827744140625,-79.1812515258789,75.5625,58.29375076293945
1777561106127744000,11.837743896484374,-80.2125015258789,77.0625,60.01875305175781
1777561106137744100,11.847744140625,-80.28750610351562,79.0875015258789,60.281253814697266
1777561106147744000,11.857743896484376,-81.82500457763672,79.3125,61.76250076293945
1777561106157744000,11.867744140625,-82.06875610351562,81.30000305175781,63.431251525878906
1777561106167744000,11.877743896484375,-83.26875305175781,82.16250610351562,64.1812515258789
1777561106177744100,11.887744140625,-82.03125,82.6875,64.38750457763672
1777561106187744000,11.897743896484375,-82.95000457763672,83.32500457763672,65.38125610351562
1777561106197744000,11.907744140625,-82.125,84.76875305175781,64.9312515258789
1777561106207744000,11.917743896484374,-82.10625457763672,85.35000610351562,64.76250457763672
1777561106217744100,11.927744140625,-83.0625,88.35000610351562,65.64375305175781
1777561106227744000,11.937743896484376,-83.25,87.88125610351562,67.53750610351562
1777561106237744000,11.947744140625,-83.08125305175781,88.57500457763672,67.0875015258789
1777561106247744000,11.957743896484375,-82.91250610351562,88.66875457763672,66.97500610351562
1777561106257744100,11.967744140625,-81.88125610351562,89.19375610351562,70.57500457763672
1777561106267744000,11.977743896484375,-81.76875305175781,91.9312515258789,69.67500305175781
1777561106277744000,11.987744140625,-82.38750457763672,92.36250305175781,70.91250610351562
1777561106287744000,11.997743896484375,-81.73125457763672,93.31875610351562,70.6500015258789
1777561106297744100,12.007744140625,-81.4312515258789,93.4312515258789,70.51875305175781
1777561106307744000,12.017743896484374,-81.97500610351562,95.7750015258789,72.95625305175781
1777561106317744000,12.027744140625,-80.41875457763672,96.01875305175781,70.42500305175781
1777561106327744000,12.037743896484375,-79.85625457763672,95.66250610351562,73.01250457763672
1777561106337744100,12.047744140625,-81.9375,96.9937515258789,72.76875305175781
1777561106347744000,12.057743896484375,-81.01875305175781,97.16250610351562,73.05000305175781
1777561106357744000,12.067744140625,-78.22500610351562,98.70000457763672,72.5625
1777561106367744000,12.077743896484375,-79.01250457763672,97.78125762939453,73.125
1777561106377744100,12.087744140625,-79.7437515258789,99.67500305175781,74.90625
1777561106387744000,12.097743896484374,-78.84375,98.81250762939453,74.15625
1777561106397744000,12.107744140625,-76.6875,99.8062515258789,74.15625
1777561106407744000,12.117743896484376,-78.16875457763672,100.8375015258789,74.38125610351562
1777561106417744100,12.127744140625,-78.48750305175781,101.23125457763672,76.3125
1777561106427744000,12.137743896484375,-78.63750457763672,100.44375610351562,74.32500457763672
1777561106437744000,12.147744140625,-78.63750457763672,100.44375610351562,74.32500457763672
1777561106447744000,12.157743896484375,-78.73125457763672,101.90625762939453,74.04375457763672
1777561106457744100,12.167744140625,-75.69375610351562,102.46875762939453,76.1812515258789
1777561106467744000,12.177743896484374,-76.44375610351562,102.75000762939453,75.5625
1777561106477744000,12.187744140625,-76.35000610351562,100.48125457763672,74.55000305175781
1777561106487744000,12.197743896484376,-77.4000015258789,101.08125305175781,74.41875457763672
1777561106497744100,12.207744140625,-76.875,102.9000015258789,74.88750457763672
1777561106507744000,12.217743896484375,-77.98125457763672,100.59375762939453,71.94375610351562
1777561106517744000,12.227744140625,-76.48125457763672,100.76250457763672,73.05000305175781
1777561106527744000,12.237743896484375,-76.20000457763672,100.21875762939453,73.6500015258789
1777561106537744100,12.247744140625,-76.10625457763672,103.21875762939453,74.51250457763672
1777561106547744000,12.257743896484374,-74.92500305175781,102.1500015258789,73.98750305175781
1777561106557744000,12.267744140625,-76.53750610351562,102.09375762939453,70.21875
1777561106567744000,12.277743896484376,-74.04375457763672,100.4625015258789,71.94375610351562
1777561106577744100,12.287744140625,-75.54375457763672,101.19375610351562,72.54375457763672
1777561106587744000,12.297743896484375,-74.55000305175781,99.26250457763672,72.1500015258789
1777561106597744000,12.307744140625,-73.10625457763672,101.17500305175781,71.64375305175781
1777561106607744000,12.317743896484375,-76.125,100.5562515258789,69.0562515258789
1777561106617744100,12.327744140625,-71.85000610351562,101.1187515258789,68.7750015258789
1777561106627744000,12.337743896484374,-73.06875610351562,100.68750762939453,68.28750610351562
1777561106637744000,12.347744140625,-74.60625457763672,100.91250610351562,69.78750610351562
1777561106647744000,12.357743896484376,-73.2750015258789,100.25625610351562,70.48125457763672
1777561106657744100,12.367744140625,-74.55000305175781,97.85625457763672,69.35625457763672
1777561106667744000,12.377743896484375,-74.0625,98.94375610351562,69.95625305175781
1777561106677744000,12.387744140625,-73.48125457763672,98.34375762939453,69.26250457763672
1777561106687744000,12.397743896484375,-73.76250457763672,99.13125610351562,69.5625
1777561106697744100,12.407744140625,-74.25,98.19375610351562,69.97500610351562
1777561106707744000,12.417743896484374,-74.10000610351562,97.80000305175781,69.03750610351562
1777561106717744000,12.427744140625,-74.10000610351562,97.5562515258789,69
1777561106727744000,12.437743896484376,-73.98750305175781,96.75000762939453,68.70000457763672
1777561106737744100,12.447744140625,-74.625,95.7750015258789,67.96875
1777561106747744000,12.457743896484375,-73.44375610351562,93.5250015258789,65.38125610351562
1777561106757744000,12.467744140625,-74.25,92.19375610351562,64.72500610351562
1777561106767744000,12.477743896484375,-74.4000015258789,92.15625,65.28750610351562
1777561106777744100,12.487744140625,-73.25625610351562,90.26250457763672,64.33125305175781
1777561106787744000,12.497743896484375,-74.28750610351562,91.40625,65.28750610351562
1777561106797744000,12.507744140625,-72.9000015258789,88.5,66.8062515258789
1777561106807744000,12.517743896484374,-75.01875305175781,88.3687515258789,66.69375610351562
1777561106817744100,12.527744140625,-75.01875305175781,87.76875305175781,65.17500305175781
1777561106827744000,12.537743896484375,-77.0625,87.5625,68.8687515258789
1777561106837744000,12.547744140625,-76.61250305175781,87.03750610351562,68.60625457763672
1777561106847744000,12.557743896484375,-76.6875,85.875,70.9312515258789
1777561106857744100,12.567744140625,-76.98750305175781,86.0625,70.5562515258789
1777561106867744000,12.577743896484375,-75.78750610351562,84.50625610351562,67.53750610351562
1777561106877744000,12.587744140625,-75.78750610351562,84.50625610351562,67.53750610351562
1777561106887744000,12.597743896484374,-77.13750457763672,85.875,70.0875015258789
1777561106897744100,12.607744140625,-75.8062515258789,83.8125,67.125
1777561106907744000,12.617743896484376,-75.9937515258789,83.13750457763672,67.5562515258789
1777561106917744000,12.627744140625,-74.0625,81.95625305175781,67.98750305175781
1777561106927744000,12.637743896484375,-76.0875015258789,79.3687515258789,64.72500610351562
1777561106937744100,12.647744140625,-75.1875,78.26250457763672,63.22500228881836
1777561106947744000,12.657743896484375,-74.13750457763672,79.70625305175781,67.14375305175781
1777561106957744000,12.667744140625,-74.15625,78.07500457763672,64.42500305175781
1777561106967744000,12.677743896484374,-71.66250610351562,75.84375,64.6500015258789
1777561106977744100,12.687744140625,-72.7125015258789,75.4312515258789,63.468753814697266
1777561106987744000,12.697743896484376,-70.91250610351562,74.25,62.212501525878906
1777561106997744000,12.707744140625,-73.51875305175781,74.00625610351562,62.23125076293945
1777561107007744000,12.717743896484375,-71.8687515258789,72.9000015258789,60.712501525878906
1777561107017744100,12.727744140625,-71.00625610351562,72.28125,63.243751525878906
1777561107027744000,12.737743896484375,-72.69375610351562,72.0562515258789,63.39375305175781
1777561107037744000,12.747744140625,-71.1187515258789,73.6500015258789,63.22500228881836
1777561107047744000,12.757743896484374,-71.04375457763672,71.25,63.056251525878906
1777561107057744100,12.767744140625,-68.9625015258789,69.1500015258789,60.618751525878906
1777561107067744000,12.777743896484376,-70.10625457763672,70.61250305175781,59.51250076293945
1777561107077744000,12.787744140625,-68.8125,68.51250457763672,58.80000305175781
1777561107087744000,12.797743896484375,-69.97500610351562,69.69375610351562,58.35000228881836
1777561107097744100,12.807744140625,-71.3062515258789,71.71875,62.025001525878906
1777561107107744000,12.817743896484375,-68.5875015258789,70.89375305175781,59.812503814697266
1777561107117744000,12.827744140625,-69.65625,71.17500305175781,61.72500228881836
1777561107127744000,12.837743896484374,-70.0875015258789,71.36250305175781,60.35625076293945
1777561107137744100,12.847744140625,-70.20000457763672,72.4312515258789,60.000003814697266
1777561107147744000,12.857743896484376,-69.4312515258789,72.67500305175781,60.03750228881836
1777561107157744000,12.867744140625,-66.8062515258789,74.1187515258789,61.368751525878906
1777561107167744000,12.877743896484375,-70.875,75.95625305175781,62.812503814697266
1777561107177744100,12.887744140625,-69.20625305175781,74.45625305175781,60.22500228881836
1777561107187744000,12.897743896484375,-69.03750610351562,75.28125,60.806251525878906
1777561107197744000,12.907744140625,-69.31875610351562,76.8375015258789,62.94375228881836
1777561107207744000,12.917743896484374,-70.5562515258789,76.21875,62.85000228881836
1777561107217744100,12.927744140625,-70.53750610351562,76.44375610351562,61.91250228881836
1777561107227744000,12.937743896484376,-68.45625305175781,79.85625457763672,63.91875076293945
1777561107237744000,12.947744140625,-68.5875015258789,80.04375457763672,62.681251525878906
1777561107247744000,12.957743896484375,-66.60000610351562,80.10000610351562,61.368751525878906
1777561107257744100,12.967744140625,-67.38750457763672,78.22500610351562,59.625003814697266
1777561107267744000,12.977743896484375,-68.28750610351562,80.04375457763672,62.681251525878906
1777561107277744000,12.987744140625,-68.94375610351562,83.36250305175781,64.03125
1777561107287744000,12.997743896484375,-68.08125305175781,82.06875610351562,64.61250305175781
1777561107297744100,13.007744140625,-68.51250457763672,83.3062515258789,65.41875457763672
1777561107307744000,13.017743896484374,-69.07500457763672,84.54375457763672,66.2437515258789
1777561107317744000,13.027744140625,-69.07500457763672,84.54375457763672,66.2437515258789
1777561107327744000,13.037743896484375,-68.73750305175781,85.9312515258789,67.20000457763672
1777561107337744100,13.047744140625,-67.35000610351562,86.1187515258789,65.92500305175781
1777561107347744000,13.057743896484375,-68.83125305175781,87.20625305175781,66.45000457763672
1777561107357744000,13.067744140625,-69.54375457763672,89.4375,69.01875305175781
1777561107367744000,13.077743896484375,-68.9625015258789,88.70625305175781,69.1500015258789
1777561107377744100,13.087744140625,-70.7437515258789,89.34375,67.48125457763672
1777561107387744000,13.097743896484374,-69.5250015258789,88.48125457763672,65.0250015258789
1777561107397744000,13.107744140625,-67.3687515258789,89.4937515258789,66.01875305175781
1777561107407744000,13.117743896484376,-67.81875610351562,89.8687515258789,66.8062515258789
1777561107417744100,13.127744140625,-69.67500305175781,90.26250457763672,69.46875
1777561107427744000,13.137743896484375,-67.3687515258789,90.76875305175781,68.79375457763672
1777561107437744000,13.147744140625,-66.67500305175781,93.48750305175781,69.4312515258789
1777561107447744000,13.157743896484375,-66.48750305175781,93.97500610351562,69.375
1777561107457744100,13.167744140625,-65.5875015258789,93.9000015258789,69.76875305175781
1777561107467744000,13.177743896484374,-65.8687515258789,95.41875457763672,71.625
1777561107477744000,13.187744140625,-67.16250610351562,97.53750610351562,72.48750305175781
1777561107487744000,13.197743896484376,-64.875,97.81875610351562,71.75625610351562
1777561107497744100,13.207744140625,-67.35000610351562,97.12500762939453,72.97500610351562
1777561107507744000,13.217743896484375,-65.51250457763672,97.66875457763672,74.15625
1777561107517744000,13.227744140625,-65.28750610351562,98.34375762939453,71.17500305175781
1777561107527744000,13.237743896484375,-66.82500457763672,98.62500762939453,73.10625457763672
1777561107537744100,13.247744140625,-65.0250015258789,98.0250015258789,72.375
1777561107547744000,13.257743896484374,-63.000003814697266,98.55000305175781,70.875
1777561107557744000,13.267744140625,-62.08125305175781,98.70000457763672,71.00625610351562
1777561107567744000,13.277743896484376,-63.35625076293945,97.80000305175781,71.71875
1777561107577744100,13.287744140625,-63.337501525878906,97.91250610351562,70.76250457763672
1777561107587744000,13.297743896484375,-64.51875305175781,99.3375015258789,72.0562515258789
1777561107597744000,13.307744140625,-61.81875228881836,98.60625457763672,72.95625305175781
1777561107607744000,13.317743896484375,-62.85000228881836,99.39375305175781,73.29375457763672
1777561107617744100,13.327744140625,-61.29375076293945,100.14375305175781,72.39375305175781
1777561107627744000,13.337743896484374,-61.500003814697266,98.85000610351562,73.01250457763672
1777561107637744000,13.347744140625,-60.88125228881836,98.85000610351562,72.13125610351562
1777561107647744000,13.357743896484376,-61.35000228881836,98.90625762939453,72.45000457763672
1777561107657744100,13.367744140625,-59.51250076293945,99.13125610351562,72.30000305175781
1777561107667744000,13.377743896484375,-59.98125076293945,98.38125610351562,71.45625305175781
1777561107677744000,13.387744140625,-60.22500228881836,100.81875610351562,73.63125610351562
1777561107687744000,13.397743896484375,-61.743751525878906,99.76875305175781,70.6500015258789
1777561107697744100,13.407744140625,-62.51250076293945,99.50625610351562,70.61250305175781
1777561107707744000,13.417743896484374,-60.11250305175781,99.16875457763672,71.75625610351562
1777561107717744000,13.427744140625,-60.806251525878906,100.44375610351562,70.1812515258789
1777561107727744000,13.437743896484376,-60.656253814697266,100.35000610351562,70.44375610351562
1777561107737744100,13.447744140625,-60.07500076293945,98.75625610351562,68.85000610351562
1777561107747744000,13.457743896484375,-60.056251525878906,98.79375457763672,67.44375610351562
1777561107757744000,13.467744140625,-60.056251525878906,98.79375457763672,67.44375610351562
1777561107767744000,13.477743896484375,-59.36250305175781,96.50625610351562,66.28125
1777561107777744100,13.487744140625,-57.35625076293945,98.10000610351562,67.80000305175781
1777561107787744000,13.497743896484375,-58.650001525878906,99.86250305175781,67.05000305175781
1777561107797744000,13.507744140625,-57.76875305175781,98.45625305175781,65.2125015258789
1777561107807744000,13.517743896484374,-58.98750305175781,99.5250015258789,68.26875305175781
1777561107817744100,13.527744140625,-58.556251525878906,99.09375762939453,69.58125305175781
1777561107827744000,13.537743896484375,-59.51250076293945,97.72500610351562,69.48750305175781
