time,seconds_elapsed,z,y,x
1777561094447744000,0.157743896484375,0.3375000059604645,29.343751907348633,14.531250953674316
1777561094457744100,0.167744140625,0.3375000059604645,29.343751907348633,14.531250953674316
1777561094467744000,0.177743896484375,1.0875000953674316,29.08125114440918,14.456250190734863
1777561094487744000,0.197743896484375,0.05625000223517418,30.543750762939453,15.90000057220459
1777561094497744100,0.207744140625,-1.6500000953674316,28.762500762939453,13.912500381469727
1777561094507744000,0.217743896484375,-1.350000023841858,29.250001907348633,14.700000762939453
1777561094517744000,0.227744140625,0.1875,29.943750381469727,15.225000381469727
1777561094527744000,0.237743896484375,-1.6875001192092896,28.181251525878906,14.231250762939453
1777561094537744100,0.247744140625,-1.5562500953674316,27.375001907348633,13.781250953674316
1777561094547744000,0.257743896484375,-0.13125000894069672,28.537500381469727,12.412500381469727
1777561094557744000,0.267744140625,-0.4125000238418579,27.900001525878906,8.925000190734863
1777561094567744000,0.277743896484375,-0.39375001192092896,27.656251907348633,7.181250095367432
1777561094577744100,0.287744140625,-1.3125,27.543750762939453,7.312500476837158
1777561094587744000,0.297743896484375,-4.106250286102295,27.337501525878906,11.02500057220459
1777561094597744000,0.307744140625,0.7312500476837158,27.95625114440918,4.087500095367432
1777561094607744000,0.317743896484375,-2.4375,27.656251907348633,12.318750381469727
1777561094617744100,0.327744140625,-0.9000000357627869,27.281251907348633,9.80625057220459
1777561094627744000,0.337743896484375,-3.3375000953674316,27.562501907348633,10.762500762939453
1777561094637744000,0.347744140625,-2.418750047683716,27.39375114440918,10.575000762939453
1777561094647744000,0.357743896484375,0.03750000149011612,28.106250762939453,10.350000381469727
1777561094657744100,0.367744140625,-0.6187500357627869,26.100000381469727,9.112500190734863
1777561094667744000,0.377743896484375,-3.093750238418579,24.731250762939453,9.05625057220459
1777561094677744000,0.387744140625,-4.125,27.356250762939453,14.250000953674316
1777561094687744000,0.397743896484375,-3.7875001430511475,28.668750762939453,14.77500057220459
1777561094697744100,0.407744140625,-5.981250286102295,28.89375114440918,19.668750762939453
1777561094707744000,0.417743896484375,-6.487500190734863,26.981250762939453,18.46875
1777561094717744000,0.427744140625,-7.650000095367432,28.818750381469727,19.98750114440918
1777561094727744000,0.437743896484375,-7.818750381469727,28.33125114440918,20.025001525878906
1777561094737744100,0.447744140625,-8.58750057220459,27.843751907348633,19.256250381469727
1777561094747744000,0.457743896484375,-7.368750095367432,27.881250381469727,19.51875114440918
1777561094757744000,0.467744140625,-6.693750381469727,29.287500381469727,18.075000762939453
1777561094767744000,0.477743896484375,-7.818750381469727,28.575000762939453,20.08125114440918
1777561094777744100,0.487744140625,-5.981250286102295,28.368751525878906,18.58125114440918
1777561094787744000,0.497743896484375,-7.706250190734863,27.58125114440918,20.025001525878906
1777561094797744000,0.507744140625,-6.168750286102295,28.275001525878906,20.55000114440918
1777561094807744000,0.517743896484375,-4.612500190734863,28.312501907348633,19.106250762939453
1777561094817744100,0.527744140625,-8.11875057220459,28.275001525878906,19.61250114440918
1777561094827744000,0.537743896484375,-8.456250190734863,27.937501907348633,20.83125114440918
1777561094837744000,0.547744140625,-9.487500190734863,28.968751907348633,21.056251525878906
1777561094847744000,0.557743896484375,-9.506250381469727,28.406251907348633,21.356250762939453
1777561094857744100,0.567744140625,-10.875,28.106250762939453,21.056251525878906
1777561094867744000,0.577743896484375,-11.043750762939453,27.76875114440918,21.28125
1777561094877744000,0.587744140625,-7.331250190734863,30.131250381469727,22.200000762939453
1777561094887744000,0.597743896484375,-9.975000381469727,28.443750381469727,21.65625
1777561094897744100,0.607744140625,-9.1875,29.043750762939453,21.46875
1777561094907744000,0.617743896484375,-9.1875,29.043750762939453,21.46875
1777561094917744000,0.627744140625,-10.237500190734863,29.400001525878906,22.275001525878906
1777561094927744000,0.637743896484375,-8.887500762939453,28.443750381469727,20.793750762939453
1777561094937744100,0.647744140625,-11.8125,27.806251525878906,21.600000381469727
1777561094947744000,0.657743896484375,-11.8125,27.806251525878906,21.600000381469727
1777561094957744000,0.667744140625,-10.725000381469727,28.23750114440918,20.231250762939453
1777561094967744000,0.677743896484375,-11.49375057220459,27.918750762939453,20.625
1777561094977744100,0.687744140625,-10.443750381469727,27.918750762939453,21.431251525878906
1777561094987744000,0.697743896484375,-9.1875,28.968751907348633,21.037500381469727
1777561094997744000,0.707744140625,-10.725000381469727,27.918750762939453,20.587501525878906
1777561095007744000,0.717743896484375,-9.975000381469727,28.068750381469727,21.600000381469727
1777561095017744100,0.727744140625,-10.74375057220459,27.562501907348633,19.818750381469727
1777561095027744000,0.737743896484375,-10.08750057220459,29.08125114440918,20.943750381469727
1777561095037744000,0.747744140625,-10.74375057220459,27.693750381469727,20.83125114440918
1777561095047744000,0.757743896484375,-10.21875,29.887500762939453,21.243751525878906
1777561095057744100,0.767744140625,-8.887500762939453,28.481250762939453,21.075000762939453
1777561095067744000,0.777743896484375,-8.40000057220459,29.193750381469727,20.775001525878906
1777561095087744000,0.797743896484375,-7.837500095367432,27.843751907348633,19.23750114440918
1777561095097744100,0.807744140625,-7.987500190734863,28.218751907348633,20.15625
1777561095107744000,0.817743896484375,-7.237500190734863,26.625001907348633,17.71875
1777561095117744000,0.827744140625,-7.631250381469727,29.493751525878906,20.400001525878906
1777561095127744000,0.837743896484375,-8.381250381469727,30.356250762939453,21.993751525878906
1777561095137744100,0.847744140625,-7.050000190734863,29.062501907348633,20.868751525878906
1777561095147744000,0.857743896484375,-6.881250381469727,29.662500381469727,21.525001525878906
1777561095157744000,0.867744140625,-7.312500476837158,29.55000114440918,19.818750381469727
1777561095167744000,0.877743896484375,-5.53125,29.006250381469727,20.381250381469727
1777561095177744100,0.887744140625,-4.125,29.26875114440918,18.84375
1777561095187744000,0.897743896484375,-3.0375001430511475,29.962501525878906,19.368751525878906
1777561095197744000,0.907744140625,-1.162500023841858,30.58125114440918,17.606250762939453
1777561095207744000,0.917743896484375,0.6375000476837158,30.76875114440918,19.856250762939453
1777561095217744100,0.927744140625,0.03750000149011612,30.562501907348633,17.568750381469727
1777561095227744000,0.937743896484375,1.4250000715255737,31.05000114440918,17.493751525878906
1777561095237744000,0.947744140625,1.725000023841858,31.51875114440918,18.975000381469727
1777561095247744000,0.957743896484375,1.537500023841858,30.468751907348633,18.637500762939453
1777561095257744100,0.967744140625,2.6625001430511475,31.087501525878906,16.89375114440918
1777561095267744000,0.977743896484375,2.231250047683716,32.38125228881836,18
1777561095277744000,0.987744140625,3.1312501430511475,31.89375114440918,18.168750762939453
1777561095287744000,0.997743896484375,4.03125,31.687501907348633,17.53125
1777561095297744100,1.007744140625,4.012500286102295,30.975000381469727,16.98750114440918
1777561095307744000,1.017743896484375,3.750000238418579,31.931251525878906,17.587501525878906
1777561095317744000,1.027744140625,6.900000095367432,30.431251525878906,16.650001525878906
1777561095327744000,1.037743896484375,5.400000095367432,32.47500228881836,19.631250381469727
1777561095337744100,1.047744140625,6.993750095367432,30.356250762939453,19.61250114440918
1777561095347744000,1.057743896484375,7.631250381469727,30.262500762939453,17.306251525878906
1777561095357744000,1.067744140625,7.631250381469727,30.262500762939453,17.306251525878906
1777561095367744000,1.077743896484375,7.050000190734863,31.593751907348633,19.556251525878906
1777561095377744100,1.087744140625,9.581250190734863,29.231250762939453,16.21875
1777561095387744000,1.097743896484375,9.600000381469727,30.01875114440918,17.36250114440918
1777561095397744000,1.107744140625,9.9375,30.356250762939453,16.275001525878906
1777561095407744000,1.117743896484375,10.856250762939453,30.506250381469727,16.42500114440918
1777561095417744100,1.127744140625,11.756250381469727,30.000001907348633,15.450000762939453
1777561095427744000,1.137743896484375,11.925000190734863,30.30000114440918,14.943750381469727
1777561095437744000,1.147744140625,12.356250762939453,30.39375114440918,17.34375
1777561095447744000,1.157743896484375,12.468750953674316,29.17500114440918,16.6875
1777561095457744100,1.167744140625,12.206250190734863,28.743751525878906,15.52500057220459
1777561095467744000,1.177743896484375,12.318750381469727,27.900001525878906,16.631250381469727
1777561095477744000,1.187744140625,13.725000381469727,29.64375114440918,17.493751525878906
1777561095487744000,1.197743896484375,13.706250190734863,28.087501525878906,15.356250762939453
1777561095497744100,1.207744140625,14.175000190734863,29.343751907348633,17.981250762939453
1777561095507744000,1.217743896484375,14.02500057220459,28.837501525878906,16.200000762939453
1777561095517744000,1.227744140625,14.175000190734863,28.781251907348633,16.743751525878906
1777561095527744000,1.237743896484375,15.956250190734863,27.712501525878906,17.0625
1777561095537744100,1.247744140625,15.393750190734863,29.118751525878906,16.5
1777561095547744000,1.257743896484375,14.906250953674316,28.031251907348633,15.881250381469727
1777561095557744000,1.267744140625,14.906250953674316,27.993751525878906,15.600000381469727
1777561095567744000,1.277743896484375,16.462501525878906,27.637500762939453,13.218750953674316
1777561095577744100,1.287744140625,16.743751525878906,27.562501907348633,13.481250762939453
1777561095587744000,1.297743896484375,17.64375114440918,27.618751525878906,14.737500190734863
1777561095597744000,1.307744140625,18.075000762939453,27.262500762939453,15.787500381469727
1777561095607744000,1.317743896484375,16.42500114440918,27.000001907348633,13.106250762939453
1777561095617744100,1.327744140625,18.600000381469727,28.23750114440918,13.856250762939453
1777561095627744000,1.337743896484375,18.600000381469727,28.443750381469727,13.612500190734863
1777561095637744000,1.347744140625,16.462501525878906,28.14375114440918,14.02500057220459
1777561095647744000,1.357743896484375,17.962501525878906,27.543750762939453,14.30625057220459
1777561095657744100,1.367744140625,19.631250381469727,27.58125114440918,13.687500953674316
1777561095667744000,1.377743896484375,18.431251525878906,27.375001907348633,13.125000953674316
1777561095677744000,1.387744140625,20.26875114440918,27.11250114440918,11.325000762939453
1777561095687744000,1.397743896484375,20.0625,26.400001525878906,12.468750953674316
1777561095697744100,1.407744140625,18,27.918750762939453,12.52500057220459
1777561095707744000,1.417743896484375,18.618751525878906,28.23750114440918,12.15000057220459
1777561095717744000,1.427744140625,17.962501525878906,26.381250381469727,10.537500381469727
1777561095727744000,1.437743896484375,19.950000762939453,27.525001525878906,12.412500381469727
1777561095737744100,1.447744140625,19.5,27.225000381469727,12.075000762939453
1777561095747744000,1.457743896484375,18.76875114440918,26.73750114440918,8.756250381469727
1777561095757744000,1.467744140625,20.943750381469727,27.525001525878906,7.293750286102295
1777561095767744000,1.477743896484375,20.006250381469727,26.306251525878906,5.8125
1777561095777744100,1.487744140625,21.76875114440918,28.42500114440918,4.912500381469727
1777561095787744000,1.497743896484375,22.631250381469727,26.981250762939453,4.462500095367432
1777561095797744000,1.507744140625,22.631250381469727,26.981250762939453,4.462500095367432
1777561095807744000,1.517743896484375,22.462501525878906,26.55000114440918,4.950000286102295
1777561095817744100,1.527744140625,21.243751525878906,26.981250762939453,5.362500190734863
1777561095827744000,1.537743896484375,21.243751525878906,26.981250762939453,5.362500190734863
1777561095837744000,1.547744140625,18.84375,28.70625114440918,7.725000381469727
1777561095847744000,1.557743896484375,19.462501525878906,28.275001525878906,5.643750190734863
1777561095857744100,1.567744140625,18.900001525878906,29.850000381469727,6.956250190734863
1777561095867744000,1.577743896484375,19.293750762939453,28.51875114440918,8.100000381469727
1777561095877744000,1.587744140625,18.84375,28.70625114440918,7.725000381469727
1777561095887744000,1.597743896484375,17.193750381469727,29.681251525878906,9.225000381469727
1777561095897744100,1.607744140625,15.075000762939453,30.337501525878906,10.256250381469727
1777561095907744000,1.617743896484375,13.83750057220459,30.39375114440918,11.568750381469727
1777561095917744000,1.627744140625,15.412500381469727,32.94375228881836,14.550000190734863
1777561095927744000,1.637743896484375,13.518750190734863,30.937501907348633,14.362500190734863
1777561095937744100,1.647744140625,12.33750057220459,31.218751907348633,12.881250381469727
1777561095947744000,1.657743896484375,10.387500762939453,33.13125228881836,15.71250057220459
1777561095957744000,1.667744140625,9.450000762939453,31.537500381469727,14.156250953674316
1777561095967744000,1.677743896484375,8.137500762939453,33.375,14.831250190734863
1777561095977744100,1.687744140625,6.993750095367432,31.668750762939453,15.937500953674316
1777561095987744000,1.697743896484375,8.700000762939453,31.912500381469727,14.250000953674316
1777561095997744000,1.707744140625,5.512500286102295,33.11250305175781,17.25
1777561096007744000,1.717743896484375,3.9937500953674316,32.90625,15.825000762939453
1777561096017744100,1.727744140625,1.4625000953674316,33.67500305175781,15.05625057220459
1777561096027744000,1.737743896484375,0.6937500238418579,34.16250228881836,15.881250381469727
1777561096037744000,1.747744140625,-0.4687500298023224,34.89375305175781,14.925000190734863
1777561096047744000,1.757743896484375,1.03125,34.21875,14.475000381469727
1777561096057744100,1.767744140625,-2.4937500953674316,33.41250228881836,14.11875057220459
1777561096067744000,1.777743896484375,-4.443750381469727,33.91875076293945,13.293750762939453
1777561096077744000,1.787744140625,-6.862500190734863,35.60625076293945,17.0625
1777561096087744000,1.797743896484375,-7.968750476837158,33.1875,13.387500762939453
1777561096097744100,1.807744140625,-10.706250190734863,32.04375076293945,13.762500762939453
1777561096107744000,1.817743896484375,-12.71250057220459,30.881250381469727,13.46250057220459
1777561096117744000,1.827744140625,-13.143750190734863,31.98750114440918,15.093750953674316
1777561096127744000,1.837743896484375,-14.756250381469727,29.381250381469727,14.21250057220459
1777561096137744100,1.847744140625,-16.98750114440918,30.562501907348633,13.800000190734863
1777561096147744000,1.857743896484375,-18.84375,28.89375114440918,12.543750762939453
1777561096157744000,1.867744140625,-16.068750381469727,26.36250114440918,13.106250762939453
1777561096167744000,1.877743896484375,-20.006250381469727,26.850000381469727,13.875000953674316
1777561096177744100,1.887744140625,-20.756250381469727,25.743751525878906,10.575000762939453
1777561096187744000,1.897743896484375,-23.34375,26.250001907348633,12.300000190734863
1777561096197744000,1.907744140625,-23.775001525878906,26.83125114440918,11.137500762939453
1777561096207744000,1.917743896484375,-25.162500381469727,26.512500762939453,12.393750190734863
1777561096217744100,1.927744140625,-25.181251525878906,24.95625114440918,9.131250381469727
1777561096227744000,1.937743896484375,-26.587501525878906,24.787500381469727,11.40000057220459
1777561096237744000,1.947744140625,-25.70625114440918,23.55000114440918,10.575000762939453
1777561096247744000,1.957743896484375,-25.70625114440918,23.55000114440918,10.575000762939453
1777561096257744100,1.967744140625,-25.350000381469727,24.67500114440918,10.631250381469727
1777561096267744000,1.977743896484375,-26.55000114440918,24.412500381469727,8.793750762939453
1777561096277744000,1.987744140625,-25.968751907348633,24.468751907348633,10.050000190734863
1777561096287744000,1.997743896484375,-23.8125,24.543750762939453,8.02500057220459
1777561096297744100,2.007744140625,-26.250001907348633,25.181251525878906,10.612500190734863
1777561096307744000,2.017743896484375,-25.968751907348633,24.58125114440918,10.78125
1777561096317744000,2.027744140625,-26.700000762939453,24.525001525878906,8.662500381469727
1777561096327744000,2.037743896484375,-25.650001525878906,24.787500381469727,10.518750190734863
1777561096337744100,2.047744140625,-26.812501907348633,26.606250762939453,11.043750762939453
1777561096347744000,2.057743896484375,-24.450000762939453,24.881250381469727,11.21250057220459
1777561096357744000,2.067744140625,-23.606250762939453,26.625001907348633,10.40625
1777561096367744000,2.077743896484375,-22.087501525878906,27.281251907348633,12.318750381469727
1777561096377744100,2.087744140625,-21.037500381469727,26.531251907348633,11.4375
1777561096387744000,2.097743896484375,-21.1875,26.943750381469727,11.662500381469727
1777561096397744000,2.107744140625,-20.568750381469727,27.20625114440918,11.850000381469727
1777561096407744000,2.117743896484375,-16.725000381469727,29.381250381469727,13.987500190734863
1777561096417744100,2.127744140625,-18.67500114440918,29.55000114440918,13.36875057220459
1777561096427744000,2.137743896484375,-17.8125,27.937501907348633,11.77500057220459
1777561096437744000,2.147744140625,-16.368751525878906,30.600000381469727,13.800000190734863
1777561096447744000,2.157743896484375,-16.631250381469727,27.506250381469727,13.068750381469727
1777561096457744100,2.167744140625,-15.187500953674316,29.568750381469727,13.55625057220459
1777561096477744000,2.187744140625,-13.162500381469727,30.693750381469727,13.575000762939453
1777561096487744000,2.197743896484375,-11.512500762939453,30.075000762939453,12.862500190734863
1777561096497744100,2.207744140625,-11.943750381469727,30.468751907348633,12.093750953674316
1777561096507744000,2.217743896484375,-12.543750762939453,31.33125114440918,14.531250953674316
1777561096517744000,2.227744140625,-10.27500057220459,31.42500114440918,15.187500953674316
1777561096527744000,2.237743896484375,-9.65625,31.781251907348633,15.112500190734863
1777561096537744100,2.247744140625,-10.08750057220459,32.98125076293945,16.481250762939453
1777561096547744000,2.257743896484375,-7.237500190734863,31.51875114440918,15.975000381469727
1777561096557744000,2.267744140625,-4.893750190734863,33.375,15.843750953674316
1777561096567744000,2.277743896484375,-2.3062500953674316,33.30000305175781,15.33750057220459
1777561096577744100,2.287744140625,-2.137500047683716,33.50625228881836,12.825000762939453
1777561096587744000,2.297743896484375,-2.4562501907348633,32.775001525878906,11.981250762939453
1777561096597744000,2.307744140625,-1.350000023841858,33.9375,11.456250190734863
1777561096607744000,2.317743896484375,0.7312500476837158,33.82500076293945,14.062500953674316
1777561096617744100,2.327744140625,0.15000000596046448,34.61250305175781,14.381250381469727
1777561096627744000,2.337743896484375,0.4687500298023224,35.13750076293945,15.450000762939453
1777561096637744000,2.347744140625,2.71875,34.48125076293945,15.281250953674316
1777561096647744000,2.357743896484375,2.4562501907348633,34.875,13.668750762939453
1777561096657744100,2.367744140625,4.237500190734863,33.03750228881836,12.131250381469727
1777561096667744000,2.377743896484375,5.625,33.88125228881836,12.825000762939453
1777561096677744000,2.387744140625,7.143750190734863,33.82500076293945,12.487500190734863
1777561096687744000,2.397743896484375,7.143750190734863,33.82500076293945,12.487500190734863
1777561096697744100,2.407744140625,5.400000095367432,32.23125076293945,12.656250953674316
1777561096707744000,2.417743896484375,5.400000095367432,32.23125076293945,12.656250953674316
1777561096717744000,2.427744140625,8.887500762939453,31.631250381469727,12.018750190734863
1777561096727744000,2.437743896484375,9.24375057220459,33.54375076293945,13.218750953674316
1777561096737744100,2.447744140625,8.606250762939453,32.26875305175781,12.15000057220459
1777561096747744000,2.457743896484375,10.125,32.625,12.881250381469727
1777561096757744000,2.467744140625,10.74375057220459,33.375,14.568750381469727
1777561096767744000,2.477743896484375,12.375000953674316,31.650001525878906,12.225000381469727
1777561096777744100,2.487744140625,12.843750953674316,32.25,12.881250381469727
1777561096787744000,2.497743896484375,13.162500381469727,32.36250305175781,12.750000953674316
1777561096797744000,2.507744140625,11.643750190734863,32.400001525878906,13.08750057220459
1777561096807744000,2.517743896484375,13.312500953674316,32.13750076293945,12.15000057220459
1777561096817744100,2.527744140625,12.862500190734863,31.593751907348633,10.93125057220459
1777561096827744000,2.537743896484375,12.825000762939453,31.61250114440918,12.768750190734863
1777561096837744000,2.547744140625,13.593750953674316,32.493751525878906,14.606250762939453
1777561096847744000,2.557743896484375,13.575000762939453,31.256250381469727,12.956250190734863
1777561096857744100,2.567744140625,14.343750953674316,31.05000114440918,11.49375057220459
1777561096867744000,2.577743896484375,15.600000381469727,31.537500381469727,10.55625057220459
1777561096877744000,2.587744140625,15.562500953674316,30.937501907348633,10.725000381469727
1777561096887744000,2.597743896484375,15.637500762939453,32.92500305175781,11.53125
1777561096897744100,2.607744140625,15.206250190734863,31.51875114440918,12.018750190734863
1777561096907744000,2.617743896484375,16.481250762939453,32.90625,11.268750190734863
1777561096917744000,2.627744140625,14.625000953674316,31.912500381469727,11.268750190734863
1777561096927744000,2.637743896484375,15.787500381469727,30.731250762939453,11.71875
1777561096937744100,2.647744140625,14.925000190734863,32.00625228881836,11.137500762939453
1777561096947744000,2.657743896484375,16.012500762939453,31.631250381469727,8.49375057220459
1777561096957744000,2.667744140625,17.83125114440918,31.89375114440918,10.331250190734863
1777561096967744000,2.677743896484375,17.34375,30.600000381469727,9.112500190734863
1777561096977744100,2.687744140625,15.80625057220459,30.30000114440918,8.8125
1777561096987744000,2.697743896484375,16.575000762939453,30.562501907348633,8.850000381469727
1777561096997744000,2.707744140625,15.187500953674316,29.756250381469727,8.4375
1777561097007744000,2.717743896484375,14.943750381469727,31.743751525878906,9.24375057220459
1777561097017744100,2.727744140625,14.30625057220459,30.562501907348633,8.90625
1777561097027744000,2.737743896484375,15.24375057220459,31.837501525878906,9.975000381469727
1777561097037744000,2.747744140625,16.89375114440918,31.05000114440918,9.637500762939453
1777561097047744000,2.757743896484375,15.075000762939453,31.087501525878906,9.975000381469727
1777561097057744100,2.767744140625,14.943750381469727,31.80000114440918,9.693750381469727
1777561097067744000,2.777743896484375,14.362500190734863,32.0625,8.0625
1777561097077744000,2.787744140625,15.112500190734863,31.837501525878906,9.131250381469727
1777561097087744000,2.797743896484375,11.643750190734863,32.79375076293945,8.700000762939453
1777561097097744100,2.807744140625,12.393750190734863,32.25,9.28125
1777561097107744000,2.817743896484375,10.256250381469727,32.19375228881836,8.90625
1777561097117744000,2.827744140625,9.206250190734863,33.22500228881836,10.818750381469727
1777561097127744000,2.837743896484375,9.206250190734863,33.22500228881836,10.818750381469727
1777561097137744100,2.847744140625,8.268750190734863,32.41875076293945,10.40625
1777561097147744000,2.857743896484375,10.443750381469727,33.86250305175781,10.912500381469727
1777561097157744000,2.867744140625,7.425000190734863,33.900001525878906,9.43125057220459
1777561097167744000,2.877743896484375,6.787500381469727,33.22500228881836,9.90000057220459
1777561097177744100,2.887744140625,4.443750381469727,35.15625,9.46875
1777561097187744000,2.897743896484375,5.418750286102295,34.462501525878906,13.27500057220459
1777561097197744000,2.907744140625,2.7375001907348633,35.47500228881836,12.543750762939453
1777561097207744000,2.917743896484375,2.1187500953674316,35.28750228881836,12.112500190734863
1777561097217744100,2.927744140625,-0.03750000149011612,33.95625305175781,10.631250381469727
1777561097227744000,2.937743896484375,-0.75,35.36250305175781,11.625
1777561097237744000,2.947744140625,0.6187500357627869,35.34375,10.74375057220459
1777561097247744000,2.957743896484375,-1.7062500715255737,34.33125305175781,12.300000190734863
1777561097257744100,2.967744140625,-3.5250000953674316,33.88125228881836,10.856250762939453
1777561097267744000,2.977743896484375,-3.9750001430511475,34.6875,12.15000057220459
1777561097277744000,2.987744140625,-6.450000286102295,33.11250305175781,10.65000057220459
1777561097287744000,2.997743896484375,-8.643750190734863,34.837501525878906,9.61875057220459
1777561097297744100,3.007744140625,-8.793750762939453,35.88750076293945,11.8125
1777561097307744000,3.017743896484375,-11.137500762939453,33.11250305175781,9.787500381469727
1777561097317744000,3.027744140625,-12.487500190734863,33.618751525878906,9.768750190734863
1777561097327744000,3.037743896484375,-12.825000762939453,33.337501525878906,10.425000190734863
1777561097337744100,3.047744140625,-14.193750381469727,32.70000076293945,9.506250381469727
1777561097347744000,3.057743896484375,-15.787500381469727,30.731250762939453,8.737500190734863
1777561097357744000,3.067744140625,-17.475000381469727,30.806251525878906,10.068750381469727
1777561097367744000,3.077743896484375,-18.86250114440918,30.131250381469727,10.537500381469727
1777561097377744100,3.087744140625,-18.11250114440918,29.418750762939453,7.275000095367432
1777561097387744000,3.097743896484375,-16.912500381469727,29.137500762939453,7.893750190734863
1777561097397744000,3.107744140625,-21.318750381469727,29.700000762939453,8.25
1777561097407744000,3.117743896484375,-21.618751525878906,28.256250381469727,5.175000190734863
1777561097417744100,3.127744140625,-22.42500114440918,27.618751525878906,6.768750190734863
1777561097427744000,3.137743896484375,-20.587501525878906,27.750001907348633,6.037500381469727
1777561097437744000,3.147744140625,-22.42500114440918,26.906251907348633,4.518750190734863
1777561097447744000,3.157743896484375,-22.837501525878906,27.787500381469727,3.6937501430511475
1777561097457744100,3.167744140625,-22.725000381469727,27.58125114440918,5.625
1777561097467744000,3.177743896484375,-21.318750381469727,28.89375114440918,6.975000381469727
1777561097477744000,3.187744140625,-21.975000381469727,27.825000762939453,7.350000381469727
1777561097487744000,3.197743896484375,-20.868751525878906,28.98750114440918,7.687500476837158
1777561097497744100,3.207744140625,-22.275001525878906,28.218751907348633,7.443750381469727
1777561097507744000,3.217743896484375,-20.887500762939453,28.200000762939453,6.543750286102295
1777561097517744000,3.227744140625,-19.23750114440918,27.918750762939453,8.006250381469727
1777561097527744000,3.237743896484375,-19.762500762939453,29.625001907348633,6.093750476837158
1777561097537744100,3.247744140625,-18.30000114440918,28.087501525878906,5.756250381469727
1777561097547744000,3.257743896484375,-18.243751525878906,30.262500762939453,7.856250286102295
1777561097557744000,3.267744140625,-17.193750381469727,30.468751907348633,9.28125
1777561097567744000,3.277743896484375,-17.681251525878906,30.150001525878906,10.5
1777561097577744100,3.287744140625,-17.681251525878906,30.150001525878906,10.5
1777561097587744000,3.297743896484375,-14.531250953674316,33.39375305175781,11.475000381469727
1777561097597744000,3.307744140625,-14.531250953674316,33.39375305175781,11.475000381469727
1777561097607744000,3.317743896484375,-14.137500762939453,31.687501907348633,11.700000762939453
1777561097617744100,3.327744140625,-12.90000057220459,31.781251907348633,9.84375
1777561097627744000,3.337743896484375,-12.750000953674316,31.631250381469727,9.675000190734863
1777561097637744000,3.347744140625,-11.925000190734863,33.60000228881836,10.3125
1777561097647744000,3.357743896484375,-10.21875,30.656251907348633,11.53125
1777561097657744100,3.367744140625,-11.4375,30.656251907348633,10.725000381469727
1777561097667744000,3.377743896484375,-10.106250762939453,33.75,11.418750762939453
1777561097677744000,3.387744140625,-9.787500381469727,34.10625076293945,11.34375
1777561097687744000,3.397743896484375,-9.84375,32.681251525878906,11.77500057220459
1777561097697744100,3.407744140625,-7.106250286102295,32.75625228881836,11.4375
1777561097707744000,3.417743896484375,-4.78125,34.087501525878906,12.037500381469727
1777561097717744000,3.427744140625,-4.21875,33.806251525878906,13.518750190734863
1777561097727744000,3.437743896484375,-5.606250286102295,32.90625,12.543750762939453
1777561097747744000,3.457743896484375,0.11250000447034836,34.16250228881836,10.08750057220459
1777561097757744000,3.467744140625,2.3625001907348633,33.9375,11.11875057220459
1777561097767744000,3.477743896484375,2.3625001907348633,33.82500076293945,10.387500762939453
1777561097777744100,3.487744140625,4.350000381469727,33.60000228881836,8.887500762939453
1777561097787744000,3.497743896484375,3.9000000953674316,34.10625076293945,9.693750381469727
1777561097797744000,3.507744140625,5.137500286102295,34.875,10.800000190734863
1777561097807744000,3.517743896484375,5.100000381469727,33.712501525878906,9.600000381469727
1777561097817744100,3.527744140625,4.96875,33.69375228881836,8.606250762939453
1777561097827744000,3.537743896484375,6.037500381469727,33.75,9.018750190734863
1777561097837744000,3.547744140625,5.868750095367432,33.28125,8.362500190734863
1777561097847744000,3.557743896484375,9.65625,33.525001525878906,10.143750190734863
1777561097857744100,3.567744140625,9.65625,33.525001525878906,10.143750190734863
1777561097867744000,3.577743896484375,9.28125,31.762500762939453,9.956250190734863
1777561097877744000,3.587744140625,10.800000190734863,32.28750228881836,11.850000381469727
1777561097887744000,3.597743896484375,9.862500190734863,31.481250762939453,11.4375
1777561097907744000,3.617743896484375,11.4375,30.618751525878906,5.587500095367432
1777561097917744000,3.627744140625,14.49375057220459,31.312501907348633,6.056250095367432
1777561097927744000,3.637743896484375,13.74375057220459,30.843751907348633,4.575000286102295
1777561097937744100,3.647744140625,15.262500762939453,30.11250114440918,2.137500047683716
1777561097947744000,3.657743896484375,19.40625,29.418750762939453,-2.606250047683716
1777561097957744000,3.667744140625,18.01875114440918,29.587501525878906,-0.5625
1777561097967744000,3.677743896484375,18.825000762939453,29.73750114440918,-3.8062500953674316
1777561097977744100,3.687744140625,18.600000381469727,28.23750114440918,-2.1187500953674316
1777561097987744000,3.697743896484375,18.76875114440918,30.093751907348633,1.2000000476837158
1777561097997744000,3.707744140625,16.14375114440918,29.775001525878906,3.3375000953674316
1777561098007744000,3.717743896484375,19.125,28.33125114440918,3.6750001907348633
1777561098017744100,3.727744140625,19.368751525878906,30.037500381469727,1.7437500953674316
1777561098027744000,3.737743896484375,19.368751525878906,30.037500381469727,1.7437500953674316
1777561098037744000,3.747744140625,18.20625114440918,29.625001907348633,7.331250190734863
1777561098047744000,3.757743896484375,19.40625,30.037500381469727,9.356250762939453
1777561098057744100,3.767744140625,17.92500114440918,30.67500114440918,9.52500057220459
1777561098067744000,3.777743896484375,15.918750762939453,29.793750762939453,8.568750381469727
1777561098077744000,3.787744140625,16.80000114440918,28.23750114440918,7.256250381469727
1777561098087744000,3.797743896484375,18.225000381469727,30.431251525878906,8.625
1777561098097744100,3.807744140625,18.168750762939453,29.193750381469727,8.662500381469727
1777561098107744000,3.817743896484375,18.356250762939453,29.512500762939453,7.443750381469727
1777561098117744000,3.827744140625,19.256250381469727,29.625001907348633,9.15000057220459
1777561098127744000,3.837743896484375,17.306251525878906,30.431251525878906,9.487500190734863
1777561098137744100,3.847744140625,18.543750762939453,29.887500762939453,6.675000190734863
1777561098147744000,3.857743896484375,19.106250762939453,28.968751907348633,6.337500095367432
1777561098157744000,3.867744140625,18.46875,28.031251907348633,6.750000476837158
1777561098167744000,3.877743896484375,16.725000381469727,30.225000381469727,7.200000286102295
1777561098177744100,3.887744140625,18.46875,27.937501907348633,6.018750190734863
1777561098187744000,3.897743896484375,19.03125,30.168750762939453,4.3125
1777561098197744000,3.907744140625,16.556251525878906,30.056251525878906,6.900000095367432
1777561098207744000,3.917743896484375,18.337501525878906,28.968751907348633,8.0625
1777561098217744100,3.927744140625,17.775001525878906,29.793750762939453,5.962500095367432
1777561098227744000,3.937743896484375,16.23750114440918,29.475000381469727,6.375000476837158
1777561098237744000,3.947744140625,17.625,29.400001525878906,5.0625
1777561098247744000,3.957743896484375,18.39375114440918,30.000001907348633,6.562500476837158
1777561098257744100,3.967744140625,18.731250762939453,30.731250762939453,5.550000190734863
1777561098267744000,3.977743896484375,17.64375114440918,30.262500762939453,6.618750095367432
1777561098277744000,3.987744140625,16.725000381469727,29.793750762939453,6
1777561098287744000,3.997743896484375,14.625000953674316,31.781251907348633,8.40000057220459
1777561098297744100,4.007744140625,14.718750953674316,30.450000762939453,8.71875
1777561098307744000,4.017743896484375,14.02500057220459,31.087501525878906,6.318750381469727
1777561098317744000,4.027744140625,13.106250762939453,31.350000381469727,7.237500190734863
1777561098327744000,4.037743896484375,12.506250381469727,31.218751907348633,7.087500095367432
1777561098337744100,4.047744140625,9.018750190734863,32.28750228881836,9.356250762939453
1777561098347744000,4.057743896484375,8.86875057220459,32.08125305175781,8.756250381469727
1777561098357744000,4.067744140625,9.168750762939453,32.400001525878906,9.24375057220459
1777561098367744000,4.077743896484375,8.11875057220459,32.681251525878906,8.606250762939453
1777561098377744100,4.087744140625,5.8125,31.61250114440918,8.043750762939453
1777561098387744000,4.097743896484375,6.300000190734863,32.36250305175781,8.02500057220459
1777561098397744000,4.107744140625,6.037500381469727,34.181251525878906,9.375
1777561098407744000,4.117743896484375,4.96875,34.23750305175781,9.84375
1777561098417744100,4.127744140625,6.018750190734863,33.03750228881836,8.456250190734863
1777561098427744000,4.137743896484375,3.543750047683716,32.92500305175781,10.200000762939453
1777561098437744000,4.147744140625,2.15625,31.89375114440918,9.037500381469727
1777561098447744000,4.157743896484375,1.912500023841858,33.13125228881836,9
1777561098457744100,4.167744140625,1.4250000715255737,31.537500381469727,6.600000381469727
1777561098467744000,4.177743896484375,-1.8937500715255737,32.83125305175781,8.625
1777561098477744000,4.187744140625,-1.8937500715255737,32.83125305175781,8.625
1777561098487744000,4.197743896484375,-4.181250095367432,32.90625,9.131250381469727
1777561098497744100,4.207744140625,-5.400000095367432,33.20625305175781,9.487500190734863
1777561098507744000,4.217743896484375,-7.256250381469727,32.493751525878906,10.537500381469727
1777561098517744000,4.227744140625,-6.618750095367432,32.71875,8.58750057220459
1777561098527744000,4.237743896484375,-8.625,32.60625076293945,10.46250057220459
1777561098537744100,4.247744140625,-9.05625057220459,32.587501525878906,9.46875
1777561098547744000,4.257743896484375,-9.825000762939453,33.150001525878906,10.725000381469727
1777561098557744000,4.267744140625,-12.600000381469727,31.031251907348633,8.981250762939453
1777561098567744000,4.277743896484375,-12.600000381469727,31.33125114440918,9.318750381469727
1777561098577744100,4.287744140625,-13.537500381469727,29.887500762939453,9.918750762939453
1777561098587744000,4.297743896484375,-13.500000953674316,30.30000114440918,8.4375
1777561098597744000,4.307744140625,-15.037500381469727,29.45625114440918,6.900000095367432
1777561098607744000,4.317743896484375,-17.325000762939453,29.212501525878906,6.918750286102295
1777561098617744100,4.327744140625,-16.275001525878906,28.631250381469727,6.356250286102295
1777561098627744000,4.337743896484375,-16.912500381469727,27.48750114440918,6.300000190734863
1777561098637744000,4.347744140625,-17.006250381469727,28.312501907348633,4.200000286102295
1777561098647744000,4.357743896484375,-16.89375114440918,28.631250381469727,7.218750476837158
1777561098657744100,4.367744140625,-17.4375,29.006250381469727,4.631250381469727
1777561098667744000,4.377743896484375,-16.89375114440918,28.181251525878906,6.712500095367432
1777561098677744000,4.387744140625,-17.793750762939453,27.825000762939453,5.118750095367432
1777561098687744000,4.397743896484375,-16.012500762939453,26.006250381469727,2.887500047683716
1777561098697744100,4.407744140625,-15.506250381469727,28.200000762939453,5.137500286102295
1777561098707744000,4.417743896484375,-16.78125,26.606250762939453,5.287500381469727
1777561098717744000,4.427744140625,-15.787500381469727,29.418750762939453,6.637500286102295
1777561098727744000,4.437743896484375,-14.756250381469727,28.406251907348633,6.562500476837158
1777561098737744100,4.447744140625,-13.65000057220459,29.681251525878906,6.768750190734863
1777561098747744000,4.457743896484375,-13.706250190734863,28.931251525878906,8.475000381469727
1777561098757744000,4.467744140625,-12.637500762939453,28.387500762939453,6.506250381469727
1777561098767744000,4.477743896484375,-13.218750953674316,28.931251525878906,5.90625
1777561098777744100,4.487744140625,-10.668750762939453,28.593751907348633,7.893750190734863
1777561098787744000,4.497743896484375,-9.693750381469727,28.256250381469727,3.0187501907348633
1777561098797744000,4.507744140625,-6.318750381469727,27.225000381469727,-2.2125000953674316
1777561098807744000,4.517743896484375,-6.731250286102295,29.83125114440918,1.9687501192092896
1777561098817744100,4.527744140625,-5.53125,30.037500381469727,2.53125
1777561098827744000,4.537743896484375,-6.581250190734863,31.106250762939453,5.587500095367432
1777561098837744000,4.547744140625,-6.506250381469727,30.168750762939453,8.512500762939453
1777561098847744000,4.557743896484375,-7.425000190734863,30.318750381469727,8.700000762939453
1777561098857744100,4.567744140625,-4.912500381469727,31.406251907348633,5.887500286102295
1777561098867744000,4.577743896484375,-3.6000001430511475,29.45625114440918,4.481250286102295
1777561098877744000,4.587744140625,-2.7562501430511475,31.631250381469727,4.875
1777561098887744000,4.597743896484375,-2.981250047683716,30.506250381469727,6.656250476837158
1777561098897744100,4.607744140625,-3.543750047683716,32.118751525878906,8.25
1777561098907744000,4.617743896484375,-3.543750047683716,32.118751525878906,8.25
1777561098917744000,4.627744140625,-0.862500011920929,32.15625,11.137500762939453
1777561098927744000,4.637743896484375,0.39375001192092896,33,10.987500190734863
1777561098937744100,4.647744140625,1.8937500715255737,32.04375076293945,10.350000381469727
1777561098947744000,4.657743896484375,2.6812500953674316,33.375,11.006250381469727
1777561098957744000,4.667744140625,2.1937501430511475,32.04375076293945,10.331250190734863
1777561098967744000,4.677743896484375,5.306250095367432,34.087501525878906,9.9375
1777561098977744100,4.687744140625,4.537500381469727,33.84375,9.918750762939453
1777561098987744000,4.697743896484375,5.268750190734863,32.90625,10.425000190734863
1777561098997744000,4.707744140625,6.431250095367432,31.575000762939453,9.84375
1777561099007744000,4.717743896484375,5.268750190734863,32.51250076293945,9.356250762939453
1777561099017744100,4.727744140625,7.968750476837158,32.25,10.21875
1777561099027744000,4.737743896484375,9.018750190734863,31.575000762939453,9.787500381469727
1777561099037744000,4.747744140625,8.887500762939453,32.0625,9.731250762939453
1777561099047744000,4.757743896484375,10.3125,33.375,9.393750190734863
1777561099057744100,4.767744140625,11.268750190734863,30.20625114440918,9.037500381469727
1777561099067744000,4.777743896484375,11.15625,31.70625114440918,9.90000057220459
1777561099077744000,4.787744140625,14.475000381469727,30.468751907348633,7.443750381469727
1777561099087744000,4.797743896484375,12.90000057220459,28.856250762939453,7.462500095367432
1777561099097744100,4.807744140625,14.156250953674316,30.243751525878906,8.40000057220459
1777561099107744000,4.817743896484375,15.693750381469727,30.562501907348633,8.137500762939453
1777561099117744000,4.827744140625,16.912500381469727,30.412500381469727,7.931250095367432
1777561099127744000,4.837743896484375,16.6875,28.687501907348633,8.043750762939453
1777561099137744100,4.847744140625,17.15625,28.575000762939453,7.293750286102295
1777561099147744000,4.857743896484375,19.012500762939453,28.89375114440918,5.193750381469727
1777561099157744000,4.867744140625,17.15625,27.618751525878906,5.006250381469727
1777561099167744000,4.877743896484375,19.743751525878906,27.918750762939453,5.418750286102295
1777561099177744100,4.887744140625,19.012500762939453,27.881250381469727,2.606250047683716
1777561099187744000,4.897743896484375,22.200000762939453,26.306251525878906,-0.4687500298023224
1777561099197744000,4.907744140625,22.3125,26.137500762939453,1.7625000476837158
1777561099207744000,4.917743896484375,22.96875,27.656251907348633,1.8937500715255737
1777561099217744100,4.927744140625,19.087501525878906,27.450000762939453,7.312500476837158
1777561099227744000,4.937743896484375,20.006250381469727,28.012500762939453,7.818750381469727
1777561099237744000,4.947744140625,19.556251525878906,28.23750114440918,8.4375
1777561099247744000,4.957743896484375,19.556251525878906,27.825000762939453,7.368750095367432
1777561099257744100,4.967744140625,19.818750381469727,26.73750114440918,6.731250286102295
1777561099267744000,4.977743896484375,17.71875,28.200000762939453,9.05625057220459
1777561099277744000,4.987744140625,20.325000762939453,27.656251907348633,6.187500476837158
1777561099287744000,4.997743896484375,20.775001525878906,27.918750762939453,7.068750381469727
1777561099297744100,5.007744140625,20.512500762939453,28.293750762939453,5.456250190734863
1777561099307744000,5.017743896484375,19.575000762939453,27.975000381469727,6.693750381469727
1777561099317744000,5.027744140625,20.606250762939453,26.981250762939453,5.775000095367432
1777561099327744000,5.037743896484375,20.793750762939453,27.543750762939453,4.612500190734863
1777561099337744100,5.047744140625,21.262500762939453,27.543750762939453,4.59375
1777561099347744000,5.057743896484375,18.993751525878906,28.668750762939453,6.281250476837158
1777561099357744000,5.067744140625,19.125,28.837501525878906,8.287500381469727
1777561099367744000,5.077743896484375,19.125,28.837501525878906,8.287500381469727
1777561099377744100,5.087744140625,21.09375,27.450000762939453,4.725000381469727
1777561099387744000,5.097743896484375,20.025001525878906,27.168750762939453,4.556250095367432
1777561099397744000,5.107744140625,20.08125114440918,29.193750381469727,5.643750190734863
1777561099407744000,5.117743896484375,19.80000114440918,29.587501525878906,5.737500190734863
1777561099417744100,5.127744140625,19.293750762939453,27.86250114440918,4.987500190734863
1777561099427744000,5.137743896484375,19.162500381469727,28.912500381469727,6.187500476837158
1777561099437744000,5.147744140625,18.412500381469727,29.662500381469727,7.050000190734863
1777561099447744000,5.157743896484375,17.193750381469727,28.89375114440918,5.25
1777561099457744100,5.167744140625,18.39375114440918,29.812501907348633,8.0625
1777561099467744000,5.177743896484375,17.325000762939453,29.325000762939453,7.293750286102295
1777561099477744000,5.187744140625,16.78125,30.506250381469727,5.981250286102295
1777561099487744000,5.197743896484375,14.362500190734863,31.912500381469727,9.71250057220459
1777561099497744100,5.207744140625,13.012500762939453,31.650001525878906,7.012500286102295
1777561099507744000,5.217743896484375,12.975000381469727,31.162500381469727,7.912500381469727
1777561099517744000,5.227744140625,12.356250762939453,31.593751907348633,9.975000381469727
1777561099527744000,5.237743896484375,10.012500762939453,34.087501525878906,10.800000190734863
1777561099537744100,5.247744140625,10.350000381469727,34.33125305175781,9.15000057220459
1777561099547744000,5.257743896484375,8.850000381469727,34.462501525878906,8.21250057220459
1777561099557744000,5.267744140625,9.61875057220459,34.35000228881836,7.481250286102295
1777561099567744000,5.277743896484375,8.381250381469727,34.3125,8.90625
1777561099577744100,5.287744140625,8.40000057220459,35.13750076293945,8.643750190734863
1777561099587744000,5.297743896484375,6.543750286102295,34.3125,8.96250057220459
1777561099597744000,5.307744140625,6.281250476837158,34.44375228881836,7.293750286102295
1777561099607744000,5.317743896484375,5.268750190734863,36.13125228881836,7.650000095367432
1777561099617744100,5.327744140625,3.562500238418579,35.8125,8.90625
1777561099627744000,5.337743896484375,1.443750023841858,35.868751525878906,8.40000057220459
1777561099637744000,5.347744140625,0.7875000238418579,34.181251525878906,7.950000286102295
1777561099647744000,5.357743896484375,-1.8000000715255737,34.462501525878906,8.081250190734863
1777561099657744100,5.367744140625,-3.6000001430511475,34.25625228881836,6.675000190734863
1777561099667744000,5.377743896484375,-5.100000381469727,34.85625076293945,6.543750286102295
1777561099677744000,5.387744140625,-4.950000286102295,35.26875305175781,8.456250190734863
1777561099687744000,5.397743896484375,-6.787500381469727,35.34375,8.943750381469727
1777561099697744100,5.407744140625,-8.77500057220459,35.56875228881836,10.443750381469727
1777561099707744000,5.417743896484375,-9.09375,34.38750076293945,8.40000057220459
1777561099717744000,5.427744140625,-9.71250057220459,33.86250305175781,8.175000190734863
1777561099727744000,5.437743896484375,-12.206250190734863,32.00625228881836,7.312500476837158
1777561099737744100,5.447744140625,-13.425000190734863,32.00625228881836,7.350000381469727
1777561099747744000,5.457743896484375,-15.862500190734863,31.968751907348633,7.968750476837158
1777561099757744000,5.467744140625,-14.156250953674316,32.75625228881836,8.231250762939453
1777561099767744000,5.477743896484375,-16.181251525878906,31.181251525878906,6.843750476837158
1777561099777744100,5.487744140625,-16.762500762939453,30.11250114440918,2.8500001430511475
1777561099787744000,5.497743896484375,-15.787500381469727,31.443750381469727,1.8000000715255737
1777561099797744000,5.507744140625,-15.787500381469727,31.443750381469727,1.8000000715255737
1777561099807744000,5.517743896484375,-16.762500762939453,30.11250114440918,2.8500001430511475
1777561099817744100,5.527744140625,-16.162500381469727,29.587501525878906,1.8937500715255737
1777561099827744000,5.537743896484375,-16.743751525878906,30.750001907348633,2.9625000953674316
1777561099837744000,5.547744140625,-16.70625114440918,32.625,4.743750095367432
1777561099847744000,5.557743896484375,-17.36250114440918,31.668750762939453,5.850000381469727
1777561099857744100,5.567744140625,-15.956250190734863,30.918750762939453,1.5750000476837158
1777561099867744000,5.577743896484375,-16.012500762939453,30.000001907348633,2.1000001430511475
1777561099877744000,5.587744140625,-12.61875057220459,30.412500381469727,0.675000011920929
1777561099887744000,5.597743896484375,-13.068750381469727,32.45625305175781,4.462500095367432
1777561099897744100,5.607744140625,-13.387500762939453,32.53125,6.750000476837158
1777561099907744000,5.617743896484375,-13.125000953674316,32.625,9.862500190734863
1777561099917744000,5.627744140625,-12.80625057220459,32.66250228881836,8.456250190734863
1777561099927744000,5.637743896484375,-12.581250190734863,35.64375305175781,10.987500190734863
1777561099937744100,5.647744140625,-11.0625,34.66875076293945,8.512500762939453
1777561099947744000,5.657743896484375,-9.825000762939453,35.10000228881836,8.981250762939453
1777561099957744000,5.667744140625,-10.143750190734863,35.41875076293945,10.3125
1777561099967744000,5.677743896484375,-8.662500381469727,34.06875228881836,9.600000381469727
1777561099977744100,5.687744140625,-9.5625,34.61250305175781,9.862500190734863
1777561099987744000,5.697743896484375,-7.575000286102295,33.95625305175781,7.987500190734863
1777561099997744000,5.707744140625,-9.075000762939453,34.650001525878906,8.456250190734863
1777561100007744000,5.717743896484375,-5.850000381469727,35.83125305175781,8.86875057220459
1777561100017744100,5.727744140625,-9.393750190734863,34.5,8.287500381469727
1777561100027744000,5.737743896484375,-6.393750190734863,37.368751525878906,7.481250286102295
1777561100037744000,5.747744140625,-6.075000286102295,37.80000305175781,8.68125057220459
1777561100047744000,5.757743896484375,-4.743750095367432,37.10625076293945,9.09375
1777561100057744100,5.767744140625,-0.768750011920929,37.5,8.49375057220459
1777561100067744000,5.777743896484375,-3.4312500953674316,34.78125,6.918750286102295
1777561100077744000,5.787744140625,1.1812500953674316,36.78750228881836,7.875000476837158
1777561100087744000,5.797743896484375,2.0812501907348633,36.73125076293945,8.418750762939453
1777561100097744100,5.807744140625,4.6875,37.33125305175781,8.175000190734863
1777561100107744000,5.817743896484375,6.225000381469727,37.14375305175781,6.975000381469727
1777561100117744000,5.827744140625,7.837500095367432,35.79375076293945,7.931250095367432
1777561100127744000,5.837743896484375,6.675000190734863,37.57500076293945,8.15625
1777561100137744100,5.847744140625,9.975000381469727,36.82500076293945,7.387500286102295
1777561100147744000,5.857743896484375,9.450000762939453,34.91250228881836,7.893750190734863
1777561100157744000,5.867744140625,8.4375,35.83125305175781,6.543750286102295
1777561100167744000,5.877743896484375,9.037500381469727,36.150001525878906,7.856250286102295
1777561100177744100,5.887744140625,11.606250762939453,35.17500305175781,7.181250095367432
1777561100187744000,5.897743896484375,11.043750762939453,36.712501525878906,7.481250286102295
1777561100197744000,5.907744140625,12.393750190734863,36.50625228881836,7.837500095367432
1777561100207744000,5.917743896484375,12.918750762939453,34.38750076293945,7.837500095367432
1777561100217744100,5.927744140625,14.250000953674316,33.806251525878906,8.96250057220459
1777561100227744000,5.937743896484375,13.83750057220459,33.9375,7.293750286102295
1777561100237744000,5.947744140625,15.99375057220459,35.025001525878906,7.875000476837158
1777561100247744000,5.957743896484375,15.99375057220459,35.025001525878906,7.875000476837158
1777561100257744100,5.967744140625,15.918750762939453,33.20625305175781,8.231250762939453
1777561100267744000,5.977743896484375,16.068750381469727,33.056251525878906,8.0625
1777561100277744000,5.987744140625,15.037500381469727,33.97500228881836,7.556250095367432
1777561100287744000,5.997743896484375,15.918750762939453,32.70000076293945,6.450000286102295
1777561100297744100,6.007744140625,18.037500381469727,31.968751907348633,4.987500190734863
1777561100307744000,6.017743896484375,19.575000762939453,32.88750076293945,6.956250190734863
1777561100317744000,6.027744140625,17.137500762939453,31.837501525878906,4.837500095367432
1777561100327744000,6.037743896484375,18.1875,32.34375,6.600000381469727
1777561100337744100,6.047744140625,18.450000762939453,31.968751907348633,8.362500190734863
1777561100347744000,6.057743896484375,19.275001525878906,33.9375,8.981250762939453
1777561100357744000,6.067744140625,19.950000762939453,30.187501907348633,4.725000381469727
1777561100367744000,6.077743896484375,22.125,31.05000114440918,4.6875
1777561100377744100,6.087744140625,20.493751525878906,32.00625228881836,4.350000381469727
1777561100387744000,6.097743896484375,21.168750762939453,30.187501907348633,4.6875
1777561100397744000,6.107744140625,21.1875,30.037500381469727,3.6750001907348633
1777561100407744000,6.117743896484375,20.55000114440918,30.243751525878906,6
1777561100417744100,6.127744140625,20.606250762939453,30.918750762939453,3.731250047683716
1777561100427744000,6.137743896484375,20.400001525878906,30.468751907348633,6.600000381469727
1777561100437744000,6.147744140625,21.9375,30.075000762939453,3.9562501907348633
1777561100447744000,6.157743896484375,20.4375,30.825000762939453,4.837500095367432
1777561100457744100,6.167744140625,21.168750762939453,29.887500762939453,4.350000381469727
1777561100467744000,6.177743896484375,22.856250762939453,29.92500114440918,3.750000238418579
1777561100477744000,6.187744140625,21.075000762939453,30.093751907348633,0.581250011920929
1777561100487744000,6.197743896484375,23.08125114440918,30.67500114440918,-0.48750001192092896
1777561100497744100,6.207744140625,23.981250762939453,30.806251525878906,1.350000023841858
1777561100507744000,6.217743896484375,24.656251907348633,28.312501907348633,1.2750000953674316
1777561100517744000,6.227744140625,22.931251525878906,30.037500381469727,-2.2875001430511475
1777561100527744000,6.237743896484375,23.006250381469727,28.650001525878906,0.11250000447034836
1777561100537744100,6.247744140625,23.943750381469727,28.968751907348633,-1.1062500476837158
1777561100547744000,6.257743896484375,23.981250762939453,29.92500114440918,-0.5062500238418579
1777561100557744000,6.267744140625,23.08125114440918,30.450000762939453,-0.24375000596046448
1777561100567744000,6.277743896484375,23.043750762939453,30.093751907348633,1.5187500715255737
1777561100577744100,6.287744140625,23.662500381469727,30.76875114440918,2.7750000953674316
1777561100587744000,6.297743896484375,25.14375114440918,29.26875114440918,1.03125
1777561100597744000,6.307744140625,23.0625,30.843751907348633,2.3812501430511475
1777561100607744000,6.317743896484375,20.793750762939453,31.593751907348633,3.281250238418579
1777561100617744100,6.327744140625,21.39375114440918,30.787500381469727,1.1437500715255737
1777561100627744000,6.337743896484375,21.037500381469727,30.48750114440918,5.043750286102295
1777561100637744000,6.347744140625,19.03125,33.67500305175781,4.706250190734863
1777561100647744000,6.357743896484375,17.587501525878906,32.08125305175781,5.71875
1777561100657744100,6.367744140625,17.381250381469727,35.36250305175781,6.768750190734863
1777561100667744000,6.377743896484375,16.912500381469727,34.29375076293945,5.456250190734863
1777561100677744000,6.387744140625,14.287500381469727,34.29375076293945,8.0625
1777561100687744000,6.397743896484375,14.287500381469727,34.29375076293945,8.0625
1777561100697744100,6.407744140625,13.762500762939453,36.65625,7.968750476837158
1777561100707744000,6.417743896484375,12.450000762939453,36.76875305175781,5.34375
1777561100717744000,6.427744140625,11.231250762939453,36.22500228881836,3.3000001907348633
1777561100727744000,6.437743896484375,7.331250190734863,38.90625,7.012500286102295
1777561100737744100,6.447744140625,7.331250190734863,38.90625,7.012500286102295
1777561100747744000,6.457743896484375,4.40625,38.04375076293945,7.068750381469727
1777561100757744000,6.467744140625,5.4375,37.14375305175781,6.862500190734863
1777561100767744000,6.477743896484375,5.325000286102295,37.70625305175781,5.700000286102295
1777561100777744100,6.487744140625,4.912500381469727,38.400001525878906,5.287500381469727
1777561100787744000,6.497743896484375,2.5875000953674316,37.57500076293945,5.606250286102295
1777561100797744000,6.507744140625,3.4875001907348633,37.087501525878906,5.643750190734863
1777561100807744000,6.517743896484375,0.3187500238418579,37.59375,5.681250095367432
1777561100817744100,6.527744140625,-0.45000001788139343,37.85625076293945,5.737500190734863
1777561100827744000,6.537743896484375,-2.8500001430511475,39.20625305175781,7.331250190734863
1777561100837744000,6.547744140625,-4.425000190734863,37.35000228881836,7.312500476837158
1777561100847744000,6.557743896484375,-8.193750381469727,38.8125,8.8125
1777561100857744100,6.567744140625,-9.037500381469727,36.09375,7.181250095367432
1777561100867744000,6.577743896484375,-10.668750762939453,36.78750228881836,6.806250095367432
1777561100877744000,6.587744140625,-11.15625,36.03750228881836,5.962500095367432
1777561100887744000,6.597743896484375,-12.206250190734863,35.79375076293945,4.256250381469727
1777561100897744100,6.607744140625,-14.531250953674316,34.78125,5.8125
1777561100907744000,6.617743896484375,-15.937500953674316,33.1875,4.275000095367432
1777561100917744000,6.627744140625,-17.325000762939453,33.35625076293945,6.318750381469727
1777561100927744000,6.637743896484375,-19.03125,32.64375305175781,6.506250381469727
1777561100937744100,6.647744140625,-20.625,30.412500381469727,5.456250190734863
1777561100947744000,6.657743896484375,-20.756250381469727,31.14375114440918,5.306250095367432
1777561100957744000,6.667744140625,-21.037500381469727,31.537500381469727,5.400000095367432
1777561100967744000,6.677743896484375,-20.325000762939453,30.20625114440918,4.837500095367432
1777561100977744100,6.687744140625,-22.462501525878906,29.08125114440918,2.2875001430511475
1777561100987744000,6.697743896484375,-23.700000762939453,29.55000114440918,5.362500190734863
1777561100997744000,6.707744140625,-23.850000381469727,28.875001907348633,4.256250381469727
1777561101007744000,6.717743896484375,-25.837501525878906,28.80000114440918,4.575000286102295
1777561101017744100,6.727744140625,-24.637500762939453,28.14375114440918,3.4312500953674316
1777561101027744000,6.737743896484375,-26.100000381469727,29.793750762939453,4.481250286102295
1777561101037744000,6.747744140625,-24.750001907348633,29.943750381469727,6.468750476837158
1777561101047744000,6.757743896484375,-25.368751525878906,29.325000762939453,5.512500286102295
1777561101057744100,6.767744140625,-22.912500381469727,30.168750762939453,5.475000381469727
1777561101067744000,6.777743896484375,-23.775001525878906,31.875001907348633,5.943750381469727
1777561101077744000,6.787744140625,-22.275001525878906,30.900001525878906,5.306250095367432
1777561101087744000,6.797743896484375,-22.96875,32.681251525878906,4.668750286102295
1777561101097744100,6.807744140625,-21.30000114440918,33.525001525878906,7.050000190734863
1777561101107744000,6.817743896484375,-21.46875,32.400001525878906,5.287500381469727
1777561101117744000,6.827744140625,-19.462501525878906,33.97500228881836,7.650000095367432
1777561101127744000,6.837743896484375,-19.462501525878906,33.97500228881836,7.650000095367432
1777561101137744100,6.847744140625,-19.856250762939453,31.856250762939453,8.53125
1777561101147744000,6.857743896484375,-20.73750114440918,32.00625228881836,6.881250381469727
1777561101157744000,6.867744140625,-18.618751525878906,32.868751525878906,9.393750190734863
1777561101167744000,6.877743896484375,-17.4375,35.13750076293945,7.968750476837158
1777561101177744100,6.887744140625,-18.412500381469727,33.16875076293945,6.337500095367432
1777561101187744000,6.897743896484375,-17.006250381469727,34.087501525878906,6.768750190734863
1777561101197744000,6.907744140625,-15.168750762939453,34.23750305175781,6.037500381469727
1777561101207744000,6.917743896484375,-15.450000762939453,34.81875228881836,5.737500190734863
1777561101217744100,6.927744140625,-13.443750381469727,35.92500305175781,5.756250381469727
1777561101227744000,6.937743896484375,-13.800000190734863,35.83125305175781,9.262500762939453
1777561101237744000,6.947744140625,-12.093750953674316,36.20625305175781,8.4375
1777561101247744000,6.957743896484375,-11.96250057220459,35.85000228881836,9.506250381469727
1777561101257744100,6.967744140625,-9.46875,36.91875076293945,7.387500286102295
1777561101267744000,6.977743896484375,-8.043750762939453,39.07500076293945,8.606250762939453
1777561101277744000,6.987744140625,-5.025000095367432,37.57500076293945,6.825000286102295
1777561101287744000,6.997743896484375,-2.4375,38.10000228881836,7.987500190734863
1777561101297744100,7.007744140625,-4.237500190734863,38.55000305175781,6.712500095367432
1777561101307744000,7.017743896484375,-0.9937500357627869,39.65625,6.693750381469727
1777561101317744000,7.027744140625,-1.350000023841858,38.73750305175781,7.237500190734863
1777561101327744000,7.037743896484375,1.256250023841858,38.45625305175781,5.268750190734863
1777561101337744100,7.047744140625,-0.39375001192092896,39,5.568750381469727
1777561101347744000,7.057743896484375,2.1750001907348633,39.45000076293945,6.993750095367432
1777561101357744000,7.067744140625,1.9312500953674316,36.806251525878906,6.768750190734863
1777561101367744000,7.077743896484375,3.8062500953674316,38.92500305175781,8.550000190734863
1777561101377744100,7.087744140625,1.9500000476837158,38.4375,9.487500190734863
1777561101387744000,7.097743896484375,4.837500095367432,38.26875305175781,9.24375057220459
1777561101397744000,7.107744140625,6.093750476837158,38.85000228881836,8.043750762939453
1777561101407744000,7.117743896484375,6.618750095367432,36.88125228881836,8.21250057220459
1777561101417744100,7.127744140625,7.218750476837158,37.05000305175781,10.21875
1777561101427744000,7.137743896484375,6.787500381469727,37.63125228881836,9.918750762939453
1777561101437744000,7.147744140625,7.518750190734863,37.89375305175781,11.77500057220459
1777561101447744000,7.157743896484375,8.86875057220459,36.60000228881836,10.65000057220459
1777561101457744100,7.167744140625,10.200000762939453,35.36250305175781,9.80625057220459
1777561101467744000,7.177743896484375,10.481250762939453,35.10000228881836,9.75
1777561101477744000,7.187744140625,10.96875,36.20625305175781,11.362500190734863
1777561101487744000,7.197743896484375,11.34375,37.59375,9.787500381469727
1777561101497744100,7.207744140625,12.787500381469727,34.91250228881836,8.53125
1777561101507744000,7.217743896484375,11.58750057220459,35.625,9.112500190734863
1777561101517744000,7.227744140625,13.74375057220459,36.30000305175781,8.625
1777561101527744000,7.237743896484375,10.5,35.25,9.075000762939453
1777561101537744100,7.247744140625,12.956250190734863,35.868751525878906,9.975000381469727
1777561101547744000,7.257743896484375,12.15000057220459,35.41875076293945,11.043750762939453
1777561101557744000,7.267744140625,11.40000057220459,35.25,9.90000057220459
1777561101567744000,7.277743896484375,11.40000057220459,35.25,9.90000057220459
1777561101577744100,7.287744140625,13.687500953674316,34.743751525878906,9.037500381469727
1777561101587744000,7.297743896484375,13.050000190734863,34.48125076293945,9.84375
1777561101597744000,7.307744140625,15.918750762939453,33.993751525878906,9.956250190734863
1777561101607744000,7.317743896484375,13.856250762939453,35.98125076293945,9.825000762939453
1777561101617744100,7.327744140625,15.937500953674316,34.63125228881836,10.08750057220459
1777561101627744000,7.337743896484375,14.11875057220459,34.14375305175781,9.1875
1777561101637744000,7.347744140625,15.61875057220459,33.76875305175781,8.381250381469727
1777561101647744000,7.357743896484375,14.925000190734863,34.80000305175781,6.900000095367432
1777561101657744100,7.367744140625,14.943750381469727,35.587501525878906,8.043750762939453
1777561101667744000,7.377743896484375,15.693750381469727,34.72500228881836,6.450000286102295
1777561101677744000,7.387744140625,16.443750381469727,34.35000228881836,6.356250286102295
1777561101687744000,7.397743896484375,14.49375057220459,35.85000228881836,8.100000381469727
1777561101697744100,7.407744140625,15.825000762939453,34.05000305175781,5.175000190734863
1777561101707744000,7.417743896484375,16.556251525878906,34.14375305175781,7.575000286102295
1777561101717744000,7.427744140625,15.750000953674316,35.868751525878906,5.662500381469727
1777561101727744000,7.437743896484375,14.475000381469727,34.98750305175781,6.525000095367432
1777561101737744100,7.447744140625,15.24375057220459,35.0625,6.937500476837158
1777561101747744000,7.457743896484375,15.862500190734863,35.32500076293945,7.106250286102295
1777561101757744000,7.467744140625,16.51875114440918,35.85000228881836,3.8062500953674316
1777561101767744000,7.477743896484375,17.55000114440918,35.56875228881836,6.262500286102295
1777561101777744100,7.487744140625,15.843750953674316,34.57500076293945,6.262500286102295
1777561101787744000,7.497743896484375,14.475000381469727,34.14375305175781,4.950000286102295
1777561101797744000,7.507744140625,14.96250057220459,36.07500076293945,7.143750190734863
1777561101807744000,7.517743896484375,13.031250953674316,36.41250228881836,5.137500286102295
1777561101817744100,7.527744140625,13.818750381469727,36.39375305175781,3.281250238418579
1777561101827744000,7.537743896484375,16.21875,34.20000076293945,-0.581250011920929
1777561101837744000,7.547744140625,13.012500762939453,34.125,0.4687500298023224
1777561101847744000,7.557743896484375,11.231250762939453,35.04375076293945,-0.01875000074505806
1777561101857744100,7.567744140625,12.487500190734863,37.10625076293945,2.1750001907348633
1777561101867744000,7.577743896484375,12.112500190734863,34.76250076293945,1.4625000953674316
1777561101877744000,7.587744140625,10.050000190734863,36.48750305175781,1.2750000953674316
1777561101887744000,7.597743896484375,5.400000095367432,34.85625076293945,2.9250001907348633
1777561101897744100,7.607744140625,5.943750381469727,38.00625228881836,5.625
1777561101907744000,7.617743896484375,2.90625,37.95000076293945,5.268750190734863
1777561101917744000,7.627744140625,2.8687500953674316,37.59375,7.050000190734863
1777561101927744000,7.637743896484375,1.5187500715255737,38.025001525878906,6.600000381469727
1777561101937744100,7.647744140625,-0.30000001192092896,38.025001525878906,6.656250476837158
1777561101947744000,7.657743896484375,1.3875000476837158,38.45625305175781,6.112500190734863
1777561101957744000,7.667744140625,0.1875,34.78125,6.581250190734863
1777561101967744000,7.677743896484375,-1.8562500476837158,37.35000228881836,7.968750476837158
1777561101977744100,7.687744140625,-3.7125000953674316,37.650001525878906,9.918750762939453
1777561101987744000,7.697743896484375,-4.950000286102295,36.618751525878906,9.75
1777561101997744000,7.707744140625,-4.162500381469727,37.20000076293945,9.412500381469727
1777561102007744000,7.717743896484375,-6.281250476837158,37.14375305175781,8.193750381469727
1777561102017744100,7.727744140625,-6.281250476837158,37.14375305175781,8.193750381469727
1777561102027744000,7.737743896484375,-9.487500190734863,36.76875305175781,8.0625
1777561102037744000,7.747744140625,-8.793750762939453,38.08125305175781,6.037500381469727
1777561102047744000,7.757743896484375,-11.100000381469727,37.03125,4.762500286102295
1777561102057744100,7.767744140625,-11.737500190734863,36.712501525878906,6
1777561102067744000,7.777743896484375,-12.018750190734863,37.91250228881836,7.350000381469727
1777561102077744000,7.787744140625,-13.725000381469727,36.09375,5.081250190734863
1777561102087744000,7.797743896484375,-15.412500381469727,36.26250076293945,7.143750190734863
1777561102097744100,7.807744140625,-17.568750381469727,34.96875,5.962500095367432
1777561102107744000,7.817743896484375,-14.981250762939453,35.45625305175781,6.693750381469727
1777561102117744000,7.827744140625,-17.568750381469727,35.41875076293945,6.468750476837158
1777561102127744000,7.837743896484375,-16.743751525878906,32.53125,4.631250381469727
1777561102137744100,7.847744140625,-17.775001525878906,33.50625228881836,5.25
1777561102147744000,7.857743896484375,-16.743751525878906,33,6.131250381469727
1777561102157744000,7.867744140625,-18.243751525878906,33.50625228881836,6.956250190734863
1777561102167744000,7.877743896484375,-20.25,33.337501525878906,7.556250095367432
1777561102177744100,7.887744140625,-22.51875114440918,33.30000305175781,7.181250095367432
1777561102187744000,7.897743896484375,-21.76875114440918,33.13125228881836,7.837500095367432
1777561102197744000,7.907744140625,-22.51875114440918,34.20000076293945,9.1875
1777561102207744000,7.917743896484375,-23.73750114440918,33.11250305175781,7.593750476837158
1777561102217744100,7.927744140625,-22.40625,32.306251525878906,7.275000095367432
1777561102227744000,7.937743896484375,-22.51875114440918,33.30000305175781,7.181250095367432
1777561102237744000,7.947744140625,-20.568750381469727,33.45000076293945,9.131250381469727
1777561102247744000,7.957743896484375,-21.600000381469727,33.48750305175781,6.768750190734863
1777561102257744100,7.967744140625,-21.431251525878906,33.03750228881836,5.400000095367432
1777561102267744000,7.977743896484375,-20.681251525878906,33.13125228881836,6.112500190734863
1777561102277744000,7.987744140625,-19.05000114440918,31.42500114440918,3.7687501907348633
1777561102287744000,7.997743896484375,-20.8125,32.60625076293945,3.3375000953674316
1777561102297744100,8.007744140625,-20.475000381469727,34.837501525878906,5.868750095367432
1777561102307744000,8.017743896484374,-17.756250381469727,33.26250076293945,3.656250238418579
1777561102317744000,8.027744140625,-18.975000381469727,34.14375305175781,5.418750286102295
1777561102327744000,8.037743896484375,-18.356250762939453,34.837501525878906,6.656250476837158
1777561102337744100,8.047744140625,-17.568750381469727,34.81875228881836,4.950000286102295
1777561102347744000,8.057743896484375,-17.8125,33.1875,7.312500476837158
1777561102357744000,8.067744140625,-16.5,35.71875,6.768750190734863
1777561102367744000,8.077743896484375,-17.4375,33.618751525878906,3.4312500953674316
1777561102377744100,8.087744140625,-17.606250762939453,33.97500228881836,5.0625
1777561102387744000,8.097743896484374,-18.225000381469727,34.10625076293945,6.787500381469727
1777561102397744000,8.107744140625,-18.056251525878906,33.86250305175781,4.350000381469727
1777561102407744000,8.117743896484376,-19.125,33.48750305175781,4.3125
1777561102417744100,8.127744140625,-19.106250762939453,33.243751525878906,2.5687501430511475
1777561102427744000,8.137743896484375,-19.818750381469727,33.28125,-1.3687500953674316
1777561102437744000,8.147744140625,-19.40625,33.16875076293945,2.137500047683716
1777561102447744000,8.157743896484375,-18.993751525878906,32.0625,1.350000023841858
1777561102457744100,8.167744140625,-18.993751525878906,32.0625,1.350000023841858
1777561102467744000,8.177743896484374,-20.92500114440918,33.993751525878906,3.468750238418579
1777561102477744000,8.187744140625,-20.868751525878906,35.17500305175781,2.981250047683716
1777561102487744000,8.197743896484376,-19.818750381469727,34.42500305175781,2.1000001430511475
1777561102497744100,8.207744140625,-18.75,34.40625,2.0625
1777561102507744000,8.217743896484375,-19.23750114440918,33.60000228881836,1.6500000953674316
1777561102517744000,8.227744140625,-17.662500381469727,35.212501525878906,1.631250023841858
1777561102527744000,8.237743896484375,-18.84375,36.65625,2.9250001907348633
1777561102537744100,8.247744140625,-15.937500953674316,36.525001525878906,1.2750000953674316
1777561102547744000,8.257743896484374,-15.168750762939453,36.75,1.0125000476837158
1777561102557744000,8.267744140625,-15.33750057220459,35.625,0.24375000596046448
1777561102567744000,8.277743896484376,-14.456250190734863,35.56875228881836,1.4625000953674316
1777561102577744100,8.287744140625,-14.793750762939453,37.38750076293945,-1.4250000715255737
1777561102587744000,8.297743896484375,-15.262500762939453,38.23125076293945,1.0125000476837158
1777561102597744000,8.307744140625,-13.331250190734863,36.73125076293945,0.956250011920929
1777561102607744000,8.317743896484375,-14.287500381469727,35.73750305175781,0.9375000596046448
1777561102617744100,8.327744140625,-13.800000190734863,37.48125076293945,2.6625001430511475
1777561102627744000,8.337743896484374,-12.731250762939453,37.40625,2.1937501430511475
1777561102637744000,8.347744140625,-12.018750190734863,35.92500305175781,2.325000047683716
1777561102647744000,8.357743896484376,-9.675000190734863,37.29375076293945,1.3875000476837158
1777561102657744100,8.367744140625,-10.875,37.931251525878906,1.537500023841858
1777561102667744000,8.377743896484375,-10.93125057220459,36.67500305175781,3.1500000953674316
1777561102677744000,8.387744140625,-9.637500762939453,38.38125228881836,2.0250000953674316
1777561102687744000,8.397743896484375,-8.756250381469727,37.98750305175781,2.7750000953674316
1777561102697744100,8.407744140625,-7.350000381469727,39.28125,2.9250001907348633
1777561102707744000,8.417743896484374,-7.537500381469727,38.306251525878906,2.1750001907348633
1777561102717744000,8.427744140625,-7.987500190734863,38.38125228881836,2.625
1777561102727744000,8.437743896484376,-7.500000476837158,38.94375228881836,2.3062500953674316
1777561102737744100,8.447744140625,-6.450000286102295,38.79375076293945,2.9437501430511475
1777561102747744000,8.457743896484375,-6.112500190734863,39,0.15000000596046448
1777561102757744000,8.467744140625,-5.0625,38.04375076293945,-1.3312500715255737
1777561102767744000,8.477743896484375,-4.03125,36.75,-1.5937501192092896
1777561102777744100,8.487744140625,-2.7750000953674316,38.025001525878906,-1.3875000476837158
1777561102787744000,8.497743896484375,-3.8062500953674316,39.07500076293945,-1.0125000476837158
1777561102797744000,8.507744140625,-2.0250000953674316,37.42500305175781,-2.9250001907348633
1777561102807744000,8.517743896484374,-1.8562500476837158,37.16250228881836,-3.825000047683716
1777561102817744100,8.527744140625,-1.8937500715255737,36.58125305175781,-3.656250238418579
1777561102827744000,8.537743896484375,0.4312500059604645,37.3125,-4.575000286102295
1777561102837744000,8.547744140625,-2.7750000953674316,37.931251525878906,-2.1187500953674316
1777561102847744000,8.557743896484375,-2.3812501430511475,37.48125076293945,0.9000000357627869
1777561102857744100,8.567744140625,-2.3625001907348633,37.875,0.9750000238418579
1777561102867744000,8.577743896484375,-1.9687501192092896,39.67500305175781,-0.39375001192092896
1777561102877744000,8.587744140625,-2.7375001907348633,40.44375228881836,2.325000047683716
1777561102887744000,8.597743896484374,-1.6875001192092896,39.73125076293945,1.725000023841858
1777561102897744100,8.607744140625,-1.6875001192092896,39.73125076293945,1.725000023841858
1777561102907744000,8.617743896484376,-2.7750000953674316,38.94375228881836,0.6187500357627869
1777561102917744000,8.627744140625,0.8437500596046448,37.42500305175781,-1.1812500953674316
1777561102927744000,8.637743896484375,1.6500000953674316,39.16875076293945,0.5437500476837158
1777561102937744100,8.647744140625,1.1437500715255737,37.20000076293945,-1.0875000953674316
1777561102947744000,8.657743896484375,-0.8250000476837158,38.00625228881836,0.24375000596046448
1777561102957744000,8.667744140625,1.912500023841858,38.00625228881836,0.16875000298023224
1777561102967744000,8.677743896484374,0.8812500238418579,38.8125,-0.20625001192092896
1777561102977744100,8.687744140625,1.2000000476837158,39.22500228881836,0
1777561102987744000,8.697743896484376,0.11250000447034836,37.48125076293945,-2.5500001907348633
1777561102997744000,8.707744140625,0.4312500059604645,38.04375076293945,-2.0250000953674316
1777561103007744000,8.717743896484375,1.5,38.75625228881836,-1.5
1777561103017744100,8.727744140625,1.1812500953674316,37.95000076293945,-2.7750000953674316
1777561103027744000,8.737743896484375,2.4000000953674316,37.743751525878906,-3.281250238418579
1777561103037744000,8.747744140625,3.0187501907348633,38.36250305175781,-1.6125000715255737
1777561103047744000,8.757743896484374,3.918750047683716,37.66875076293945,-3.750000238418579
1777561103057744100,8.767744140625,1.4812500476837158,37.51875305175781,-3.1500000953674316
1777561103067744000,8.777743896484376,0.6187500357627869,39.1875,-1.9687501192092896
1777561103077744000,8.787744140625,2.1000001430511475,37.89375305175781,-2.25
1777561103087744000,8.797743896484375,2.4375,39.16875076293945,-2.0062501430511475
1777561103097744100,8.807744140625,3.1500000953674316,38.25,-1.5
1777561103117744000,8.827744140625,0.9375000596046448,38.00625228881836,-5.71875
1777561103127744000,8.837743896484374,-1.5750000476837158,37.275001525878906,-3.1125001907348633
1777561103137744100,8.847744140625,0,38.8125,-2.8687500953674316
1777561103147744000,8.857743896484376,0.5250000357627869,36.01875305175781,-3.9750001430511475
1777561103157744000,8.867744140625,-0.24375000596046448,35.775001525878906,-3.9937500953674316
1777561103167744000,8.877743896484375,-2.7562501430511475,37.556251525878906,-4.575000286102295
1777561103177744100,8.887744140625,-3.2250001430511475,36.97500228881836,-4.40625
1777561103187744000,8.897743896484375,-4.012500286102295,36.65625,-4.012500286102295
1777561103197744000,8.907744140625,-7.331250190734863,37.80000305175781,-3
1777561103207744000,8.917743896484374,-6.618750095367432,35.70000076293945,-4.556250095367432
1777561103217744100,8.927744140625,-7.181250095367432,36.50625228881836,-5.943750381469727
1777561103227744000,8.937743896484376,-7.837500095367432,35.23125076293945,-5.325000286102295
1777561103237744000,8.947744140625,-9.731250762939453,34.01250076293945,-3.375000238418579
1777561103247744000,8.957743896484375,-11.100000381469727,33.67500305175781,-3.9750001430511475
1777561103257744100,8.967744140625,-9.131250381469727,33.73125076293945,-3.6000001430511475
1777561103267744000,8.977743896484375,-13.65000057220459,34.72500228881836,-3.7125000953674316
1777561103277744000,8.987744140625,-12.168750762939453,33.75,-3.5062501430511475
1777561103287744000,8.997743896484375,-13.518750190734863,34.63125228881836,-3.450000047683716
1777561103297744100,9.007744140625,-13.500000953674316,34.51875305175781,-4.162500381469727
1777561103307744000,9.017743896484374,-12.956250190734863,33.11250305175781,-3.6000001430511475
1777561103317744000,9.027744140625,-13.500000953674316,34.931251525878906,-3.1125001907348633
1777561103327744000,9.037743896484375,-15.075000762939453,33.86250305175781,-1.8562500476837158
1777561103337744100,9.047744140625,-15.262500762939453,33.22500228881836,-1.125
1777561103347744000,9.057743896484375,-15.262500762939453,33.22500228881836,-1.125
1777561103357744000,9.067744140625,-17.193750381469727,34.3125,-2.2875001430511475
1777561103367744000,9.077743896484375,-15.281250953674316,32.34375,-2.981250047683716
1777561103377744100,9.087744140625,-18,33.13125228881836,-1.7812501192092896
1777561103387744000,9.097743896484374,-18.318750381469727,32.71875,-2.137500047683716
1777561103397744000,9.107744140625,-18.76875114440918,32.60625076293945,-2.8500001430511475
1777561103407744000,9.117743896484376,-19.387500762939453,31.912500381469727,-3.3937501907348633
1777561103417744100,9.127744140625,-19.40625,31.650001525878906,-3.4312500953674316
1777561103427744000,9.137743896484375,-20.793750762939453,30.281251907348633,-5.212500095367432
1777561103437744000,9.147744140625,-20.25,27.600000381469727,-7.293750286102295
1777561103447744000,9.157743896484375,-22.556251525878906,27.731250762939453,-4.800000190734863
1777561103457744100,9.167744140625,-22.51875114440918,28.406251907348633,-6.093750476837158
1777561103467744000,9.177743896484374,-22.462501525878906,29.92500114440918,-6.787500381469727
1777561103477744000,9.187744140625,-23.26875114440918,28.762500762939453,-6.281250476837158
1777561103487744000,9.197743896484376,-23.700000762939453,29.437501907348633,-5.868750095367432
1777561103497744100,9.207744140625,-21.787500381469727,27.506250381469727,-6.281250476837158
1777561103507744000,9.217743896484375,-24.806251525878906,28.481250762939453,-5.587500095367432
1777561103517744000,9.227744140625,-22.5,29.212501525878906,-4.800000190734863
1777561103527744000,9.237743896484375,-21.28125,27.937501907348633,-8.475000381469727
1777561103537744100,9.247744140625,-21.76875114440918,27.187501907348633,-8.456250190734863
1777561103547744000,9.257743896484374,-22.481250762939453,28.89375114440918,-6.975000381469727
1777561103557744000,9.267744140625,-21.450000762939453,28.14375114440918,-7.856250286102295
1777561103567744000,9.277743896484376,-21.318750381469727,27.881250381469727,-7.068750381469727
1777561103577744100,9.287744140625,-22.931251525878906,29.437501907348633,-5.887500286102295
1777561103587744000,9.297743896484375,-22.51875114440918,29.006250381469727,-4.556250095367432
1777561103597744000,9.307744140625,-21.76875114440918,28.61250114440918,-4.650000095367432
1777561103607744000,9.317743896484375,-21.75,29.156251907348633,-5.268750190734863
1777561103617744100,9.327744140625,-23.006250381469727,28.931251525878906,-2.4375
1777561103627744000,9.337743896484374,-24.450000762939453,30.618751525878906,-3.7875001430511475
1777561103637744000,9.347744140625,-24.356250762939453,29.287500381469727,-3.468750238418579
1777561103647744000,9.357743896484376,-23.381250381469727,26.606250762939453,-3.8625001907348633
1777561103657744100,9.367744140625,-23.17500114440918,27.525001525878906,-5.25
1777561103667744000,9.377743896484375,-26.118751525878906,26.137500762939453,-4.59375
1777561103677744000,9.387744140625,-24.131250381469727,26.062501907348633,-5.081250190734863
1777561103687744000,9.397743896484375,-24.450000762939453,25.031251907348633,-7.106250286102295
1777561103697744100,9.407744140625,-24.431251525878906,25.762500762939453,-6.262500286102295
1777561103707744000,9.417743896484374,-23.700000762939453,25.162500381469727,-6.112500190734863
1777561103717744000,9.427744140625,-27.337501525878906,25.462501525878906,-6.656250476837158
1777561103727744000,9.437743896484376,-25.70625114440918,24.543750762939453,-5.325000286102295
1777561103737744100,9.447744140625,-27.881250381469727,23.325000762939453,-5.925000190734863
1777561103747744000,9.457743896484375,-26.325000762939453,24.95625114440918,-3.262500047683716
1777561103757744000,9.467744140625,-25.89375114440918,23.962501525878906,-4.162500381469727
1777561103767744000,9.477743896484375,-27.86250114440918,23.868751525878906,-4.837500095367432
1777561103777744100,9.487744140625,-28.80000114440918,23.90625,-2.8312501907348633
1777561103787744000,9.497743896484375,-28.80000114440918,23.90625,-2.8312501907348633
1777561103797744000,9.507744140625,-29.418750762939453,24.187501907348633,-2.625
1777561103807744000,9.517743896484374,-28.012500762939453,25.181251525878906,-2.606250047683716
1777561103817744100,9.527744140625,-27.39375114440918,25.781251907348633,-1.9500000476837158
1777561103827744000,9.537743896484375,-26.156251907348633,26.306251525878906,-1.7437500953674316
1777561103837744000,9.547744140625,-23.26875114440918,26.287500381469727,-0.9750000238418579
1777561103847744000,9.557743896484375,-25.743751525878906,26.193750381469727,1.7625000476837158
1777561103857744100,9.567744140625,-26.100000381469727,28.968751907348633,2.0250000953674316
1777561103867744000,9.577743896484375,-23.943750381469727,29.812501907348633,1.8375000953674316
1777561103877744000,9.587744140625,-21.39375114440918,28.725000381469727,1.2750000953674316
1777561103887744000,9.597743896484374,-24.806251525878906,27.356250762939453,2.1000001430511475
1777561103897744100,9.607744140625,-22.51875114440918,26.718751907348633,0.22500000894069672
1777561103907744000,9.617743896484376,-24.450000762939453,28.106250762939453,1.2375000715255737
1777561103917744000,9.627744140625,-22.631250381469727,28.14375114440918,0.6375000476837158
1777561103927744000,9.637743896484375,-23.34375,29.531251907348633,1.631250023841858
1777561103937744100,9.647744140625,-22.537500381469727,30.450000762939453,1.068750023841858
1777561103947744000,9.657743896484375,-22.21875,31.556251525878906,2.700000047683716
1777561103957744000,9.667744140625,-19.5,31.743751525878906,4.068750381469727
1777561103967744000,9.677743896484374,-20.287500381469727,31.106250762939453,3.9750001430511475
1777561103977744100,9.687744140625,-18.318750381469727,30.731250762939453,3.9750001430511475
1777561103987744000,9.697743896484376,-20.100000381469727,31.031251907348633,1.6875001192092896
1777561103997744000,9.707744140625,-18.881250381469727,32.493751525878906,4.893750190734863
1777561104007744000,9.717743896484375,-18.5625,32.79375076293945,5.231250286102295
1777561104017744100,9.727744140625,-17.043750762939453,32.66250228881836,4.3125
1777561104027744000,9.737743896484375,-19.03125,33.26250076293945,6.750000476837158
1777561104037744000,9.747744140625,-17.418750762939453,31.162500381469727,6.018750190734863
1777561104047744000,9.757743896484374,-16.106250762939453,33.91875076293945,6.225000381469727
1777561104057744100,9.767744140625,-17.34375,33.88125228881836,7.668750286102295
1777561104067744000,9.777743896484376,-15.862500190734863,31.650001525878906,5.081250190734863
1777561104077744000,9.787744140625,-14.700000762939453,34.14375305175781,4.256250381469727
1777561104087744000,9.797743896484375,-14.568750381469727,34.3125,6.262500286102295
1777561104097744100,9.807744140625,-15.99375057220459,32.88750076293945,5.887500286102295
1777561104107744000,9.817743896484375,-14.77500057220459,33.82500076293945,8.15625
1777561104117744000,9.827744140625,-13.200000762939453,34.931251525878906,7.181250095367432
1777561104127744000,9.837743896484374,-12.543750762939453,35.51250076293945,5.15625
1777561104137744100,9.847744140625,-12.768750190734863,34.087501525878906,6.262500286102295
1777561104147744000,9.857743896484376,-11.40000057220459,34.181251525878906,6.112500190734863
1777561104157744000,9.867744140625,-12,34.89375305175781,7.518750190734863
1777561104167744000,9.877743896484375,-12.862500190734863,35.85000228881836,6.468750476837158
1777561104177744100,9.887744140625,-11.4375,32.90625,5.868750095367432
1777561104187744000,9.897743896484375,-11.8125,35.04375076293945,5.15625
1777561104197744000,9.907744140625,-11.34375,35.25,4.893750190734863
1777561104207744000,9.917743896484374,-10.443750381469727,35.73750305175781,6.525000095367432
1777561104217744100,9.927744140625,-12.412500381469727,35.75625228881836,6.562500476837158
1777561104227744000,9.937743896484376,-12.412500381469727,35.75625228881836,6.562500476837158
1777561104237744000,9.947744140625,-11.175000190734863,35.85000228881836,5.568750381469727
1777561104247744000,9.957743896484375,-11.137500762939453,38.025001525878906,7.668750286102295
1777561104257744100,9.967744140625,-14.831250190734863,36.65625,7.650000095367432
1777561104267744000,9.977743896484375,-14.831250190734863,36.65625,7.650000095367432
1777561104277744000,9.987744140625,-12.862500190734863,36.150001525878906,6.806250095367432
1777561104287744000,9.997743896484375,-10.875,36.69375228881836,7.143750190734863
1777561104297744100,10.007744140625,-12.037500381469727,37.01250076293945,4.125
1777561104307744000,10.017743896484374,-12.075000762939453,36.39375305175781,5.831250190734863
1777561104317744000,10.027744140625,-10.893750190734863,36,6.581250190734863
1777561104327744000,10.037743896484375,-10.55625057220459,36.28125,5.0625
1777561104337744100,10.047744140625,-12.075000762939453,36.28125,5.118750095367432
1777561104347744000,10.057743896484375,-14.02500057220459,36.01875305175781,3.281250238418579
1777561104357744000,10.067744140625,-13.74375057220459,35.625,4.050000190734863
1777561104367744000,10.077743896484375,-15.862500190734863,36.30000305175781,5.212500095367432
1777561104377744100,10.087744140625,-16.293750762939453,36.84375,4.631250381469727
1777561104387744000,10.097743896484374,-17.568750381469727,35.00625228881836,4.03125
1777561104397744000,10.107744140625,-17.868751525878906,35.56875228881836,4.425000190734863
1777561104407744000,10.117743896484376,-17.45625114440918,34.38750076293945,4.893750190734863
1777561104417744100,10.127744140625,-19.087501525878906,34.40625,1.5562500953674316
1777561104427744000,10.137743896484375,-21.618751525878906,31.61250114440918,1.21875
1777561104437744000,10.147744140625,-24.375001907348633,32.025001525878906,3.918750047683716
1777561104447744000,10.157743896484375,-24.562501907348633,29.212501525878906,0
1777561104457744100,10.167744140625,-27.825000762939453,28.575000762939453,3.356250047683716
1777561104467744000,10.177743896484374,-29.193750381469727,27.825000762939453,1.5562500953674316
1777561104477744000,10.187744140625,-30.037500381469727,25.162500381469727,0.35625001788139343
1777561104487744000,10.197743896484376,-31.106250762939453,25.650001525878906,1.1812500953674316
1777561104497744100,10.207744140625,-31.762500762939453,24.750001907348633,2.71875
1777561104507744000,10.217743896484375,-34.837501525878906,23.4375,2.137500047683716
1777561104517744000,10.227744140625,-32.70000076293945,22.98750114440918,0.01875000074505806
1777561104527744000,10.237743896484375,-32.75625228881836,22.181251525878906,1.2750000953674316
1777561104537744100,10.247744140625,-35.60625076293945,21.693750381469727,2.4937500953674316
1777561104547744000,10.257743896484374,-36.46875,17.92500114440918,-0.3187500238418579
1777561104557744000,10.267744140625,-34.931251525878906,19.125,1.9875000715255737
1777561104567744000,10.277743896484376,-38.306251525878906,18.243751525878906,1.912500023841858
1777561104577744100,10.287744140625,-38.83125305175781,16.21875,0.8437500596046448
1777561104587744000,10.297743896484375,-39.1875,14.043750762939453,-1.256250023841858
1777561104597744000,10.307744140625,-39.63750076293945,13.987500190734863,-1.6875001192092896
1777561104607744000,10.317743896484375,-38.56875228881836,9.600000381469727,-1.8375000953674316
1777561104617744100,10.327744140625,-39.78750228881836,8.606250762939453,-4.40625
1777561104627744000,10.337743896484374,-41.36250305175781,6.356250286102295,-7.050000190734863
1777561104637744000,10.347744140625,-41.51250076293945,6.056250095367432,-8.231250762939453
1777561104647744000,10.357743896484376,-40.95000076293945,4.6875,-7.368750095367432
1777561104657744100,10.367744140625,-43.14375305175781,2.3062500953674316,-10.03125
1777561104667744000,10.377743896484375,-40.78125,0.22500000894069672,-10.631250381469727
1777561104677744000,10.387744140625,-40.78125,0.22500000894069672,-10.631250381469727
1777561104687744000,10.397743896484375,-40.95000076293945,-0.5625,-10.912500381469727
1777561104697744100,10.407744140625,-40.23750305175781,-1.8562500476837158,-11.175000190734863
1777561104707744000,10.417743896484374,-40.23750305175781,-3.356250047683716,-14.718750953674316
1777561104717744000,10.427744140625,-39.712501525878906,-6.187500476837158,-16.125
1777561104727744000,10.437743896484376,-40.3125,-5.606250286102295,-15.562500953674316
1777561104737744100,10.447744140625,-37.875,-6.206250190734863,-18
1777561104747744000,10.457743896484375,-36.50625228881836,-6.468750476837158,-18.9375
1777561104757744000,10.467744140625,-38.962501525878906,-7.593750476837158,-18.95625114440918
1777561104767744000,10.477743896484375,-36.16875076293945,-6.150000095367432,-19.3125
1777561104787744000,10.497743896484375,-36.16875076293945,-7.331250190734863,-23.0625
1777561104797744000,10.507744140625,-34.33125305175781,-8.043750762939453,-26.212501525878906
1777561104807744000,10.517743896484374,-34.01250076293945,-8.25,-27.67500114440918
1777561104817744100,10.527744140625,-34.181251525878906,-8.21250057220459,-26.531251907348633
1777561104827744000,10.537743896484375,-35.8125,-7.068750381469727,-26.418750762939453
1777561104837744000,10.547744140625,-36.78750228881836,-4.350000381469727,-25.725000381469727
1777561104847744000,10.557743896484375,-36.431251525878906,-4.275000095367432,-28.687501907348633
1777561104857744100,10.567744140625,-34.743751525878906,-3.4312500953674316,-28.012500762939453
1777561104867744000,10.577743896484375,-36.712501525878906,-2.8312501907348633,-26.418750762939453
1777561104877744000,10.587744140625,-34.6875,-2.2125000953674316,-28.200000762939453
1777561104887744000,10.597743896484374,-35.118751525878906,-1.6875001192092896,-28.781251907348633
1777561104897744100,10.607744140625,-33.63750076293945,-0.9750000238418579,-35.88750076293945
1777561104907744000,10.617743896484376,-33.58125305175781,2.512500047683716,-30.712501525878906
1777561104917744000,10.627744140625,-37.275001525878906,2.3812501430511475,-26.55000114440918
1777561104927744000,10.637743896484375,-37.51875305175781,3.843750238418579,-27.67500114440918
1777561104937744100,10.647744140625,-34.57500076293945,5.4375,-27.86250114440918
1777561104947744000,10.657743896484375,-34.89375305175781,4.3125,-28.631250381469727
1777561104957744000,10.667744140625,-37.40625,5.081250190734863,-31.950000762939453
1777561104967744000,10.677743896484374,-36.46875,7.237500190734863,-28.33125114440918
1777561104977744100,10.687744140625,-35.868751525878906,7.143750190734863,-28.068750381469727
1777561104987744000,10.697743896484376,-35.625,10.818750381469727,-25.125001907348633
1777561104997744000,10.707744140625,-36.69375228881836,10.668750762939453,-24.412500381469727
1777561105007744000,10.717743896484375,-37.462501525878906,10.668750762939453,-24.39375114440918
1777561105017744100,10.727744140625,-37.06875228881836,13.55625057220459,-23.4375
1777561105027744000,10.737743896484375,-39.60000228881836,17.26875114440918,-17.71875
1777561105037744000,10.747744140625,-40.95000076293945,18.168750762939453,-16.668750762939453
1777561105047744000,10.757743896484374,-39.54375076293945,20.418750762939453,-13.162500381469727
1777561105057744100,10.767744140625,-41.19375228881836,20.793750762939453,-14.043750762939453
1777561105067744000,10.777743896484376,-40.275001525878906,20.400001525878906,-14.981250762939453
1777561105077744000,10.787744140625,-36.35625076293945,21.9375,-19.725000381469727
1777561105087744000,10.797743896484375,-39.11250305175781,22.21875,-17.90625
1777561105097744100,10.807744140625,-34.53750228881836,22.40625,-18.28125
1777561105107744000,10.817743896484375,-34.53750228881836,22.40625,-18.28125
1777561105117744000,10.827744140625,-39.993751525878906,24.637500762939453,-13.331250190734863
1777561105127744000,10.837743896484374,-38.681251525878906,24.075000762939453,-11.081250190734863
1777561105137744100,10.847744140625,-36.63750076293945,27.450000762939453,-10.143750190734863
1777561105147744000,10.857743896484376,-36.63750076293945,27.450000762939453,-10.143750190734863
1777561105157744000,10.867744140625,-38.28750228881836,28.350000381469727,-9.09375
1777561105167744000,10.877743896484375,-36.30000305175781,29.043750762939453,-7.743750095367432
1777561105177744100,10.887744140625,-35.71875,28.05000114440918,-9.487500190734863
1777561105187744000,10.897743896484375,-36.88125228881836,30.375001907348633,-7.181250095367432
1777561105197744000,10.907744140625,-34.743751525878906,29.962501525878906,-8.30625057220459
1777561105207744000,10.917743896484374,-35.025001525878906,30.600000381469727,-8.175000190734863
1777561105217744100,10.927744140625,-34.087501525878906,31.23750114440918,-8.925000190734863
1777561105227744000,10.937743896484376,-34.33125305175781,32.34375,-9.84375
1777561105237744000,10.947744140625,-33.337501525878906,31.443750381469727,-7.500000476837158
1777561105247744000,10.957743896484375,-35.400001525878906,33.63750076293945,-6.187500476837158
1777561105257744100,10.967744140625,-31.162500381469727,32.90625,-6.862500190734863
1777561105267744000,10.977743896484375,-33.39375305175781,34.16250228881836,-6.843750476837158
1777561105277744000,10.987744140625,-32.51250076293945,33.35625076293945,-7.162500381469727
1777561105287744000,10.997743896484375,-31.181251525878906,35.00625228881836,-10.40625
1777561105297744100,11.007744140625,-30.937501907348633,33.97500228881836,-8.90625
1777561105307744000,11.017743896484374,-30.168750762939453,35.26875305175781,-6.843750476837158
1777561105317744000,11.027744140625,-32.23125076293945,36.07500076293945,-9.037500381469727
1777561105327744000,11.037743896484375,-30.750001907348633,35.25,-7.818750381469727
1777561105337744100,11.047744140625,-31.031251907348633,35.681251525878906,-9.15000057220459
1777561105347744000,11.057743896484375,-30.67500114440918,36.86250305175781,-9.637500762939453
1777561105357744000,11.067744140625,-30.693750381469727,36.82500076293945,-8.231250762939453
1777561105367744000,11.077743896484375,-30.656251907348633,37.462501525878906,-9.80625057220459
1777561105377744100,11.087744140625,-29.475000381469727,36.11250305175781,-10.518750190734863
1777561105387744000,11.097743896484374,-27.881250381469727,38.400001525878906,-10.125
1777561105397744000,11.107744140625,-30.39375114440918,35.15625,-11.943750381469727
1777561105407744000,11.117743896484376,-28.350000381469727,36.88125228881836,-12.093750953674316
1777561105417744100,11.127744140625,-29.73750114440918,37.20000076293945,-10.725000381469727
1777561105427744000,11.137743896484375,-29.08125114440918,38.51250076293945,-11.0625
1777561105437744000,11.147744140625,-28.89375114440918,39.20625305175781,-11.49375057220459
1777561105447744000,11.157743896484375,-29.381250381469727,37.14375305175781,-14.568750381469727
1777561105457744100,11.167744140625,-28.650001525878906,36.5625,-14.268750190734863
1777561105467744000,11.177743896484374,-30.900001525878906,37.21875,-14.081250190734863
1777561105477744000,11.187744140625,-29.775001525878906,34.931251525878906,-13.425000190734863
1777561105487744000,11.197743896484376,-29.887500762939453,35.47500228881836,-14.86875057220459
1777561105497744100,11.207744140625,-31.575000762939453,34.95000076293945,-15.05625057220459
1777561105507744000,11.217743896484375,-30.787500381469727,35.38125228881836,-16.40625
1777561105517744000,11.227744140625,-31.125001907348633,34.98750305175781,-14.793750762939453
1777561105527744000,11.237743896484375,-33.01875305175781,32.88750076293945,-15.562500953674316
1777561105537744100,11.247744140625,-34.23750305175781,32.13750076293945,-17.36250114440918
1777561105547744000,11.257743896484374,-34.23750305175781,32.13750076293945,-17.36250114440918
1777561105557744000,11.267744140625,-34.96875,31.818750381469727,-19.51875114440918
1777561105567744000,11.277743896484376,-35.32500076293945,29.475000381469727,-21.9375
1777561105577744100,11.287744140625,-36.78750228881836,27.01875114440918,-21.65625
1777561105587744000,11.297743896484375,-37.57500076293945,26.08125114440918,-22.106250762939453
1777561105597744000,11.307744140625,-37.98750305175781,23.287500381469727,-22.481250762939453
1777561105607744000,11.317743896484375,-38.92500305175781,23.137500762939453,-20.92500114440918
1777561105617744100,11.327744140625,-39.28125,22.068750381469727,-19.70625114440918
1777561105627744000,11.337743896484374,-41.60625076293945,20.325000762939453,-20.700000762939453
1777561105637744000,11.347744140625,-43.20000076293945,19.068750381469727,-19.05000114440918
1777561105647744000,11.357743896484376,-41.56875228881836,17.287500381469727,-21
1777561105667744000,11.377743896484375,-43.70625305175781,16.23750114440918,-23.118751525878906
1777561105677744000,11.387744140625,-45.28125,15.112500190734863,-22.293750762939453
1777561105687744000,11.397743896484375,-43.48125076293945,13.818750381469727,-23.4375
1777561105697744100,11.407744140625,-43.5,12.600000381469727,-25.781251907348633
1777561105707744000,11.417743896484374,-42.993751525878906,9.356250762939453,-26.700000762939453
1777561105717744000,11.427744140625,-42.20625305175781,9.862500190734863,-27.468751907348633
1777561105727744000,11.437743896484376,-40.38750076293945,7.743750095367432,-32.587501525878906
1777561105737744100,11.447744140625,-40.29375076293945,7.218750476837158,-30.150001525878906
1777561105747744000,11.457743896484375,-41.56875228881836,5.868750095367432,-29.250001907348633
1777561105757744000,11.467744140625,-40.85625076293945,4.837500095367432,-29.45625114440918
1777561105767744000,11.477743896484375,-39.48750305175781,4.462500095367432,-29.418750762939453
1777561105777744100,11.487744140625,-41.23125076293945,2.0625,-31.387500762939453
1777561105787744000,11.497743896484375,-38.70000076293945,-0.30000001192092896,-33.03750228881836
1777561105797744000,11.507744140625,-36.993751525878906,0.3375000059604645,-33.806251525878906
1777561105807744000,11.517743896484374,-37.05000305175781,-1.350000023841858,-35.118751525878906
1777561105817744100,11.527744140625,-32.08125305175781,-3.4312500953674316,-36.48750305175781
1777561105827744000,11.537743896484375,-34.06875228881836,-3.8062500953674316,-36.50625228881836
1777561105837744000,11.547744140625,-32.55000305175781,-3.825000047683716,-36.54375076293945
1777561105847744000,11.557743896484375,-30.900001525878906,-3.5062501430511475,-35.26875305175781
1777561105857744100,11.567744140625,-30.618751525878906,-6.112500190734863,-39.431251525878906
1777561105867744000,11.577743896484375,-29.55000114440918,-5.362500190734863,-38.625
1777561105877744000,11.587744140625,-27.881250381469727,-5.53125,-38.83125305175781
1777561105887744000,11.597743896484374,-29.437501907348633,-6.506250381469727,-38.70000076293945
1777561105897744100,11.607744140625,-29.531251907348633,-5.90625,-40.556251525878906
1777561105907744000,11.617743896484376,-29.568750381469727,-5.475000381469727,-37.650001525878906
1777561105917744000,11.627744140625,-28.931251525878906,-4.275000095367432,-36.16875076293945
1777561105927744000,11.637743896484375,-28.912500381469727,-4.481250286102295,-37.61250305175781
1777561105937744100,11.647744140625,-29.26875114440918,-1.7437500953674316,-38.493751525878906
1777561105947744000,11.657743896484375,-30.993751525878906,-2.5875000953674316,-36.63750076293945
1777561105957744000,11.667744140625,-30.318750381469727,-1.8375000953674316,-39.1875
1777561105967744000,11.677743896484374,-31.23750114440918,-1.0875000953674316,-37.48125076293945
1777561105977744100,11.687744140625,-29.700000762939453,-1.912500023841858,-40.5
1777561105987744000,11.697743896484376,-28.875001907348633,0.11250000447034836,-39.431251525878906
1777561105997744000,11.707744140625,-28.875001907348633,0.11250000447034836,-39.431251525878906
1777561106007744000,11.717743896484375,-30.712501525878906,1.1062500476837158,-36.07500076293945
1777561106017744100,11.727744140625,-31.743751525878906,0.9937500357627869,-38.625
1777561106027744000,11.737743896484375,-31.743751525878906,0.9937500357627869,-38.625
1777561106037744000,11.747744140625,-31.106250762939453,3.281250238418579,-34.81875228881836
1777561106047744000,11.757743896484374,-29.287500381469727,1.8562500476837158,-38.66250228881836
1777561106057744100,11.767744140625,-31.51875114440918,2.0250000953674316,-41.8125
1777561106067744000,11.777743896484376,-29.943750381469727,3.3937501907348633,-40.89375305175781
1777561106077744000,11.787744140625,-31.200000762939453,3.0375001430511475,-39.9375
1777561106087744000,11.797743896484375,-32.25,4.050000190734863,-38.15625
1777561106097744100,11.807744140625,-31.743751525878906,5.325000286102295,-37.931251525878906
1777561106107744000,11.817743896484375,-32.587501525878906,7.856250286102295,-36.86250305175781
1777561106117744000,11.827744140625,-33.63750076293945,7.950000286102295,-37.10625076293945
1777561106127744000,11.837743896484374,-34.66875076293945,9.450000762939453,-35.38125228881836
1777561106137744100,11.847744140625,-34.743751525878906,11.475000381469727,-35.118751525878906
1777561106147744000,11.857743896484376,-36.28125,11.700000762939453,-33.63750076293945
1777561106157744000,11.867744140625,-36.54375076293945,13.687500953674316,-31.968751907348633
1777561106167744000,11.877743896484375,-37.72500228881836,14.531250953674316,-31.218751907348633
1777561106177744100,11.887744140625,-36.50625228881836,15.075000762939453,-31.012500762939453
1777561106187744000,11.897743896484375,-37.40625,15.71250057220459,-30.01875114440918
1777561106197744000,11.907744140625,-36.58125305175781,17.137500762939453,-30.468751907348633
1777561106207744000,11.917743896484374,-36.5625,17.73750114440918,-30.637500762939453
1777561106217744100,11.927744140625,-37.51875305175781,20.73750114440918,-29.756250381469727
1777561106227744000,11.937743896484376,-37.72500228881836,20.26875114440918,-27.86250114440918
1777561106237744000,11.947744140625,-37.53750228881836,20.943750381469727,-28.312501907348633
1777561106247744000,11.957743896484375,-37.368751525878906,21.056251525878906,-28.42500114440918
1777561106257744100,11.967744140625,-36.16875076293945,21.450000762939453,-24.76875114440918
1777561106267744000,11.977743896484375,-36.056251525878906,24.187501907348633,-25.668750762939453
1777561106277744000,11.987744140625,-36.65625,24.618751525878906,-24.431251525878906
1777561106287744000,11.997743896484375,-36.01875305175781,25.575000762939453,-24.693750381469727
1777561106297744100,12.007744140625,-35.70000076293945,25.687501907348633,-24.825000762939453
1777561106307744000,12.017743896484374,-36.26250076293945,28.031251907348633,-22.387500762939453
1777561106317744000,12.027744140625,-34.6875,28.293750762939453,-24.918750762939453
1777561106327744000,12.037743896484375,-34.14375305175781,27.918750762939453,-22.3125
1777561106337744100,12.047744140625,-36.20625305175781,29.250001907348633,-22.575000762939453
1777561106347744000,12.057743896484375,-35.306251525878906,29.418750762939453,-22.275001525878906
1777561106357744000,12.067744140625,-32.493751525878906,30.95625114440918,-22.762500762939453
1777561106367744000,12.077743896484375,-33.30000305175781,30.037500381469727,-22.21875
1777561106377744100,12.087744140625,-34.01250076293945,31.931251525878906,-20.418750762939453
1777561106387744000,12.097743896484374,-33.13125228881836,31.068750381469727,-21.1875
1777561106397744000,12.107744140625,-30.95625114440918,32.0625,-21.1875
1777561106407744000,12.117743896484376,-32.4375,33.09375,-20.943750381469727
1777561106417744100,12.127744140625,-32.75625228881836,33.50625228881836,-19.03125
1777561106427744000,12.137743896484375,-32.90625,32.71875,-21.01875114440918
1777561106437744000,12.147744140625,-32.90625,32.71875,-21.01875114440918
1777561106447744000,12.157743896484375,-33.01875305175781,34.16250228881836,-21.30000114440918
1777561106457744100,12.167744140625,-29.981250762939453,34.72500228881836,-19.162500381469727
1777561106467744000,12.177743896484374,-30.712501525878906,35.00625228881836,-19.78125
1777561106477744000,12.187744140625,-30.637500762939453,32.73750305175781,-20.793750762939453
1777561106487744000,12.197743896484376,-31.668750762939453,33.337501525878906,-20.92500114440918
1777561106497744100,12.207744140625,-31.162500381469727,35.15625,-20.45625114440918
1777561106507744000,12.217743896484375,-32.26875305175781,32.868751525878906,-23.400001525878906
1777561106517744000,12.227744140625,-30.750001907348633,33.01875305175781,-22.275001525878906
1777561106527744000,12.237743896484375,-30.48750114440918,32.493751525878906,-21.693750381469727
1777561106537744100,12.247744140625,-30.375001907348633,35.47500228881836,-20.83125114440918
1777561106547744000,12.257743896484374,-29.193750381469727,34.40625,-21.356250762939453
1777561106557744000,12.267744140625,-30.825000762939453,34.35000228881836,-25.125001907348633
1777561106567744000,12.277743896484376,-28.33125114440918,32.73750305175781,-23.381250381469727
1777561106577744100,12.287744140625,-29.83125114440918,33.45000076293945,-22.78125
1777561106587744000,12.297743896484375,-28.818750381469727,31.51875114440918,-23.17500114440918
1777561106597744000,12.307744140625,-27.375001907348633,33.431251525878906,-23.700000762939453
1777561106607744000,12.317743896484375,-30.412500381469727,32.8125,-26.287500381469727
1777561106617744100,12.327744140625,-26.118751525878906,33.39375305175781,-26.568750381469727
1777561106627744000,12.337743896484374,-27.356250762939453,32.94375228881836,-27.037500381469727
1777561106637744000,12.347744140625,-28.875001907348633,33.16875076293945,-25.556251525878906
1777561106647744000,12.357743896484376,-27.543750762939453,32.51250076293945,-24.86250114440918
1777561106657744100,12.367744140625,-28.837501525878906,30.11250114440918,-25.98750114440918
1777561106667744000,12.377743896484375,-28.350000381469727,31.200000762939453,-25.368751525878906
1777561106677744000,12.387744140625,-27.750001907348633,30.600000381469727,-26.062501907348633
1777561106687744000,12.397743896484375,-28.031251907348633,31.387500762939453,-25.762500762939453
1777561106697744100,12.407744140625,-28.537500381469727,30.450000762939453,-25.368751525878906
1777561106707744000,12.417743896484374,-28.387500762939453,30.056251525878906,-26.287500381469727
1777561106717744000,12.427744140625,-28.387500762939453,29.812501907348633,-26.343751907348633
1777561106727744000,12.437743896484376,-28.256250381469727,29.025001525878906,-26.64375114440918
1777561106737744100,12.447744140625,-28.89375114440918,28.031251907348633,-27.375001907348633
1777561106747744000,12.457743896484375,-27.731250762939453,25.80000114440918,-29.943750381469727
1777561106757744000,12.467744140625,-28.51875114440918,24.450000762939453,-30.618751525878906
1777561106767744000,12.477743896484375,-28.687501907348633,24.412500381469727,-30.056251525878906
1777561106777744100,12.487744140625,-27.525001525878906,22.51875114440918,-31.012500762939453
1777561106787744000,12.497743896484375,-28.556251525878906,23.662500381469727,-30.056251525878906
1777561106797744000,12.507744140625,-27.168750762939453,20.756250381469727,-28.51875114440918
1777561106807744000,12.517743896484374,-29.306251525878906,20.625,-28.631250381469727
1777561106817744100,12.527744140625,-29.306251525878906,20.025001525878906,-30.168750762939453
1777561106827744000,12.537743896484375,-31.33125114440918,19.818750381469727,-26.475000381469727
1777561106837744000,12.547744140625,-30.900001525878906,19.293750762939453,-26.73750114440918
1777561106847744000,12.557743896484375,-30.975000381469727,18.131250381469727,-24.412500381469727
1777561106857744100,12.567744140625,-31.256250381469727,18.318750381469727,-24.787500381469727
1777561106867744000,12.577743896484375,-30.056251525878906,16.762500762939453,-27.806251525878906
1777561106877744000,12.587744140625,-30.056251525878906,16.762500762939453,-27.806251525878906
1777561106887744000,12.597743896484374,-31.42500114440918,18.131250381469727,-25.23750114440918
1777561106897744100,12.607744140625,-30.075000762939453,16.087501525878906,-28.218751907348633
1777561106907744000,12.617743896484376,-30.262500762939453,15.393750190734863,-27.76875114440918
1777561106917744000,12.627744140625,-28.350000381469727,14.21250057220459,-27.356250762939453
1777561106927744000,12.637743896484375,-30.375001907348633,11.625,-30.618751525878906
1777561106937744100,12.647744140625,-29.475000381469727,10.518750190734863,-32.118751525878906
1777561106947744000,12.657743896484375,-28.406251907348633,11.96250057220459,-28.200000762939453
1777561106957744000,12.667744140625,-28.443750381469727,10.331250190734863,-30.900001525878906
1777561106967744000,12.677743896484374,-25.931251525878906,8.11875057220459,-30.693750381469727
1777561106977744100,12.687744140625,-26.700000762939453,7.087500095367432,-31.687501907348633
1777561106987744000,12.697743896484376,-24.900001525878906,5.90625,-32.962501525878906
1777561106997744000,12.707744140625,-27.48750114440918,5.662500381469727,-32.92500305175781
1777561107007744000,12.717743896484375,-25.837501525878906,4.575000286102295,-34.462501525878906
1777561107017744100,12.727744140625,-24.993751525878906,3.937500238418579,-31.912500381469727
1777561107027744000,12.737743896484375,-26.662500381469727,3.7125000953674316,-31.781251907348633
1777561107037744000,12.747744140625,-25.087501525878906,5.306250095367432,-31.931251525878906
1777561107047744000,12.757743896484374,-25.031251907348633,2.90625,-32.118751525878906
1777561107057744100,12.767744140625,-22.931251525878906,0.8062500357627869,-34.53750228881836
1777561107067744000,12.777743896484376,-24.093751907348633,2.2687501907348633,-35.64375305175781
1777561107077744000,12.787744140625,-22.78125,0.16875000298023224,-36.35625076293945
1777561107087744000,12.797743896484375,-23.943750381469727,1.350000023841858,-36.806251525878906
1777561107097744100,12.807744140625,-25.293750762939453,3.3937501907348633,-33.150001525878906
1777561107107744000,12.817743896484375,-22.556251525878906,2.5687501430511475,-35.34375
1777561107117744000,12.827744140625,-23.64375114440918,2.8500001430511475,-33.431251525878906
1777561107127744000,12.837743896484374,-24.075000762939453,3.0187501907348633,-34.80000305175781
1777561107137744100,12.847744140625,-24.168750762939453,4.087500095367432,-35.15625
1777561107147744000,12.857743896484376,-23.400001525878906,4.350000381469727,-35.118751525878906
1777561107157744000,12.867744140625,-20.793750762939453,5.775000095367432,-33.78750228881836
1777561107167744000,12.877743896484375,-24.843751907348633,7.612500190734863,-32.34375
1777561107177744100,12.887744140625,-23.193750381469727,6.112500190734863,-34.931251525878906
1777561107187744000,12.897743896484375,-23.025001525878906,6.937500476837158,-34.35000228881836
1777561107197744000,12.907744140625,-23.287500381469727,8.512500762939453,-32.212501525878906
1777561107207744000,12.917743896484374,-24.525001525878906,7.875000476837158,-32.306251525878906
1777561107217744100,12.927744140625,-24.506250381469727,8.100000381469727,-33.243751525878906
1777561107227744000,12.937743896484376,-22.443750381469727,11.512500762939453,-31.23750114440918
1777561107237744000,12.947744140625,-22.575000762939453,11.700000762939453,-32.47500228881836
1777561107247744000,12.957743896484375,-20.568750381469727,11.756250381469727,-33.78750228881836
1777561107257744100,12.967744140625,-21.375,9.881250381469727,-35.53125
1777561107267744000,12.977743896484375,-22.256250381469727,11.700000762939453,-32.47500228881836
1777561107277744000,12.987744140625,-22.912500381469727,15.018750190734863,-31.125001907348633
1777561107287744000,12.997743896484375,-22.068750381469727,13.725000381469727,-30.543750762939453
1777561107297744100,13.007744140625,-22.481250762939453,14.96250057220459,-29.73750114440918
1777561107307744000,13.017743896484374,-23.0625,16.21875,-28.912500381469727
1777561107317744000,13.027744140625,-23.0625,16.21875,-28.912500381469727
1777561107327744000,13.037743896484375,-22.725000381469727,17.606250762939453,-27.95625114440918
1777561107337744100,13.047744140625,-21.318750381469727,17.775001525878906,-29.231250762939453
1777561107347744000,13.057743896484375,-22.818750381469727,18.86250114440918,-28.70625114440918
1777561107357744000,13.067744140625,-23.53125,21.11250114440918,-26.137500762939453
1777561107367744000,13.077743896484375,-22.950000762939453,20.381250381469727,-26.006250381469727
1777561107377744100,13.087744140625,-24.731250762939453,21,-27.67500114440918
1777561107387744000,13.097743896484374,-23.512500762939453,20.15625,-30.131250381469727
1777561107397744000,13.107744140625,-21.356250762939453,21.168750762939453,-29.156251907348633
1777561107407744000,13.117743896484376,-21.806251525878906,21.525001525878906,-28.368751525878906
1777561107417744100,13.127744140625,-23.587501525878906,21.431251525878906,-25.575000762939453
1777561107427744000,13.137743896484375,-21.28125,21.95625114440918,-26.250001907348633
1777561107437744000,13.147744140625,-20.587501525878906,24.67500114440918,-25.61250114440918
1777561107447744000,13.157743896484375,-20.418750762939453,25.162500381469727,-25.650001525878906
1777561107457744100,13.167744140625,-19.51875114440918,25.087501525878906,-25.275001525878906
1777561107467744000,13.177743896484374,-19.78125,26.606250762939453,-23.418750762939453
1777561107477744000,13.187744140625,-21.09375,28.725000381469727,-22.556251525878906
1777561107487744000,13.197743896484376,-18.787500381469727,28.98750114440918,-23.26875114440918
1777561107497744100,13.207744140625,-21.262500762939453,28.293750762939453,-22.068750381469727
1777561107507744000,13.217743896484375,-19.42500114440918,28.837501525878906,-20.887500762939453
1777561107517744000,13.227744140625,-19.21875,29.531251907348633,-23.868751525878906
1777561107527744000,13.237743896484375,-20.756250381469727,29.812501907348633,-21.9375
1777561107537744100,13.247744140625,-18.9375,29.212501525878906,-22.668750762939453
1777561107547744000,13.257743896484374,-16.931251525878906,29.73750114440918,-24.168750762939453
1777561107557744000,13.267744140625,-16.012500762939453,29.868751525878906,-24.01875114440918
1777561107567744000,13.277743896484376,-17.26875114440918,28.98750114440918,-23.325000762939453
1777561107577744100,13.287744140625,-17.25,29.08125114440918,-24.281251907348633
1777561107587744000,13.297743896484375,-18.431251525878906,30.525001525878906,-22.98750114440918
1777561107597744000,13.307744140625,-15.731250762939453,29.775001525878906,-22.068750381469727
1777561107607744000,13.317743896484375,-16.78125,30.58125114440918,-21.75
1777561107617744100,13.327744140625,-15.206250190734863,31.312501907348633,-22.650001525878906
1777561107627744000,13.337743896484374,-15.43125057220459,30.037500381469727,-22.03125
1777561107637744000,13.347744140625,-14.793750762939453,30.037500381469727,-22.89375114440918
1777561107647744000,13.357743896484376,-15.262500762939453,30.075000762939453,-22.59375
1777561107657744100,13.367744140625,-13.425000190734863,30.30000114440918,-22.743751525878906
1777561107667744000,13.377743896484375,-13.893750190734863,29.568750381469727,-23.587501525878906
1777561107677744000,13.387744140625,-14.137500762939453,31.98750114440918,-21.412500381469727
1777561107687744000,13.397743896484375,-15.656250953674316,30.937501907348633,-24.39375114440918
1777561107697744100,13.407744140625,-16.42500114440918,30.693750381469727,-24.431251525878906
1777561107707744000,13.417743896484374,-14.02500057220459,30.356250762939453,-23.287500381469727
1777561107717744000,13.427744140625,-14.718750953674316,31.61250114440918,-24.86250114440918
1777561107727744000,13.437743896484376,-14.568750381469727,31.537500381469727,-24.600000381469727
1777561107737744100,13.447744140625,-14.006250381469727,29.92500114440918,-26.193750381469727
1777561107747744000,13.457743896484375,-13.987500190734863,29.981250762939453,-27.600000381469727
1777561107757744000,13.467744140625,-13.987500190734863,29.981250762939453,-27.600000381469727
1777561107767744000,13.477743896484375,-13.293750762939453,27.67500114440918,-28.743751525878906
1777561107777744100,13.487744140625,-11.268750190734863,29.26875114440918,-27.225000381469727
1777561107787744000,13.497743896484375,-12.562500953674316,31.031251907348633,-27.993751525878906
1777561107797744000,13.507744140625,-11.68125057220459,29.64375114440918,-29.83125114440918
1777561107807744000,13.517743896484374,-12.90000057220459,30.712501525878906,-26.775001525878906
1777561107817744100,13.527744140625,-12.487500190734863,30.281251907348633,-25.462501525878906
1777561107827744000,13.537743896484375,-13.443750381469727,28.89375114440918,-25.556251525878906
1777561107837744000,13.547744140625,-11.756250381469727,28.51875114440918,-27.225000381469727
1777561107847744000,13.557743896484375,-12.468750953674316,29.812501907348633,-26.962501525878906
1777561107857744100,13.567744140625,-14.062500953674316,28.312501907348633,-26.212501525878906
1777561107867744000,13.577743896484375,-14.02500057220459,28.33125114440918,-28.61250114440918
1777561107877744000,13.587744140625,-16.125,29.193750381469727,-27.825000762939453
1777561107887744000,13.597743896484374,-15.262500762939453,28.05000114440918,-27.918750762939453
1777561107897744100,13.607744140625,-15.262500762939453,27.525001525878906,-29.850000381469727
1777561107907744000,13.617743896484376,-15.24375057220459,28.23750114440918,-29.306251525878906
1777561107917744000,13.627744140625,-17.25,28.181251525878906,-26.287500381469727
1777561107927744000,13.637743896484375,-16.05000114440918,27.093751907348633,-28.500001907348633
