time,seconds_elapsed,z,y,x
1777561094462566100,0.172566162109375,1.9764715433120728,-9.93978500366211,-0.7561319470405579
1777561094481095000,0.191094970703125,1.8903298377990723,-9.432506561279297,-0.363709032535553
1777561094499623700,0.209623779296875,2.6321048736572266,-9.073583602905273,-0.9906286001205444
1777561094518152200,0.228152099609375,2.830709218978882,-9.008976936340332,-1.2011969089508057
1777561094536681000,0.246680908203125,2.526820659637451,-9.109476089477539,-1.0049854516983032
1777561094555209500,0.26520947265625,2.5363919734954834,-9.109476089477539,-1.1078768968582153
1777561094573738200,0.28373828125,2.988635540008545,-8.884550094604492,-0.8709874153137207
1777561094592267000,0.30226708984375,3.2590243816375732,-8.60459041595459,-1.28255295753479
1777561094610795500,0.32079541015625,3.187239646911621,-8.528019905090332,-1.466800332069397
1777561094629324300,0.33932421875,2.950350284576416,-8.61894702911377,-1.2538390159606934
1777561094647852800,0.357852783203125,2.9479575157165527,-8.566305160522461,-1.0815558433532715
1777561094666381600,0.376381591796875,3.38105845451355,-8.468199729919434,-1.4213366508483887
1777561094684910000,0.39491015625,3.680161237716675,-8.477770805358887,-1.8951154947280884
1777561094703438800,0.41343896484375,3.926621913909912,-8.425128936767578,-2.014756679534912
1777561094721967600,0.431967529296875,3.751945972442627,-8.444271087646484,-1.8089739084243774
1777561094740496100,0.45049609375,4.409972190856934,-8.34138011932373,-1.34476637840271
1777561094759025000,0.46902490234375,4.230510234832764,-8.331808090209961,-1.246660590171814
1777561094777553400,0.487553466796875,4.498506546020508,-8.372486114501953,-1.196411371231079
1777561094796082200,0.506082275390625,4.412364959716797,-8.291130065917969,-1.1389836072921753
1777561094814611000,0.52461083984375,4.185046672821045,-8.319844245910645,-1.3423734903335571
1777561094833139500,0.543139404296875,4.362115859985352,-8.334200859069824,-1.2658032178878784
1777561094851668200,0.561668212890625,4.4721856117248535,-8.02791976928711,-1.306481122970581
1777561094870196700,0.58019677734375,4.682754039764404,-7.798209190368652,-1.3088740110397339
1777561094888725500,0.5987255859375,4.6372904777526855,-7.499105930328369,-1.0049854516983032
1777561094907254300,0.617254150390625,4.73300313949585,-7.496713161468506,-0.9284151792526245
1777561094925782800,0.63578271484375,4.3788652420043945,-7.700103282928467,-1.1054840087890625
1777561094944311600,0.6543115234375,4.41475772857666,-7.688138961791992,-1.2394821643829346
1777561094962840000,0.672840087890625,4.907679080963135,-7.599604606628418,-1.6079767942428589
1777561094981368800,0.691368896484375,4.965106964111328,-7.032505512237549,-0.7561319470405579
1777561094999897600,0.709897705078125,4.244867324829102,-7.606783390045166,0.17706887423992157
1777561095018426000,0.728426025390625,4.642076015472412,-9.379864692687988,0.672383189201355
1777561095036955000,0.746954833984375,7.853243827819824,-11.286944389343262,0.16510476171970367
1777561095055483400,0.7654833984375,9.915857315063477,-13.921442031860352,-1.4165509939193726
1777561095083276500,0.793276611328125,4.180261135101318,-15.400206565856934,-0.9020941257476807
1777561095101805000,0.81180517578125,-1.8975083827972412,-9.602396965026855,2.5674986839294434
1777561095120333800,0.830333740234375,-4.730610370635986,-5.292923450469971,5.259424209594727
1777561095138862300,0.8488623046875,3.579662561416626,-4.199403762817383,7.015756130218506
1777561095157391000,0.86739111328125,3.7495529651641846,-5.020142078399658,2.2468605041503906
1777561095175919600,0.885919677734375,-3.6394832134246826,-7.113861560821533,-2.682354211807251
1777561095194448400,0.904448486328125,-3.601198196411133,-11.188838958740234,-4.536791801452637
1777561095212977000,0.922976806640625,-0.6101697683334351,-14.297115325927734,-5.414957523345947
1777561095231505700,0.941505615234375,-1.526620864868164,-15.393028259277344,-8.891729354858398
1777561095250034200,0.9600341796875,-2.682354211807251,-11.911471366882324,-9.779465675354004
1777561095268563000,0.97856298828125,0.15553347766399384,-9.238688468933105,-5.948556900024414
1777561095287091700,0.997091796875,2.306680917739868,-8.446663856506348,-1.8113667964935303
1777561095305620200,1.0156201171875,-0.07896314561367035,-8.60459041595459,1.3495519161224365
1777561095324149000,1.03414892578125,0.5479564070701599,-8.941978454589844,4.900500774383545
1777561095342677500,1.052677490234375,1.9453648328781128,-9.68375301361084,4.381258487701416
1777561095361206300,1.071206298828125,0.5886343717575073,-9.8871431350708,0.5958128571510315
1777561095379734800,1.08973486328125,-1.2011969089508057,-10.241280555725098,-3.6299118995666504
1777561095398263600,1.108263671875,-1.3232308626174927,-9.958928108215332,-5.460421085357666
1777561095416792000,1.1267919921875,-0.5288137793540955,-9.68375301361084,-3.589233875274658
1777561095435320800,1.14532080078125,-1.1581261157989502,-9.226723670959473,-0.8111668825149536
1777561095453849300,1.163849365234375,0.23210379481315613,-9.439684867858887,-0.46899324655532837
1777561095472378000,1.182378173828125,-0.7513462901115417,-10.372885704040527,-2.3306093215942383
1777561095490907000,1.200906982421875,-0.8901300430297852,-9.973284721374512,-4.247260093688965
1777561095509435400,1.219435302734375,-0.3924229145050049,-8.451449394226074,-4.342973232269287
1777561095527964200,1.237964111328125,0.5048855543136597,-7.960920810699463,-4.096512317657471
1777561095546493000,1.256492919921875,0.2392822653055191,-7.934599876403809,-3.2350962162017822
1777561095565021400,1.275021484375,0.14356936514377594,-8.528019905090332,-2.8977081775665283
1777561095583550200,1.29355029296875,-0.38763725757598877,-9.020941734313965,-2.5746772289276123
1777561095602078700,1.31207861328125,-1.4763715267181396,-8.583054542541504,-2.462214469909668
1777561095620607500,1.330607421875,-2.3545374870300293,-8.3629150390625,-2.421536445617676
1777561095639136000,1.349135986328125,-1.8759729862213135,-8.367700576782227,-1.4931213855743408
1777561095657664800,1.367664794921875,-1.8041882514953613,-9.55214786529541,-1.0887342691421509
1777561095676193300,1.386193359375,-1.947757601737976,-9.870393753051758,0.038285162299871445
1777561095694722000,1.40472216796875,-2.1822543144226074,-11.382657051086426,-1.1030912399291992
1777561095713250600,1.42325048828125,-2.4981069564819336,-12.464213371276855,-1.7635103464126587
1777561095731779300,1.441779296875,-1.5912270545959473,-13.921442031860352,-2.715853691101074
1777561095750307800,1.460307861328125,-1.8424733877182007,-16.220945358276367,-3.4983067512512207
1777561095768836600,1.478836669921875,-2.4646072387695312,-17.111074447631836,-4.3070807456970215
1777561095787365000,1.497365234375,-1.923829436302185,-17.321643829345703,-4.223331928253174
1777561095805894000,1.515893798828125,-0.26560330390930176,-15.665809631347656,-2.4047868251800537
1777561095824422700,1.534422607421875,1.4189438819885254,-13.11266803741455,-1.8592232465744019
1777561095842951200,1.552951171875,1.1365907192230225,-10.26760196685791,-2.084148406982422
1777561095861480000,1.57147998046875,1.2562319040298462,-10.068997383117676,-3.4672000408172607
1777561095880008400,1.590008544921875,1.852044701576233,-11.648261070251465,-4.498506546020508
1777561095898537200,1.608537109375,2.4646072387695312,-14.531611442565918,-4.579862594604492
1777561095917065700,1.627065673828125,2.0506489276885986,-16.89093589782715,-3.7878382205963135
1777561095935594500,1.645594482421875,0.9810572862625122,-17.058433532714844,-1.8113667964935303
1777561095954123000,1.664123046875,-0.7992027401924133,-15.596418380737305,0.3732803463935852
1777561095972651800,1.68265185546875,-3.335594654083252,-14.383256912231445,1.887937068939209
1777561095991180500,1.7011806640625,-4.610969066619873,-12.744173049926758,3.2159535884857178
1777561096009709000,1.719708984375,-2.4119651317596436,-11.45683479309082,3.3068809509277344
1777561096028237800,1.73823779296875,-1.552941918373108,-11.645867347717285,2.179861545562744
1777561096046766300,1.756766357421875,3.8045880794525146,-12.650853157043457,-0.035892341285943985
1777561096065295000,1.775295166015625,4.3070807456970215,-12.971491813659668,-1.550549030303955
1777561096083823600,1.79382373046875,-1.7611174583435059,-11.607583045959473,-1.5074782371520996
1777561096102352400,1.812352294921875,-1.6247265338897705,-10.774880409240723,-1.7324036359786987
1777561096120881200,1.830881103515625,-2.50289249420166,-7.800601959228516,-0.3852444589138031
1777561096139409700,1.84940966796875,-2.5603201389312744,-4.01037073135376,0.7872386574745178
1777561096157938400,1.8679384765625,-1.2299108505249023,-1.3256237506866455,1.5026925802230835
1777561096176467000,1.886467041015625,-1.1198409795761108,-0.2560320198535919,2.163111686706543
1777561096194995700,1.90499560546875,0.28235307335853577,0.45942193269729614,3.1824541091918945
1777561096213524500,1.9235244140625,1.2634103298187256,-0.10289137065410614,2.7038896083831787
1777561096232053000,1.942052978515625,2.2061824798583984,-0.914058268070221,2.416750907897949
1777561096250581800,1.960581787109375,3.0628130435943604,-1.275374412536621,2.297109842300415
1777561096269110500,1.979110595703125,3.5605201721191406,-1.1126625537872314,2.612962245941162
1777561096287639000,1.99763916015625,3.90987229347229,-0.6675975322723389,3.5748770236968994
1777561096306167800,2.016167724609375,4.570291042327881,-0.7082754969596863,3.0580272674560547
1777561096324696300,2.0346962890625,6.374479293823242,-1.698904037475586,1.0911271572113037
1777561096343225000,2.05322509765625,8.149953842163086,-2.7349963188171387,-0.2273181527853012
1777561096361753600,2.071753662109375,11.739188194274902,-3.452843189239502,3.6466617584228516
1777561096380282400,2.090282470703125,10.743773460388184,-9.05444049835205,9.387042999267578
1777561096398811100,2.10881103515625,22.621746063232422,-21.370298385620117,-3.3332018852233887
1777561096417339600,2.127339599609375,-7.444071292877197,-23.887548446655273,-4.517649173736572
1777561096435868400,2.145868408203125,4.685146808624268,-19.161724090576172,6.675975322723389
1777561096454397000,2.16439697265625,7.2095746994018555,-9.032905578613281,2.4406790733337402
1777561096472925700,2.18292578125,2.407179594039917,-3.4504501819610596,0.7513462901115417
1777561096491454500,2.201454345703125,2.029113531112671,-2.093719720840454,2.4287149906158447
1777561096509983000,2.21998291015625,1.6366907358169556,-3.8356947898864746,2.612962245941162
1777561096528511700,2.23851171875,-0.7178468108177185,-7.314858913421631,1.8664016723632812
1777561096547040300,2.257040283203125,0.2847459018230438,-11.126625061035156,2.517249345779419
1777561096565569000,2.275569091796875,0.4211367964744568,-15.089139938354492,1.2346965074539185
1777561096584097800,2.294097900390625,1.9932212829589844,-18.089738845825195,-1.179661512374878
1777561096602626300,2.312626220703125,0.20099709928035736,-15.984055519104004,-4.565505504608154
1777561096621155000,2.331155029296875,-0.35413774847984314,-11.308480262756348,-4.874179840087891
1777561096639683600,2.34968359375,1.1629117727279663,-8.319844245910645,-4.4961137771606445
1777561096658212400,2.36821240234375,1.2873386144638062,-6.498906135559082,-3.2159535884857178
1777561096676741000,2.3867412109375,-1.5122638940811157,-5.98444938659668,-1.9932212829589844
1777561096695269600,2.40526953125,-2.1296122074127197,-7.192824840545654,-1.3519448041915894
1777561096713798400,2.42379833984375,0.1579262912273407,-9.255437850952148,-1.0432707071304321
1777561096732327200,2.4423271484375,3.735196113586426,-9.767501831054688,-0.5838487148284912
1777561096750855700,2.460855712890625,2.469393014907837,-8.886942863464355,1.7754744291305542
1777561096778648800,2.48864892578125,1.978864312171936,-8.0350980758667,1.8999011516571045
1777561096806441700,2.516441650390625,0.3732803463935852,-8.94676399230957,-1.5026925802230835
1777561096824970500,2.534970458984375,0.10767702013254166,-8.571090698242188,-2.4837498664855957
1777561096843499000,2.5534990234375,-0.30628129839897156,-8.556734085083008,-2.864208698272705
1777561096862027800,2.57202783203125,-0.15074782073497772,-9.66221809387207,-3.3020951747894287
1777561096880556500,2.590556640625,-0.5694918036460876,-10.277173042297363,-3.2039895057678223
1777561096899085000,2.6090849609375,-1.1940184831619263,-10.64088249206543,-2.282752752304077
1777561096917613800,2.62761376953125,-1.7252250909805298,-11.418549537658691,-1.490728497505188
1777561096936142600,2.646142578125,-1.1940184831619263,-11.777473449707031,-0.8709874153137207
1777561096954671000,2.664671142578125,-1.2346965074539185,-12.011969566345215,0.02153540402650833
1777561096973200000,2.683199951171875,-1.0001999139785767,-13.232309341430664,1.4021940231323242
1777561096991728600,2.701728759765625,0,-15.984055519104004,1.1629117727279663
1777561097010257200,2.720257080078125,-1.6893328428268433,-19.290935516357422,-2.423929452896118
1777561097028786000,2.738785888671875,2.7349963188171387,-15.4360990524292,-0.24646073579788208
1777561097047314700,2.757314697265625,3.1202406883239746,-14.002798080444336,0.9523434042930603
1777561097065843200,2.77584326171875,2.6321048736572266,-13.191631317138672,0.2799602448940277
1777561097084372000,2.7943720703125,5.024927616119385,-12.440284729003906,-0.7130611538887024
1777561097102900700,2.812900634765625,7.9968132972717285,-13.35434341430664,-2.857030153274536
1777561097121429200,2.83142919921875,9.032905578613281,-14.493327140808105,-3.7184464931488037
1777561097139958000,2.8499580078125,6.446264266967773,-15.689738273620605,-4.692325115203857
1777561097158486500,2.868486572265625,0.698704183101654,-16.575082778930664,-4.867001056671143
1777561097177015300,2.887015380859375,-8.877371788024902,-15.058032989501953,-1.0767701864242554
1777561097195544000,2.9055439453125,-8.444271087646484,-12.016755104064941,2.4765713214874268
1777561097214072600,2.924072509765625,-4.254438877105713,-8.520841598510742,4.701896667480469
1777561097232601300,2.942601318359375,-3.321237802505493,-7.7216386795043945,4.7401814460754395
1777561097251130000,2.961130126953125,1.9094724655151367,-6.860222339630127,6.771687984466553
1777561097269658600,2.97965869140625,5.532206058502197,-8.556734085083008,3.6993038654327393
1777561097288187400,2.9981875,6.857829570770264,-10.186245918273926,-1.550549030303955
1777561097306716200,3.016716064453125,0.7226324677467346,-9.937392234802246,-1.7682958841323853
1777561097325244700,3.03524462890625,-2.3880369663238525,-8.082955360412598,-1.703689694404602
1777561097343773400,3.0537734375,-2.132004976272583,-4.417150497436523,1.1700903177261353
1777561097362302200,3.07230224609375,-1.0600204467773438,-1.0193424224853516,3.345165967941284
1777561097380830700,3.090830810546875,0.31345975399017334,0.851844847202301,3.153740167617798
1777561097399359500,3.109359375,1.5002998113632202,0.4546363055706024,2.4047868251800537
1777561097417888300,3.12788818359375,2.4765713214874268,-1.4261223077774048,2.227717876434326
1777561097436417000,3.1464169921875,3.3092737197875977,-2.7804598808288574,2.4430718421936035
1777561097454945500,3.164945556640625,4.01037073135376,-2.0578274726867676,2.854637384414673
1777561097473474300,3.183474365234375,4.0558342933654785,-1.0241280794143677,3.3571300506591797
1777561097492003000,3.202003173828125,5.453242778778076,-0.5288137793540955,3.115455150604248
1777561097510531600,3.220531494140625,8.250452041625977,-0.851844847202301,2.478964328765869
1777561097529060400,3.239060302734375,12.337393760681152,-0.19142581522464752,6.092126369476318
1777561097547589000,3.257589111328125,-0.5000999569892883,-6.532405853271484,4.1036906242370605
1777561097566118000,3.276117919921875,19.61875343322754,-15.967305183410645,-3.8572301864624023
1777561097584646400,3.294646484375,0.9547362327575684,-25.04567527770996,2.667997360229492
1777561097612439600,3.322439453125,3.28773832321167,-18.908084869384766,2.555534601211548
1777561097630968300,3.34096826171875,5.020142078399658,-7.853243827819824,2.021935224533081
1777561097649496800,3.359496826171875,3.9194436073303223,-2.390429735183716,2.555534601211548
1777561097668025600,3.378025634765625,3.2303106784820557,-1.2490534782409668,3.321237802505493
1777561097686554400,3.396554443359375,0.8398807644844055,-3.232703447341919,3.3403804302215576
1777561097705083000,3.415082763671875,-0.5264210104942322,-6.398407936096191,3.1585259437561035
1777561097723611600,3.433611572265625,-1.4333007335662842,-10.49970531463623,3.617947816848755
1777561097742140400,3.452140380859375,-0.6628118753433228,-16.206586837768555,1.8903298377990723
1777561097760669000,3.4706689453125,1.947757601737976,-20.645273208618164,-1.4787644147872925
1777561097779197700,3.48919775390625,1.7180466651916504,-14.847464561462402,-3.6634113788604736
1777561097797726500,3.5077265625,1.5409778356552124,-10.126425743103027,-4.036691665649414
1777561097816255200,3.526255126953125,0.5551348328590393,-7.858029365539551,-4.106083869934082
1777561097834784000,3.544783935546875,0.849452018737793,-6.642475605010986,-2.0793628692626953
1777561097853312500,3.5633125,0.5575276613235474,-5.682953834533691,0.5359922647476196
1777561097871841300,3.58184130859375,-0.10767702013254166,-6.0849480628967285,2.225325107574463
1777561097899634400,3.609634521484375,0.6819544434547424,-8.331808090209961,1.31365966796875
1777561097918163200,3.6281630859375,0.9523434042930603,-9.262616157531738,-0.07896314561367035
1777561097945956000,3.6559560546875,0.46420758962631226,-8.688339233398438,0.40677985548973083
1777561097964484900,3.67448486328125,0.638883650302887,-8.886942863464355,0.2632105052471161
1777561097983013600,3.693013671875,0.9212366938591003,-9.54496955871582,0.15074782073497772
1777561098001542400,3.71154248046875,0.9810572862625122,-10.023533821105957,-0.1986042857170105
1777561098020071000,3.73007080078125,0.6460621356964111,-9.659825325012207,-0.8662018179893494
1777561098038599700,3.748599609375,0.014356935396790504,-9.57607650756836,-1.94297194480896
1777561098057128400,3.76712841796875,-0.7345965504646301,-9.394221305847168,-2.108076810836792
1777561098075657000,3.785656982421875,-0.6819544434547424,-9.379864692687988,-2.0410776138305664
1777561098094185700,3.804185791015625,-0.7393822073936462,-10.179067611694336,-2.2085752487182617
1777561098112714500,3.822714599609375,-1.153340458869934,-11.152946472167969,-1.832902193069458
1777561098131243300,3.8412431640625,-1.552941918373108,-11.57408332824707,-0.5838487148284912
1777561098149772000,3.85977197265625,-2.282752752304077,-12.540783882141113,0.7728816866874695
1777561098168300500,3.878300537109375,-1.093519926071167,-14.782857894897461,1.0719845294952393
1777561098186829300,3.896829345703125,-0.4570291340351105,-18.515661239624023,0.2799602448940277
1777561098205358000,3.915358154296875,1.9597218036651611,-17.06321907043457,1.8735800981521606
1777561098223886800,3.933886962890625,1.679761528968811,-14.751751899719238,1.9692929983139038
1777561098242415600,3.95241552734375,0.8207381963729858,-13.093525886535645,0.5862415432929993
1777561098260944100,3.970944091796875,2.218146562576294,-11.20080280303955,0.13639089465141296
1777561098279473000,3.989472900390625,3.3379876613616943,-11.638689041137695,0.2632105052471161
1777561098298001700,4.008001708984375,4.508078098297119,-13.462019920349121,-0.4785645306110382
1777561098316530400,4.026530517578125,6.975078105926514,-14.804393768310547,-2.1200408935546875
1777561098335059000,4.045058837890625,8.214560508728027,-15.594025611877441,-2.950350284576416
1777561098353587700,4.063587646484375,6.245266914367676,-15.952948570251465,-3.649054527282715
1777561098372116500,4.082116455078125,-0.42831525206565857,-14.69671630859375,-1.588834285736084
1777561098390645200,4.100645263671875,-9.078369140625,-13.337593078613281,1.210768222808838
1777561098409174000,4.119174072265625,-9.614361763000488,-10.71984577178955,3.5605201721191406
1777561098427702800,4.137702880859375,-5.034498691558838,-6.537191390991211,4.4482574462890625
1777561098446231300,4.156231201171875,-2.1846470832824707,-6.860222339630127,4.737788677215576
1777561098464760000,4.174760009765625,7.0061845779418945,-8.855836868286133,4.88853645324707
1777561098483288800,4.193288818359375,4.094119548797607,-9.42772102355957,2.445464849472046
1777561098501817600,4.211817626953125,2.5746772289276123,-8.470592498779297,-0.43549370765686035
1777561098520346000,4.23034619140625,-0.016749758273363113,-7.496713161468506,-0.7345965504646301
1777561098538875000,4.248875,-1.373480200767517,-5.72123908996582,-0.42831525206565857
1777561098557403600,4.267403564453125,-0.5168496966362,-3.5676984786987305,1.1940184831619263
1777561098575932400,4.285932373046875,0.882951557636261,-1.5553346872329712,2.548356056213379
1777561098594461200,4.304461181640625,1.5074782371520996,-1.0648061037063599,2.56510591506958
1777561098612990000,4.322989990234375,2.012363910675049,-1.698904037475586,2.66560435295105
1777561098631518700,4.341518798828125,2.5292134284973145,-2.6703901290893555,2.744567632675171
1777561098650047200,4.360047119140625,2.6225335597991943,-2.641676187515259,2.7421748638153076
1777561098668576000,4.378575927734375,2.981456995010376,-2.170290231704712,2.304288148880005
1777561098687104800,4.397104736328125,3.211168050765991,-1.5696916580200195,2.3018953800201416
1777561098705633500,4.415633544921875,5.7547383308410645,-1.0480563640594482,2.421536445617676
1777561098724162300,4.434162353515625,18.367305755615234,-0.2560320198535919,5.426921844482422
1777561098742690800,4.45269091796875,-1.801795482635498,-6.697510719299316,4.838287353515625
1777561098761219600,4.471219482421875,16.60858154296875,-11.810972213745117,5.2354960441589355
1777561098779748400,4.489748291015625,1.6247265338897705,-18.85544204711914,-3.2614171504974365
1777561098798277000,4.508277099609375,4.737788677215576,-21.89193344116211,7.953742504119873
1777561098816806000,4.526805908203125,3.38105845451355,-16.0701961517334,4.9292144775390625
1777561098835334700,4.545334716796875,4.467400074005127,-7.460821151733398,1.4691931009292603
1777561098853863400,4.563863525390625,3.098705291748047,-4.063013076782227,1.6247265338897705
1777561098872392200,4.58239208984375,2.007578134536743,-4.275974273681641,1.9812572002410889
1777561098890920700,4.600920654296875,0.6580262184143066,-6.075376510620117,2.6703901290893555
1777561098909449500,4.619449462890625,0.4019941985607147,-8.434700012207031,3.4576287269592285
1777561098927978200,4.637978271484375,0.8446664214134216,-11.341979026794434,3.4169507026672363
1777561098946507000,4.656507080078125,0.6173482537269592,-14.988640785217285,2.328216314315796
1777561098965035800,4.675035888671875,0.5144568681716919,-17.053646087646484,-0.2273181527853012
1777561098983564500,4.693564453125,0.6269195079803467,-13.404592514038086,-2.2396819591522217
1777561099002093300,4.71209326171875,0.9954141974449158,-10.528419494628906,-4.094119548797607
1777561099020622000,4.7306220703125,1.6342978477478027,-8.74337387084961,-4.237689018249512
1777561099039150600,4.749150634765625,1.6941183805465698,-7.35314416885376,-2.517249345779419
1777561099057679400,4.767679443359375,0.3445664644241333,-5.929414749145508,-0.02632104977965355
1777561099076208000,4.7862080078125,-1.0408778190612793,-6.206982135772705,0.8279166221618652
1777561099094737000,4.80473681640625,-0.27756741642951965,-7.4464640617370605,0.8781659007072449
1777561099113265700,4.823265625,2.871387243270874,-8.654839515686035,0.7776673436164856
1777561099131794400,4.84179443359375,2.03629207611084,-9.066405296325684,0.7489534616470337
1777561099150323200,4.8603232421875,0.349352091550827,-8.855836868286133,0.8781659007072449
1777561099168852000,4.87885205078125,0.5910272002220154,-8.446663856506348,0.638883650302887
1777561099187380700,4.897380615234375,1.8185452222824097,-8.846264839172363,0.10289137065410614
1777561099205909200,4.9159091796875,0.9068797826766968,-9.549755096435547,-0.9834501147270203
1777561099224438000,4.93443798828125,0.3517449200153351,-9.674181938171387,-1.9214365482330322
1777561099242966800,4.952966796875,0.26560330390930176,-9.750752449035645,-2.2085752487182617
1777561099261495600,4.97149560546875,-0.7800601720809937,-10.124032974243164,-1.7587246894836426
1777561099280024300,4.9900244140625,-1.7371892929077148,-11.626725196838379,-1.1509476900100708
1777561099298553000,5.008552978515625,-1.765903115272522,-12.681960105895996,-0.5168496966362
1777561099317081900,5.027081787109375,-3.5341989994049072,-14.404792785644531,-0.7345965504646301
1777561099335610600,5.045610595703125,-0.9044869542121887,-15.335599899291992,0.3565305769443512
1777561099354139100,5.06413916015625,1.2131611108779907,-18.161523818969727,0.9116654396057129
1777561099372668000,5.08266796875,2.1104695796966553,-15.66820240020752,2.2683959007263184
1777561099391196700,5.10119677734375,0.6843472719192505,-14.383256912231445,1.466800332069397
1777561099409725400,5.119725341796875,1.2251251935958862,-12.375679016113281,0.8135597109794617
1777561099428254200,5.138254150390625,3.452843189239502,-10.899307250976562,1.210768222808838
1777561099446783000,5.156782958984375,5.2115678787231445,-12.100503921508789,1.2897313833236694
1777561099465311700,5.175311767578125,6.874579429626465,-14.000405311584473,-0.7250252366065979
1777561099483840500,5.193840576171875,8.047062873840332,-14.746966361999512,-1.8305093050003052
1777561099502369300,5.212369384765625,7.054041385650635,-16.25922966003418,-3.6538400650024414
1777561099520898000,5.23089794921875,1.1892328262329102,-16.086946487426758,-3.0005996227264404
1777561099539426800,5.2494267578125,-5.0225348472595215,-14.615360260009766,1.3830515146255493
1777561099557955600,5.26795556640625,-8.82951545715332,-12.806386947631836,3.3643085956573486
1777561099576484400,5.286484375,-7.159325122833252,-8.69791030883789,5.496313571929932
1777561099595013000,5.30501318359375,-2.9838497638702393,-5.6590256690979,5.905486106872559
1777561099613541600,5.323541748046875,-0.5335994362831116,-7.501499176025391,4.95074987411499
1777561099632070400,5.3420703125,7.920242786407471,-9.741181373596191,4.292723655700684
1777561099650599200,5.36059912109375,3.7232320308685303,-9.65503978729248,1.7994025945663452
1777561099669128200,5.379128173828125,1.3256237506866455,-8.47298526763916,-0.4211367964744568
1777561099687657000,5.397656982421875,-0.8374879360198975,-6.735795974731445,-0.19381862878799438
1777561099706185700,5.416185791015625,-2.251646041870117,-4.95074987411499,0.5838487148284912
1777561099724714200,5.43471435546875,-0.4043870270252228,-3.115455150604248,1.4452649354934692
1777561099743243000,5.453242919921875,1.1509476900100708,-0.7465606927871704,1.9334007501602173
1777561099761771800,5.471771728515625,1.5314065217971802,0.038285162299871445,1.612762451171875
1777561099780300500,5.490300537109375,2.0793628692626953,-1.0193424224853516,1.825723648071289
1777561099798829300,5.508829345703125,2.0243279933929443,-2.321038007736206,2.7804598808288574
1777561099817358000,5.527358154296875,2.1607189178466797,-3.0340991020202637,2.7565317153930664
1777561099835886800,5.545886962890625,2.7014968395233154,-2.328216314315796,2.651247501373291
1777561099854415600,5.56441552734375,4.0558342933654785,-0.9451649188995361,2.486142635345459
1777561099872944400,5.5829443359375,11.827722549438477,0.6915257573127747,3.9792640209198
1777561099891473200,5.60147314453125,10.73420238494873,-1.6821542978286743,8.37727165222168
1777561099910002000,5.620001953125,6.821937561035156,-10.456634521484375,10.863414764404297
1777561099928530700,5.63853076171875,12.234501838684082,-21.11905288696289,-2.6560330390930176
1777561099947059500,5.6570595703125,1.1676974296569824,-26.325834274291992,5.876772403717041
1777561099965588200,5.675588134765625,3.4815568923950195,-17.67338752746582,4.591826438903809
1777561099984117000,5.694116943359375,4.797609329223633,-6.4941205978393555,3.486342668533325
1777561100002645800,5.712645751953125,3.809373617172241,-1.3950155973434448,3.414557933807373
1777561100021174500,5.731174560546875,2.390429735183716,-1.1318050622940063,2.9240293502807617
1777561100039703300,5.749703369140625,0.6269195079803467,-4.869394302368164,1.3567304611206055
1777561100058232000,5.768232177734375,0.09810572862625122,-8.638090133666992,1.0767701864242554
1777561100076760800,5.7867607421875,1.098305583000183,-11.84447193145752,2.1367905139923096
1777561100095289600,5.80528955078125,0.8566305041313171,-15.012569427490234,1.5314065217971802
1777561100113818400,5.823818359375,1.0265209674835205,-17.35274887084961,-0.47617170214653015
1777561100132347100,5.84234716796875,0.7896314859390259,-15.388242721557617,-2.4981069564819336
1777561100150876000,5.8608759765625,1.0552347898483276,-11.133803367614746,-4.893322467803955
1777561100169404700,5.87940478515625,1.734796404838562,-8.499305725097656,-5.142175674438477
1777561100187933400,5.897933349609375,2.0243279933929443,-6.738188743591309,-2.6632115840911865
1777561100206462200,5.916462158203125,1.5792629718780518,-6.240481376647949,0.5455635786056519
1777561100224991000,5.934990966796875,1.3423734903335571,-5.709274768829346,3.775874137878418
1777561100243519700,5.953519775390625,0.1866401731967926,-5.747560024261475,5.201996326446533
1777561100262048500,5.972048583984375,-0.20099709928035736,-7.8628153800964355,2.691925525665283
1777561100280577300,5.990577392578125,2.799602508544922,-10.607382774353027,-1.155733346939087
1777561100299106000,6.00910595703125,4.199403762817383,-10.846665382385254,-2.7900311946868896
1777561100317634800,6.027634765625,1.4165509939193726,-9.982855796813965,-2.273181438446045
1777561100336163600,6.04616357421875,-0.6149554252624512,-8.930013656616211,-1.588834285736084
1777561100354692400,6.0646923828125,0.349352091550827,-8.994620323181152,-1.5409778356552124
1777561100373221000,6.08322119140625,1.5744773149490356,-9.667003631591797,-0.973878800868988
1777561100391750000,6.10175,1.1341979503631592,-10.229316711425781,-1.069591760635376
1777561100410278700,6.120278564453125,0.7465606927871704,-10.131211280822754,-1.5649060010910034
1777561100428807400,6.138807373046875,0.6364908218383789,-9.279366493225098,-1.1748759746551514
1777561100447336200,6.157336181640625,-0.39481574296951294,-9.377471923828125,-0.2847459018230438
1777561100465865000,6.175864990234375,-0.9499505758285522,-10.365707397460938,0.34695929288864136
1777561100484393700,6.194393798828125,-2.610569477081299,-11.834900856018066,0.8279166221618652
1777561100502922500,6.212922607421875,-3.603590965270996,-13.60319709777832,-0.02632104977965355
1777561100521451300,6.231451171875,-0.4378865361213684,-14.481362342834473,1.9381862878799438
1777561100539980000,6.24997998046875,0.07417750358581543,-16.64208221435547,2.8187451362609863
1777561100558508800,6.2685087890625,1.062413215637207,-15.900306701660156,3.6155550479888916
1777561100577037600,6.28703759765625,1.1676974296569824,-16.074981689453125,1.6342978477478027
1777561100595566300,6.30556640625,2.682354211807251,-14.0051908493042,0.24167509377002716
1777561100614095000,6.32409521484375,3.4911282062530518,-12.100503921508789,-0.7513462901115417
1777561100632623900,6.342623779296875,4.737788677215576,-11.425727844238281,-1.155733346939087
1777561100651152600,6.361152587890625,6.233303070068359,-12.437891960144043,-1.648654818534851
1777561100669681400,6.379681396484375,7.417750358581543,-14.021940231323242,-1.2394821643829346
1777561100688210200,6.398210205078125,7.470392227172852,-15.433706283569336,-0.21774685382843018
1777561100706739000,6.416739013671875,6.056233882904053,-16.457834243774414,-0.6436693072319031
1777561100725267700,6.435267822265625,-0.6221339106559753,-15.182459831237793,0.06699903309345245
1777561100743796500,6.45379638671875,-6.876972198486328,-12.562318801879883,1.8616160154342651
1777561100762325200,6.4723251953125,-9.07119083404541,-10.454241752624512,2.500499725341797
1777561100780854300,6.490854248046875,-5.735595703125,-7.355536937713623,4.668396949768066
1777561100799382800,6.5093828125,-2.9718856811523438,-6.166304111480713,6.565905570983887
1777561100817911600,6.52791162109375,3.6681971549987793,-9.745966911315918,5.733202934265137
1777561100836440300,6.5464404296875,6.912864685058594,-10.430314064025879,3.4672000408172607
1777561100854969300,6.56496923828125,2.3186452388763428,-9.834501266479492,1.246660590171814
1777561100873498000,6.583498046875,0.14835500717163086,-8.489734649658203,0.39481574296951294
1777561100892027000,6.60202685546875,-2.043470621109009,-6.766902446746826,0.2991028428077698
1777561100910555600,6.6205556640625,-1.2275179624557495,-4.29033088684082,0.9690931439399719
1777561100929084400,6.63908447265625,0.8279166221618652,-1.6390835046768188,2.1535403728485107
1777561100947613200,6.65761328125,0.38285163044929504,0.22492532432079315,2.414358139038086
1777561100966142000,6.676141845703125,1.0791629552841187,-0.23688943684101105,1.7180466651916504
1777561100984670700,6.694670654296875,1.5672988891601562,-1.3758729696273804,1.672582983970642
1777561101003199500,6.713199462890625,1.8185452222824097,-2.0578274726867676,2.0099709033966064
1777561101021728300,6.731728271484375,2.108076810836792,-1.7443677186965942,2.2612173557281494
1777561101040257000,6.750257080078125,3.3954153060913086,-0.6005984544754028,2.7086751461029053
1777561101058785800,6.768785888671875,7.829315662384033,0.7465606927871704,4.01037073135376
1777561101077314600,6.787314453125,26.03630256652832,1.770688772201538,8.980263710021973
1777561101095843300,6.80584326171875,-8.755337715148926,-11.425727844238281,5.740381717681885
1777561101114372000,6.8243720703125,20.106887817382812,-20.030319213867188,-2.258824586868286
1777561101132900900,6.84290087890625,-1.588834285736084,-21.41337013244629,8.190631866455078
1777561101151430000,6.861429931640625,7.491927623748779,-16.340585708618164,1.495514154434204
1777561101169958700,6.879958740234375,4.199403762817383,-7.743174076080322,3.759124279022217
1777561101188487200,6.898487060546875,3.814159393310547,-3.462414264678955,4.579862594604492
1777561101207016200,6.91701611328125,2.9527430534362793,-3.13220477104187,3.0340991020202637
1777561101225545000,6.935544921875,1.1126625537872314,-5.4556355476379395,1.6103696823120117
1777561101244073700,6.95407373046875,0.3158525824546814,-8.243273735046387,1.4333007335662842
1777561101262602500,6.9726025390625,1.6869399547576904,-10.262816429138184,2.56510591506958
1777561101281131300,6.99113134765625,1.057627558708191,-12.854243278503418,2.940778970718384
1777561101299660000,7.009659912109375,-0.038285162299871445,-16.661224365234375,1.184447169303894
1777561101318188800,7.028188720703125,0.06939185410737991,-17.422142028808594,-1.4021940231323242
1777561101336717800,7.0467177734375,1.5553346872329712,-12.80160140991211,-2.9479575157165527
1777561101355246300,7.065246337890625,1.8711873292922974,-9.705288887023926,-4.151547431945801
1777561101373775000,7.083775146484375,2.421536445617676,-7.57806921005249,-3.311666488647461
1777561101392304000,7.10230419921875,2.5698914527893066,-6.214160442352295,-1.1270195245742798
1777561101410833000,7.1208330078125,1.8065811395645142,-5.788238048553467,1.184447169303894
1777561101429361700,7.139361572265625,0.7178468108177185,-6.6113691329956055,1.94297194480896
1777561101447890400,7.157890380859375,1.2634103298187256,-8.00638484954834,0.8422735929489136
1777561101466419200,7.176419189453125,1.0289137363433838,-9.083154678344727,-0.03349951654672623
1777561101484948000,7.194947998046875,0.8231309652328491,-8.662017822265625,0.9427721500396729
1777561101503476700,7.213476806640625,1.4691931009292603,-7.975277900695801,2.3473589420318604
1777561101522005500,7.232005615234375,0.7561319470405579,-8.724231719970703,2.258824586868286
1777561101540534300,7.2505341796875,-0.4905286431312561,-9.748359680175781,0.04546362906694412
1777561101559063000,7.26906298828125,-0.06939185410737991,-9.272188186645508,-0.6340979933738708
1777561101577592000,7.287592041015625,0.11246266216039658,-9.343972206115723,-0.8327022790908813
1777561101596120800,7.306120849609375,-0.21774685382843018,-9.389435768127441,-0.6125625967979431
1777561101614649600,7.324649658203125,-0.040677983313798904,-9.518648147583008,-0.9810572862625122
1777561101633178400,7.343178466796875,0.1052841991186142,-9.779465675354004,-1.1437692642211914
1777561101651707100,7.36170703125,-1.1150553226470947,-10.717453002929688,-0.760917603969574
1777561101670236000,7.38023583984375,-2.2325034141540527,-11.973684310913086,0.1986042857170105
1777561101688764700,7.3987646484375,-4.101297855377197,-14.318650245666504,1.1078768968582153
1777561101707293700,7.417293701171875,-1.3830515146255493,-16.455440521240234,2.5938198566436768
1777561101725822500,7.435822509765625,-0.8470591902732849,-18.362520217895508,3.0173492431640625
1777561101744351200,7.454351318359375,1.1724830865859985,-16.237693786621094,4.156332969665527
1777561101762880000,7.4728798828125,0.4019941985607147,-15.381064414978027,1.6582261323928833
1777561101781408800,7.49140869140625,1.153340458869934,-12.882957458496094,-0.16031911969184875
1777561101799937500,7.5099375,2.0315065383911133,-10.61695384979248,-0.6915257573127747
1777561101818466600,7.528466552734375,3.036491870880127,-10.449456214904785,-0.8279166221618652
1777561101836995000,7.5469951171875,4.043870449066162,-12.052647590637207,-1.301695466041565
1777561101855524000,7.565524169921875,5.352744102478027,-13.73480224609375,-2.510071039199829
1777561101874052900,7.584052978515625,6.927221775054932,-14.062618255615234,-2.885744094848633
1777561101892581600,7.60258154296875,7.0061845779418945,-14.601003646850586,-5.355136871337891
1777561101911110400,7.6211103515625,-0.016749758273363113,-13.538590431213379,-4.867001056671143
1777561101929639200,7.63963916015625,-12.624532699584961,-9.810572624206543,-0.3038884699344635
1777561101948168200,7.658168212890625,-12.942777633666992,-6.379265308380127,3.656233072280884
1777561101966697000,7.676697021484375,-8.740981101989746,-5.450850009918213,4.773681163787842
1777561101985225700,7.695225830078125,-4.292723655700684,-5.505885124206543,6.178267955780029
1777561102003754500,7.71375439453125,2.8833513259887695,-4.8574299812316895,7.680960655212402
1777561102022283300,7.732283203125,9.56650447845459,-6.953542709350586,4.146761417388916
1777561102040812300,7.750812255859375,10.425528526306152,-11.298908233642578,1.5744773149490356
1777561102059340800,7.7693408203125,-2.122433662414551,-10.449456214904785,3.0173492431640625
1777561102077869800,7.787869873046875,-3.239881753921509,-8.583054542541504,1.825723648071289
1777561102096398600,7.806398681640625,-0.23210379481315613,-7.618747234344482,-0.7082754969596863
1777561102114927400,7.82492724609375,-0.44745782017707825,-6.38883638381958,-0.20578274130821228
1777561102133456100,7.8434560546875,-1.1509476900100708,-5.201996326446533,0.7393822073936462
1777561102151985000,7.86198486328125,-0.9116654396057129,-4.161118507385254,1.246660590171814
1777561102170514000,7.880513916015625,-0.26081767678260803,-3.806980848312378,1.0959128141403198
1777561102189042700,7.899042724609375,0.4139583110809326,-3.029313564300537,1.7778671979904175
1777561102207571500,7.917571533203125,0.7250252366065979,-2.273181438446045,2.548356056213379
1777561102226100200,7.936100341796875,1.2442678213119507,-2.5052852630615234,2.321038007736206
1777561102244629200,7.954629150390625,2.0650060176849365,-3.7902309894561768,1.0001999139785767
1777561102263158000,7.973157958984375,3.730410575866699,-5.020142078399658,-0.24406790733337402
1777561102281686800,7.991686767578125,7.2813591957092285,-6.441478729248047,-0.6628118753433228
1777561102300215600,8.010215576171875,10.904092788696289,-8.504091262817383,0.7202396392822266
1777561102318744300,8.028744384765625,10.715060234069824,-12.914063453674316,2.194218397140503
1777561102337273300,8.0472734375,11.009376525878906,-18.092132568359375,3.249453067779541
1777561102355802000,8.065802001953125,8.054241180419922,-19.46800422668457,1.954936146736145
1777561102374331000,8.084330810546875,6.333801746368408,-14.691930770874023,2.5387847423553467
1777561102392859600,8.102859619140625,5.9437713623046875,-9.006584167480469,4.701896667480469
1777561102411388400,8.121388427734376,6.556334018707275,-5.893522262573242,6.920042991638184
1777561102429917400,8.13991748046875,7.814958572387695,-8.532805442810059,6.32662296295166
1777561102448446200,8.1584462890625,-2.888136863708496,-8.159524917602539,3.4193434715270996
1777561102476239400,8.1862392578125,-4.728217601776123,-4.039084434509277,6.151947021484375
1777561102494768000,8.20476806640625,-2.060220241546631,-4.364508628845215,8.080561637878418
1777561102513297200,8.223297119140625,-2.2755744457244873,-6.087340831756592,4.711467742919922
1777561102531826000,8.241825927734375,-4.299902439117432,-12.842279434204102,-1.5409778356552124
1777561102550354700,8.260354736328125,-3.1417760848999023,-19.365114212036133,-5.9509501457214355
1777561102568883500,8.278883544921875,-0.5934200286865234,-16.220945358276367,-6.63769006729126
1777561102587412500,8.29741259765625,0.727418065071106,-11.722437858581543,-4.455435752868652
1777561102605941200,8.315941162109375,-0.1339980661869049,-10.104889869689941,-1.8855443000793457
1777561102624470000,8.334469970703125,-1.7491533756256104,-9.509077072143555,0.44027936458587646
1777561102642998800,8.352998779296875,-1.3495519161224365,-8.657232284545898,2.6177480220794678
1777561102661527800,8.37152783203125,-1.184447169303894,-7.963313579559326,4.218546390533447
1777561102680056300,8.390056396484376,-0.397208571434021,-8.358129501342773,3.565305709838867
1777561102698585300,8.40858544921875,0.5886343717575073,-8.422736167907715,2.9048867225646973
1777561102717114000,8.427114013671876,0.9260223507881165,-9.181260108947754,1.3878371715545654
1777561102735643100,8.44564306640625,0.8183453679084778,-9.990034103393555,0.1746760457754135
1777561102754172000,8.464171875,1.124626636505127,-9.4660062789917,-0.1986042857170105
1777561102772700700,8.48270068359375,2.076970100402832,-8.685946464538574,-0.10049854964017868
1777561102791229400,8.5012294921875,1.373480200767517,-8.496912956237793,0.1052841991186142
1777561102809758200,8.51975830078125,-1.4428720474243164,-8.650053977966309,-0.4450650215148926
1777561102828287200,8.538287353515624,-4.859822750091553,-7.874779224395752,-0.05742774158716202
1777561102846816000,8.55681591796875,-5.233103275299072,-7.7455668449401855,0.41874396800994873
1777561102865344800,8.5753447265625,-0.6245267391204834,-9.281759262084961,0.6915257573127747
1777561102883873500,8.59387353515625,1.8951154947280884,-10.564311981201172,0.4163511395454407
1777561102902402600,8.612402587890625,1.6701902151107788,-11.193624496459961,0.5670989751815796
1777561102920931300,8.630931396484375,0.48574298620224,-11.169695854187012,1.9357935190200806
1777561102939460000,8.649460205078125,0.275174617767334,-10.995019912719727,4.115654945373535
1777561102957988900,8.66798876953125,0.3924229145050049,-10.801201820373535,6.3361945152282715
1777561102976518000,8.686517822265625,-0.97148597240448,-10.901700019836426,5.946164131164551
1777561102995046700,8.705046630859375,-0.8159525394439697,-11.47119140625,1.5170495510101318
1777561103013575400,8.723575439453125,0.4833501875400543,-11.669795989990234,-2.2636101245880127
1777561103032104200,8.742104248046875,1.2299108505249023,-12.148360252380371,-4.218546390533447
1777561103050633200,8.76063330078125,1.0839486122131348,-13.567304611206055,-4.371686935424805
1777561103069162000,8.779161865234375,1.0360921621322632,-14.71346664428711,-3.139383316040039
1777561103087690800,8.797690673828125,0.7465606927871704,-14.986248016357422,-2.5842485427856445
1777561103115484200,8.825484130859374,-0.5000999569892883,-12.63888931274414,-2.8905298709869385
1777561103134013000,8.844012939453124,0.3756731450557709,-10.348958015441895,-2.2205393314361572
1777561103152541700,8.862541748046874,1.3567304611206055,-9.69093132019043,-1.062413215637207
1777561103171070700,8.88107080078125,-1.2681959867477417,-10.322636604309082,-0.4618147611618042
1777561103189599500,8.899599609375,-1.3351950645446777,-12.658031463623047,-0.916451096534729
1777561103208128300,8.918128173828125,-0.5838487148284912,-14.103296279907227,0.6029912829399109
1777561103226657300,8.9366572265625,-1.1940184831619263,-14.964713096618652,1.6534404754638672
1777561103245186000,8.95518603515625,-1.4069796800613403,-14.612967491149902,1.1222338676452637
1777561103263714800,8.97371484375,-2.6488547325134277,-13.277772903442383,-0.519242525100708
1777561103282243800,8.992243896484375,-4.043870449066162,-12.145967483520508,-2.5986053943634033
1777561103300772600,9.010772705078125,-3.704089403152466,-11.131410598754883,-3.5581271648406982
1777561103319301400,9.02930126953125,-0.6436693072319031,-10.061819076538086,-2.9479575157165527
1777561103337830100,9.047830078125,-1.94297194480896,-9.908679008483887,-1.6893328428268433
1777561103356359200,9.066359130859375,-4.843072891235352,-8.73619556427002,-0.7154539823532104
1777561103374888000,9.084887939453125,-8.638090133666992,-6.285944938659668,2.7014968395233154
1777561103393416700,9.103416748046875,-1.9094724655151367,-7.922635555267334,0.9188438653945923
1777561103411945700,9.12194580078125,-2.9072794914245605,-7.35314416885376,2.589034080505371
1777561103430474500,9.140474609375,-1.8113667964935303,-6.951149940490723,2.830709218978882
1777561103449003300,9.159003173828125,-0.7537391185760498,-6.400800704956055,4.120440483093262
1777561103467532300,9.1775322265625,-0.16749759018421173,-5.819344520568848,4.505684852600098
1777561103486061000,9.19606103515625,0.39960137009620667,-5.319244861602783,4.591826438903809
1777561103504589800,9.21458984375,0.6245267391204834,-4.804787635803223,3.6634113788604736
1777561103523118800,9.233118896484376,0.9403793215751648,-3.9984066486358643,2.620140790939331
1777561103541647600,9.251647705078126,1.856830358505249,-3.160918712615967,2.495713949203491
1777561103560176400,9.27017626953125,3.6993038654327393,-3.2829527854919434,3.0628130435943604
1777561103578705200,9.288705078125,6.022734642028809,-4.46979284286499,3.649054527282715
1777561103597234200,9.307234130859374,11.401800155639648,-6.771687984466553,4.800002098083496
1777561103615763000,9.325762939453124,17.723636627197266,-13.452448844909668,3.0245277881622314
1777561103634291700,9.344291748046874,14.160724639892578,-26.33061981201172,-2.0817556381225586
1777561103652820700,9.36282080078125,7.214360237121582,-21.89432716369629,-1.9022940397262573
1777561103671349500,9.381349609375,6.187839508056641,-10.518848419189453,1.3519448041915894
1777561103689878300,9.399878173828125,4.029513359069824,-3.5437703132629395,3.2470602989196777
1777561103708407300,9.4184072265625,10.133604049682617,-2.878565549850464,7.558926582336426
1777561103726936000,9.43693603515625,-1.057627558708191,-9.339186668395996,4.500899314880371
1777561103745464800,9.45546484375,-3.7878382205963135,-10.047462463378906,9.07119083404541
1777561103763993900,9.473993896484375,-11.93061351776123,-10.74138069152832,7.008577346801758
1777561103782522600,9.492522705078125,-5.036891460418701,-9.678967475891113,7.3052873611450195
1777561103801051400,9.511051513671875,0.275174617767334,-7.520641803741455,3.751945972442627
1777561103819580400,9.529580322265625,-5.426921844482422,-5.1565327644348145,-0.3900300860404968
1777561103838109200,9.548109130859375,-5.458028316497803,-6.0777692794799805,-1.588834285736084
1777561103856638000,9.566637939453125,-3.1657042503356934,-12.268001556396484,-0.8159525394439697
1777561103875167000,9.5851669921875,-3.5748770236968994,-21.588045120239258,-4.287938117980957
1777561103893695700,9.60369580078125,-2.2133610248565674,-20.729022979736328,-7.1856465339660645
1777561103912224500,9.622224609375,0.5383850932121277,-14.273186683654785,-5.6446685791015625
1777561103930753500,9.64075341796875,1.8616160154342651,-9.231510162353516,-1.1341979503631592
1777561103949282300,9.6592822265625,1.1389836072921753,-6.668796539306641,4.689932346343994
1777561103967811300,9.677811279296876,1.5912270545959473,-5.082355499267578,8.69791030883789
1777561103986340000,9.696340087890626,-0.2584248483181,-4.9986066818237305,8.606983184814453
1777561104004868900,9.714868896484376,-1.1222338676452637,-7.427321434020996,4.886143684387207
1777561104023398000,9.73339794921875,0.8279166221618652,-10.533205032348633,0.6436693072319031
1777561104041926700,9.7519267578125,2.988635540008545,-11.940184593200684,-0.914058268070221
1777561104060455400,9.770455322265626,2.1607189178466797,-10.736595153808594,-0.8805587291717529
1777561104078984400,9.788984375,-2.3880369663238525,-8.848658561706543,-0.7585247755050659
1777561104097513200,9.80751318359375,-3.594019651412964,-7.427321434020996,-0.6101697683334351
1777561104116042000,9.8260419921875,-0.2991028428077698,-8.056633949279785,-1.5553346872329712
1777561104134571000,9.844571044921874,2.794816732406616,-9.475577354431152,-2.65842604637146
1777561104153099800,9.863099853515624,1.2490534782409668,-10.88973617553711,-2.943171739578247
1777561104171628500,9.881628662109375,0.641276478767395,-10.61695384979248,-1.6773686408996582
1777561104190157600,9.900157470703125,0.0933200865983963,-10.810772895812988,0.1698904037475586
1777561104208686300,9.918686279296875,-1.1150553226470947,-9.336793899536133,1.5002998113632202
1777561104227215000,9.937215087890625,-3.7878382205963135,-9.013762474060059,2.0195422172546387
1777561104245744000,9.955744140625,-3.345165967941284,-10.162318229675293,1.1509476900100708
1777561104264273000,9.97427294921875,-2.7326035499572754,-13.438092231750488,0.30628129839897156
1777561104282802000,9.992802001953125,-1.5696916580200195,-17.04407501220703,-0.2512463629245758
1777561104301330700,10.01133056640625,-1.3926228284835815,-19.16411590576172,-0.5958128571510315
1777561104319859500,10.029859375,-0.4713860750198364,-18.494125366210938,-0.19381862878799438
1777561104338388500,10.048388427734375,1.552941918373108,-15.448062896728516,-0.24406790733337402
1777561104356917200,10.066917236328125,1.6558332443237305,-12.19382381439209,-1.0001999139785767
1777561104375446000,10.085446044921875,3.0077781677246094,-11.212766647338867,-1.332802176475525
1777561104393975000,10.10397509765625,3.8979079723358154,-12.272787094116211,-1.8305093050003052
1777561104412504000,10.122504150390625,3.3619158267974854,-14.773286819458008,-1.8783657550811768
1777561104431032800,10.14103271484375,2.785245656967163,-17.651853561401367,-1.2897313833236694
1777561104449561600,10.1595615234375,1.5361921787261963,-19.826929092407227,0.22013968229293823
1777561104468090600,10.178090576171876,-1.8041882514953613,-19.80539321899414,3.266202926635742
1777561104486619400,10.196619384765626,-3.7543387413024902,-17.919849395751953,4.821537494659424
1777561104505148200,10.215148193359376,-5.936593055725098,-14.024333953857422,5.101497650146484
1777561104523677200,10.23367724609375,-3.706482172012329,-10.193424224853516,3.3714871406555176
1777561104542206000,10.2522060546875,-2.7038896083831787,-9.784252166748047,-0.016749758273363113
1777561104560735000,10.27073486328125,2.493321180343628,-12.32542896270752,-3.902693748474121
1777561104579263700,10.289263671875,1.892722725868225,-13.931013107299805,-3.493520975112915
1777561104597792500,10.30779248046875,-2.6177480220794678,-13.203595161437988,-0.5934200286865234
1777561104616321500,10.326321533203124,-4.883750915527344,-10.710273742675781,2.242074728012085
1777561104634850300,10.344850341796874,-4.455435752868652,-7.3914289474487305,3.728017568588257
1777561104653379300,10.36337939453125,-2.801995277404785,-4.3070807456970215,4.0797624588012695
1777561104671908000,10.381908203125,-2.0338993072509766,-1.8783657550811768,3.2159535884857178
1777561104690436900,10.400436767578125,-1.7850457429885864,0.20578274130821228,2.6225335597991943
1777561104708966000,10.4189658203125,-0.7776673436164856,1.6893328428268433,2.3617160320281982
1777561104727494700,10.43749462890625,-0.46420758962631226,1.430907964706421,2.3330020904541016
1777561104746023700,10.456023681640625,-0.11724831163883209,0.01196411345154047,1.8424733877182007
1777561104764552400,10.474552490234375,1.4189438819885254,-0.13878370821475983,1.9980069398880005
1777561104783081200,10.493081298828125,3.297309637069702,-0.39481574296951294,2.4335005283355713
1777561104801610200,10.5116103515625,4.924428939819336,-0.04785645380616188,2.8283164501190186
1777561104820139000,10.530138916015625,4.900500774383545,0.3852444589138031,3.9433717727661133
1777561104838667800,10.548667724609375,24.780071258544922,0.9212366938591003,11.174481391906738
1777561104857196800,10.56719677734375,-7.934599876403809,-10.454241752624512,3.570091485977173
1777561104875725800,10.585725830078125,18.180665969848633,-18.340986251831055,-0.9188438653945923
1777561104894254600,10.604254638671875,-3.950550079345703,-24.53600311279297,12.411571502685547
1777561104912783400,10.622783447265626,2.8737800121307373,-19.02054786682129,6.216553211212158
1777561104931312400,10.6413125,7.056434154510498,-8.080561637878418,5.056034088134766
1777561104949841200,10.659841064453126,0.4043870270252228,-3.1657042503356934,2.6273193359375
1777561104968370200,10.6783701171875,0.380458801984787,-2.7182464599609375,3.570091485977173
1777561104986899000,10.69689892578125,0.763310432434082,-5.142175674438477,4.0079779624938965
1777561105005428000,10.715427978515624,-1.1054840087890625,-8.8438720703125,3.869194269180298
1777561105023956700,10.733956787109374,-0.20578274130821228,-13.51705551147461,3.6945180892944336
1777561105042485500,10.752485595703124,0.42831525206565857,-17.30728530883789,1.8759729862213135
1777561105061014500,10.7710146484375,-1.3567304611206055,-17.22353744506836,-0.9978070259094238
1777561105079543600,10.78954345703125,0.5838487148284912,-12.270394325256348,-1.801795482635498
1777561105098072300,10.808072265625,1.0791629552841187,-9.351150512695312,-3.6466617584228516
1777561105116601000,10.82660107421875,1.5840486288070679,-8.303094863891602,-3.85483717918396
1777561105135130000,10.845130126953125,2.0889341831207275,-7.630711555480957,-2.0817556381225586
1777561105153659000,10.863658935546875,1.8592232465744019,-6.532405853271484,0.4163511395454407
1777561105172188000,10.88218798828125,0.8374879360198975,-6.515655994415283,1.856830358505249
1777561105190716700,10.900716552734375,-0.33020952343940735,-8.068597793579102,1.6917256116867065
1777561105209245700,10.91924560546875,-0.40677985548973083,-9.55214786529541,1.007378339767456
1777561105227774500,10.9377744140625,1.1030912399291992,-9.619147300720215,0.9308080077171326
1777561105246303200,10.95630322265625,2.6847469806671143,-9.528220176696777,0.8997012972831726
1777561105264832300,10.974832275390625,1.8041882514953613,-10.329814910888672,-0.3086741268634796
1777561105283361000,10.993361083984375,0.8638089895248413,-9.81535816192627,0.031106693670153618
1777561105301890000,11.01189013671875,0.4091726839542389,-9.322437286376953,0.2273181527853012
1777561105320418800,11.030418701171875,-1.0097711086273193,-9.518648147583008,-0.4259224236011505
1777561105338947800,11.04894775390625,-1.5864413976669312,-9.836894035339355,-1.4883357286453247
1777561105357476600,11.0674765625,-1.4691931009292603,-10.258030891418457,-2.2205393314361572
1777561105376005600,11.086005615234376,-2.038684844970703,-11.94736385345459,-2.172683000564575
1777561105394534400,11.104534423828126,-1.1868400573730469,-14.026726722717285,-1.1437692642211914
1777561105413063400,11.1230634765625,0.8781659007072449,-16.689937591552734,1.277767300605774
1777561105431592200,11.14159228515625,-0.2967100143432617,-19.07318878173828,3.242274761199951
1777561105450121200,11.160121337890626,0.4450650215148926,-16.35972785949707,4.965106964111328
1777561105468650000,11.17864990234375,1.057627558708191,-13.653446197509766,4.01754903793335
1777561105487178800,11.1971787109375,3.31884503364563,-11.863615036010742,2.376072883605957
1777561105505707800,11.215707763671874,5.527420520782471,-11.035697937011719,2.2468605041503906
1777561105524236500,11.234236572265624,5.678168296813965,-12.239287376403809,0.5144568681716919
1777561105542765600,11.252765625,6.946363925933838,-13.576875686645508,-1.246660590171814
1777561105561294300,11.27129443359375,6.135197162628174,-15.483955383300781,-1.7132610082626343
1777561105579823400,11.2898232421875,4.395615100860596,-18.05384635925293,-3.373879909515381
1777561105598352100,11.30835205078125,-0.2991028428077698,-17.871992111206055,-1.093519926071167
1777561105616881200,11.326881103515625,-6.082555294036865,-13.890335083007812,3.658625841140747
1777561105635410000,11.345409912109375,-8.458627700805664,-9.279366493225098,5.850451469421387
1777561105663203300,11.373203369140626,-4.357329845428467,-5.1876397132873535,7.841279983520508
1777561105681732000,11.391732177734376,-0.8805587291717529,-7.231110095977783,6.228517532348633
1777561105700261000,11.41026123046875,3.87876558303833,-9.032905578613281,3.3619158267974854
1777561105718790000,11.428789794921874,7.183253765106201,-10.564311981201172,0.5168496966362
1777561105737319000,11.44731884765625,1.3256237506866455,-9.332008361816406,-0.9499505758285522
1777561105755847700,11.46584765625,-0.885344386100769,-7.09711217880249,-0.6747759580612183
1777561105774376700,11.484376708984374,-1.820937991142273,-5.374279499053955,-0.11246266216039658
1777561105792905700,11.50290576171875,-1.4691931009292603,-3.6323046684265137,0.8949156403541565
1777561105811434500,11.5214345703125,0.19621145725250244,-1.2610175609588623,2.0554347038269043
1777561105829963300,11.53996337890625,1.3232308626174927,0.04546362906694412,2.715853691101074
1777561105848492300,11.5584921875,1.5696916580200195,-0.6819544434547424,3.2063822746276855
1777561105867021000,11.57702099609375,1.5936198234558105,-1.277767300605774,3.862015724182129
1777561105885550000,11.595550048828125,1.6701902151107788,-1.6223337650299072,3.510270833969116
1777561105904078800,11.614078857421875,2.4646072387695312,-1.552941918373108,3.326023578643799
1777561105922607900,11.63260791015625,4.163511276245117,-0.5431707501411438,4.230510234832764
1777561105941136600,11.65113671875,19.594823837280273,1.1676974296569824,7.69531774520874
1777561105959665700,11.669665771484375,-2.2995026111602783,-7.1162543296813965,8.331808090209961
1777561105978194400,11.6881943359375,22.91366958618164,-16.09891128540039,1.8352949619293213
1777561105996723500,11.706723388671875,2.0099709033966064,-20.673988342285156,-1.6701902151107788
1777561106015252200,11.725252197265625,0.32542386651039124,-17.012968063354492,8.941978454589844
1777561106033781200,11.74378125,5.041677474975586,-10.456634521484375,5.793023586273193
1777561106052310000,11.76231005859375,6.453442573547363,-4.575077056884766,2.3497519493103027
1777561106070839000,11.780839111328126,2.5363919734954834,-3.5461630821228027,3.4815568923950195
1777561106089367800,11.799367919921876,2.6225335597991943,-4.682754039764404,4.278367042541504
1777561106107896800,11.817896728515626,1.3639088869094849,-7.731209754943848,2.9623143672943115
1777561106126425600,11.836425537109376,0.8446664214134216,-10.095318794250488,3.2614171504974365
1777561106144954600,11.85495458984375,1.3088740110397339,-11.834900856018066,3.290131092071533
1777561106163483600,11.873483642578124,-0.22013968229293823,-14.09133243560791,1.1772687435150146
1777561106182012400,11.892012451171874,-0.9451649188995361,-15.483955383300781,-0.672383189201355
1777561106200541400,11.91054150390625,0.5288137793540955,-14.036297798156738,-2.00518536567688
1777561106219070200,11.9290703125,2.163111686706543,-10.222138404846191,-2.495713949203491
1777561106237599200,11.94759912109375,1.7443677186965942,-8.707481384277344,-3.1561331748962402
1777561106256128000,11.9661279296875,1.459621787071228,-8.195417404174805,-2.3018953800201416
1777561106274656800,11.98465673828125,1.00259268283844,-7.2574310302734375,-0.14117653667926788
1777561106293185800,12.003185791015625,0.16271193325519562,-6.285944938659668,1.4069796800613403
1777561106311714600,12.021714599609375,0.5742774605751038,-6.183053493499756,1.797009825706482
1777561106330243600,12.04024365234375,0.7250252366065979,-8.336593627929688,0.48574298620224
1777561106348772600,12.058772705078125,3.0412776470184326,-9.499505996704102,0.07657032459974289
1777561106367301400,12.07730126953125,2.486142635345459,-9.504291534423828,0.9834501147270203
1777561106385830400,12.095830322265625,0.3517449200153351,-9.279366493225098,0.6532405614852905
1777561106404359200,12.114359130859375,0.760917603969574,-9.08554744720459,-0.42831525206565857
1777561106422888200,12.13288818359375,0.5024927258491516,-8.578269004821777,-0.9332008361816406
1777561106441417000,12.1514169921875,0.20578274130821228,-8.645268440246582,-1.098305583000183
1777561106459946000,12.169946044921875,-0.16749759018421173,-9.590433120727539,-1.2610175609588623
1777561106478475000,12.18847509765625,-0.24167509377002716,-9.92542839050293,-1.1868400573730469
1777561106497003800,12.207003662109376,0.12203395366668701,-9.81535816192627,-0.10289137065410614
1777561106515532800,12.22553271484375,-0.15314064919948578,-10.265209197998047,0.2560320198535919
1777561106534061600,12.2440615234375,-0.040677983313798904,-11.059626579284668,0.3924229145050049
1777561106552590600,12.262590576171876,-1.3256237506866455,-12.52881908416748,0.9451649188995361
1777561106571119400,12.281119384765624,-4.074976921081543,-14.165510177612305,-0.363709032535553
1777561106589648400,12.2996484375,-2.256431818008423,-15.189638137817383,0.02392822690308094
1777561106608177200,12.31817724609375,-0.5264210104942322,-16.366907119750977,2.6249263286590576
1777561106626706200,12.3367060546875,-0.42831525206565857,-15.598811149597168,4.144368648529053
1777561106645235000,12.35523486328125,-0.8614161610603333,-16.146766662597656,2.579462766647339
1777561106663764000,12.373763916015625,1.550549030303955,-13.383056640625,1.0193424224853516
1777561106682292700,12.392292724609375,3.376272678375244,-11.050054550170898,0.23210379481315613
1777561106700821800,12.41082177734375,4.972285270690918,-11.191231727600098,0.09092725813388824
1777561106719350800,12.429350830078125,6.642475605010986,-13.316058158874512,-0.3397808074951172
1777561106737879600,12.447879638671875,7.551748275756836,-15.613167762756348,-0.7728816866874695
1777561106756408600,12.46640869140625,8.38684368133545,-16.017555236816406,-0.30149564146995544
1777561106774937300,12.484937255859375,7.401000499725342,-15.091532707214355,0.24885354936122894
1777561106793466400,12.50346630859375,3.493520975112915,-15.096318244934082,-0.3852444589138031
1777561106811995100,12.5219951171875,-6.446264266967773,-13.782658576965332,2.1607189178466797
1777561106830524200,12.540524169921875,-14.359328269958496,-10.918449401855469,2.8977081775665283
1777561106849053200,12.55905322265625,-7.585247993469238,-6.259624004364014,4.9052863121032715
1777561106867582000,12.57758203125,-2.3712873458862305,-5.383851051330566,6.534798622131348
1777561106886111000,12.596111083984376,0.2871387302875519,-7.566105365753174,4.41475772857666
1777561106904639700,12.6146396484375,6.786045074462891,-11.016555786132812,1.7682958841323853
1777561106923168800,12.633168701171876,4.917250633239746,-9.853643417358398,1.0959128141403198
1777561106941697800,12.65169775390625,-0.6484549641609192,-7.003791809082031,1.9142581224441528
1777561106960226600,12.6702265625,-0.6508477330207825,-5.26181697845459,1.3112667798995972
1777561106978755600,12.688755615234374,-1.0863415002822876,-4.800002098083496,0.4833501875400543
1777561106997284400,12.707284423828124,0.4618147611618042,-3.2063822746276855,1.3232308626174927
1777561107015813400,12.7258134765625,1.3351950645446777,-1.0767701864242554,2.3976082801818848
1777561107034342400,12.74434228515625,1.5912270545959473,-0.6939185857772827,2.342573404312134
1777561107052871200,12.76287109375,1.4739787578582764,-0.9882357716560364,2.227717876434326
1777561107071400200,12.781400146484375,1.612762451171875,-1.2490534782409668,2.2085752487182617
1777561107089929000,12.799928955078125,1.9405791759490967,-1.0671988725662231,2.2372891902923584
1777561107108458000,12.8184580078125,3.184846878051758,-0.4905286431312561,2.6967110633850098
1777561107126986800,12.83698681640625,8.958727836608887,0.7752745151519775,5.381458282470703
1777561107145515800,12.855515869140625,20.776878356933594,-0.3517449200153351,9.05444049835205
1777561107164044800,12.874044921875,-6.872186660766602,-11.308480262756348,5.544169902801514
1777561107182573600,12.892573486328125,16.443477630615234,-20.075782775878906,-3.2518460750579834
1777561107201102600,12.9111025390625,0.8350951075553894,-20.740985870361328,7.628318786621094
1777561107219631400,12.92963134765625,5.132604598999023,-16.151552200317383,5.477170944213867
1777561107238160400,12.948160400390625,2.541177749633789,-8.609375953674316,4.362115859985352
1777561107256689200,12.966689208984375,4.986642360687256,-4.3788652420043945,3.4815568923950195
1777561107275218200,12.98521826171875,2.438286304473877,-3.517449378967285,2.59621262550354
1777561107293747000,13.003746826171875,1.672582983970642,-5.469992637634277,2.038684844970703
1777561107312276000,13.02227587890625,0.7800601720809937,-7.76470947265625,1.6414763927459717
1777561107330805000,13.040804931640626,1.210768222808838,-9.891928672790527,2.1918256282806396
1777561107349334000,13.059333984375,-0.1339980661869049,-13.014562606811523,1.5696916580200195
1777561107367862800,13.07786279296875,-0.41156548261642456,-18.616159439086914,-0.38763725757598877
1777561107386391800,13.096391845703126,1.160519003868103,-16.69711685180664,-1.093519926071167
1777561107404920800,13.1149208984375,1.0121639966964722,-11.365907669067383,-2.4813570976257324
1777561107423449600,13.13344970703125,0.9068797826766968,-8.685946464538574,-2.912065267562866
1777561107441978600,13.151978515625,2.2444677352905273,-7.027719974517822,-0.7585247755050659
1777561107460507400,13.17050732421875,2.258824586868286,-5.347958564758301,1.7395820617675781
1777561107479036400,13.189036376953124,-0.10049854964017868,-4.823930263519287,2.833101987838745
1777561107497565200,13.207565185546875,-2.304288148880005,-6.467799663543701,1.9525432586669922
1777561107516094200,13.22609423828125,-0.6699903607368469,-8.85344409942627,0.4498506486415863
1777561107534623200,13.244623291015625,2.524427890777588,-10.023533821105957,-0.062213387340307236
1777561107553152000,13.263152099609375,4.390829563140869,-9.820143699645996,0.916451096534729
1777561107571681000,13.281680908203125,1.8975083827972412,-9.523433685302734,1.8065811395645142
1777561107590210000,13.3002099609375,-0.7226324677467346,-9.20997428894043,1.557727575302124
1777561107608739000,13.318739013671875,-0.16749759018421173,-8.894122123718262,0.5862415432929993
1777561107627267800,13.337267822265625,-0.08135596662759781,-9.659825325012207,-0.5814558863639832
1777561107645796900,13.355796875,-0.8374879360198975,-9.722038269042969,-1.7012969255447388
1777561107664325600,13.37432568359375,-0.48813581466674805,-9.087940216064453,-1.3926228284835815
1777561107682854700,13.392854736328125,-0.0933200865983963,-9.966106414794922,-0.7178468108177185
1777561107701383400,13.411383544921875,-1.1820544004440308,-11.416156768798828,-0.10767702013254166
1777561107719912400,13.429912353515626,-3.799802303314209,-14.07697582244873,-0.1579262912273407
1777561107738441500,13.44844140625,-0.8470591902732849,-15.096318244934082,2.1032910346984863
1777561107756970200,13.46697021484375,-1.0193424224853516,-18.687944412231445,0.8470591902732849
1777561107775499300,13.485499267578126,0.7417750358581543,-16.689937591552734,3.2303106784820557
1777561107794028300,13.5040283203125,0.22971096634864807,-15.251851081848145,2.943171739578247
1777561107812557000,13.52255712890625,0.5814558863639832,-12.940384864807129,2.3401806354522705
1777561107831086000,13.541086181640624,2.8426733016967773,-11.088339805603027,2.3258235454559326
1777561107849615000,13.559614990234374,4.304687976837158,-10.956734657287598,3.153740167617798
1777561107868143900,13.578143798828124,4.9363932609558105,-12.5742826461792,2.445464849472046
1777561107886673000,13.5966728515625,5.2043890953063965,-14.514862060546875,0.30628129839897156
1777561107905202000,13.615201904296875,5.936593055725098,-14.93839168548584,-0.07417750358581543
1777561107923731000,13.63373095703125,6.204588890075684,-15.065211296081543,-0.6005984544754028
1777561107942259700,13.652259765625,5.015356063842773,-14.933606147766113,-0.8685946464538574
1777561107960788700,13.670788818359375,-3.524627685546875,-13.179667472839355,0.849452018737793
1777561107979317500,13.6893173828125,-9.640682220458984,-9.858428955078125,1.1581261157989502
1777561107997846500,13.707846435546875,-7.793423175811768,-6.716653347015381,2.3712873458862305
1777561108016375600,13.72637548828125,-0.8997012972831726,-5.209175109863281,5.221138954162598
1777561108034904300,13.744904296875,-0.7010970115661621,-7.601997375488281,5.0225348472595215
1777561108053433300,13.763433349609375,3.7543387413024902,-9.8871431350708,3.8021950721740723
1777561108071962400,13.78196240234375,4.237689018249512,-11.143375396728516,0.38763725757598877
1777561108090491100,13.8004912109375,1.5194423198699951,-9.686145782470703,-0.16510476171970367
1777561108109020200,13.819020263671876,-0.46420758962631226,-6.975078105926514,0.5958128571510315
1777561108127549200,13.837549072265626,-1.4476577043533325,-4.9986066818237305,0.8159525394439697
1777561108146078000,13.856077880859376,0.24646073579788208,-2.486142635345459,1.545763373374939
1777561108164607000,13.87460693359375,1.923829436302185,-0.794417142868042,2.148754835128784
1777561108183136000,13.893135986328126,2.076970100402832,-0.8949156403541565,2.3330020904541016
1777561108201664800,13.911664794921874,2.3784656524658203,-2.59621262550354,2.5435705184936523
1777561108220193800,13.93019384765625,2.1894326210021973,-3.955335855484009,3.263810157775879
1777561108238722800,13.948722900390624,2.2923240661621094,-3.7399818897247314,3.6370904445648193
1777561108257251600,13.96725146484375,2.6009981632232666,-2.967100143432617,3.5844483375549316
1777561108275780600,13.985780517578124,2.7732813358306885,-2.1535403728485107,3.3308091163635254
1777561108294309600,14.0043095703125,3.603590965270996,-1.3351950645446777,2.667997360229492
1777561108312838700,14.022838623046875,9.616754531860352,-0.014356935396790504,2.998206853866577
1777561108331367400,14.041367431640625,21.535404205322266,-1.0863415002822876,7.810173034667969
1777561108349896400,14.059896484375,2.407179594039917,-8.767302513122559,7.585247993469238
1777561108368425500,14.078425537109375,17.92463493347168,-17.319250106811523,3.290131092071533
1777561108386954200,14.096954345703125,-2.4430718421936035,-20.547168731689453,4.419543266296387
1777561108405483300,14.115483154296875,3.8189449310302734,-14.531611442565918,7.45364236831665
1777561108424012300,14.13401220703125,5.431707382202148,-6.98704195022583,5.429314613342285
1777561108442541000,14.152541015625,4.941178798675537,-3.7495529651641846,3.9433717727661133
1777561108461070000,14.171070068359375,2.0027925968170166,-4.390829563140869,3.1657042503356934
1777561108479599000,14.18959912109375,1.0552347898483276,-6.951149940490723,2.266003131866455
1777561108498128100,14.208128173828126,1.1318050622940063,-9.284152030944824,1.9453648328781128
1777561108516657000,14.226656982421876,1.0193424224853516,-10.777273178100586,1.8783657550811768
1777561108535186000,14.24518603515625,0.6580262184143066,-12.67717456817627,1.2969099283218384
1777561108553715000,14.26371484375,0.3397808074951172,-14.100903511047363,1.2011969089508057
1777561108572243700,14.28224365234375,-0.6771687865257263,-14.809179306030273,0.2991028428077698
1777561108590772700,14.300772705078124,-0.5024927258491516,-12.090932846069336,-1.7228323221206665
1777561108609301800,14.3193017578125,1.0360921621322632,-9.91825008392334,-3.6227335929870605
1777561108627830500,14.33783056640625,1.521835207939148,-9.10229778289795,-3.864408493041992
1777561108646359600,14.356359619140624,2.3306093215942383,-8.688339233398438,-1.698904037475586
1777561108664888600,14.374888671875,2.069791555404663,-7.479963779449463,0.3158525824546814
1777561108683417600,14.39341748046875,0.33499518036842346,-6.321837425231934,1.94297194480896
1777561108701946400,14.4119462890625,-0.5742774605751038,-6.589833736419678,1.4644074440002441
1777561108720475400,14.430475341796875,0.6484549641609192,-7.6666035652160645,0.2679961323738098
1777561108739004400,14.44900439453125,1.9381862878799438,-8.317451477050781,-0.12203395366668701
1777561108757533400,14.467533447265625,2.4358935356140137,-8.707481384277344,0.6675975322723389
1777561108776062200,14.486062255859375,0.6149554252624512,-9.231510162353516,0.6125625967979431
1777561108794591200,14.50459130859375,0.9786644577980042,-9.667003631591797,-0.22971096634864807
1777561108813120300,14.523120361328125,1.0121639966964722,-9.781859397888184,-1.28255295753479
1777561108831649300,14.541649169921875,1.0480563640594482,-9.657432556152344,-1.703689694404602
1777561108850178000,14.560177978515625,-0.13878370821475983,-9.528220176696777,-1.129412293434143
1777561108868707000,14.57870703125,-0.7848458290100098,-10.140782356262207,-0.8015955686569214
1777561108887236000,14.597236083984376,-1.4380863904953003,-11.466405868530273,-0.6221339106559753
1777561108905764900,14.615764892578126,-2.8761727809906006,-12.591032981872559,-0.04307080805301666
1777561108924294000,14.6342939453125,-3.8883368968963623,-15.002998352050781,-0.064606212079525
1777561108942823000,14.652822998046876,1.703689694404602,-16.85743522644043,2.847458839416504
1777561108961352000,14.67135205078125,1.31365966796875,-19.185651779174805,3.3930225372314453
1777561108979880700,14.689880615234374,1.0791629552841187,-16.395620346069336,3.7543387413024902
1777561108998409700,14.70840966796875,0.7992027401924133,-13.99083423614502,1.8185452222824097
1777561109016938800,14.726938720703124,2.084148406982422,-11.416156768798828,0.7680960893630981
1777561109035467500,14.745467529296874,3.9290146827697754,-10.829915046691895,0.7441678643226624
1777561109053996500,14.76399658203125,5.290530681610107,-12.011969566345215,0.48574298620224
1777561109072525600,14.782525634765625,6.8482584953308105,-13.71805191040039,-1.2729816436767578
1777561109091054600,14.8010546875,8.001599311828613,-14.991033554077148,-2.2372891902923584
1777561109109583600,14.81958349609375,6.080162525177002,-16.996219635009766,-3.8668015003204346
1777561109128112400,14.8381123046875,1.0360921621322632,-16.761722564697266,-2.132004976272583
1777561109146641400,14.856641357421875,-6.585047721862793,-14.423934936523438,2.510071039199829
1777561109165170400,14.87517041015625,-10.2747802734375,-9.631111145019531,5.816951751708984
1777561109183699500,14.893699462890625,-3.5509488582611084,-4.926821708679199,11.586047172546387
1777561109202228200,14.912228271484375,0.11006984114646912,-4.342973232269287,9.602396965026855
1777561109220757200,14.93075732421875,-0.02871387079358101,-7.412964344024658,3.2063822746276855
1777561109239286300,14.949286376953125,6.7692952156066895,-11.078768730163574,-0.8111668825149536
1777561109257815300,14.967815185546876,5.9916276931762695,-12.06221866607666,-3.4959139823913574
1777561109276344000,14.986343994140626,-0.5599204897880554,-10.147960662841797,-2.2444677352905273
1777561109294873000,15.004873046875,-0.8901300430297852,-7.9250288009643555,0.15314064919948578
1777561109313402000,15.023402099609376,-1.31365966796875,-5.883950710296631,2.7421748638153076
1777561109331931100,15.04193115234375,-0.040677983313798904,-3.9625144004821777,3.9385859966278076
1777561109350460000,15.0604599609375,1.00259268283844,-0.9978070259094238,3.311666488647461
1777561109368989000,15.078989013671874,1.1222338676452637,0.12921242415905,2.5124638080596924
1777561109387518000,15.09751806640625,1.399801254272461,-0.7585247755050659,2.256431818008423
1777561109406047000,15.116046875,1.7252250909805298,-1.9357935190200806,2.043470621109009
1777561109424575700,15.13457568359375,1.8975083827972412,-2.4574289321899414,2.0195422172546387
1777561109443104800,15.153104736328125,1.7443677186965942,-1.7754744291305542,2.4358935356140137
1777561109461633800,15.1716337890625,1.9836499691009521,-0.8039883971214294,3.359523057937622
1777561109480162800,15.190162841796875,6.876972198486328,1.0648061037063599,4.7712883949279785
1777561109498691800,15.20869189453125,23.112274169921875,0.004785645287483931,7.338787078857422
1777561109517220600,15.227220703125,3.4672000408172607,-10.698309898376465,8.011170387268066
1777561109535749600,15.24574951171875,10.540383338928223,-15.460026741027832,2.9862427711486816
1777561109554278700,15.264278564453125,6.589833736419678,-12.890135765075684,3.7902309894561768
1777561109572807700,15.2828076171875,6.522834300994873,-10.200602531433105,5.4795637130737305
1777561109591336400,15.30133642578125,6.745367050170898,-8.930013656616211,3.019742250442505
1777561109609865500,15.319865478515625,5.240281581878662,-6.922435760498047,5.946164131164551
1777561109628394500,15.33839453125,4.338187217712402,-6.362515449523926,3.8285162448883057
1777561109646923500,15.356923583984376,2.7493531703948975,-7.073183536529541,2.493321180343628
1777561109665452500,15.37545263671875,2.691925525665283,-8.087740898132324,2.1535403728485107
1777561109683981600,15.393981689453126,2.4047868251800537,-8.994620323181152,2.8115665912628174
1777561109702510300,15.41251025390625,1.34476637840271,-9.329615592956543,3.4121651649475098
1777561109721039400,15.431039306640624,1.5050854682922363,-9.930213928222656,3.4791641235351562
1777561109739568400,15.449568359375,1.789831280708313,-10.853843688964844,2.7086751461029053
1777561109758097200,15.46809716796875,0.9954141974449158,-11.758330345153809,1.1461620330810547
1777561109776626400,15.48662646484375,1.6701902151107788,-11.72722339630127,0.8781659007072449
1777561109795155200,15.5051552734375,2.555534601211548,-11.011770248413086,-0.035892341285943985
1777561109813684200,15.523684326171875,1.5696916580200195,-9.958928108215332,-0.729810893535614
1777561109832213200,15.542213134765625,0.7058826684951782,-9.497113227844238,-0.9619147181510925
1777561109850742300,15.5607421875,0.7082754969596863,-8.116454124450684,-0.3445664644241333
1777561109869271000,15.57927099609375,0.1746760457754135,-6.467799663543701,0.6963114142417908
1777561109887800300,15.59780029296875,-0.7393822073936462,-5.484349727630615,1.1365907192230225
1777561109906329000,15.6163291015625,-0.8614161610603333,-6.515655994415283,-0.08614161610603333
1777561109924858000,15.634858154296875,-1.301695466041565,-9.750752449035645,-2.9862427711486816
1777561109943387100,15.65338720703125,0.41874396800994873,-12.56710433959961,-4.845465660095215
1777561109961916000,15.671916015625,2.3880369663238525,-11.834900856018066,-2.792423963546753
1777561109980445200,15.690445068359375,2.225325107574463,-9.710074424743652,0.6125625967979431
1777561109998974000,15.708973876953126,-0.4139583110809326,-8.059026718139648,2.5770699977874756
1777561110017503000,15.7275029296875,0.39960137009620667,-6.7932233810424805,3.7160534858703613
1777561110036032000,15.746031982421876,0.4450650215148926,-6.900900363922119,2.840280532836914
1777561110054561000,15.76456103515625,-0.3900300860404968,-7.75753116607666,1.2993026971817017
1777561110073089800,15.78308984375,-0.36610186100006104,-8.25523853302002,0.34695929288864136
1777561110091619000,15.801619140625,-0.8805587291717529,-8.901300430297852,-0.05024927482008934
1777561110110147800,15.82014794921875,-1.2083754539489746,-9.80817985534668,0.6101697683334351
1777561110128676900,15.8386767578125,-1.0600204467773438,-11.088339805603027,1.5625132322311401
1777561110147206000,15.857205810546875,-0.1746760457754135,-12.126825332641602,2.148754835128784
1777561110165735000,15.87573486328125,0.34695929288864136,-12.117254257202148,1.8544375896453857
1777561110184264000,15.894263916015625,0.4977070987224579,-11.82293701171875,0.26081767678260803
1777561110202792700,15.912792724609375,0.5814558863639832,-11.523834228515625,-0.9475577473640442
1777561110221322000,15.931322021484375,0.4833501875400543,-12.141181945800781,-1.3495519161224365
1777561110239850800,15.949850830078125,-0.4331009089946747,-14.983855247497559,-1.6510475873947144
1777561110258379800,15.9683798828125,-0.4019941985607147,-17.096717834472656,-1.8855443000793457
1777561110276908800,15.98690869140625,2.9479575157165527,-15.393028259277344,-0.8159525394439697
1777561110295437800,16.005437744140625,4.101297855377197,-13.995619773864746,-0.5000999569892883
1777561110313966800,16.023966796875,3.249453067779541,-11.899506568908691,-0.30149564146995544
1777561110332495600,16.04249560546875,0.9427721500396729,-10.212567329406738,-0.2967100143432617
1777561110351025000,16.06102490234375,-1.521835207939148,-9.236295700073242,-0.5407779216766357
1777561110369553700,16.0795537109375,-4.295116424560547,-9.707681655883789,-0.6149554252624512
1777561110388082700,16.098082763671876,-4.847858905792236,-11.815757751464844,-0.14117653667926788
1777561110406611700,16.11661181640625,-3.129812002182007,-13.598411560058594,0.7178468108177185
1777561110425140700,16.135140625,-0.05024927482008934,-16.240087509155273,0.0526420995593071
1777561110443669800,16.153669677734374,1.0863415002822876,-12.55992603302002,4.393222332000732
1777561110462198800,16.17219873046875,0.5335994362831116,-12.220145225524902,0.3613162338733673
1777561110480727800,16.190727783203126,-3.081955671310425,-12.160325050354004,-1.6893328428268433
1777561110499256600,16.209256591796876,-1.7012969255447388,-10.62413215637207,-1.062413215637207
1777561110517785600,16.22778564453125,-0.3206382393836975,-9.65503978729248,0.019142581149935722
1777561110545579300,16.255579345703126,-3.0628130435943604,-9.578469276428223,1.8113667964935303
1777561110564108000,16.27410791015625,-3.5772697925567627,-9.322437286376953,2.2947168350219727
1777561110582637000,16.292636962890626,-2.806781053543091,-9.4061861038208,2.196611166000366
1777561110601166000,16.311166015625,-1.5290136337280273,-8.47298526763916,2.5842485427856445
1777561110619695000,16.329695068359374,-1.5720844268798828,-7.1162543296813965,2.6009981632232666
1777561110638224100,16.34822412109375,-0.9619147181510925,-5.934200286865234,2.1415762901306152
1777561110656753200,16.366753173828126,0.15553347766399384,-4.922036170959473,2.66560435295105
1777561110675282200,16.3852822265625,0.28235307335853577,-4.1970109939575195,3.4097721576690674
1777561110693811200,16.403811279296875,0.2967100143432617,-2.9383862018585205,3.1968109607696533
1777561110712340000,16.422340087890625,0.6675975322723389,-2.0650060176849365,2.03629207611084
1777561110730869200,16.440869140625,1.6558332443237305,-1.9956140518188477,1.2059825658798218
1777561110749398000,16.45939794921875,3.239881753921509,-2.809173822402954,1.5170495510101318
1777561110767927300,16.47792724609375,5.66620397567749,-3.8739798069000244,3.0388846397399902
1777561110786456000,16.4964560546875,11.01416301727295,-6.680760860443115,4.59421968460083
1777561110804985000,16.514985107421875,18.367305755615234,-14.93121337890625,4.070191383361816
1777561110823514000,16.53351416015625,10.258030891418457,-29.8145694732666,-1.1413763761520386
1777561110842043100,16.552043212890624,4.969892501831055,-24.019153594970703,-1.2275179624557495
1777561110860572200,16.570572265625,4.692325115203857,-9.944570541381836,1.5194423198699951
1777561110879101200,16.58910107421875,2.249253273010254,-2.1367905139923096,3.2470602989196777
1777561110897630200,16.607630126953126,3.445664644241333,2.3617160320281982,5.036891460418701
1777561110916159200,16.6261591796875,8.250452041625977,0.064606212079525,3.3068809509277344
1777561110934688300,16.644688232421874,1.8664016723632812,-6.6352972984313965,4.168296813964844
1777561110953217300,16.66321728515625,2.3401806354522705,-15.2016019821167,14.629717826843262
1777561110971746300,16.681746337890626,-10.14317512512207,-19.896320343017578,6.898507595062256
1777561110990275000,16.700275146484376,-4.18983268737793,-12.375679016113281,1.031306505203247
1777561111008804400,16.718804443359375,1.337587833404541,-7.520641803741455,0.02632104977965355
1777561111036597800,16.74659765625,-5.223531723022461,-4.467400074005127,-3.177668571472168
1777561111055126800,16.765126708984376,-3.8572301864624023,-9.942177772521973,-2.2779672145843506
1777561111073655800,16.78365576171875,-3.050848960876465,-15.921841621398926,-2.8283164501190186
1777561111092184800,16.802184814453124,-0.8350951075553894,-16.792829513549805,-3.589233875274658
1777561111110713900,16.8207138671875,0,-14.663217544555664,-3.4815568923950195
1777561111129243000,16.839242919921876,0.24885354936122894,-10.470992088317871,-0.9451649188995361
1777561111147771600,16.857771728515626,0.5479564070701599,-7.386643409729004,1.8783657550811768
1777561111166301000,16.876301025390624,-1.0121639966964722,-5.515456199645996,5.158925533294678
1777561111184829700,16.89482958984375,-1.6534404754638672,-6.474977970123291,5.771488189697266
1777561111203358700,16.913358642578125,-0.2679961323738098,-6.872186660766602,5.623133182525635
1777561111221887700,16.9318876953125,-0.02153540402650833,-7.977670669555664,3.239881753921509
1777561111240416800,16.950416748046877,0.2919243574142456,-9.54496955871582,0.5431707501411438
1777561111258946000,16.968946044921875,1.8640087842941284,-9.647860527038574,-0.5168496966362
1777561111277474800,16.987474853515625,2.462214469909668,-8.755337715148926,-0.576670229434967
1777561111296003800,17.00600390625,-1.0552347898483276,-8.492127418518066,-0.882951557636261
1777561111314532900,17.024532958984373,-4.235296249389648,-8.123632431030273,0.02632104977965355
1777561111333062000,17.043061767578124,-2.66560435295105,-9.128618240356445,0.30628129839897156
1777561111360855600,17.07085546875,1.4141582250595093,-10.612168312072754,-0.30149564146995544
1777561111379384600,17.089384521484376,1.1653046607971191,-11.24626636505127,-0.7226324677467346
1777561111397913600,17.10791357421875,1.2251251935958862,-11.459227561950684,0.3206382393836975
1777561111416442400,17.1264423828125,1.2969099283218384,-11.251051902770996,3.8572301864624023
1777561111434971600,17.1449716796875,0.349352091550827,-11.016555786132812,8.336593627929688
1777561111453500700,17.163500732421873,-1.7395820617675781,-10.571490287780762,6.405586242675781
1777561111472029700,17.18202978515625,-2.462214469909668,-12.102896690368652,-1.9692929983139038
1777561111490558700,17.200558837890625,-1.0648061037063599,-14.428720474243164,-6.534798622131348
1777561111509087500,17.21908740234375,2.4813570976257324,-16.01276969909668,-6.912864685058594
1777561111527616800,17.23761669921875,3.273381471633911,-16.673187255859375,-4.759324073791504
1777561111546145800,17.256145751953124,1.1892328262329102,-16.9124698638916,-2.060220241546631
1777561111564674600,17.274674560546874,-0.3445664644241333,-14.21575927734375,-2.3712873458862305
1777561111583203800,17.293203857421876,0.2679961323738098,-10.980663299560547,-2.8905298709869385
1777561111601732900,17.31173291015625,2.9455647468566895,-9.578469276428223,-0.9044869542121887
1777561111620261600,17.33026171875,0.9188438653945923,-11.564512252807617,-0.009571290574967861
1777561111638791000,17.348791015625,-2.328216314315796,-14.735001564025879,0.9643075466156006
1777561111657320000,17.36731982421875,-3.5294134616851807,-16.852649688720703,2.9694929122924805
1777561111675849000,17.385848876953126,-4.457828521728516,-17.08953857421875,3.431307554244995
1777561111694378000,17.4043779296875,-5.139782905578613,-15.838092803955078,2.0817556381225586
1777561111712907000,17.422906982421875,-0.6484549641609192,-13.430913925170898,0.7106683254241943
1777561111731436000,17.44143603515625,3.407379388809204,-14.555540084838867,-3.507878065109253
1777561111749965000,17.459965087890627,4.06540584564209,-17.422142028808594,-6.300302028656006
1777561111768494000,17.478494140625,-1.8903298377990723,-17.276180267333984,-1.0360921621322632
1777561111787023000,17.497023193359375,-8.989834785461426,-15.31885051727295,2.9958138465881348
1777561111805552000,17.51555224609375,-6.819544315338135,-13.653446197509766,3.6083765029907227
1777561111824081200,17.5340810546875,-0.8063812255859375,-11.684152603149414,3.2303106784820557
1777561111842610200,17.552610107421874,-1.038485050201416,-7.357929706573486,3.9457645416259766
1777561111861139200,17.57113916015625,-2.4646072387695312,-5.127819061279297,3.704089403152466
1777561111879668200,17.589668212890626,-1.1653046607971191,-3.507878065109253,4.838287353515625
1777561111898197200,17.608197265625,1.093519926071167,-1.8400806188583374,4.9124650955200195
1777561111916726300,17.626726318359374,2.0889341831207275,-1.8376877307891846,2.974278450012207
1777561111935255300,17.64525537109375,2.6177480220794678,-2.2683959007263184,1.155733346939087
1777561111953784300,17.663784423828126,3.1800613403320312,-2.0961127281188965,1.129412293434143
1777561111981578000,17.691577880859374,4.082155227661133,-0.5814558863639832,3.129812002182007
1777561112000107000,17.71010693359375,4.809573650360107,0.3206382393836975,3.6370904445648193
1777561112018636000,17.728635986328126,5.654240131378174,0.16271193325519562,2.754138946533203
1777561112037165000,17.7471650390625,5.7858452796936035,0.26560330390930176,2.0195422172546387
1777561112055694000,17.765694091796874,4.8191447257995605,0.10049854964017868,0.5551348328590393
1777561112074223000,17.78422314453125,7.893921852111816,0.4331009089946747,2.0482561588287354
1777561112092752100,17.802752197265626,19.286149978637695,-3.541377544403076,8.46580696105957
1777561112111281200,17.82128125,5.4795637130737305,-11.787044525146484,8.446663856506348
1777561112129810200,17.83981005859375,13.00499153137207,-17.37189292907715,2.6273193359375
1777561112148339200,17.858339111328124,-2.352144718170166,-17.20918083190918,9.131011009216309
1777561112166868200,17.8768681640625,-0.5527420043945312,-13.395021438598633,10.813165664672852
1777561112185397500,17.8953974609375,3.208775281906128,-7.377072334289551,6.530013084411621
1777561112203926300,17.91392626953125,1.2681959867477417,-3.9194436073303223,3.704089403152466
1777561112222455300,17.932455322265625,-1.0432707071304321,-4.764110088348389,3.8213376998901367
1777561112240984600,17.950984619140623,-0.9954141974449158,-7.487142086029053,4.680361270904541
1777561112259513600,17.969513671875,0.2632105052471161,-10.339386940002441,5.98444938659668
1777561112278042600,17.988042724609375,-0.7920243144035339,-13.99083423614502,5.54177713394165
1777561112296571600,18.006571533203125,-0.698704183101654,-16.13001823425293,2.943171739578247
1777561112315100700,18.0251005859375,-2.4837498664855957,-14.273186683654785,-0.10767702013254166
1777561112333629700,18.043629638671874,-1.9357935190200806,-13.588839530944824,-3.3020951747894287
1777561112352158700,18.06215869140625,1.3878371715545654,-13.14377498626709,-5.838487148284912
1777561112370687700,18.080687744140626,1.8137595653533936,-12.356535911560059,-6.422336101531982
1777561112389216800,18.099216796875,1.3830515146255493,-11.81336498260498,-4.814359188079834
1777561112407772700,18.117772705078124,4.766502857208252,-9.698110580444336,-1.215553879737854
1777561112426275000,18.136275146484376,4.6301116943359375,-8.23848819732666,2.416750907897949
1777561112444804000,18.15480419921875,0.5982056856155396,-8.178668022155762,3.7160534858703613
1777561112463333000,18.1733330078125,0.7345965504646301,-7.676175117492676,3.2590243816375732
1777561112481862100,18.191862060546875,1.4931213855743408,-7.657032489776611,3.326023578643799
1777561112500391200,18.21039111328125,2.146361827850342,-8.772088050842285,2.2085752487182617
1777561112518920200,18.228920166015627,1.576870083808899,-9.047262191772461,0.8087740540504456
1777561112537449500,18.247449462890625,-0.4570291340351105,-7.625925540924072,0.02871387079358101
1777561112555978500,18.265978515625,-1.0432707071304321,-6.618547439575195,-0.4091726839542389
1777561112574507500,18.284507568359373,-1.0671988725662231,-7.915457248687744,-1.404586911201477
1777561112593036500,18.30303662109375,-1.1676974296569824,-9.81535816192627,-1.7994025945663452
1777561112611565600,18.321565673828125,-0.9092726111412048,-11.406585693359375,-1.852044701576233
1777561112630094600,18.340094482421875,-0.28235307335853577,-11.753544807434082,-0.9116654396057129
1777561112648623600,18.35862353515625,-0.8111668825149536,-12.265608787536621,0.2847459018230438
1777561112667153000,18.37715283203125,-1.0671988725662231,-14.766108512878418,0.32303106784820557
1777561112685682000,18.395681884765626,2.610569477081299,-17.89113426208496,0.6652047038078308
1777561112704211000,18.4142109375,0.5886343717575073,-18.75255012512207,1.2059825658798218
1777561112722740000,18.432739990234374,1.1892328262329102,-16.101303100585938,3.1417760848999023
1777561112741269200,18.451269287109376,1.404586911201477,-13.804193496704102,2.6177480220794678
1777561112759798300,18.46979833984375,2.2325034141540527,-11.885149955749512,0.916451096534729
1777561112778327300,18.488327392578125,4.1491546630859375,-11.866007804870605,0.02153540402650833
1777561112796856300,18.506856201171875,5.905486106872559,-13.686945915222168,-1.1078768968582153
1777561112815385600,18.525385498046877,7.812565803527832,-15.292529106140137,-2.1750757694244385
1777561112833914600,18.54391455078125,6.728617191314697,-17.036897659301758,-3.620340585708618
1777561112852443600,18.562443603515625,1.0839486122131348,-17.022541046142578,-2.63449764251709
1777561112870972700,18.58097265625,-5.213960647583008,-15.936199188232422,0.7968099117279053
1777561112889502000,18.599501953125,-7.566105365753174,-13.208380699157715,3.6873397827148438
1777561112908031000,18.618031005859375,-3.9218363761901855,-8.616554260253906,5.429314613342285
1777561112926560000,18.63656005859375,-2.675175666809082,-6.503692150115967,5.623133182525635
1777561112945089300,18.65508935546875,-2.1655044555664062,-6.340980052947998,4.132404804229736
1777561112963618300,18.673618408203126,3.9146578311920166,-7.992027759552002,2.7397818565368652
1777561112982147300,18.692147216796876,3.0340991020202637,-8.367700576782227,1.4500504732131958
1777561113000676400,18.71067626953125,1.495514154434204,-8.264809608459473,0.16031911969184875
1777561113019205600,18.72920556640625,0.4091726839542389,-6.754938125610352,0.6675975322723389
1777561113037734700,18.747734619140626,-1.6845471858978271,-3.761517286300659,1.8472590446472168
1777561113056263700,18.766263671875,-0.729810893535614,-2.0817556381225586,2.612962245941162
1777561113074792700,18.784792724609375,-0.48813581466674805,-0.6245267391204834,2.6536402702331543
1777561113093322000,18.803322021484377,0.275174617767334,-0.14356936514377594,2.0267207622528076
1777561113111851000,18.82185107421875,1.3160524368286133,-0.3517449200153351,2.251646041870117
1777561113130380300,18.84038037109375,1.459621787071228,-0.6532405614852905,2.60339093208313
1777561113148909300,18.858909423828123,2.115255117416382,-1.2370892763137817,2.562713146209717
1777561113167438300,18.877438232421873,2.455035924911499,-1.2275179624557495,2.68953275680542
1777561113185967600,18.895967529296875,15.737594604492188,0.4546363055706024,5.848058700561523
1777561113204496600,18.91449658203125,8.15234661102295,-5.099104881286621,5.958128452301025
1777561113223026000,18.93302587890625,11.909078598022461,-12.624532699584961,8.508877754211426
1777561113241555000,18.951554931640626,6.826723098754883,-21.229122161865234,-2.6847469806671143
1777561113260084000,18.970083984375,0.8925228714942932,-20.166709899902344,9.796216011047363
1777561113278613200,18.98861328125,3.6538400650024414,-13.665410041809082,5.98444938659668
1777561113297142300,19.007142333984376,5.989234924316406,-6.013163089752197,4.086941242218018
1777561113315671600,19.025671630859375,2.9312076568603516,-2.66560435295105,2.9958138465881348
1777561113334200600,19.04420068359375,1.6199408769607544,-2.9958138465881348,3.2303106784820557
1777561113352729600,19.0627294921875,0.45224347710609436,-5.824130535125732,2.7828526496887207
1777561113371259000,19.0812587890625,-0.3732803463935852,-8.999405860900879,2.8498518466949463
1777561113389788000,19.099787841796875,0.6939185857772827,-13.265809059143066,2.9479575157165527
1777561113408317200,19.118317138671873,1.4835500717163086,-18.321842193603516,1.7850457429885864
1777561113426846500,19.136846435546875,1.1461620330810547,-16.498512268066406,0.37806597352027893
1777561113445375500,19.15537548828125,0.8662018179893494,-11.344371795654297,-0.6556333899497986
1777561113482433800,19.192433837890626,2.8426733016967773,-7.750352382659912,-2.0171494483947754
1777561113500963000,19.210963134765624,2.438286304473877,-7.197610378265381,-0.9619147181510925
1777561113519492000,19.2294921875,1.6462619304656982,-6.204588890075684,1.1341979503631592
1777561113538021400,19.248021484375,-0.11246266216039658,-6.027520179748535,2.146361827850342
1777561113556550400,19.26655029296875,-1.466800332069397,-8.183453559875488,0.6939185857772827
1777561113575079700,19.28507958984375,0.9667003750801086,-10.114460945129395,-0.729810893535614
1777561113593609000,19.30360888671875,2.6560330390930176,-10.076175689697266,-0.5934200286865234
1777561113612138000,19.322137939453125,1.9094724655151367,-9.083154678344727,-0.1339980661869049
1777561113630667300,19.340667236328127,0.3684946894645691,-8.733802795410156,0.014356935396790504
1777561113649196300,19.3591962890625,0.7417750358581543,-8.556734085083008,0.31824541091918945
1777561113667725600,19.3777255859375,1.0289137363433838,-8.724231719970703,0.2584248483181
1777561113686254600,19.396254638671873,0.6484549641609192,-9.540184020996094,0.23449662327766418
1777561113704784000,19.414783935546875,0.8159525394439697,-10.497312545776367,-0.40677985548973083
1777561113723313200,19.433313232421874,0.2512463629245758,-11.540583610534668,-1.1413763761520386
1777561113741842200,19.45184228515625,-0.9762716293334961,-12.270394325256348,-0.641276478767395
1777561113760371500,19.470371337890626,-2.7182464599609375,-13.627124786376953,-0.17706887423992157
1777561113778900700,19.488900634765624,-3.428914785385132,-14.584254264831543,-0.32542386651039124
1777561113797429800,19.5074296875,0.02871387079358101,-16.122838973999023,1.495514154434204
1777561113815959000,19.525958984375,1.306481122970581,-16.307086944580078,2.730210542678833
1777561113834488300,19.54448828125,1.8472590446472168,-15.129817962646484,2.801995277404785
1777561113853017600,19.563017578125,1.9310078620910645,-13.670195579528809,1.0193424224853516
1777561113871546600,19.581546630859375,3.084348440170288,-11.028519630432129,0.4905286431312561
1777561113890076000,19.600075927734373,4.460221290588379,-10.480563163757324,0.8566305041313171
1777561113908605200,19.618605224609375,6.295516490936279,-12.011969566345215,0.19142581522464752
1777561113927134200,19.63713427734375,8.745766639709473,-14.330615043640137,-0.5934200286865234
1777561113945663500,19.65566357421875,9.628718376159668,-16.663616180419922,-1.057627558708191
1777561113964192800,19.67419287109375,7.240681171417236,-18.3433780670166,-1.4572290182113647
1777561113982722000,19.69272216796875,1.8041882514953613,-16.53679656982422,3.0269205570220947
1777561114001251300,19.711251220703126,-6.20219612121582,-13.11266803741455,5.288137912750244
1777561114019780400,19.7297802734375,-9.626325607299805,-8.15234661102295,6.357729911804199
1777561114038309600,19.7483095703125,-9.470791816711426,-4.833501815795898,6.999006271362305
1777561114056839000,19.7668388671875,-5.364708423614502,-5.592026710510254,4.48414945602417
1777561114075368200,19.7853681640625,12.052647590637207,-9.724431037902832,0.37088751792907715
1777561114093897500,19.8038974609375,7.9250288009643555,-11.676974296569824,-2.043470621109009
1777561114112426500,19.822426513671875,0.10049854964017868,-10.336994171142578,-1.5433706045150757
1777561114130955800,19.840955810546873,-1.0648061037063599,-8.350951194763184,0.1339980661869049
1777561114149485000,19.859485107421875,-2.5842485427856445,-5.450850009918213,0.7752745151519775
1777561114168014300,19.878014404296874,-1.5936198234558105,-1.545763373374939,2.7804598808288574
1777561114186543600,19.896543701171876,0.15074782073497772,1.3639088869094849,2.7732813358306885
1777561114205073000,19.915072998046874,0.7417750358581543,1.368694543838501,1.978864312171936
1777561114232866600,19.942866455078125,0.973878800868988,-0.6340979933738708,2.6297121047973633
1777561114251395800,19.961395751953123,1.2275179624557495,-1.0887342691421509,2.3330020904541016
1777561114269925000,19.979925048828125,1.423729419708252,-0.5359922647476196,1.8472590446472168
1777561114288454400,19.998454345703124,5.084748268127441,1.3351950645446777,4.194618225097656
1777561114306983700,20.016983642578126,20.013568878173828,3.328416347503662,11.36351490020752
1777561114325513000,20.035512939453124,1.4979069232940674,-8.090133666992188,12.356535911560059
1777561114344042200,20.054042236328126,23.447269439697266,-19.79103660583496,4.721039295196533
1777561114362571500,20.072571533203124,-4.18983268737793,-23.6458740234375,-1.8472590446472168
1777561114381100800,20.091100830078126,4.1419758796691895,-18.044275283813477,7.690532207489014
1777561114399630000,20.109630126953125,4.268795490264893,-9.839286804199219,4.240081787109375
1777561114418159400,20.128159423828127,4.821537494659424,-3.34995174407959,3.8021950721740723
1777561114436688600,20.146688720703125,4.780859470367432,-1.6630117893218994,4.094119548797607
1777561114455218000,20.165218017578123,2.069791555404663,-3.184846878051758,2.761317253112793
1777561114473747200,20.183747314453125,1.3184453248977661,-5.61116886138916,2.7397818565368652
1777561114492276500,20.2022763671875,1.2658032178878784,-7.724031448364258,3.4791641235351562
1777561114510805800,20.2208056640625,0.6556333899497986,-11.411371231079102,3.9433717727661133
1777561114529335000,20.2393349609375,-0.4426721930503845,-17.45564079284668,2.7565317153930664
1777561114547864300,20.2578642578125,-0.014356935396790504,-19.51586151123047,-0.397208571434021
1777561114575658200,20.285658203125,2.3090739250183105,-10.810772895812988,-2.227717876434326
1777561114594187500,20.3041875,2.885744094848633,-7.992027759552002,-2.998206853866577
1777561114612716800,20.322716796875,3.177668571472168,-7.025327205657959,-1.332802176475525
1777561114631246300,20.341246337890624,1.8496519327163696,-6.845865726470947,0.9643075466156006
1777561114649775600,20.359775634765626,1.0336993932724,-6.599404811859131,2.991028308868408
1777561114668305000,20.378304931640624,0.380458801984787,-6.721438884735107,2.6321048736572266
1777561114686834200,20.396834228515626,-0.14356936514377594,-8.918049812316895,-0.44027936458587646
1777561114705363500,20.415363525390624,2.730210542678833,-10.030712127685547,-2.1607189178466797
1777561114723892700,20.433892822265626,3.4265220165252686,-8.989834785461426,-1.2610175609588623
1777561114742422000,20.452422119140625,0.9332008361816406,-8.310273170471191,0.28953152894973755
1777561114760951300,20.470951416015627,0.7154539823532104,-9.276973724365234,0.3565305769443512
1777561114779480600,20.48948046875,0.4259224236011505,-9.868000984191895,0.2512463629245758
1777561114798010000,20.508010009765623,1.2658032178878784,-9.372686386108398,-0.12203395366668701
1777561114816539400,20.526539306640625,0.5886343717575073,-9.126225471496582,-0.3445664644241333
1777561114835068700,20.545068603515624,-0.5407779216766357,-9.07119083404541,-0.43549370765686035
1777561114853598000,20.563597900390626,-0.12203395366668701,-8.970691680908203,-0.5383850932121277
1777561114872127200,20.582127197265624,-0.672383189201355,-10.504491806030273,-0.2632105052471161
1777561114890656800,20.60065673828125,-1.4069796800613403,-12.119647026062012,0.09092725813388824
1777561114909186000,20.61918603515625,-2.0003998279571533,-13.36152172088623,1.0887342691421509
1777561114927715300,20.63771533203125,-2.586641311645508,-15.811772346496582,0.07896314561367035
1777561114946244600,20.65624462890625,1.4117653369903564,-17.367107391357422,1.3663017749786377
1777561114964774100,20.674774169921875,2.1535403728485107,-17.297714233398438,2.7182464599609375
1777561114983303400,20.693303466796873,1.612762451171875,-15.239887237548828,3.1034910678863525
1777561115001832700,20.711832763671875,1.399801254272461,-13.519448280334473,1.8352949619293213
1777561115020362000,20.730362060546874,2.857030153274536,-11.72004508972168,0.5982056856155396
1777561115038891300,20.748891357421876,4.01037073135376,-10.643275260925293,0.275174617767334
1777561115057420800,20.7674208984375,4.977071285247803,-11.444870948791504,0.48574298620224
1777561115075950000,20.7859501953125,6.5874409675598145,-13.847264289855957,0.2392822653055191
1777561115094479400,20.804479248046874,8.085348129272461,-15.97448444366455,-0.4450650215148926
1777561115113009000,20.8230087890625,7.733603000640869,-16.847864151000977,-1.1772687435150146
1777561115131538200,20.8415380859375,3.7639100551605225,-15.54377555847168,-0.2967100143432617
1777561115150067500,20.8600673828125,-3.122633457183838,-13.191631317138672,1.832902193069458
1777561115168596700,20.8785966796875,-8.764909744262695,-10.861021995544434,2.5220351219177246
1777561115187126300,20.897126220703125,-7.475177764892578,-6.891329288482666,5.029713153839111
1777561115205655600,20.915655517578124,-7.087540626525879,-5.828916072845459,5.237888813018799
1777561115224185000,20.93418505859375,0.7992027401924133,-7.5565338134765625,4.235296249389648
1777561115242714400,20.95271435546875,9.109476089477539,-9.200403213500977,2.6225335597991943
1777561115261243600,20.97124365234375,3.5988051891326904,-8.276773452758789,0.5934200286865234
1777561115279773200,20.989773193359376,0.02153540402650833,-7.216753005981445,0.4259224236011505
1777561115298302500,21.008302490234374,-1.9405791759490967,-5.216353416442871,0.8949156403541565
1777561115316831700,21.026831787109376,-1.2873386144638062,-3.658625841140747,1.730010747909546
1777561115335361300,21.045361328125,0.24167509377002716,-1.6654045581817627,2.9599215984344482
1777561115353890600,21.063890625,1.0719845294952393,-0.48813581466674805,2.682354211807251
1777561115372420000,21.082420166015623,1.062413215637207,-0.5264210104942322,2.0985054969787598
1777561115390949400,21.100949462890625,1.2681959867477417,-1.1030912399291992,2.249253273010254
1777561115409478700,21.119478759765624,1.4620146751403809,-1.2131611108779907,2.572284460067749
1777561115428008200,21.13800830078125,2.306680917739868,-0.8255237936973572,2.9838497638702393
1777561115446537500,21.156537353515624,6.553941249847412,0.8614161610603333,5.0464630126953125
1777561115465066800,21.175066650390626,21.348764419555664,1.0456634759902954,9.523433685302734
1777561115483596300,21.19359619140625,-2.746960401535034,-9.351150512695312,7.901100158691406
1777561115502125800,21.212125732421875,20.863019943237305,-18.35773468017578,1.8448662757873535
1777561115520655000,21.230655029296877,-3.0723843574523926,-20.98744773864746,2.4574289321899414
1777561115539184400,21.249184326171875,4.986642360687256,-15.53659725189209,10.75813102722168
1777561115557714000,21.2677138671875,3.6394832134246826,-9.743574142456055,6.884150981903076
1777561115576243200,21.2862431640625,3.761517286300659,-4.54636287689209,4.292723655700684
1777561115594772700,21.304772705078125,3.232703447341919,-3.6993038654327393,3.6059837341308594
1777561115613302000,21.323302001953124,1.2658032178878784,-4.790431022644043,2.526820659637451
1777561115631831600,21.34183154296875,-0.33499518036842346,-7.197610378265381,1.1724830865859985
1777561115650360800,21.36036083984375,0.41156548261642456,-9.573683738708496,1.4141582250595093
1777561115668890400,21.378890380859374,-0.18424734473228455,-14.172688484191895,1.0719845294952393
1777561115687419600,21.397419677734376,-0.031106693670153618,-23.255844116210938,-1.8783657550811768
1777561115705949200,21.41594921875,2.3976082801818848,-17.548961639404297,-1.7587246894836426
1777561115724478500,21.434478515625,3.864408493041992,-10.604990005493164,-2.2468605041503906
1777561115743008000,21.453008056640623,2.8737800121307373,-7.956135272979736,-2.012363910675049
1777561115761537300,21.471537353515625,2.6560330390930176,-6.8004021644592285,-0.15314064919948578
1777561115780066800,21.49006689453125,1.9334007501602173,-5.493920803070068,2.644068956375122
1777561115798596000,21.50859619140625,1.3639088869094849,-5.19242525100708,4.206582069396973
1777561115817125600,21.527125732421876,0.5048855543136597,-5.7858452796936035,3.1680972576141357
1777561115835655000,21.545655029296874,0.035892341285943985,-7.8317084312438965,-0.11006984114646912
1777561115854184400,21.564184326171876,1.0360921621322632,-9.549755096435547,-2.7326035499572754
1777561115872713700,21.582713623046875,0.9571290612220764,-9.135796546936035,-2.313859462738037
1777561115891243300,21.6012431640625,0.9786644577980042,-8.01356315612793,-0.16031911969184875
1777561115909772800,21.619772705078127,1.3639088869094849,-8.37727165222168,0.5120640397071838
1777561115928302000,21.638302001953125,1.6941183805465698,-9.463613510131836,0.2632105052471161
1777561115946831600,21.65683154296875,1.5649060010910034,-9.93978500366211,0.02871387079358101
1777561115965361000,21.67536083984375,0.7968099117279053,-9.879964828491211,0.4905286431312561
1777561115983890400,21.693890380859376,0.4833501875400543,-9.286544799804688,0.380458801984787
1777561116002419700,21.712419677734374,-0.4737788736820221,-8.63330364227295,-0.22971096634864807
1777561116020949200,21.73094921875,-1.5170495510101318,-9.260223388671875,-1.0767701864242554
1777561116039478500,21.749478515625,-1.770688772201538,-10.74855899810791,-1.2873386144638062
1777561116058008000,21.768008056640625,-1.8999011516571045,-11.997612953186035,-0.5288137793540955
1777561116076537600,21.78653759765625,-2.785245656967163,-13.39262866973877,-0.26081767678260803
1777561116095067000,21.80506689453125,-1.1988041400909424,-15.416955947875977,0.05503492057323456
1777561116113596400,21.823596435546875,0.2991028428077698,-17.187644958496094,2.1511476039886475
1777561116132125700,21.842125732421874,0.3756731450557709,-16.94597053527832,3.414557933807373
1777561116150655200,21.8606552734375,-1.0193424224853516,-16.37887191772461,3.555734395980835
1777561116169184800,21.879184814453126,1.1341979503631592,-13.854443550109863,2.3617160320281982
1777561116187714000,21.897714111328124,2.9934210777282715,-11.341979026794434,1.3112667798995972
1777561116206243600,21.91624365234375,3.744767427444458,-10.528419494628906,0.6101697683334351
1777561116224773000,21.934773193359376,5.163711071014404,-11.944971084594727,-0.2799602448940277
1777561116243302400,21.953302490234375,6.6831536293029785,-14.06979751586914,-1.2801600694656372
1777561116261832000,21.97183203125,8.324629783630371,-15.093925476074219,-1.2370892763137817
1777561116280361500,21.990361572265623,8.58784008026123,-16.369298934936523,-2.0961127281188965
1777561116298890800,22.008890869140625,2.792423963546753,-16.4315128326416,-2.2468605041503906
1777561116317420300,22.027420166015624,-5.769095420837402,-15.081960678100586,0.46420758962631226
1777561116335949800,22.04594970703125,-10.186245918273926,-11.571690559387207,2.667997360229492
1777561116354479000,22.06447900390625,-6.288337707519531,-7.140182971954346,4.8502516746521
1777561116373008600,22.083008544921874,-3.2853455543518066,-5.125426292419434,8.659625053405762
1777561116391538200,22.1015380859375,-3.0340991020202637,-6.9822564125061035,7.913064479827881
1777561116410067700,22.120067626953126,7.09711217880249,-9.473184585571289,4.957928657531738
1777561116428597000,22.138596923828125,6.544369697570801,-11.0835542678833,0.6101697683334351
1777561116447126500,22.15712646484375,1.0911271572113037,-9.836894035339355,-0.26081767678260803
1777561116465655800,22.17565576171875,-0.11964113265275955,-8.417949676513672,0.39481574296951294
1777561116484185300,22.194185302734375,-1.801795482635498,-5.893522262573242,1.5481562614440918
1777561116502715000,22.21271484375,-0.9044869542121887,-4.043870449066162,1.6247265338897705
1777561116521244200,22.231244140625,-0.1339980661869049,-1.4380863904953003,1.0863415002822876
1777561116539773700,22.249773681640626,0.6867401003837585,-0.062213387340307236,0.22971096634864807
1777561116558303200,22.26830322265625,1.1078768968582153,-0.24406790733337402,0.6508477330207825
1777561116576832800,22.286832763671875,1.1461620330810547,-0.8159525394439697,1.856830358505249
1777561116595362000,22.305362060546877,0.9523434042930603,-1.0719845294952393,2.203789710998535
1777561116613891600,22.3238916015625,1.404586911201477,-0.36610186100006104,1.9716858863830566
1777561116632421000,22.342421142578125,4.299902439117432,1.0121639966964722,2.7421748638153076
1777561116650950400,22.360950439453124,31.9609317779541,3.6227335929870605,8.209774017333984
1777561116669480000,22.37947998046875,-2.4741785526275635,-10.334601402282715,10.621739387512207
1777561116688009500,22.398009521484376,20.047067642211914,-21.657438278198242,-2.3330020904541016
1777561116706539000,22.4165390625,2.234896421432495,-20.568702697753906,9.480362892150879
1777561116725068500,22.435068603515624,5.364708423614502,-13.765908241271973,4.438685894012451
1777561116743597800,22.453597900390626,4.960321426391602,-6.896114826202393,4.110869407653809
1777561116762127400,22.47212744140625,5.259424209594727,-2.4670002460479736,7.200003147125244
1777561116780656600,22.49065673828125,3.0269205570220947,-3.3954153060913086,4.666004180908203
1777561116799186200,22.509186279296873,1.672582983970642,-5.642275810241699,2.8689942359924316
1777561116817715700,22.5277158203125,0.7824530005455017,-8.286344528198242,2.2157537937164307
1777561116836245200,22.546245361328126,0.6221339106559753,-10.657631874084473,1.6510475873947144
1777561116854774800,22.56477490234375,1.155733346939087,-12.595818519592285,1.031306505203247
1777561116873304000,22.583303955078126,0.32303106784820557,-15.840485572814941,-0.13160525262355804
1777561116891833600,22.60183349609375,0.794417142868042,-15.802200317382812,-1.3423734903335571
1777561116910363100,22.620363037109374,1.832902193069458,-12.067004203796387,-2.713460922241211
1777561116928892700,22.638892578125,1.306481122970581,-8.439485549926758,-2.366501569747925
1777561116947422000,22.657421875,1.6606189012527466,-7.3052873611450195,-1.7156537771224976
1777561116965951500,22.675951416015625,2.9455647468566895,-7.1234331130981445,0.4019941985607147
1777561116984481000,22.69448095703125,1.5553346872329712,-7.226324558258057,2.4646072387695312
1777561117003010600,22.713010498046874,0.32303106784820557,-7.714460372924805,2.926422119140625
1777561117021540000,22.7315400390625,0.41156548261642456,-7.7455668449401855,2.287538528442383
1777561117040069400,22.7500693359375,0.8470591902732849,-8.980263710021973,-0.08853443711996078
1777561117058599000,22.768598876953124,2.2372891902923584,-9.913464546203613,-2.0554347038269043
1777561117077128400,22.78712841796875,1.612762451171875,-9.370293617248535,-0.8015955686569214
1777561117095658000,22.805657958984376,0.05024927482008934,-8.434700012207031,1.454836130142212
1777561117114187300,22.824187255859375,0.29431718587875366,-8.898907661437988,1.4428720474243164
1777561117132716800,22.842716796875,0.6101697683334351,-9.702896118164062,0.2512463629245758
1777561117151246300,22.861246337890623,0.9188438653945923,-9.638289451599121,-0.40677985548973083
1777561117169775900,22.87977587890625,0.5790630578994751,-9.042476654052734,-0.41874396800994873
1777561117188305400,22.898305419921876,0.17946170270442963,-8.755337715148926,-0.04307080805301666
1777561117206835000,22.9168349609375,0.5096712112426758,-8.973084449768066,0.5120640397071838
1777561117225364500,22.935364501953124,0.16749759018421173,-10.095318794250488,0.5694918036460876
1777561117243893800,22.953893798828126,-0.6101697683334351,-11.203195571899414,0.6460621356964111
1777561117262423300,22.97242333984375,-2.03629207611084,-12.933206558227539,0.9068797826766968
1777561117280952800,22.990952880859375,-2.8833513259887695,-15.431313514709473,-0.5240281820297241
1777561117299482400,23.009482421875,-0.849452018737793,-16.704294204711914,0.6604190468788147
1777561117318011600,23.02801171875,-0.20817556977272034,-16.88854217529297,3.0963125228881836
1777561117336541200,23.046541259765625,-0.9451649188995361,-15.158531188964844,3.1752755641937256
1777561117355070700,23.06507080078125,-1.0528420209884644,-14.507683753967285,1.2586246728897095
1777561117373600300,23.083600341796874,0.7848458290100098,-11.940184593200684,0.47617170214653015
1777561117392129800,23.1021298828125,2.1750757694244385,-10.774880409240723,0.7058826684951782
1777561117410659300,23.120659423828126,4.0319061279296875,-11.255837440490723,1.2083754539489746
1777561117429188900,23.13918896484375,5.97727108001709,-13.584053993225098,0.4953143000602722
1777561117447718100,23.15771826171875,7.989634990692139,-15.567704200744629,-0.8901300430297852
1777561117466247700,23.17624755859375,10.188638687133789,-16.268800735473633,-1.552941918373108
1777561117484777200,23.194777099609375,8.918049812316895,-16.18744468688965,-2.3736801147460938
1777561117503306800,23.213306640625,1.9812572002410889,-15.153745651245117,-0.8398807644844055
1777561117521836300,23.231836181640624,-6.786045074462891,-12.64606761932373,2.447857618331909
1777561117540365800,23.25036572265625,-10.427921295166016,-9.324830055236816,3.6155550479888916
1777561117558895000,23.26889501953125,-8.482556343078613,-5.089533805847168,7.0995049476623535
1777561117577425000,23.2874248046875,-8.769695281982422,-5.154139995574951,7.36032247543335
1777561117595954200,23.3059541015625,5.125426292419434,-8.621339797973633,4.098905086517334
1777561117614483700,23.324483642578127,11.641081809997559,-11.576476097106934,1.3232308626174927
1777561117633013200,23.34301318359375,2.4263222217559814,-9.91107177734375,-0.4737788736820221
1777561117651542800,23.361542724609375,-1.0648061037063599,-7.293323516845703,0.7561319470405579
1777561117670072300,23.380072265625,-1.526620864868164,-5.618347644805908,0.1052841991186142
1777561117688601900,23.398601806640624,-1.1988041400909424,-4.567898273468018,0.7489534616470337
1777561117707131100,23.417131103515626,1.1174482107162476,-1.734796404838562,2.823530673980713
1777561117725660700,23.43566064453125,1.3830515146255493,-0.2225325107574463,3.4169507026672363
1777561117753455000,23.463455078125,1.648654818534851,-1.7395820617675781,3.1657042503356934
1777561117771984400,23.481984375,1.97407865524292,-2.4717857837677,3.1561331748962402
1777561117790514200,23.50051416015625,2.4095723628997803,-2.60339093208313,2.895315408706665
1777561117809043500,23.51904345703125,2.455035924911499,-1.820937991142273,2.9312076568603516
1777561117827573000,23.537572998046876,2.7278177738189697,-0.8039883971214294,2.586641311645508
1777561117846102500,23.5561025390625,8.609375953674316,1.373480200767517,3.1920254230499268
1777561117864632000,23.574632080078125,22.43271255493164,-1.9956140518188477,6.434299945831299
1777561117883161600,23.59316162109375,3.2231321334838867,-12.64606761932373,5.831308841705322
1777561117901691100,23.611691162109373,12.636496543884277,-16.75933074951172,0.5958128571510315
1777561117920220400,23.630220458984375,1.2394821643829346,-15.775879859924316,8.80798053741455
1777561117938750200,23.648750244140626,7.085147857666016,-11.863615036010742,5.460421085357666
1777561117957279500,23.667279541015624,5.560919761657715,-7.343572616577148,3.0340991020202637
1777561117975809000,23.68580908203125,5.168497085571289,-4.706682205200195,5.096712112426758
1777561117994338600,23.704338623046876,3.8763725757598877,-4.804787635803223,2.847458839416504
