time,seconds_elapsed,z,y,x
1776038959374196200,-1522134.915803711,0.12339477986097336,0.3689626157283783,0.49357911944389343
1776038959384228000,-1522134.9057719726,-0.1869247704744339,0.3701843321323395,0.24434609711170197
1776038959394099000,-1522134.895901123,-0.4141666293144226,0.6682865619659424,0.6609562039375305
1776038959403969800,-1522134.8860302735,0.009773843921720982,-0.23090706765651703,-0.6475171446800232
1776038959414009900,-1522134.8759902343,-0.09529497474431992,-0.1319468915462494,-0.4190535545349121
1776038959424111400,-1522134.865888672,-0.22846360504627228,0.05742133408784866,-0.1111774742603302
1776038959434151700,-1522134.8558483887,-0.21013765037059784,0.05742133408784866,-0.11728613078594208
1776038959454293200,-1522134.8357067872,-0.17959438264369965,0.08185594528913498,-0.0659734457731247
1776038959464364000,-1522134.8256359864,-0.14049901068210602,0.0757472887635231,-0.08429940044879913
1776038959474404400,-1522134.8155957032,-0.1062905490398407,0.09162978827953339,-0.06230825558304787
1776038959484475100,-1522134.8055249024,-0.12095131725072861,0.09529497474431992,-0.08185594528913498
1776038959514595800,-1522134.7754040528,-0.09651670604944229,0.08307767659425735,-0.15515977144241333
1776038959524697300,-1522134.7653027344,-0.09651670604944229,0.08429940044879913,-0.16737708449363708
1776038959534707000,-1522134.7552929688,-0.11850785464048386,0.07696902006864548,-0.18325957655906677
1776038959554818000,-1522134.7351818848,-0.0806342139840126,0.14782938361167908,-0.0024434609804302454
1776038959564888800,-1522134.725111084,-0.11850785464048386,0.1319468915462494,-0.09040805697441101
1776038959574898700,-1522134.7151013184,-0.19914206862449646,0.07696902006864548,-0.304210901260376
1776038959584969500,-1522134.7050305177,-0.1563815027475357,0.04642575979232788,-0.44715335965156555
1776038959605111000,-1522134.684888916,0.07452555745840073,0.042760565876960754,-0.5143485069274902
1776038959615121000,-1522134.6748791505,0.5167919993400574,0.32620203495025635,0.04886921867728233
1776038959625252600,-1522134.6647473145,0.09407325088977814,0.4703662395477295,0.5632177591323853
1776038959635323400,-1522134.6546765137,-0.2431243658065796,0.35552358627319336,0.3237585723400116
1776038959645394200,-1522134.644605713,-0.08918632566928864,0.1417207419872284,-0.19547687470912933
1776038959655434500,-1522134.6345654298,0.015882495790719986,0.06230825558304787,-0.4239404797554016
1776038959665535700,-1522134.6244643554,-0.04886921867728233,0.12461651116609573,-0.34697145223617554
1776038959675576000,-1522134.6144238282,-0.024434609338641167,0.2223549485206604,-0.18570303916931152
1776038959685677600,-1522134.6043225098,0.0708603709936142,0.26145032048225403,-0.15515977144241333
1776038959695717600,-1522134.5942824706,0.1160643994808197,0.24068090319633484,-0.31642818450927734
1776038959715859500,-1522134.574140625,0.22479841113090515,0.10995574295520782,-0.7770205736160278
1776038959725930200,-1522134.5640698243,0.3543018400669098,0.08674286305904388,-0.8576548099517822
1776038959735970600,-1522134.554029541,0.5607742667198181,0.051312681287527084,-0.9553932547569275
1776038959746071800,-1522134.5439282227,0.6963863968849182,-0.07208210229873657,-1.186300277709961
1776038959756142600,-1522134.533857422,0.8063421249389648,-0.24678955972194672,-1.4196507930755615
1776038959766183000,-1522134.5238171387,0.9272934198379517,-0.39217549562454224,-1.5528194904327393
1776038959776223200,-1522134.5137768555,1.037249207496643,-0.45692721009254456,-1.5906931161880493
1776038959786294000,-1522134.5037060548,1.1643091440200806,-0.4495968222618103,-1.577254056930542
1776038959826516000,-1522134.4634841308,1.301142930984497,-0.769690215587616,-2.356718063354492
1776038959836587000,-1522134.453413086,1.301142930984497,-0.9651671051979065,-2.7598891258239746
1776038959846657800,-1522134.4433422852,1.274264931678772,-1.1301007270812988,-3.0225613117218018
1776038959866769000,-1522134.4232312012,1.1679743528366089,-1.2657127380371094,-3.1532864570617676
1776038959876809000,-1522134.413190918,1.1337659358978271,-1.2400563955307007,-3.1117475032806396
1776038959886879700,-1522134.4031203613,1.1129964590072632,-1.2009611129760742,-3.084869384765625
1776038959896950800,-1522134.3930493165,1.0897835493087769,-1.1948524713516235,-3.128851890563965
1776038959917031200,-1522134.37296875,0.9456194043159485,-1.254717230796814,-3.313333034515381
1776038959937234000,-1522134.3527661134,0.9162978529930115,-1.2205088138580322,-3.2229249477386475
1776038959947304700,-1522134.3426953126,0.8955284357070923,-1.1435397863388062,-3.0689868927001953
1776038959957345000,-1522134.3326550294,0.8930850028991699,-1.0311405658721924,-2.934596538543701
1776038959967415800,-1522134.3225842286,0.9077457785606384,-0.9236282706260681,-2.869844913482666
1776038959977456000,-1522134.3125439454,0.9126327037811279,-0.8148942589759827,-2.886949062347412
1776038959987618300,-1522134.3023815919,0.9101892113685608,-0.7159340381622314,-2.9187140464782715
1776038959997658600,-1522134.2923413087,0.911410927772522,-0.6340781450271606,-2.915048837661743
1776038960007729400,-1522134.282270508,0.9272934198379517,-0.5510004758834839,-2.883283853530884
1776038960037941800,-1522134.2520583495,1.0910053253173828,-0.26633724570274353,-3.0164525508880615
1776038960048012500,-1522134.2419875488,1.1423180103302002,-0.22602014243602753,-3.1141910552978516
1776038960058083600,-1522134.231916504,1.1997393369674683,-0.17592918872833252,-3.213151216506958
1776038960068184800,-1522134.2218151856,1.2571606636047363,-0.10262536257505417,-3.3145549297332764
1776038960078255600,-1522134.2117443848,1.2999212741851807,-0.05009094998240471,-3.397632598876953
1776038960088356900,-1522134.2016430665,1.3243558406829834,-0.09773843735456467,-3.4599406719207764
1776038960098397200,-1522134.1916027833,1.3622294664382935,-0.22357667982578278,-3.495370864868164
1776038960108468000,-1522134.1815319825,1.431868076324463,-0.36529740691185,-3.545461893081665
1776038960128640000,-1522134.1613601074,1.5809192657470703,-0.5558874011039734,-3.866776943206787
1776038960138710800,-1522134.1512893066,1.6395623683929443,-0.6401867866516113,-4.111123085021973
1776038960148812300,-1522134.1411877442,1.7238616943359375,-0.7293730974197388,-4.2699480056762695
1776038960158883000,-1522134.1311169434,1.803274154663086,-0.8442157506942749,-4.2479567527771
1776038960168953900,-1522134.1210461427,1.8399261236190796,-1.0128145217895508,-3.9461894035339355
1776038960179024600,-1522134.1109753419,1.89979088306427,-1.1826350688934326,-3.3683109283447266
1776038960189126000,-1522134.1008740235,2.012190103530884,-1.3439035415649414,-2.7061331272125244
1776038960199166200,-1522134.0908337403,2.157576084136963,-1.4624114036560059,-2.0867156982421875
1776038960209237000,-1522134.0807629395,2.311514139175415,-1.5442672967910767,-1.5515977144241333
1776038960239449300,-1522134.0505505372,2.861292839050293,-1.7556266784667969,-0.5167919993400574
1776038960259591000,-1522134.0304091796,3.3035593032836914,-1.8301522731781006,-0.32131510972976685
1776038960279732700,-1522134.010267334,3.760486364364624,-1.7373007535934448,-0.43127086758613586
1776038960289803500,-1522134.0001965333,3.9901716709136963,-1.6762142181396484,-0.5534439086914062
1776038960299843800,-1522133.99015625,4.2308526039123535,-1.615127682685852,-0.7147123217582703
1776038960340127000,-1522133.949873047,4.9736647605896,-1.23394775390625,-1.0201449394226074
1776038960350197800,-1522133.9398022462,5.079955577850342,-1.1068878173828125,-0.836885392665863
1776038960390511400,-1522133.8994885255,5.3805012702941895,-0.5448917746543884,0.3836233615875244
1776038960430733600,-1522133.8592663575,5.269323825836182,0.3225368559360504,1.0286970138549805
1776038960521340400,-1522133.768659668,3.0335566997528076,0.7134906053543091,0.6023131608963013
1776038960561562400,-1522133.728437744,1.8875735998153687,0.6817256212234497,0.08307767659425735
1776038960571664000,-1522133.7183361817,1.674992561340332,0.598647952079773,-0.13439035415649414
1776038960581734700,-1522133.708265381,1.4746286869049072,0.5314527750015259,-0.3237585723400116
1776038960601876200,-1522133.6881237794,1.1154398918151855,0.5363397002220154,-0.6633996367454529
1776038960642098400,-1522133.6479016114,0.4813618063926697,0.3225368559360504,-1.1899654865264893
1776038960652199700,-1522133.637800293,0.33475416898727417,0.2174680233001709,-1.1533136367797852
1776038960662240000,-1522133.6277600098,0.17592918872833252,0.15760323405265808,-1.0067058801651
1776038960682381600,-1522133.6076184083,-0.16982053220272064,0.13927727937698364,-0.5962044596672058
1776038960692482800,-1522133.59751709,-0.3787364661693573,0.1319468915462494,-0.38728857040405273
1776038960702553600,-1522133.5874462891,-0.5949827432632446,0.1258382350206375,-0.16493362188339233
1776038960712655000,-1522133.5773449708,-0.8161159753799438,0.12950342893600464,0.10018189996480942
1776038960722695200,-1522133.5673049316,-1.0433578491210938,0.09529497474431992,0.38240164518356323
1776038960732766200,-1522133.5572338868,-1.2620476484298706,0.00733038317412138,0.6279694437980652
1776038960742806300,-1522133.5471938476,-1.4636331796646118,-0.08552113175392151,0.8197811841964722
1776038960752877000,-1522133.5371230468,-1.644449234008789,-0.15760323405265808,0.9492846131324768
1776038960762948000,-1522133.527052002,-1.8313740491867065,-0.19303341209888458,1.0531316995620728
1776038960773049300,-1522133.5169506837,-2.0427334308624268,-0.20525072515010834,1.1435397863388062
1776038960813363000,-1522133.476636963,-2.847853660583496,-0.27488934993743896,1.0653489828109741
1776038960823433700,-1522133.4665661622,-3.0250046253204346,-0.4190535545349121,0.8710938692092896
1776038960833535200,-1522133.4564648438,-3.1777210235595703,-0.5644394755363464,0.7049384713172913
1776038960843606000,-1522133.446394043,-3.3145549297332764,-0.6352998614311218,0.6096435189247131
1776038960853676800,-1522133.4363232423,-3.478266716003418,-0.607200026512146,0.5998696684837341
1776038960863747600,-1522133.4262524415,-3.6590828895568848,-0.5571091175079346,0.6524040699005127
1776038960893929500,-1522133.3960705567,-3.992615222930908,-0.43737950921058655,0.4911356568336487
1776038960904000300,-1522133.385999756,-4.059810638427734,-0.3933972120285034,0.3017674386501312
1776038960914101500,-1522133.3758984376,-4.131892681121826,-0.32131510972976685,0.15271630883216858
1776038960924172300,-1522133.3658276368,-4.208861351013184,-0.27611109614372253,0.08918632566928864
1776038960934212600,-1522133.3557873536,-4.249178409576416,-0.2736676335334778,0.05497787147760391
1776038960944313900,-1522133.3456860352,-4.27605676651001,-0.2981022298336029,-0.009773843921720982
1776038960954384600,-1522133.3356154785,-4.290717601776123,-0.27122417092323303,-0.10751228034496307
1776038960964455400,-1522133.3255446777,-4.318817138671875,-0.19914206862449646,-0.17592918872833252
1776038960974495700,-1522133.3155041505,-4.372573375701904,-0.10873401165008545,-0.19914206862449646
1776038961004738800,-1522133.2852612305,-4.250400543212891,0.19792033731937408,-0.02321287989616394
1776038961014748400,-1522133.275251465,-4.188092231750488,0.26633724570274353,-0.00733038317412138
1776038961024850000,-1522133.2651501466,-4.105014324188232,0.33719760179519653,-0.10262536257505417
1776038961034951200,-1522133.2550488282,-4.013384819030762,0.39217549562454224,-0.2577851414680481
1776038961045022000,-1522133.2449780274,-3.9009854793548584,0.455705463886261,-0.37140607833862305
1776038961055092700,-1522133.2349072266,-3.7751471996307373,0.5351179838180542,-0.39095374941825867
1776038961065194000,-1522133.2248059083,-3.651752471923828,0.6145304441452026,-0.32131510972976685
1776038961075264800,-1522133.2147353515,-3.5308010578155518,0.6768386960029602,-0.2125810980796814
1776038961085335600,-1522133.2046645507,-3.3988542556762695,0.7232644557952881,-0.0708603709936142
1776038961095406600,-1522133.194593506,-3.2485814094543457,0.7574729323387146,0.09651670604944229
1776038961115517400,-1522133.174482666,-2.9517009258270264,0.797789990901947,0.37751471996307373
1776038961125588500,-1522133.1644116212,-2.785545587539673,0.799011766910553,0.46547931432724
1776038961135598000,-1522133.1544018555,-2.6010642051696777,0.7843509912490845,0.5290092825889587
1776038961145699300,-1522133.1443007812,-2.422691583633423,0.7611380815505981,0.5400048494338989
1776038961155770000,-1522133.1342299804,-2.2479841709136963,0.7293730974197388,0.5290092825889587
1776038961165841200,-1522133.1241589356,-2.0427334308624268,0.6927211880683899,0.5473352670669556
1776038961175881200,-1522133.1141188964,-1.8057177066802979,0.6511823534965515,0.5876523852348328
1776038961206063000,-1522133.0839370117,-1.0018190145492554,0.4789183437824249,0.7305948138237
1776038961216134000,-1522133.0738662109,-0.6963863968849182,0.41172316670417786,0.7904596328735352
1776038961226205000,-1522133.063795166,-0.3689626157283783,0.35674530267715454,0.8539896011352539
1776038961236275700,-1522133.0537243653,-0.030543262138962746,0.3188716471195221,0.8759807348251343
1776038961246346500,-1522133.0436535645,0.3029891550540924,0.2968805134296417,0.836885392665863
1776038961256417300,-1522133.0335827637,0.6218608021736145,0.30054569244384766,0.7391469478607178
1776038961266488000,-1522133.023511963,0.9395107626914978,0.2773328125476837,0.6291912198066711
1776038961276558800,-1522133.0134411622,1.2852604389190674,0.2076941877603531,0.5546656250953674
1776038961286599200,-1522133.003400879,1.655444860458374,0.13072516024112701,0.5351179838180542
1776038961306710300,-1522132.983289795,2.3994786739349365,0.02687807008624077,0.49724429845809937
1776038961326851800,-1522132.9631481934,3.17161226272583,-0.1062905490398407,0.23945917189121246
1776038961336892200,-1522132.9531079102,3.5320229530334473,-0.18570303916931152,0.09407325088977814
1776038961346932200,-1522132.943067871,3.8203511238098145,-0.27122417092323303,-0.02932153269648552
1776038961357033700,-1522132.9329663087,4.07080602645874,-0.3445279896259308,-0.05009094998240471
1776038961367104500,-1522132.922895508,4.306600093841553,-0.39095374941825867,0.05497787147760391
1776038961377205800,-1522132.9127941895,4.509407043457031,-0.4043927788734436,0.26145032048225403
1776038961387246000,-1522132.9027539063,4.64501953125,-0.3677408695220947,0.5387831330299377
1776038961417428000,-1522132.8725720216,4.714657783508301,-0.1918116807937622,1.0873401165008545
1776038961427498800,-1522132.8625012208,4.664566993713379,-0.05009094998240471,1.4685200452804565
1776038961437569500,-1522132.85243042,4.664566993713379,-0.05009094998240471,1.4685200452804565
1776038961447640300,-1522132.8423596192,4.613254547119141,0.02076941914856434,1.587027907371521
1776038961457711000,-1522132.8322888184,4.543615818023682,0.08674286305904388,1.6493362188339233
1776038961467782000,-1522132.8222180177,4.472755432128906,0.17592918872833252,1.626123309135437
1776038961477883400,-1522132.8121166993,4.404338359832764,0.27611109614372253,1.4966198205947876
1776038961487923500,-1522132.80207666,4.334699630737305,0.3543018400669098,1.2486085891723633
1776038961497994200,-1522132.7920058593,4.268726348876953,0.4153883755207062,0.8820894360542297
1776038961528206800,-1522132.761793213,4.041484355926514,0.49846604466438293,-0.7086036801338196
1776038961538247200,-1522132.7517529298,3.9351940155029297,0.49846604466438293,-1.2082914113998413
1776038961548318000,-1522132.741682129,3.8154642581939697,0.485027015209198,-1.6029103994369507
1776038961558388700,-1522132.7316113282,3.6859610080718994,0.44837507605552673,-1.8582520484924316
1776038961568459500,-1522132.7215405274,3.5576791763305664,0.40072759985923767,-1.977981686592102
1776038961578560800,-1522132.711439209,3.430619239807129,0.36163222789764404,-1.9730947017669678
1776038961588631600,-1522132.7013684083,3.3011157512664795,0.34086281061172485,-1.8753563165664673
1776038961598702300,-1522132.6912976075,3.1667253971099854,0.3323107063770294,-1.7055357694625854
1776038961608773000,-1522132.6812268067,3.0225613117218018,0.3323107063770294,-1.4685200452804565
1776038961618844000,-1522132.671156006,2.8649580478668213,0.33108896017074585,-1.1545352935791016
1776038961628914700,-1522132.6610852052,2.6951375007629395,0.3139847218990326,-0.7770205736160278
1776038961639016200,-1522132.6509838868,2.504547595977783,0.2993239760398865,-0.38728857040405273
1776038961649087000,-1522132.640913086,2.3017401695251465,0.31642818450927734,-0.045204028487205505
1776038961659157800,-1522132.6308422852,2.0928242206573486,0.3384193480014801,0.16737708449363708
1776038961669198000,-1522132.620802002,1.881464958190918,0.33475416898727417,0.21502456068992615
1776038961679268900,-1522132.6107312012,1.673770785331726,0.3176499307155609,0.13316862285137177
1776038961689309200,-1522132.600690918,1.470963478088379,0.2968805134296417,-0.030543262138962746
1776038961699380000,-1522132.5906201173,1.284038782119751,0.27000242471694946,-0.19792033731937408
1776038961709450800,-1522132.5805493165,1.1105530261993408,0.24068090319633484,-0.32009339332580566
1776038961739693600,-1522132.5503063966,0.6670648455619812,0.2382374405860901,-0.4862487316131592
1776038961749734000,-1522132.5402661134,0.5363397002220154,0.20402899384498596,-0.5619960427284241
1776038961759804700,-1522132.5301953126,0.4239404797554016,0.13805554807186127,-0.626747727394104
1776038961769845000,-1522132.5201550294,0.32986724376678467,0.06963863968849182,-0.6499606370925903
1776038961779885300,-1522132.5101147462,0.2382374405860901,0.018325956538319588,-0.6304129362106323
1776038961789956000,-1522132.5000439454,0.13805554807186127,-0.012217304669320583,-0.5803219676017761
1776038961800057300,-1522132.489942627,0.02932153269648552,-0.025656340643763542,-0.5167919993400574
1776038961810128100,-1522132.4798718262,-0.09162978827953339,-0.04153883829712868,-0.4495968222618103
1776038961820260000,-1522132.4697399903,-0.2370157092809677,-0.05375614017248154,-0.36163222789764404
1776038961830300200,-1522132.459699951,-0.3897320330142975,-0.03787364438176155,-0.22968533635139465
1776038961860482000,-1522132.4295180663,-0.8808676600456238,0.05375614017248154,0.2565633952617645
1776038961870552800,-1522132.4194472656,-1.0543533563613892,0.09285151958465576,0.2773328125476837
1776038961880623900,-1522132.4093762208,-1.2278391122817993,0.14294247329235077,0.2125810980796814
1776038961890664000,-1522132.3993361816,-1.4086552858352661,0.18936823308467865,0.045204028487205505
1776038961900734700,-1522132.3892653808,-1.6029103994369507,0.21013765037059784,-0.2785545587539673
1776038961910805800,-1522132.379194336,-1.8118263483047485,0.19058994948863983,-0.7379252314567566
1776038961920876500,-1522132.3691235352,-2.026850938796997,0.16859880089759827,-1.1887437105178833
1776038961941018000,-1522132.3489819337,-2.4410176277160645,0.16004669666290283,-1.4062118530273438
1776038961951089000,-1522132.338911133,-2.6401596069335938,0.1966986060142517,-1.1276572942733765
1776038961961159700,-1522132.328840332,-2.867401361465454,0.2223549485206604,-0.7623597979545593
1776038961971230500,-1522132.3187695313,-3.1202995777130127,0.2431243658065796,-0.42149701714515686
1776038961981270800,-1522132.3087292481,-3.363424062728882,0.3029891550540924,-0.1319468915462494
1776038961991311000,-1522132.298688965,-3.5747833251953125,0.39095374941825867,0.12828169763088226
1776038962001382000,-1522132.2886181641,-3.7555994987487793,0.48380526900291443,0.37140607833862305
1776038962011452700,-1522132.2785473634,-3.9095375537872314,0.5619960427284241,0.5766568183898926
1776038962021554000,-1522132.268446045,-4.053701877593994,0.6035348773002625,0.6597344875335693
1776038962031594200,-1522132.2584057618,-4.179540157318115,0.5974262356758118,0.5839871764183044
1776038962051735800,-1522132.2382641602,-4.310265064239502,0.5852088928222656,0.3127630054950714
1776038962061837000,-1522132.2281628419,-4.326147556304932,0.5913175344467163,0.35063666105270386
1776038962071877400,-1522132.2181225587,-4.306600093841553,0.5864306092262268,0.5155702829360962
1776038962081948200,-1522132.208051758,-4.26017427444458,0.5668829679489136,0.7024950385093689
1776038962092019000,-1522132.197980957,-4.219857215881348,0.5290092825889587,0.8014551997184753
1776038962102120400,-1522132.1878796387,-4.186870574951172,0.46670106053352356,0.7757988572120667
1776038962112160500,-1522132.1778395995,-4.135557651519775,0.37140607833862305,0.6682865619659424
1776038962122231300,-1522132.1677687988,-4.062253952026367,0.2577851414680481,0.5497786998748779
1776038962132302300,-1522132.157697754,-3.97306752204895,0.1563815027475357,0.47280970215797424
1776038962152504800,-1522132.1374951173,-3.7922513484954834,-0.010995574295520782,0.36163222789764404
1776038962162606000,-1522132.127393799,-3.7055084705352783,-0.059864792972803116,0.31154128909111023
1776038962172646400,-1522132.1173535157,-3.612657070159912,-0.08307767659425735,0.2638937830924988
1776038962182717200,-1522132.107282715,-3.5100317001342773,-0.09407325088977814,0.1966986060142517
1776038962192788000,-1522132.0972119141,-3.406184673309326,-0.09162978827953339,0.09651670604944229
1776038962202889500,-1522132.0871105958,-3.3035593032836914,-0.0806342139840126,-0.01710422709584236
1776038962212899000,-1522132.0771008302,-3.1972687244415283,-0.07696902006864548,-0.11362093687057495
1776038962223000600,-1522132.0669995118,-3.082426071166992,-0.05253441259264946,-0.16004669666290283
1776038962233040600,-1522132.0569594726,-2.9602530002593994,-0.012217304669320583,-0.14782938361167908
1776038962263253200,-1522132.0267468262,-2.4752259254455566,0.2028072625398636,0.03787364438176155
1776038962273324000,-1522132.0166760255,-2.2870795726776123,0.304210901260376,0.09896016865968704
1776038962283394800,-1522132.0066052247,-2.1111502647399902,0.4043927788734436,0.18936823308467865
1776038962293435100,-1522131.9965649415,-1.9511035680770874,0.44837507605552673,0.3494149148464203
1776038962303536400,-1522131.9864636231,-1.7715091705322266,0.45326200127601624,0.5681046843528748
1776038962313576700,-1522131.97642334,-1.5601497888565063,0.42271876335144043,0.8026769161224365
1776038962323617000,-1522131.9663830567,-1.3390166759490967,0.39095374941825867,1.047023057937622
1776038962333687800,-1522131.956312256,-1.1508700847625732,0.38606682419776917,1.2290608882904053
1776038962343758600,-1522131.9462414552,-0.9810495972633362,0.40194934606552124,1.2718214988708496
1776038962363930600,-1522131.926069336,-0.513126790523529,0.44593164324760437,0.9932668805122375
1776038962373909800,-1522131.916090332,-0.2834414839744568,0.455705463886261,0.7122688889503479
1776038962383980800,-1522131.9060192872,-0.036651913076639175,0.44104471802711487,0.4288274049758911
1776038962394051600,-1522131.8959484864,0.2528982162475586,0.40683624148368835,0.13072516024112701
1776038962404122400,-1522131.8858776856,0.5510004758834839,0.3579670190811157,-0.19058994948863983
1776038962414132000,-1522131.87586792,0.8527678847312927,0.3139847218990326,-0.49724429845809937
1776038962424233500,-1522131.8657666016,1.1630873680114746,0.2834414839744568,-0.7562511563301086
1776038962434273500,-1522131.8557265624,1.4575244188308716,0.26145032048225403,-0.950506329536438
1776038962444375000,-1522131.845625,1.7104226350784302,0.2431243658065796,-1.076344609260559
1776038962484597200,-1522131.805402832,2.9626965522766113,-0.07696902006864548,-0.375071257352829
1776038962494576400,-1522131.795423584,3.2595770359039307,-0.14416420459747314,-0.19792033731937408
1776038962504677600,-1522131.7853222657,3.495370864868164,-0.17348572611808777,-0.14416420459747314
1776038962514748400,-1522131.775251465,3.710395574569702,-0.19792033731937408,-0.1062905490398407
1776038962524819200,-1522131.7651809081,3.9046506881713867,-0.23945917189121246,-0.06475171446800232
1776038962534859500,-1522131.755140381,4.078136444091797,-0.2822197377681732,0.009773843921720982
1776038962555031800,-1522131.7349682618,4.3090434074401855,-0.3017674386501312,0.31154128909111023
1776038962575173400,-1522131.7148266602,4.423886299133301,-0.23579397797584534,0.5424483418464661
1776038962595345400,-1522131.694654541,4.44343376159668,-0.2028072625398636,0.6609562039375305
1776038962605416200,-1522131.6845837403,4.410447120666504,-0.1820378452539444,0.7024950385093689
1776038962615456500,-1522131.674543457,4.349360466003418,-0.1563815027475357,0.7293730974197388
1776038962625557800,-1522131.6644421387,4.27605676651001,-0.1270599663257599,0.7244861721992493
1776038962635598000,-1522131.6544018555,4.1917572021484375,-0.09407325088977814,0.6768386960029602
1776038962645668900,-1522131.6443310548,4.1025710105896,-0.059864792972803116,0.5998696684837341
1776038962665780000,-1522131.6242199708,3.882659435272217,0.0012217304902151227,0.39217549562454224
1776038962675820300,-1522131.6141796876,3.7470474243164062,0.021991148591041565,0.2675589919090271
1776038962685891000,-1522131.6041088868,3.601661443710327,0.039095375686883926,0.13072516024112701
1776038962695931400,-1522131.5940686036,3.447723388671875,0.05864306539297104,0.0012217304902151227
1776038962706032600,-1522131.5839672852,3.277902841567993,0.06963863968849182,-0.11850785464048386
1776038962716073000,-1522131.573927002,3.0946433544158936,0.059864792972803116,-0.21502456068992615
1776038962726174200,-1522131.5638256837,2.9016098976135254,0.03420845419168472,-0.3029891550540924
1776038962736184000,-1522131.553815918,2.7061331272125244,0.006108652334660292,-0.38240164518356323
1776038962746285300,-1522131.5437145997,2.5118777751922607,-0.018325956538319588,-0.455705463886261
1776038962776467200,-1522131.513532715,1.949881911277771,-0.02932153269648552,-0.7538077235221863
1776038962786538000,-1522131.5034619141,1.7849482297897339,-0.03176499158143997,-0.8955284357070923
1776038962796608800,-1522131.4933911134,1.63467538356781,-0.04886921867728233,-1.0629055500030518
1776038962806710300,-1522131.483289795,1.490511178970337,-0.08552113175392151,-1.243721604347229
1776038962816750300,-1522131.4732497558,1.3439035415649414,-0.1319468915462494,-1.4294246435165405
1776038962826790700,-1522131.4632092286,1.214400053024292,-0.15271630883216858,-1.6004669666290283
1776038962836831000,-1522131.4531689454,1.1068878173828125,-0.15882496535778046,-1.7617353200912476
1776038962846901800,-1522131.4430981446,1.0067058801651,-0.18448130786418915,-1.890017032623291
1776038962856942000,-1522131.4330578614,0.9150761365890503,-0.2064724564552307,-1.9315558671951294
1776038962877114000,-1522131.4128859863,0.7476990818977356,-0.22846360504627228,-1.6920967102050781
1776038962887215600,-1522131.402784424,0.6731734871864319,-0.2028072625398636,-1.4624114036560059
1776038962897256000,-1522131.3927441407,0.6023131608963013,-0.16859880089759827,-1.2107349634170532
1776038962907357200,-1522131.3826428223,0.5375614166259766,-0.14905111491680145,-0.9615018963813782
1776038962917428000,-1522131.3725720216,0.48380526900291443,-0.1368338167667389,-0.7183775305747986
1776038962927498800,-1522131.3625012208,0.48380526900291443,-0.1368338167667389,-0.7183775305747986
1776038962937569500,-1522131.35243042,0.40072759985923767,-0.06108652427792549,-0.2919935882091522
1776038962947640300,-1522131.3423596192,0.40072759985923767,-0.06108652427792549,-0.2919935882091522
1776038962977883400,-1522131.3121166993,0.27611109614372253,-0.02321287989616394,0.13561208546161652
1776038962998055400,-1522131.2919445802,0.13561208546161652,0.030543262138962746,0.24068090319633484
1776038963008156700,-1522131.2818432618,0.02932153269648552,0.06719517707824707,0.1612684279680252
1776038963018227500,-1522131.271772461,-0.08918632566928864,0.08918632566928864,0.04642575979232788
1776038963028328700,-1522131.2616713867,-0.21624629199504852,0.09040805697441101,-0.018325956538319588
1776038963038399700,-1522131.2516003419,-0.5229006409645081,0.1160643994808197,0.06108652427792549
1776038963048470500,-1522131.241529541,-0.5229006409645081,0.1160643994808197,0.06108652427792549
1776038963078683000,-1522131.2113171387,-1.0286970138549805,0.36651915311813354,0.23335053026676178
1776038963088723200,-1522131.2012768555,-1.186300277709961,0.4105014503002167,0.28466320037841797
1776038963098763500,-1522131.1912365723,-1.3329079151153564,0.41661009192466736,0.31154128909111023
1776038963108834300,-1522131.1811657716,-1.4636331796646118,0.39584067463874817,0.2993239760398865
1776038963118905000,-1522131.1710949708,-1.595579981803894,0.3591887652873993,0.23090706765651703
1776038963129006300,-1522131.1609936524,-1.7177530527114868,0.32009339332580566,0.09651670604944229
1776038963139046700,-1522131.1509533692,-1.8301522731781006,0.2626720666885376,-0.08429940044879913
1776038963149117400,-1522131.1408825684,-1.9535470008850098,0.1918116807937622,-0.2590068578720093
1776038963159188200,-1522131.1308117677,-2.101376533508301,0.1612684279680252,-0.3689626157283783
1776038963209420000,-1522131.080580078,-2.9663615226745605,0.685390830039978,0.2687807083129883
1776038963219460400,-1522131.0705395509,-3.1056389808654785,0.7232644557952881,0.5277875661849976
1776038963229561900,-1522131.0604382325,-3.2143728733062744,0.7257078886032104,0.789237916469574
1776038963239632600,-1522131.0503674317,-3.319441795349121,0.7171558141708374,0.9908234477043152
1776038963249703400,-1522131.040296631,-3.4269540309906006,0.7220427393913269,1.1215485334396362
1776038963259743700,-1522131.0302563477,-3.517362117767334,0.7476990818977356,1.1740829944610596
1776038963269814500,-1522131.020185547,-3.590665817260742,0.7623597979545593,1.1496484279632568
1776038963299996400,-1522130.9900036622,-3.6615262031555176,0.6157521605491638,0.8527678847312927
1776038963310036500,-1522130.979963623,-3.6554176807403564,0.5448917746543884,0.7147123217582703
1776038963320107500,-1522130.9698925782,-3.6480872631073,0.5009095072746277,0.5363397002220154
1776038963330178300,-1522130.9598217774,-3.637091636657715,0.4715879559516907,0.3188716471195221
1776038963340218400,-1522130.9497817382,-3.621209144592285,0.4508185386657715,0.05742133408784866
1776038963350319900,-1522130.9396801759,-3.601661443710327,0.44226643443107605,-0.23579397797584534
1776038963360360200,-1522130.9296398927,-3.5747833251953125,0.44837507605552673,-0.5082398653030396
1776038963370461400,-1522130.9195385743,-3.5308010578155518,0.46303585171699524,-0.7000515460968018
1776038963410683600,-1522130.8793164063,-3.235142230987549,0.6218608021736145,-0.5119050741195679
1776038963430794800,-1522130.8592053223,-3.032335042953491,0.6621779203414917,-0.23335053026676178
1776038963440834800,-1522130.8491652831,-2.92848801612854,0.6597344875335693,-0.10384709388017654
1776038963450905900,-1522130.8390942384,-2.8014280796051025,0.6548475623130798,0.030543262138962746
1776038963460976600,-1522130.8290234376,-2.671924591064453,0.6585127115249634,0.1417207419872284
1776038963471047400,-1522130.8189526368,-2.539977788925171,0.66584312915802,0.2174680233001709
1776038963481118200,-1522130.808881836,-2.39214825630188,0.6597344875335693,0.2382374405860901
1776038963511300000,-1522130.7786999512,-1.89979088306427,0.5363397002220154,0.3188716471195221
1776038963521371000,-1522130.7686291505,-1.7189748287200928,0.48747047781944275,0.3982841372489929
1776038963531441700,-1522130.7585583497,-1.5540411472320557,0.43615779280662537,0.42760565876960754
1776038963541512400,-1522130.748487549,-1.4049900770187378,0.40072759985923767,0.3494149148464203
1776038963551613700,-1522130.7383862305,-1.2510520219802856,0.375071257352829,0.1869247704744339
1776038963561684500,-1522130.7283154298,-1.0543533563613892,0.3286454975605011,0.013439035043120384
1776038963571755300,-1522130.718244629,-0.8246681094169617,0.2590068578720093,-0.12217304855585098
1776038963581826000,-1522130.7081740722,-0.5852088928222656,0.18814650177955627,-0.2064724564552307
1776038963601937200,-1522130.6880627442,-0.08429940044879913,0.06719517707824707,-0.26145032048225403
1776038963622078700,-1522130.6679213867,0.4447098970413208,-0.08796459436416626,-0.27488934993743896
1776038963632149500,-1522130.6578505859,0.7183775305747986,-0.19914206862449646,-0.26633724570274353
1776038963642189800,-1522130.6478100587,0.9944885969161987,-0.3139847218990326,-0.2590068578720093
1776038963652260600,-1522130.637739502,1.2559388875961304,-0.3982841372489929,-0.29077184200286865
1776038963662331400,-1522130.627668701,1.4819591045379639,-0.4801400899887085,-0.3530801236629486
1776038963672402400,-1522130.6175976563,1.7311921119689941,-0.598647952079773,-0.3628539443016052
1776038963682473200,-1522130.6075268555,2.0891592502593994,-0.7342600226402283,-0.29565876722335815
1776038963702614800,-1522130.587385254,2.7391197681427,-0.988379955291748,-0.3237585723400116
1776038963722756400,-1522130.5672436524,3.3072245121002197,-1.1032226085662842,-0.35552358627319336
1776038963732827100,-1522130.5571728516,3.536909818649292,-1.1166616678237915,-0.31520646810531616
1776038963742928400,-1522130.5470715333,3.7201693058013916,-1.1044443845748901,-0.20525072515010834
1776038963752999200,-1522130.5370007325,3.8741073608398438,-1.0592403411865234,-0.05619960278272629
1776038963763039500,-1522130.5269604493,3.999945640563965,-0.9920451641082764,0.1014036312699318
1776038963773110300,-1522130.5168896485,4.101349353790283,-0.901637077331543,0.2736676335334778
1776038963783211500,-1522130.5067885742,4.177096366882324,-0.8014551997184753,0.47280970215797424
1776038963793313000,-1522130.4966870118,4.227187633514404,-0.7000515460968018,0.7220427393913269
1776038963803383800,-1522130.486616211,4.249178409576416,-0.5974262356758118,1.0213667154312134
1776038963823525400,-1522130.4664746094,4.23207426071167,-0.384845107793808,1.6603317260742188
1776038963833596200,-1522130.4564038087,4.202753067016602,-0.2883284091949463,1.9071213006973267
1776038963843636500,-1522130.4463635255,4.1526618003845215,-0.2076941877603531,2.0415115356445312
1776038963853737700,-1522130.436262207,4.084245204925537,-0.13072516024112701,2.065946340560913
1776038963863839000,-1522130.4261611328,4.0072760581970215,-0.042760565876960754,1.9987510442733765
1776038963873940500,-1522130.4160595704,3.916867971420288,0.045204028487205505,1.8668042421340942
1776038963883980800,-1522130.4060192872,3.808133840560913,0.1258382350206375,1.6969836950302124
1776038963893990400,-1522130.3960095216,3.687182664871216,0.2028072625398636,1.4941763877868652
1776038963924233500,-1522130.3657666016,3.2766811847686768,0.3591887652873993,0.6340781450271606
1776038963944405500,-1522130.3455944825,2.972470283508301,0.39706242084503174,0.004886921960860491
1776038963954476300,-1522130.3355236817,2.811201810836792,0.375071257352829,-0.21991148591041565
1776038963964516600,-1522130.3254833985,2.637716054916382,0.3591887652873993,-0.35063666105270386
1776038963974557000,-1522130.3154431153,2.4642302989959717,0.35185837745666504,-0.41661009192466736
1776038963984627700,-1522130.3053723145,2.298074960708618,0.35552358627319336,-0.44104471802711487
1776038963994729000,-1522130.2952709962,2.1368067264556885,0.3799581825733185,-0.44837507605552673
1776038964024941300,-1522130.2650585938,1.7336355447769165,0.45692721009254456,-0.4434881806373596
1776038964045083000,-1522130.2449172363,1.5039502382278442,0.4080579876899719,-0.4715879559516907
1776038964055153700,-1522130.2348464355,1.3927727937698364,0.3579670190811157,-0.475253164768219
1776038964065255200,-1522130.2247448731,1.2779301404953003,0.32009339332580566,-0.46670106053352356
1776038964075356400,-1522130.2146435548,1.1520918607711792,0.29565876722335815,-0.45326200127601624
1776038964085396700,-1522130.2046032716,1.016479730606079,0.27488934993743896,-0.4605923891067505
1776038964095437000,-1522130.1945629884,0.8955284357070923,0.26145032048225403,-0.485027015209198
1776038964105507800,-1522130.1844921876,0.789237916469574,0.22113321721553802,-0.5277875661849976
1776038964125588500,-1522130.1644116212,0.6120869517326355,0.0659734457731247,-0.5302310585975647
1776038964145699300,-1522130.1443007812,0.44837507605552673,0.021991148591041565,-0.3995058834552765
1776038964165841200,-1522130.1241589356,0.2590068578720093,-0.021991148591041565,-0.3481931984424591
1776038964185952000,-1522130.1040480956,0.07330382615327835,-0.10384709388017654,-0.2223549485206604
1776038964196023000,-1522130.0939770509,-0.00855211354792118,-0.11728613078594208,-0.12339477986097336
1776038964206093800,-1522130.08390625,-0.09896016865968704,-0.14416420459747314,-0.01710422709584236
1776038964236245000,-1522130.053755127,-0.46547931432724,0.0012217304902151227,0.44593164324760437
1776038964246285300,-1522130.0437145997,-0.5852088928222656,0.036651913076639175,0.5925393104553223
1776038964266427000,-1522130.0235729981,-0.8784242272377014,-0.10262536257505417,0.7476990818977356
1776038964276528400,-1522130.0134716798,-1.0494664907455444,-0.2076941877603531,0.7855727076530457
1776038964286599200,-1522130.003400879,-1.2327260971069336,-0.3029891550540924,0.8063421249389648
1776038964296670000,-1522129.9933300782,-1.4294246435165405,-0.3885102868080139,0.7916813492774963
1776038964316750300,-1522129.9732497558,-1.9083430767059326,-0.4960225820541382,0.6023131608963013
1776038964346932200,-1522129.943067871,-2.8038713932037354,-0.26145032048225403,0.37140607833862305
1776038964357033700,-1522129.9329663087,-3.050661087036133,-0.16737708449363708,0.42271876335144043
1776038964377175300,-1522129.912824707,-3.4049627780914307,-0.15027284622192383,0.40072759985923767
1776038964387215600,-1522129.902784424,-3.5442402362823486,-0.19425514340400696,0.28099802136421204
1776038964397256000,-1522129.8927441407,-3.673743486404419,-0.2272418737411499,0.1270599663257599
1776038964407326700,-1522129.88267334,-3.7959165573120117,-0.25045475363731384,-0.00855211354792118
1776038964417397500,-1522129.8726025391,-3.894876718521118,-0.2626720666885376,-0.10018189996480942
1776038964427468300,-1522129.8625317384,-3.964515447616577,-0.2785545587539673,-0.1820378452539444
1776038964447579400,-1522129.8424206544,-4.0378193855285645,-0.3933972120285034,-0.4862487316131592
1776038964467721000,-1522129.8222790528,-4.0463714599609375,-0.44593164324760437,-0.7232644557952881
1776038964477791700,-1522129.812208252,-4.034153938293457,-0.46547931432724,-0.9480628371238708
1776038964487832000,-1522129.8021679688,-3.999945640563965,-0.44226643443107605,-1.0995573997497559
1776038964497902800,-1522129.792097168,-3.9461894035339355,-0.3799581825733185,-1.1459832191467285
1776038964507943200,-1522129.7820568848,-3.8838813304901123,-0.29565876722335815,-1.1068878173828125
1776038964518014000,-1522129.771986084,-3.827681541442871,-0.20891591906547546,-1.0286970138549805
1776038964528084700,-1522129.7619152833,-3.7727036476135254,-0.1270599663257599,-0.9419541954994202
1776038964558297000,-1522129.731702881,-3.5576791763305664,0.024434609338641167,-0.7916813492774963
1776038964568367900,-1522129.7216320802,-3.506366491317749,0.06719517707824707,-0.8038986921310425
1776038964578438700,-1522129.7115612794,-3.447723388671875,0.11362093687057495,-0.8124507665634155
1776038964588509400,-1522129.7014904786,-3.358537197113037,0.1612684279680252,-0.8014551997184753
1776038964598610700,-1522129.6913894042,-3.2424726486206055,0.20036379992961884,-0.7623597979545593
1776038964608681700,-1522129.6813183594,-3.1202995777130127,0.2321287989616394,-0.7134906053543091
1776038964618783000,-1522129.671217041,-2.995683193206787,0.26511552929878235,-0.6621779203414917
1776038964628853800,-1522129.6611462403,-2.8600711822509766,0.30054569244384766,-0.5778785347938538
1776038964638924500,-1522129.6510754395,-2.704911231994629,0.33108896017074585,-0.43249258399009705
1776038964659096600,-1522129.6309033204,-2.3469443321228027,0.3738495409488678,-0.030543262138962746
1776038964669137000,-1522129.6208630372,-2.1282544136047363,0.38117989897727966,0.16982053220272064
1776038964679177200,-1522129.610822754,-1.8851301670074463,0.384845107793808,0.33108896017074585
1776038964689248000,-1522129.6007519532,-1.6285667419433594,0.384845107793808,0.4251621961593628
1776038964699288300,-1522129.59071167,-1.3524556159973145,0.3897320330142975,0.47280970215797424
1776038964709359000,-1522129.5806408692,-1.0531316995620728,0.3995058834552765,0.48747047781944275
1776038964719460400,-1522129.5705395509,-0.7318165898323059,0.41172316670417786,0.48258355259895325
1776038964729531100,-1522129.56046875,-0.38728857040405273,0.4141666293144226,0.455705463886261
1776038964759804700,-1522129.5301953126,0.7147123217582703,0.3090978264808655,0.3029891550540924
1776038964779946200,-1522129.510053711,1.4868459701538086,0.2382374405860901,0.21135938167572021
1776038964790017000,-1522129.4999829102,1.8973474502563477,0.18570303916931152,0.23090706765651703
1776038964800087800,-1522129.4899121094,2.309070587158203,0.1014036312699318,0.34574973583221436
1776038964810158600,-1522129.4798413087,2.7232372760772705,0.06230825558304787,0.5375614166259766
1776038964820260000,-1522129.4697399903,3.1447343826293945,0.07208210229873657,0.7525860071182251
1776038964830300200,-1522129.459699951,3.573561668395996,0.09285151958465576,0.8845328688621521
1776038964840371000,-1522129.4496291503,4.012163162231445,0.07208210229873657,0.9456194043159485
1776038964880654300,-1522129.4093457032,5.32063627243042,-0.012217304669320583,0.5595525503158569
1776038964890694700,-1522129.39930542,5.519778251647949,0.0403171069920063,0.48258355259895325
1776038964900765400,-1522129.3892346192,5.617516994476318,0.09407325088977814,0.455705463886261
1776038964910836200,-1522129.3791638184,5.64561653137207,0.14416420459747314,0.5094616413116455
1776038964920876500,-1522129.3691235352,5.627290725708008,0.20402899384498596,0.6340781450271606
1776038964930947300,-1522129.3590527344,5.540547847747803,0.2736676335334778,0.7672467231750488
1776038964941018000,-1522129.3489819337,5.382944583892822,0.36163222789764404,0.8710938692092896
1776038964951089000,-1522129.338911133,5.16914176940918,0.43249258399009705,0.9089674949645996
1776038964981331700,-1522129.308668213,4.28216552734375,0.4593706727027893,1.1288789510726929
1776038964991402500,-1522129.2985974122,3.933972120285034,0.42760565876960754,1.2205088138580322
1776038965001504000,-1522129.2884960938,3.589444160461426,0.39706242084503174,1.2424999475479126
1776038965011544000,-1522129.2784560546,3.263242244720459,0.3689626157283783,1.1643091440200806
1776038965021645600,-1522129.2683544923,2.9468140602111816,0.34574973583221436,0.9566149711608887
1776038965031716400,-1522129.2582836915,2.643824815750122,0.3237585723400116,0.6475171446800232
1776038965041787100,-1522129.2482128907,2.3432791233062744,0.2773328125476837,0.3066543638706207
1776038965051796700,-1522129.238203369,2.059837579727173,0.2382374405860901,-0.0354301854968071
1776038965061898200,-1522129.2281018067,1.8179349899291992,0.20891591906547546,-0.3543018400669098
1776038965092080000,-1522129.197919922,1.244943380355835,0.10873401165008545,-1.224173903465271
1776038965102151000,-1522129.1878491212,1.0983357429504395,0.08552113175392151,-1.4770721197128296
1776038965112221700,-1522129.1777783204,0.9724974632263184,0.06352998316287994,-1.6957619190216064
1776038965122323000,-1522129.167677002,0.8600982427597046,0.045204028487205505,-1.881464958190918
1776038965132332800,-1522129.1576672364,0.7513642311096191,0.0354301854968071,-2.026850938796997
1776038965142434000,-1522129.147565918,0.6572909951210022,0.0403171069920063,-2.1148154735565186
1776038965152444000,-1522129.1375561524,0.5949827432632446,0.06230825558304787,-2.1453588008880615
1776038965162545200,-1522129.127454834,0.5510004758834839,0.09285151958465576,-2.124589204788208
1776038965182686700,-1522129.1073132325,0.4593706727027893,0.10262536257505417,-1.930334210395813
1776038965192757500,-1522129.0972424317,0.4043927788734436,0.11362093687057495,-1.742187738418579
1776038965202858800,-1522129.0871413574,0.3591887652873993,0.13805554807186127,-1.4819591045379639
1776038965212899000,-1522129.0771008302,0.3323107063770294,0.1612684279680252,-1.1850786209106445
1776038965222939400,-1522129.067060547,0.31154128909111023,0.16004669666290283,-0.8894197940826416
1776038965232979700,-1522129.0570202637,0.304210901260376,0.14538592100143433,-0.6194173693656921
1776038965243050500,-1522129.046949463,0.3066543638706207,0.13561208546161652,-0.39217549562454224
1776038965253121300,-1522129.0368786622,0.31031954288482666,0.14782938361167908,-0.2028072625398636
1776038965263192000,-1522129.0268078614,0.31154128909111023,0.17592918872833252,-0.05619960278272629
1776038965293313000,-1522128.9966870118,0.2724458873271942,0.1771509200334549,0.1869247704744339
1776038965303383800,-1522128.986616211,0.23335053026676178,0.1417207419872284,0.26145032048225403
1776038965333535200,-1522128.9564648438,-0.012217304669320583,0.08918632566928864,0.4715879559516907
1776038965343606000,-1522128.946394043,-0.15515977144241333,0.1258382350206375,0.5094616413116455
1776038965353676800,-1522128.9363232423,-0.29077184200286865,0.15027284622192383,0.5461135506629944
1776038965363747600,-1522128.9262524415,-0.4190535545349121,0.14905111491680145,0.5571091175079346
1776038965373788000,-1522128.9162121583,-0.5705481171607971,0.15515977144241333,0.5375614166259766
1776038965393960000,-1522128.8960400391,-0.9382890462875366,0.20891591906547546,0.42760565876960754
1776038965404030700,-1522128.8859692384,-1.1068878173828125,0.26633724570274353,0.4105014503002167
1776038965414040600,-1522128.8759594727,-1.263269305229187,0.32498031854629517,0.4349360466003418
1776038965424111400,-1522128.865888672,-1.4037683010101318,0.3579670190811157,0.485027015209198
1776038965434151700,-1522128.8558483887,-1.5247195959091187,0.3628539443016052,0.5302310585975647
1776038965444253000,-1522128.8457470704,-1.6224581003189087,0.3494149148464203,0.5619960427284241
1776038965454293200,-1522128.8357067872,-1.7018705606460571,0.31642818450927734,0.5827654600143433
1776038965464394500,-1522128.8256054688,-1.7654005289077759,0.2590068578720093,0.6108652353286743
1776038965474434800,-1522128.8155651856,-1.8277088403701782,0.18325957655906677,0.6524040699005127
1776038965514626600,-1522128.7753735352,-2.2736403942108154,-0.4349360466003418,0.394618958234787
1776038965524727800,-1522128.7652722169,-2.476447820663452,-0.4996877610683441,0.20525072515010834
1776038965534768000,-1522128.7552319337,-2.7097983360290527,-0.4642575979232788,0.030543262138962746
1776038965544808400,-1522128.7451916505,-2.9517009258270264,-0.3738495409488678,-0.10384709388017654
1776038965554879200,-1522128.7351208497,-3.1728341579437256,-0.2919935882091522,-0.16859880089759827
1776038965564980500,-1522128.7250195313,-3.3512067794799805,-0.2382374405860901,-0.13927727937698364
1776038965575020800,-1522128.7149792481,-3.497814416885376,-0.1966986060142517,-0.04764748737215996
1776038965605263600,-1522128.6847363282,-3.7287213802337646,-0.10873401165008545,0.2223549485206604
1776038965615304000,-1522128.674696045,-3.7665951251983643,-0.09285151958465576,0.2541199326515198
1776038965655556600,-1522128.6344433594,-3.7360517978668213,-0.29565876722335815,0.42638394236564636
1776038965665657900,-1522128.624342041,-3.684739112854004,-0.3787364661693573,0.39217549562454224
1776038965675728600,-1522128.6142712403,-3.6187658309936523,-0.45326200127601624,0.28955012559890747
1776038965685799400,-1522128.6042006835,-3.539353132247925,-0.50335294008255,0.14538592100143433
1776038965705880000,-1522128.5841198731,-3.341432809829712,-0.5216789245605469,-0.13316862285137177
1776038965715950800,-1522128.5740490723,-3.224146842956543,-0.5021312236785889,-0.23579397797584534
1776038965726052000,-1522128.563947998,-3.0995302200317383,-0.48258355259895325,-0.31642818450927734
1776038965736123100,-1522128.5538769532,-2.9883527755737305,-0.46670106053352356,-0.40194934606552124
1776038965746194000,-1522128.5438061524,-2.9040534496307373,-0.4398229718208313,-0.4899139404296875
1776038965756234000,-1522128.5337661132,-2.83074951171875,-0.39706242084503174,-0.5546656250953674
1776038965766305000,-1522128.5236950684,-2.718350410461426,-0.3481931984424591,-0.5473352670669556
1776038965776345000,-1522128.5136550292,-2.5717427730560303,-0.3090978264808655,-0.5021312236785889
1776038965786415900,-1522128.5035842285,-2.4214699268341064,-0.2773328125476837,-0.46181413531303406
1776038965806527000,-1522128.4834731445,-2.105041742324829,-0.22479841113090515,-0.4300491213798523
1776038965826607600,-1522128.463392334,-1.7544050216674805,-0.1417207419872284,-0.24678955972194672
1776038965836678400,-1522128.4533215333,-1.5564846992492676,-0.08674286305904388,-0.0708603709936142
1776038965846749200,-1522128.4432507325,-1.3475687503814697,-0.04398229718208313,0.10262536257505417
1776038965856789500,-1522128.4332104493,-1.1252137422561646,-0.012217304669320583,0.24434609711170197
1776038965866890800,-1522128.423109131,-0.8869763612747192,0.00733038317412138,0.3323107063770294
1776038965876961500,-1522128.4130385742,-0.6401867866516113,0.02321287989616394,0.37262779474258423
1776038965887063000,-1522128.4029370118,-0.3799581825733185,0.0354301854968071,0.375071257352829
1776038965897103400,-1522128.3928967286,-0.10506882518529892,0.04642575979232788,0.3604104816913605
1776038965917245000,-1522128.372755127,0.4960225820541382,0.04398229718208313,0.33108896017074585
1776038965937386500,-1522128.3526135255,1.1410962343215942,0.05742133408784866,0.2370157092809677
1776038965947457300,-1522128.3425427247,1.4648548364639282,0.08674286305904388,0.1869247704744339
1776038965957528000,-1522128.332471924,1.7910568714141846,0.10506882518529892,0.19425514340400696
1776038965967568400,-1522128.3224316407,1.7910568714141846,0.10506882518529892,0.19425514340400696
1776038965977639200,-1522128.31236084,2.13314151763916,0.09896016865968704,0.2834414839744568
1776038965987710000,-1522128.3022900391,2.4837779998779297,0.1014036312699318,0.3933972120285034
1776038965997780700,-1522128.2922192384,2.802649736404419,0.1111774742603302,0.46181413531303406
1776038966017922300,-1522128.2720776368,3.3878586292266846,0.05864306539297104,0.5436700582504272
1776038966038063900,-1522128.2519360352,3.869220495223999,0.06352998316287994,0.2675589919090271
1776038966058205400,-1522128.2317946777,4.675562381744385,0.08307767659425735,-0.39095374941825867
1776038966068307000,-1522128.2216931153,4.675562381744385,0.08307767659425735,-0.39095374941825867
1776038966078377700,-1522128.2116223145,4.841717720031738,0.08918632566928864,-0.49846604466438293
1776038966088448500,-1522128.2015515137,4.955338954925537,0.06963863968849182,-0.5436700582504272
1776038966098488800,-1522128.1915112305,4.9956560134887695,0.021991148591041565,-0.5326744914054871
1776038966118630400,-1522128.171369629,4.885700225830078,-0.009773843921720982,-0.4031710624694824
1776038966138741500,-1522128.151258545,4.536285400390625,0.08185594528913498,-0.04886921867728233
1776038966148842800,-1522128.1411572266,4.285830497741699,0.13561208546161652,0.24068090319633484
1776038966158883000,-1522128.1311169434,4.003610610961914,0.2015855312347412,0.5607742667198181
1776038966168953900,-1522128.1210461427,3.701843500137329,0.2675589919090271,0.856433093547821
1776038966178994200,-1522128.1110058594,3.402519464492798,0.3188716471195221,1.0910053253173828
1776038966189065000,-1522128.1009350587,3.1105258464813232,0.36163222789764404,1.2400563955307007
1776038966199135700,-1522128.090864258,2.8319711685180664,0.3897320330142975,1.291369080543518
1776038966209237000,-1522128.0807629395,2.5717427730560303,0.41661009192466736,1.2486085891723633
1776038966219277300,-1522128.0707226563,2.317622661590576,0.4288274049758911,1.1154398918151855
1776038966239419000,-1522128.0505810548,1.832595705986023,0.4080579876899719,0.6805039048194885
1776038966249489700,-1522128.040510254,1.6139060258865356,0.3897320330142975,0.4080579876899719
1776038966259530000,-1522128.0304699708,1.4147639274597168,0.37262779474258423,0.10018189996480942
1776038966279641000,-1522128.0103588868,1.0824532508850098,0.3286454975605011,-0.5668829679489136
1776038966289711900,-1522128.000288086,0.950506329536438,0.2932153046131134,-0.8747590184211731
1776038966299752200,-1522127.9902478028,0.8405506014823914,0.2431243658065796,-1.1435397863388062
1776038966309823000,-1522127.980177002,0.7440338730812073,0.18936823308467865,-1.3720033168792725
1776038966329995000,-1522127.960004883,0.5619960427284241,0.10995574295520782,-1.7263051271438599
1776038966350136600,-1522127.9398635253,0.4288274049758911,0.0708603709936142,-1.8668042421340942
1776038966360207600,-1522127.9297924805,0.37751471996307373,0.06230825558304787,-1.863139033317566
1776038966370278400,-1522127.9197216798,0.34086281061172485,0.06719517707824707,-1.822821855545044
1776038966380318500,-1522127.9096816406,0.2993239760398865,0.07819075137376785,-1.7507398128509521
1776038966390389500,-1522127.8996105958,0.2480112910270691,0.08918632566928864,-1.6224581003189087
1776038966400429600,-1522127.8895703126,0.22846360504627228,0.10262536257505417,-1.4110987186431885
1776038966410531000,-1522127.8794689942,0.2370157092809677,0.11972958594560623,-1.1398745775222778
1776038966440804400,-1522127.8491955567,0.2736676335334778,0.19058994948863983,-0.40194934606552124
1776038966450905900,-1522127.8390942384,0.2968805134296417,0.22602014243602753,-0.2736676335334778
1776038966460946000,-1522127.8290541992,0.3274237811565399,0.23457226157188416,-0.18081611394882202
1776038966471047400,-1522127.8189526368,0.3640756905078888,0.21135938167572021,-0.09773843735456467
1776038966481118200,-1522127.808881836,0.3982841372489929,0.17104226350784302,0.00733038317412138
1776038966491189000,-1522127.7988110352,0.4153883755207062,0.15882496535778046,0.1368338167667389
1776038966501229300,-1522127.788770752,0.4031710624694824,0.17470745742321014,0.2785545587539673
1776038966511300000,-1522127.7786999512,0.35552358627319336,0.1514945775270462,0.42149701714515686
1776038966561654000,-1522127.7283459473,0.04886921867728233,0.08674286305904388,0.7293730974197388
1776038966571694300,-1522127.7183056641,-0.0354301854968071,0.11484266817569733,0.6096435189247131
1776038966581734700,-1522127.708265381,-0.15882496535778046,0.1417207419872284,0.48380526900291443
1776038966591805400,-1522127.6981945802,-0.27000242471694946,0.19425514340400696,0.39095374941825867
1776038966601845800,-1522127.688154297,-0.3677408695220947,0.2565633952617645,0.3237585723400116
1776038966611947000,-1522127.6780529786,-0.485027015209198,0.294437050819397,0.2773328125476837
1776038966622017800,-1522127.6679821778,-0.6145304441452026,0.2834414839744568,0.2577851414680481
1776038966642189800,-1522127.6478100587,-0.8698720932006836,0.09040805697441101,0.18814650177955627
1776038966662270500,-1522127.6277294923,-1.1362093687057495,-0.3579670190811157,-0.010995574295520782
1776038966672371700,-1522127.617628174,-1.3072515726089478,-0.5998696684837341,-0.17592918872833252
1776038966682412000,-1522127.6075878907,-1.528384804725647,-0.7819074988365173,-0.3677408695220947
1776038966692452400,-1522127.5975476075,-1.804495930671692,-0.8674286603927612,-0.5546656250953674
1776038966702523100,-1522127.5874768067,-2.12703275680542,-0.8344419002532959,-0.6902777552604675
1776038966712594000,-1522127.577406006,-2.4715607166290283,-0.7000515460968018,-0.7183775305747986
1776038966722664700,-1522127.5673352052,-2.808758497238159,-0.5155702829360962,-0.6120869517326355
1776038966732735500,-1522127.5572644044,-3.0995302200317383,-0.3494149148464203,-0.3787364661693573
1776038966762948000,-1522127.527052002,-3.5747833251953125,-0.2541199326515198,0.3689626157283783
1776038966773019000,-1522127.5169812012,-3.63220477104187,-0.3066543638706207,0.44837507605552673
1776038966783120100,-1522127.506879883,-3.668856620788574,-0.34574973583221436,0.46792277693748474
1776038966793191000,-1522127.496809082,-3.690847873687744,-0.3799581825733185,0.46792277693748474
1776038966803231200,-1522127.486768799,-3.7030651569366455,-0.4202753007411957,0.4801400899887085
1776038966813302000,-1522127.4766979981,-3.7079520225524902,-0.45692721009254456,0.513126790523529
1776038966823403300,-1522127.4665966798,-3.7079520225524902,-0.49724429845809937,0.5375614166259766
1776038966833474000,-1522127.456525879,-3.7079520225524902,-0.5546656250953674,0.5436700582504272
1776038966843514400,-1522127.4464855958,-3.699399948120117,-0.6255260109901428,0.5241223573684692
1776038966873726700,-1522127.4162731934,-3.523470640182495,-0.8442157506942749,0.19914206862449646
1776038966883767000,-1522127.4062329102,-3.4342844486236572,-0.8955284357070923,0.03420845419168472
1776038966893837800,-1522127.3961621094,-3.3512067794799805,-0.9346238374710083,-0.14049901068210602
1776038966903908600,-1522127.3860913087,-3.265685558319092,-0.9480628371238708,-0.3017674386501312
1776038966914010000,-1522127.3759899903,-3.1813862323760986,-0.9370672702789307,-0.46792277693748474
1776038966924050200,-1522127.365949707,-3.0970869064331055,-0.9138544201850891,-0.6206390857696533
1776038966934060000,-1522127.3559399415,-3.0054569244384766,-0.8747590184211731,-0.740368664264679
1776038966954201600,-1522127.33579834,-2.8124237060546875,-0.789237916469574,-0.8393288254737854
1776038966964272400,-1522127.3257275391,-2.715906858444214,-0.7379252314567566,-0.8148942589759827
1776038966974343200,-1522127.3156567384,-2.609616279602051,-0.6805039048194885,-0.7611380815505981
1776038966984444700,-1522127.30555542,-2.484999895095825,-0.6194173693656921,-0.6914994716644287
1776038966994515500,-1522127.2954846192,-2.3469443321228027,-0.5583308339118958,-0.6194173693656921
1776038967004586200,-1522127.2854138184,-2.196671485900879,-0.4996877610683441,-0.5534439086914062
1776038967014657000,-1522127.2753430177,-2.0280725955963135,-0.4495968222618103,-0.49235737323760986
1776038967024758300,-1522127.2652416993,-1.842369556427002,-0.40072759985923767,-0.43127086758613586
1776038967034859500,-1522127.255140381,-1.6420058012008667,-0.3445279896259308,-0.36651915311813354
1776038967054940200,-1522127.2350598145,-1.2095131874084473,-0.24068090319633484,-0.24434609711170197
1776038967065041400,-1522127.2249584962,-0.9773843884468079,-0.19425514340400696,-0.23090706765651703
1776038967075143000,-1522127.2148571778,-0.7391469478607178,-0.1612684279680252,-0.26511552929878235
1776038967085183000,-1522127.2048171386,-0.4862487316131592,-0.15515977144241333,-0.31031954288482666
1776038967095223300,-1522127.1947766114,-0.22479841113090515,-0.16859880089759827,-0.3396410644054413
1776038967105324800,-1522127.184675293,0.039095375686883926,-0.18814650177955627,-0.3494149148464203
1776038967115364900,-1522127.1746352538,0.31031954288482666,-0.1918116807937622,-0.33597588539123535
1776038967125435600,-1522127.164564453,0.5864306092262268,-0.20525072515010834,-0.34086281061172485
1776038967135506700,-1522127.1544934083,0.8515461683273315,-0.2321287989616394,-0.39095374941825867
1776038967165719000,-1522127.124281006,1.5931365489959717,-0.33108896017074585,-0.5742133259773254
1776038967185860600,-1522127.1041394044,2.032959461212158,-0.4092797040939331,-0.5852088928222656
1776038967195901000,-1522127.0940991212,2.2284364700317383,-0.4349360466003418,-0.5974262356758118
1776038967205971700,-1522127.0840283204,2.403143882751465,-0.46181413531303406,-0.616973876953125
1776038967216042500,-1522127.0739575196,2.568077564239502,-0.4996877610683441,-0.6059783101081848
1776038967226113300,-1522127.0638867188,2.7452285289764404,-0.5424483418464661,-0.5241223573684692
1776038967236214500,-1522127.0537854005,2.9443705081939697,-0.5778785347938538,-0.3579670190811157
1776038967256325600,-1522127.0336743165,3.3731977939605713,-0.6145304441452026,0.12461651116609573
1776038967266366000,-1522127.0236340333,3.5686748027801514,-0.6218608021736145,0.375071257352829
1776038967276436700,-1522127.0135632325,3.751934289932251,-0.6120869517326355,0.5962044596672058
1776038967286477000,-1522127.0035229493,3.9437460899353027,-0.5803219676017761,0.7819074988365173
1776038967296547800,-1522126.9934521485,4.158770561218262,-0.5155702829360962,0.8674286603927612
1776038967306618600,-1522126.9833813477,4.344473838806152,-0.4789183437824249,0.8026769161224365
1776038967316719900,-1522126.9732800294,4.516737461090088,-0.504574716091156,0.6499606370925903
1776038967326760200,-1522126.9632397462,4.699997425079346,-0.5326744914054871,0.3481931984424591
1776038967336800500,-1522126.953199463,4.853935241699219,-0.5522221922874451,-0.0403171069920063
1776038967346871300,-1522126.9431286622,4.922352313995361,-0.598647952079773,-0.4447098970413208
1776038967367043300,-1522126.922956787,4.910134792327881,-0.7855727076530457,-1.1618657112121582
1776038967387154400,-1522126.902845459,4.652349472045898,-1.0018190145492554,-1.6407840251922607
1776038967397225200,-1522126.8927749023,4.414112091064453,-1.1044443845748901,-1.7983872890472412
1776038967407296000,-1522126.8827041015,4.1221184730529785,-1.1826350688934326,-1.8961256742477417
1776038967417367000,-1522126.8726330567,3.7836992740631104,-1.2180652618408203,-1.9523253440856934
1776038967427407000,-1522126.8625930175,3.4232888221740723,-1.197295904159546,-1.996307611465454
1776038967437508600,-1522126.8524914552,3.0531044006347656,-1.1227703094482422,-2.048841953277588
1776038967447549000,-1522126.842451172,2.689028739929199,-1.0335839986801147,-2.1087067127227783
1776038967467659800,-1522126.822340332,2.065946340560913,-0.901637077331543,-2.216219186782837
1776038967487801600,-1522126.8021984864,1.8264870643615723,-0.8735373020172119,-2.2382102012634277
1776038967497872400,-1522126.7921276856,1.6187928915023804,-0.8637634515762329,-2.2479841709136963
1776038967507912400,-1522126.7820876464,1.4184291362762451,-0.8772025108337402,-2.280970811843872
1776038967518014000,-1522126.771986084,1.2400563955307007,-0.8943067193031311,-2.350609540939331
1776038967528054300,-1522126.7619458009,1.0995573997497559,-0.9065240025520325,-2.4715607166290283
1776038967538125000,-1522126.751875,0.988379955291748,-0.9382890462875366,-2.630385637283325
1776038967548165400,-1522126.7418347169,0.8991936445236206,-0.9822713136672974,-2.774549961090088
1776038967568337400,-1522126.7216625977,0.7012733221054077,-1.0592403411865234,-2.973691940307617
1776038967578438700,-1522126.7115612794,0.7012733221054077,-1.0592403411865234,-2.973691940307617
1776038967588479000,-1522126.7015209962,0.6585127115249634,-1.0726794004440308,-2.989574432373047
1776038967598549800,-1522126.6914501954,0.6108652353286743,-1.0751228332519531,-2.9749138355255127
1776038967608590000,-1522126.6814099122,0.5644394755363464,-1.0629055500030518,-2.911383867263794
1776038967618660900,-1522126.6713391114,0.5204572081565857,-1.0531316995620728,-2.802649736404419
1776038967628731600,-1522126.6612683106,0.4715879559516907,-1.0384708642959595,-2.680476665496826
1776038967638833000,-1522126.6511669923,0.4251621961593628,-1.0103710889816284,-2.5558602809906006
1776038967648903700,-1522126.6410964355,0.3677408695220947,-0.9810495972633362,-2.445904493331909
1776038967679146800,-1522126.6108532716,0.12828169763088226,-0.8405506014823914,-2.1905627250671387
1776038967689187000,-1522126.6008129884,0.04642575979232788,-0.7855727076530457,-2.113593816757202
1776038967699227400,-1522126.5907727052,-0.024434609338641167,-0.7293730974197388,-2.046398639678955
1776038967709298200,-1522126.5807019044,-0.07941248267889023,-0.675616979598999,-2.0195205211639404
1776038967719369000,-1522126.5706311036,-0.1270599663257599,-0.616973876953125,-2.048841953277588
1776038967729409300,-1522126.5605908204,-0.1661553531885147,-0.5571091175079346,-2.1258111000061035
1776038967739480000,-1522126.5505200196,-0.1869247704744339,-0.5021312236785889,-2.2174408435821533
1776038967749520100,-1522126.5404799804,-0.18936823308467865,-0.4544837474822998,-2.2956316471099854
1776038967759621600,-1522126.530378418,-0.19547687470912933,-0.40194934606552124,-2.337170362472534
1776038967799904800,-1522126.490095215,-0.14294247329235077,0.06719517707824707,-2.0427334308624268
1776038967809945000,-1522126.4800549317,-0.09896016865968704,0.16371189057826996,-1.8496999740600586
1776038967830025700,-1522126.4599743653,0.02076941914856434,0.3139847218990326,-1.351233959197998
1776038967840096500,-1522126.4499035645,0.10873401165008545,0.3995058834552765,-1.0751228332519531
1776038967850167300,-1522126.4398327637,0.1966986060142517,0.48380526900291443,-0.8051204085350037
1776038967860238000,-1522126.429761963,0.2871066629886627,0.5778785347938538,-0.5497786998748779
1776038967870308900,-1522126.4196911622,0.3836233615875244,0.6731734871864319,-0.3274237811565399
1776038967880410000,-1522126.4095898438,0.4801400899887085,0.7489207983016968,-0.1417207419872284
1776038967900521200,-1522126.3894787598,0.6499606370925903,0.8393288254737854,0.04886921867728233
1776038967910592000,-1522126.379407959,0.7171558141708374,0.8588765263557434,0.010995574295520782
1776038967920632300,-1522126.3693676759,0.779464066028595,0.8503243923187256,-0.08307767659425735
1776038967930703000,-1522126.359296875,0.8393288254737854,0.8356636762619019,-0.19425514340400696
1776038967940774000,-1522126.3492260743,0.8881980776786804,0.8197811841964722,-0.28955012559890747
1776038967950814200,-1522126.339185791,0.9248499870300293,0.7904596328735352,-0.34697145223617554
1776038967960915500,-1522126.3290844727,0.950506329536438,0.7562511563301086,-0.3689626157283783
1776038968001137700,-1522126.2888623048,0.8429940342903137,0.5742133259773254,-0.15027284622192383
1776038968011208400,-1522126.278791504,0.7147123217582703,0.4386012554168701,0.0012217304902151227
1776038968021279200,-1522126.2687207032,0.5314527750015259,0.30054569244384766,0.17104226350784302
1776038968031350000,-1522126.2586499024,0.2883284091949463,0.19914206862449646,0.34208452701568604
1776038968051491600,-1522126.2385083009,-0.32498031854629517,0.1111774742603302,0.5461135506629944
1776038968061593000,-1522126.2284069825,-0.6695083379745483,0.0806342139840126,0.5461135506629944
1776038968081765000,-1522126.2082348634,-1.330464482307434,0.018325956538319588,0.4544837474822998
1776038968091836000,-1522126.1981640626,-1.607797384262085,-0.0354301854968071,0.40683624148368835
1776038968101906700,-1522126.1880932618,-1.863139033317566,-0.1258382350206375,0.3445279896259308
1776038968111977500,-1522126.178022461,-2.094046115875244,-0.22846360504627228,0.26511552929878235
1776038968122078700,-1522126.1679213867,-2.285857677459717,-0.31642818450927734,0.17959438264369965
1776038968132119000,-1522126.1578808594,-2.4434609413146973,-0.39584067463874817,0.06841690838336945
1776038968142220500,-1522126.147779541,-2.582738161087036,-0.49235737323760986,-0.05009094998240471
1776038968152260600,-1522126.137739502,-2.7061331272125244,-0.5913175344467163,-0.16737708449363708
1776038968162362000,-1522126.1276379395,-2.8063149452209473,-0.6829473376274109,-0.2822197377681732
1776038968202614800,-1522126.087385254,-3.1227431297302246,-0.9224064946174622,-0.7110471725463867
1776038968212655000,-1522126.0773449708,-3.1777210235595703,-0.9334021210670471,-0.8063421249389648
1776038968222756400,-1522126.0672436524,-3.2229249477386475,-0.9443976879119873,-0.9028588533401489
1776038968232827100,-1522126.0571728516,-3.2571334838867188,-0.9492846131324768,-0.9920451641082764
1776038968242898000,-1522126.0471020509,-3.2705724239349365,-0.940732479095459,-1.0812314748764038
1776038968252968700,-1522126.03703125,-3.286454916000366,-0.950506329536438,-1.1313223838806152
1776038968263039500,-1522126.0269604493,-3.280346393585205,-0.960280179977417,-1.0225883722305298
1776038968303383800,-1522125.986616211,-2.9101619720458984,-1.0897835493087769,-0.03787364438176155
1776038968313454600,-1522125.9765454102,-2.824640989303589,-1.1227703094482422,-0.08307767659425735
1776038968323525400,-1522125.9664746094,-2.7562239170074463,-1.1557570695877075,-0.19058994948863983
1776038968333504500,-1522125.9564956054,-2.691472291946411,-1.1899654865264893,-0.2968805134296417
1776038968343575300,-1522125.9464248046,-2.604729413986206,-1.2229522466659546,-0.3701843321323395
1776038968353615600,-1522125.9363842774,-2.5057692527770996,-1.254717230796814,-0.43127086758613586
1776038968363656000,-1522125.9263439942,-2.41413950920105,-1.2718214988708496,-0.49724429845809937
1776038968373665800,-1522125.9163342286,-2.3188445568084717,-1.2620476484298706,-0.5644394755363464
1776038968403878100,-1522125.8861218262,-1.871691107749939,-1.2192870378494263,-0.5974262356758118
1776038968423989200,-1522125.8660107423,-1.4636331796646118,-1.2376129627227783,-0.4043927788734436
1776038968434060000,-1522125.8559399415,-1.2486085891723633,-1.2693779468536377,-0.32620203495025635
1776038968444130800,-1522125.8458691407,-1.027475357055664,-1.3145819902420044,-0.27000242471694946
1776038968454110200,-1522125.8358898927,-0.7941248416900635,-1.361007809638977,-0.22968533635139465
1776038968464211500,-1522125.8257885743,-0.5815436840057373,-1.389107584953308,-0.26022860407829285
1776038968474282200,-1522125.8157177735,-0.3701843321323395,-1.3939944505691528,-0.31154128909111023
1776038968484383500,-1522125.8056164552,-0.10995574295520782,-1.398881435394287,-0.31154128909111023
1776038968514565400,-1522125.7754345704,0.7611380815505981,-1.3683381080627441,-0.0757472887635231
1776038968524666600,-1522125.765333496,1.0580185651779175,-1.3329079151153564,-0.024434609338641167
1776038968534707000,-1522125.7552929688,1.341460108757019,-1.282817006111145,-0.00733038317412138
1776038968544777700,-1522125.745222168,1.624901533126831,-1.2424999475479126,-0.00855211354792118
1776038968554848500,-1522125.7351513673,1.9168951511383057,-1.216843605041504,-0.015882495790719986
1776038968574959600,-1522125.7150402833,2.478891134262085,-1.1753047704696655,0.05742133408784866
1776038968585061000,-1522125.704938965,2.741563320159912,-1.1520918607711792,0.16982053220272064
1776038968605233200,-1522125.6847668458,3.3512067794799805,-1.1239920854568481,0.4447098970413208
1776038968625374700,-1522125.6646252442,3.793473243713379,-0.9871582388877869,0.34574973583221436
1776038968635445500,-1522125.6545544434,3.9510765075683594,-0.9456194043159485,0.20525072515010834
1776038968645546800,-1522125.644453369,4.061032295227051,-0.8833111524581909,0.02076941914856434
1776038968655587000,-1522125.6344128419,4.078136444091797,-0.8332201838493347,-0.1661553531885147
1776038968665657900,-1522125.624342041,4.059810638427734,-0.7721336483955383,-0.251676470041275
1776038968675698200,-1522125.614301758,4.012163162231445,-0.6695083379745483,-0.2883284091949463
1776038968685769000,-1522125.604230957,3.9070940017700195,-0.5913175344467163,-0.31642818450927734
1776038968695809300,-1522125.594190674,3.7446038722991943,-0.5815436840057373,-0.33719760179519653
1776038968705880000,-1522125.5841198731,3.562566041946411,-0.5998696684837341,-0.3677408695220947
1776038968715950800,-1522125.5740490723,3.363424062728882,-0.6255260109901428,-0.44104471802711487
1776038968726052000,-1522125.563947998,3.143512487411499,-0.6829473376274109,-0.5693264007568359
1776038968736062000,-1522125.5539379884,2.9272663593292236,-0.7733554244041443,-0.740368664264679
1776038968766305000,-1522125.5236950684,2.317622661590576,-1.0445796251296997,-1.197295904159546
1776038968776375800,-1522125.5136242677,2.12703275680542,-1.0922271013259888,-1.341460108757019
1776038968786415900,-1522125.5035842285,1.9511035680770874,-1.1374311447143555,-1.5234979391098022
1776038968796487000,-1522125.4935131837,1.7837265729904175,-1.1899654865264893,-1.7495180368423462
1776038968816597800,-1522125.4734023437,1.4966198205947876,-1.2583824396133423,-2.3151793479919434
1776038968836708900,-1522125.4532910157,1.273043155670166,-1.226617455482483,-2.8930578231811523
1776038968846749200,-1522125.4432507325,1.1740829944610596,-1.1789699792861938,-3.1227431297302246
1776038968856820000,-1522125.4331799317,1.086118459701538,-1.1227703094482422,-3.2766811847686768
1776038968866860300,-1522125.4231396485,1.016479730606079,-1.0580185651779175,-3.3487632274627686
1776038968876900600,-1522125.4130993653,0.9724974632263184,-0.9822713136672974,-3.3426547050476074
1776038968886971400,-1522125.4030285645,0.9492846131324768,-0.911410927772522,-3.2681291103363037
1776038968897042200,-1522125.3929577637,0.93095862865448,-0.8613200187683105,-3.11785626411438
1776038968907113000,-1522125.382886963,0.9321803450584412,-0.8051204085350037,-2.891836166381836
1776038968947426800,-1522125.3425732423,1.156978726387024,-0.4789183437824249,-1.8301522731781006
1776038968957467100,-1522125.332532959,1.224173903465271,-0.384845107793808,-1.577254056930542
1776038968967538000,-1522125.3224621583,1.2950342893600464,-0.2883284091949463,-1.320690631866455
1776038968977608700,-1522125.3123913575,1.3658946752548218,-0.18570303916931152,-1.0629055500030518
1776038968987710000,-1522125.3022900391,1.4306464195251465,-0.08674286305904388,-0.8124507665634155
1776038968997750300,-1522125.292249756,1.4306464195251465,-0.08674286305904388,-0.8124507665634155
1776038969007821000,-1522125.2821789552,1.4856243133544922,0.00366519158706069,-0.5644394755363464
1776038969038003000,-1522125.2519970704,1.5467108488082886,0.22846360504627228,0.08429940044879913
1776038969058144500,-1522125.2318554688,1.5149458646774292,0.3494149148464203,0.455705463886261
1776038969068215300,-1522125.221784668,1.5051720142364502,0.3897320330142975,0.6414085030555725
1776038969078255600,-1522125.2117443848,1.4294246435165405,0.49235737323760986,0.8723155856132507
1776038969088356900,-1522125.2016430665,1.4294246435165405,0.49235737323760986,0.8723155856132507
1776038969098397200,-1522125.1916027833,1.3475687503814697,0.5656611919403076,0.9187413454055786
1776038969108468000,-1522125.1815319825,1.282817006111145,0.6291912198066711,0.9944885969161987
1776038969118508300,-1522125.1714916993,1.2095131874084473,0.6817256212234497,1.0922271013259888
1776038969148659700,-1522125.141340332,0.8991936445236206,0.7318165898323059,1.264491081237793
1776038969168831700,-1522125.121168213,0.656069278717041,0.6352998614311218,1.187522053718567
1776038969178902500,-1522125.1110974122,0.5143485069274902,0.588874101638794,1.0433578491210938
1776038969189003800,-1522125.1009963378,0.35552358627319336,0.5485569834709167,0.836885392665863
1776038969199044000,-1522125.0909558106,0.19914206862449646,0.5241223573684692,0.6120869517326355
1776038969209115000,-1522125.0808850098,0.05253441259264946,0.50335294008255,0.40194934606552124
1776038969219124700,-1522125.0708752442,-0.09407325088977814,0.485027015209198,0.24068090319633484
1776038969269417700,-1522125.0205822755,-0.9468411207199097,0.0659734457731247,0.036651913076639175
1776038969279488500,-1522125.0105114747,-1.1630873680114746,-0.07452555745840073,-0.06352998316287994
1776038969289559300,-1522125.000440674,-1.4123204946517944,-0.15027284622192383,-0.1869247704744339
1776038969299630000,-1522124.9903698731,-1.6823228597640991,-0.16004669666290283,-0.2773328125476837
1776038969309700900,-1522124.9802990723,-1.9657644033432007,-0.12828169763088226,-0.2785545587539673
1776038969319771600,-1522124.9702282716,-2.255314588546753,-0.08307767659425735,-0.17592918872833252
1776038969350045200,-1522124.939954834,-2.970026731491089,-0.1368338167667389,0.2272418737411499
1776038969360116000,-1522124.9298840333,-3.1300735473632812,-0.2321287989616394,0.21624629199504852
1776038969370217200,-1522124.919782715,-3.266907215118408,-0.3396410644054413,0.13561208546161652
1776038969380257500,-1522124.9097424317,-3.38297176361084,-0.4386012554168701,0.039095375686883926
1776038969390297900,-1522124.8997021485,-3.4819319248199463,-0.5216789245605469,-0.051312681287527084
1776038969400338200,-1522124.8896618653,-3.562566041946411,-0.5827654600143433,-0.11239920556545258
1776038969410409000,-1522124.8795910645,-3.62609601020813,-0.6230825781822205,-0.14782938361167908
1776038969420479700,-1522124.8695202637,-3.673743486404419,-0.6438519954681396,-0.16982053220272064
1776038969430581000,-1522124.8594189454,-3.7055084705352783,-0.6536257863044739,-0.18325957655906677
1776038969470925300,-1522124.819074707,-3.704286813735962,-0.588874101638794,0.010995574295520782
1776038969480965600,-1522124.809034424,-3.6774086952209473,-0.5583308339118958,0.13316862285137177
1776038969491067000,-1522124.7989331055,-3.645643711090088,-0.5326744914054871,0.2626720666885376
1776038969501107200,-1522124.7888928223,-3.604104995727539,-0.5119050741195679,0.4056145250797272
1776038969511178000,-1522124.7788220216,-3.545461893081665,-0.49357911944389343,0.5766568183898926
1776038969521218300,-1522124.7687817384,-3.45871901512146,-0.4801400899887085,0.7831292152404785
1776038969531319600,-1522124.75868042,-3.349985122680664,-0.47769662737846375,1.0054842233657837
1776038969561532000,-1522124.7284680177,-3.011565685272217,-0.5021312236785889,1.5039502382278442
1776038969571602700,-1522124.7183972169,-2.8967230319976807,-0.5057964324951172,1.5332717895507812
1776038969581643000,-1522124.7083569337,-2.7794368267059326,-0.5106833577156067,1.470963478088379
1776038969591683300,-1522124.6983166505,-2.6584856510162354,-0.5155702829360962,1.3341296911239624
1776038969601723600,-1522124.6882763673,-2.5302038192749023,-0.5155702829360962,1.1716395616531372
1776038969611825000,-1522124.678175049,-2.3860397338867188,-0.513126790523529,1.0128145217895508
1776038969621895700,-1522124.6681042481,-2.2149972915649414,-0.5094616413116455,0.8637634515762329
1776038969631966500,-1522124.6580334473,-2.0231857299804688,-0.4960225820541382,0.7098253965377808
1776038969642006800,-1522124.6479931641,-1.8179349899291992,-0.47280970215797424,0.5534439086914062
1776038969662148400,-1522124.6278515626,-1.3390166759490967,-0.37629300355911255,0.2968805134296417
1776038969672249900,-1522124.6177502442,-1.047023057937622,-0.3139847218990326,0.21013765037059784
1776038969682320600,-1522124.6076794434,-0.7269296646118164,-0.2638937830924988,0.1612684279680252
1776038969702523100,-1522124.5874768067,-0.02076941914856434,-0.1722639948129654,0.16737708449363708
1776038969712594000,-1522124.577406006,0.3628539443016052,-0.12828169763088226,0.18081611394882202
1776038969722664700,-1522124.5673352052,0.7574729323387146,-0.08674286305904388,0.16982053220272064
1776038969732735500,-1522124.5572644044,1.1679743528366089,-0.04642575979232788,0.14416420459747314
1776038969742806300,-1522124.5471938476,1.595579981803894,-0.024434609338641167,0.11850785464048386
1776038969773019000,-1522124.5169812012,2.954144239425659,0.10751228034496307,-0.0354301854968071
1776038969783089700,-1522124.5069104005,3.347541570663452,0.09285151958465576,-0.1820378452539444
1776038969793191000,-1522124.496809082,3.7421605587005615,0.059864792972803116,-0.38117989897727966
1776038969803261700,-1522124.4867382813,4.159992218017578,0.03298672288656235,-0.588874101638794
1776038969813240800,-1522124.4767592773,4.549724578857422,0.04642575979232788,-0.7819074988365173
1776038969823311600,-1522124.4666884765,4.8502702713012695,0.11239920556545258,-0.9321803450584412
1776038969833382700,-1522124.4566174317,5.094615936279297,0.19425514340400696,-0.9822713136672974
1776038969843453400,-1522124.446546631,5.2888712882995605,0.27488934993743896,-0.9578366875648499
1776038969863595000,-1522124.4264050294,5.437922477722168,0.4080579876899719,-0.6805039048194885
1776038969883736600,-1522124.4062634278,5.346292495727539,0.5180137157440186,-0.2577851414680481
1776038969893807400,-1522124.396192627,5.208237171173096,0.5510004758834839,0.03420845419168472
1776038969903878100,-1522124.3861218262,5.006651401519775,0.5729916095733643,0.40683624148368835
1776038969914010000,-1522124.3759899903,4.748866558074951,0.5864306092262268,0.8124507665634155
1776038969924050200,-1522124.365949707,4.4458770751953125,0.5852088928222656,1.1911872625350952
1776038969934090500,-1522124.355909424,4.1245622634887695,0.6023131608963013,1.5332717895507812
1776038969944191700,-1522124.3458083495,3.8044686317443848,0.6291912198066711,1.8118263483047485
1776038969984475100,-1522124.3055249024,2.5534167289733887,0.7672467231750488,1.6591099500656128
1776038969994546000,-1522124.2954541016,2.30051851272583,0.7452555894851685,1.2046263217926025
1776038970004616700,-1522124.2853833009,2.0842721462249756,0.6780604124069214,0.6096435189247131
1776038970014657000,-1522124.2753430177,1.9034560918807983,0.598647952079773,-0.06841690838336945
1776038970024758300,-1522124.2652416993,1.7495180368423462,0.5192354321479797,-0.759916365146637
1776038970034829000,-1522124.2551708985,1.6175711154937744,0.44226643443107605,-1.4110987186431885
1776038970044869400,-1522124.2451306153,1.508837103843689,0.3640756905078888,-1.9755382537841797
1776038970054940200,-1522124.2350598145,1.4147639274597168,0.28588494658470154,-2.4300220012664795
1776038970115395600,-1522124.1746044923,1.197295904159546,0.05864306539297104,-2.9907963275909424
1776038970125435600,-1522124.164564453,1.1911872625350952,0.06352998316287994,-2.758667469024658
1776038970135506700,-1522124.1544934083,1.1936306953430176,0.07819075137376785,-2.4630086421966553
1776038970145546800,-1522124.144453369,1.2021827697753906,0.1062905490398407,-2.1429152488708496
1776038970155617500,-1522124.1343825683,1.2021827697753906,0.13561208546161652,-1.8191566467285156
1776038970165657900,-1522124.124342041,1.1826350688934326,0.15760323405265808,-1.4917329549789429
1776038970185799400,-1522124.1042006835,1.1337659358978271,0.19792033731937408,-0.8258898258209229
1776038970195901000,-1522124.0940991212,1.1032226085662842,0.21502456068992615,-0.5595525503158569
1776038970205941200,-1522124.084058838,1.0409144163131714,0.2174680233001709,-0.3982841372489929
1776038970216012000,-1522124.0739880372,0.9443976879119873,0.20891591906547546,-0.32620203495025635
1776038970226052000,-1522124.063947998,0.8148942589759827,0.2015855312347412,-0.2932153046131134
1776038970236123100,-1522124.0538769532,0.6621779203414917,0.18570303916931152,-0.26022860407829285
1776038970246194000,-1522124.0438061524,0.5216789245605469,0.17470745742321014,-0.2174680233001709
1776038970256264700,-1522124.0337353516,0.4141666293144226,0.1820378452539444,-0.21624629199504852
1776038970266305000,-1522124.0236950684,0.2834414839744568,0.17959438264369965,-0.3017674386501312
1776038970286446600,-1522124.0035534669,-0.06108652427792549,0.1014036312699318,-0.5021312236785889
1776038970316689400,-1522123.973310547,-0.5864306092262268,0.27122417092323303,-0.21502456068992615
1776038970326760200,-1522123.9632397462,-0.7757988572120667,0.294437050819397,0.05253441259264946
1776038970336861400,-1522123.9531386718,-0.9871582388877869,0.28955012559890747,0.3396410644054413
1776038970346901800,-1522123.9430981446,-1.2180652618408203,0.2577851414680481,0.5852088928222656
1776038970356972500,-1522123.9330273438,-1.4404202699661255,0.1869247704744339,0.7513642311096191
1776038970367043300,-1522123.922956787,-1.653001308441162,0.07208210229873657,0.8148942589759827
1776038970377144800,-1522123.9128552247,-1.86191725730896,-0.08185594528913498,0.7672467231750488
1776038970407326700,-1522123.88267334,-2.5607471466064453,-0.3591887652873993,0.32620203495025635
1776038970437539000,-1522123.8524609376,-3.191159963607788,-0.2125810980796814,0.33719760179519653
1776038970447579400,-1522123.8424206544,-3.3267722129821777,-0.22479841113090515,0.4593706727027893
1776038970457650200,-1522123.8323498536,-3.4623842239379883,-0.2871066629886627,0.5497786998748779
1776038970467721000,-1522123.8222790528,-3.573561668395996,-0.3530801236629486,0.5742133259773254
1776038970477791700,-1522123.812208252,-3.6480872631073,-0.42760565876960754,0.5290092825889587
1776038970497963800,-1522123.792036133,-3.710395574569702,-0.6194173693656921,0.40072759985923767
1776038970508004000,-1522123.7819958497,-3.706730365753174,-0.7122688889503479,0.34086281061172485
1776038970518105300,-1522123.7718947753,-3.706730365753174,-0.8332201838493347,0.2675589919090271
1776038970528176000,-1522123.7618239745,-3.7140607833862305,-0.9566149711608887,0.18936823308467865
1776038970538247200,-1522123.7517529298,-3.7116172313690186,-1.047023057937622,0.11728613078594208
1776038970548318000,-1522123.741682129,-3.6884043216705322,-1.1203268766403198,0.07452555745840073
1776038970558419200,-1522123.7315808106,-3.6578609943389893,-1.1801916360855103,0.06108652427792549
1776038970568459500,-1522123.7215405274,-3.6578609943389893,-1.1801916360855103,0.06108652427792549
1776038970578530300,-1522123.7114697266,-3.6224308013916016,-1.2082914113998413,0.04764748737215996
1776038970588601000,-1522123.7013989259,-3.567453145980835,-1.1850786209106445,-0.08674286305904388
1776038970598672000,-1522123.691328125,-3.567453145980835,-1.1850786209106445,-0.08674286305904388
1776038970608742700,-1522123.6812573243,-3.545461893081665,-1.1484266519546509,-0.17592918872833252
1776038970618844000,-1522123.671156006,-3.519805431365967,-1.1032226085662842,-0.24556782841682434
1776038970628914700,-1522123.6610852052,-3.4880404472351074,-1.0421360731124878,-0.28466320037841797
1776038970638985500,-1522123.6510146484,-3.441614866256714,-0.9663888216018677,-0.304210901260376
1776038970649056300,-1522123.6409438476,-3.378084897994995,-0.8881980776786804,-0.32498031854629517
1776038970659127300,-1522123.6308728028,-3.302337408065796,-0.8124507665634155,-0.35552358627319336
1776038970669198000,-1522123.620802002,-3.219259738922119,-0.740368664264679,-0.39706242084503174
1776038970679268900,-1522123.6107312012,-3.115412712097168,-0.6621779203414917,-0.4434881806373596
1776038970689339600,-1522123.6006604005,-2.9834659099578857,-0.5852088928222656,-0.48380526900291443
1776038970699441000,-1522123.590559082,-2.83074951171875,-0.5119050741195679,-0.5265658497810364
1776038970719552000,-1522123.5704479981,-2.439795732498169,-0.3494149148464203,-0.5461135506629944
1776038970729622800,-1522123.5603771973,-2.205223560333252,-0.2773328125476837,-0.5180137157440186
1776038970739724000,-1522123.550275879,-1.957212209701538,-0.2125810980796814,-0.44104471802711487
1776038970749794800,-1522123.5402050782,-1.683544635772705,-0.14416420459747314,-0.3127630054950714
1776038970759896300,-1522123.5301037598,-1.3878858089447021,-0.0757472887635231,-0.16982053220272064
1776038970769936400,-1522123.5200637206,-1.0885618925094604,-0.009773843921720982,-0.05009094998240471
1776038970780038000,-1522123.5099621583,-0.7770205736160278,0.05009094998240471,0.03787364438176155
1776038970810219800,-1522123.4797802735,0.2223549485206604,0.1966986060142517,-0.006108652334660292
1776038970830331000,-1522123.4596691895,0.9077457785606384,0.28588494658470154,-0.27611109614372253
1776038970840401700,-1522123.4495983887,1.2388347387313843,0.2993239760398865,-0.49357911944389343
1776038970850472400,-1522123.439527588,1.538158655166626,0.28588494658470154,-0.7073819637298584
1776038970860573700,-1522123.4294262696,1.8472565412521362,0.24434609711170197,-0.8417723178863525
1776038970870614000,-1522123.4193859864,2.1587977409362793,0.21135938167572021,-0.9101892113685608
1776038970880684800,-1522123.4093151856,2.445904493331909,0.1771509200334549,-0.9578366875648499
1776038970890755600,-1522123.3992443848,2.7256808280944824,0.11484266817569733,-0.9761626720428467
1776038970900856800,-1522123.3891430665,3.0164525508880615,0.045204028487205505,-0.9248499870300293
1776038970920968000,-1522123.3690319825,3.5124752521514893,-0.05619960278272629,-0.5925393104553223
1776038970951149800,-1522123.3388500977,4.208861351013184,-0.16371189057826996,0.7489207983016968
1776038970961220600,-1522123.328779297,4.335921287536621,-0.14049901068210602,1.1753047704696655
1776038970971291400,-1522123.3187084962,4.426329612731934,-0.05375614017248154,1.568701982498169
1776038970981362200,-1522123.3086379394,4.4788641929626465,0.09162978827953339,1.9083430767059326
1776038970991433000,-1522123.2985671386,4.4764204025268555,0.294437050819397,2.1893410682678223
1776038971001473300,-1522123.2885266114,4.431216716766357,0.5204572081565857,2.395813465118408
1776038971021614800,-1522123.2683852538,4.257730960845947,0.8784242272377014,2.5033257007598877
1776038971031686000,-1522123.258314209,4.125783920288086,0.9920451641082764,2.3933699131011963
1776038971051858000,-1522123.23814209,3.7470474243164062,1.1398745775222778,1.9425514936447144
1776038971061928700,-1522123.2280712891,3.5161404609680176,1.1496484279632568,1.6481144428253174
1776038971071999500,-1522123.2180004884,3.26935076713562,1.1215485334396362,1.3426817655563354
1776038971082070300,-1522123.2079296876,3.0140092372894287,1.0433578491210938,1.0348057746887207
1776038971092110600,-1522123.1978894044,2.7476718425750732,0.9150761365890503,0.7367035150527954
1776038971122292500,-1522123.1677075196,2.0146336555480957,0.5338962078094482,-0.13805554807186127
1776038971132332800,-1522123.1576672364,1.8472565412521362,0.4593706727027893,-0.47769662737846375
1776038971152444000,-1522123.1375561524,1.5735888481140137,0.27488934993743896,-1.2473868131637573
1776038971162545200,-1522123.127454834,1.4550809860229492,0.16982053220272064,-1.6285667419433594
1776038971172616000,-1522123.1173840333,1.3426817655563354,0.04642575979232788,-1.9547687768936157
1776038971182717200,-1522123.107282715,1.23394775390625,-0.08307767659425735,-2.196671485900879
1776038971192757500,-1522123.0972424317,1.1301007270812988,-0.1966986060142517,-2.367713689804077
1776038971212868600,-1522123.0771313477,0.9553932547569275,-0.33108896017074585,-2.602285861968994
1776038971232949200,-1522123.0570507813,0.789237916469574,-0.44226643443107605,-2.785545587539673
1776038971243020000,-1522123.0469799805,0.7232644557952881,-0.4862487316131592,-2.824640989303589
1776038971253029600,-1522123.036970459,0.6633996367454529,-0.5338962078094482,-2.8148670196533203
1776038971263100700,-1522123.0268994141,0.6010913848876953,-0.5668829679489136,-2.7623326778411865
1776038971273140700,-1522123.016859375,0.5497786998748779,-0.5705481171607971,-2.687807083129883
1776038971283211500,-1522123.0067885742,0.5143485069274902,-0.5644394755363464,-2.613281488418579
1776038971293191000,-1522122.996809082,0.49235737323760986,-0.5632177591323853,-2.554638385772705
1776038971323464400,-1522122.9665356446,0.4056145250797272,-0.5900958180427551,-2.3041837215423584
1776038971333443600,-1522122.9565563966,0.3799581825733185,-0.5265658497810364,-2.1123719215393066
1776038971343514400,-1522122.9464855958,0.3628539443016052,-0.4495968222618103,-1.8741345405578613
1776038971353554700,-1522122.9364453126,0.33597588539123535,-0.3799581825733185,-1.6090190410614014
1776038971363625500,-1522122.9263745118,0.3090978264808655,-0.31031954288482666,-1.3231340646743774
1776038971373665800,-1522122.9163342286,0.2590068578720093,-0.24434609711170197,-1.0152580738067627
1776038971383767000,-1522122.9062329102,0.1820378452539444,-0.1661553531885147,-0.6731734871864319
1776038971393837800,-1522122.8961621094,0.10384709388017654,-0.07208210229873657,-0.31642818450927734
1776038971403908600,-1522122.8860913087,0.02687807008624077,0.030543262138962746,0.04398229718208313
1776038971434060000,-1522122.8559399415,-0.35185837745666504,0.39706242084503174,0.779464066028595
1776038971444130800,-1522122.8458691407,-0.4813618063926697,0.5021312236785889,0.9908234477043152
1776038971454140700,-1522122.835859375,-0.6438519954681396,0.5998696684837341,1.1740829944610596
1776038971464211500,-1522122.8257885743,-0.797789990901947,0.7012733221054077,1.3365731239318848
1776038971474251800,-1522122.815748291,-0.911410927772522,0.8112290501594543,1.4880677461624146
1776038971484353000,-1522122.8056469727,-1.0335839986801147,0.8955284357070923,1.5796974897384644
1776038971494393300,-1522122.7956066895,-1.2119566202163696,0.911410927772522,1.5332717895507812
1776038971504494600,-1522122.7855053712,-1.4269812107086182,0.8991936445236206,1.3732250928878784
1776038971514535000,-1522122.775465088,-1.616349458694458,0.8723155856132507,1.1679743528366089
1776038971534615600,-1522122.7553845216,-1.901012659072876,0.6377432942390442,0.817337691783905
1776038971544686300,-1522122.7453137208,-2.032959461212158,0.46670106053352356,0.6695083379745483
1776038971554757000,-1522122.73524292,-2.1930062770843506,0.304210901260376,0.4862487316131592
1776038971564858400,-1522122.7251416016,-2.3799309730529785,0.18081611394882202,0.27977627515792847
1776038971574898700,-1522122.7151013184,-2.5925121307373047,0.13316862285137177,0.1111774742603302
1776038971584969500,-1522122.7050305177,-2.8380799293518066,0.17470745742321014,0.03420845419168472
1776038971595040300,-1522122.6949597169,-3.098308563232422,0.27977627515792847,0.06841690838336945
1776038971605111000,-1522122.684888916,-3.330437421798706,0.42149701714515686,0.18814650177955627
1776038971615151400,-1522122.674848633,-3.4941492080688477,0.5693264007568359,0.3323107063770294
1776038971645394200,-1522122.644605713,-3.7030651569366455,0.7489207983016968,0.5070181488990784
1776038971655465000,-1522122.6345351562,-3.7470474243164062,0.7648032903671265,0.5387831330299377
1776038971675576000,-1522122.6144238282,-3.780034065246582,0.8026769161224365,0.6927211880683899
1776038971685646800,-1522122.6043532714,-3.7898080348968506,0.8112290501594543,0.8197811841964722
1776038971695717600,-1522122.5942824706,-3.8032469749450684,0.8100073337554932,0.9541715383529663
1776038971705788700,-1522122.5842114259,-3.8142426013946533,0.7831292152404785,1.0702359676361084
1776038971715828700,-1522122.5741711427,-3.8362338542938232,0.7159340381622314,1.1691961288452148
1776038971725899500,-1522122.5641005859,-3.8508944511413574,0.6524040699005127,1.2217304706573486
1776038971776162000,-1522122.5138378907,-3.4355061054229736,0.2223549485206604,0.42760565876960754
1776038971786232800,-1522122.50376709,-3.3145549297332764,0.16371189057826996,0.2321287989616394
1776038971796334000,-1522122.4936660156,-3.1862730979919434,0.13072516024112701,0.08307767659425735
1776038971806405000,-1522122.4835949708,-3.0531044006347656,0.12217304855585098,-0.0354301854968071
1776038971816476000,-1522122.47352417,-2.908940315246582,0.12950342893600464,-0.12095131725072861
1776038971826546700,-1522122.4634533692,-2.750115394592285,0.14049901068210602,-0.1722639948129654
1776038971836617500,-1522122.4533825684,-2.58762526512146,0.1514945775270462,-0.1820378452539444
1776038971856759000,-1522122.4332409669,-2.2382102012634277,0.17959438264369965,-0.06352998316287994
1776038971866860300,-1522122.4231396485,-2.0537290573120117,0.18814650177955627,0.05009094998240471
1776038971876931000,-1522122.4130688477,-1.8692476749420166,0.18814650177955627,0.15271630883216858
1776038971887001900,-1522122.402998047,-1.6725490093231201,0.18081611394882202,0.23579397797584534
1776038971897103400,-1522122.3928967286,-1.4526375532150269,0.16493362188339233,0.3017674386501312
1776038971907174100,-1522122.3828259278,-1.214400053024292,0.13927727937698364,0.35674530267715454
1776038971917245000,-1522122.372755127,-0.9651671051979065,0.10995574295520782,0.4043927788734436
1776038971927315700,-1522122.3626843262,-0.7086036801338196,0.08429940044879913,0.45204028487205505
1776038971937356000,-1522122.352644043,-0.4288274049758911,0.04642575979232788,0.50335294008255
1776038971947396000,-1522122.3426040038,-0.12950342893600464,-0.0024434609804302454,0.5338962078094482
1776038971977608700,-1522122.3123913575,0.6707300543785095,-0.0403171069920063,0.50335294008255
1776038971987710000,-1522122.3022900391,0.960280179977417,-0.039095375686883926,0.48380526900291443
1776038971997750300,-1522122.292249756,1.281595230102539,-0.051312681287527084,0.40683624148368835
1776038972007821000,-1522122.2821789552,1.6139060258865356,-0.04886921867728233,0.2565633952617645
1776038972017891800,-1522122.2721081544,1.9449949264526367,-0.028099801391363144,0.07941248267889023
1776038972027993000,-1522122.262006836,2.2369885444641113,-0.006108652334660292,-0.05619960278272629
1776038972038063900,-1522122.2519360352,2.4691174030303955,0.045204028487205505,-0.16493362188339233
1776038972048134700,-1522122.2418652344,2.4691174030303955,0.045204028487205505,-0.16493362188339233
1776038972068307000,-1522122.2216931153,2.878396987915039,0.10384709388017654,-0.22602014243602753
1776038972088479000,-1522122.2015209962,3.2485814094543457,0.06475171446800232,-0.2577851414680481
1776038972098519300,-1522122.191480713,3.6199874877929688,0.00733038317412138,-0.2626720666885376
1776038972108620500,-1522122.1813793946,3.6199874877929688,0.00733038317412138,-0.2626720666885376
1776038972118660900,-1522122.1713391114,3.8398988246917725,0.06352998316287994,-0.2125810980796814
1776038972128731600,-1522122.1612683106,4.020715236663818,0.17959438264369965,-0.1319468915462494
1776038972138772000,-1522122.1512280274,4.170988082885742,0.3029891550540924,-0.03298672288656235
1776038972148842800,-1522122.1411572266,4.287052154541016,0.38117989897727966,0.07941248267889023
1776038972179085600,-1522122.1109145507,4.317595481872559,0.3396410644054413,0.6438519954681396
1776038972199227400,-1522122.0907727052,4.065918922424316,0.32131510972976685,1.0616837739944458
1776038972219338200,-1522122.0706618652,3.5918877124786377,0.3579670190811157,1.5063936710357666
1776038972239510500,-1522122.050489502,2.993239641189575,0.3701843321323395,1.9083430767059326
1776038972249581300,-1522122.0404187012,2.6926939487457275,0.37262779474258423,1.9987510442733765
1776038972259652000,-1522122.0303479005,2.4104743003845215,0.3604104816913605,1.958433985710144
1776038972279793700,-1522122.010206299,1.93766450881958,0.2675589919090271,1.4636331796646118
1776038972289864400,-1522122.0001354981,1.7275269031524658,0.1918116807937622,1.047023057937622
1776038972299935200,-1522121.9900646973,1.5320500135421753,0.10018189996480942,0.5619960427284241
1776038972310036500,-1522121.979963623,1.350012183189392,0.006108652334660292,0.0354301854968071
1776038972320107500,-1522121.9698925782,1.186300277709961,-0.07452555745840073,-0.5180137157440186
1776038972330178300,-1522121.9598217774,1.0409144163131714,-0.14782938361167908,-1.086118459701538
1776038972340188000,-1522121.9498120118,0.9138544201850891,-0.2272418737411499,-1.6175711154937744
1776038972350258700,-1522121.939741211,0.8051204085350037,-0.2993239760398865,-2.076941728591919
1776038972360329500,-1522121.9296704102,0.7159340381622314,-0.35063666105270386,-2.4410176277160645
1776038972400643300,-1522121.8893566895,0.5216789245605469,-0.3995058834552765,-2.824640989303589
1776038972410744600,-1522121.8792553712,0.4948008358478546,-0.39095374941825867,-2.7085764408111572
1776038972420785000,-1522121.869215088,0.4801400899887085,-0.3738495409488678,-2.5509731769561768
1776038972430855700,-1522121.8591442872,0.4813618063926697,-0.3433062732219696,-2.3603832721710205
1776038972440926500,-1522121.8490734864,0.4911356568336487,-0.2993239760398865,-2.1514673233032227
1776038972451027700,-1522121.838972168,0.504574716091156,-0.24556782841682434,-1.9168951511383057
1776038972461098500,-1522121.8289016113,0.5290092825889587,-0.1869247704744339,-1.644449234008789
1776038972471200000,-1522121.818800049,0.5644394755363464,-0.11850785464048386,-1.3255776166915894
1776038972491341600,-1522121.7986584473,0.685390830039978,-0.02076941914856434,-0.5546656250953674
1776038972501382000,-1522121.7886181641,0.7354817390441895,-0.0024434609804302454,-0.2015855312347412
1776038972511483100,-1522121.7785168458,0.779464066028595,0.02687807008624077,0.08185594528913498
1776038972521554000,-1522121.768446045,0.8234463334083557,0.051312681287527084,0.3127630054950714
1776038972531624700,-1522121.7583752442,0.8723155856132507,0.07941248267889023,0.513126790523529
1776038972541695500,-1522121.7483044434,0.9077457785606384,0.1111774742603302,0.6792821288108826
1776038972551766300,-1522121.7382336427,0.9285151958465576,0.13927727937698364,0.7855727076530457
1776038972561837000,-1522121.7281628419,0.921184778213501,0.16859880089759827,0.7953465580940247
1776038972571907800,-1522121.718092041,0.8918632864952087,0.19303341209888458,0.7122688889503479
1776038972612191200,-1522121.677808838,0.5204572081565857,0.20891591906547546,0.19303341209888458
1776038972622262000,-1522121.6677380372,0.39584067463874817,0.2028072625398636,0.2590068578720093
1776038972632332800,-1522121.6576672364,0.2272418737411499,0.2919935882091522,0.4031710624694824
1776038972642403600,-1522121.6475964356,0.036651913076639175,0.42638394236564636,0.5998696684837341
1776038972652474400,-1522121.6375256348,-0.13439035415649414,0.5216789245605469,0.8210029006004333
1776038972662545200,-1522121.627454834,-0.30543261766433716,0.5424483418464661,1.018923282623291
1776038972672585500,-1522121.6174145509,-0.48869219422340393,0.5094616413116455,1.1801916360855103
1776038972682656300,-1522121.60734375,-0.6768386960029602,0.4508185386657715,1.3072515726089478
1776038972712899000,-1522121.5771008302,-1.226617455482483,0.04153883829712868,1.214400053024292
1776038972722969900,-1522121.5670300294,-1.4587461948394775,-0.16004669666290283,0.8979719281196594
1776038972733010200,-1522121.5569897462,-1.7324138879776,-0.30543261766433716,0.49357911944389343
1776038972753182500,-1522121.536817627,-2.3774874210357666,-0.31520646810531616,-0.20525072515010834
1776038972763253200,-1522121.5267468262,-2.676811456680298,-0.24556782841682434,-0.4092797040939331
1776038972773262800,-1522121.5167370606,-2.9333748817443848,-0.20891591906547546,-0.5351179838180542
1776038972783333600,-1522121.5066662598,-3.148399591445923,-0.2076941877603531,-0.6243042945861816
1776038972813515500,-1522121.476484375,-3.571118116378784,-0.2785545587539673,-0.7904596328735352
1776038972823586300,-1522121.4664135743,-3.651752471923828,-0.2919935882091522,-0.7733554244041443
1776038972833687800,-1522121.456312256,-3.7079520225524902,-0.294437050819397,-0.7305948138237
1776038972853799000,-1522121.436201172,-3.7751471996307373,-0.3323107063770294,-0.7318165898323059
1776038972863900200,-1522121.4260998536,-3.7812559604644775,-0.3445279896259308,-0.7024950385093689
1776038972873971000,-1522121.4160290528,-3.773925542831421,-0.34697145223617554,-0.6096435189247131
1776038972884011300,-1522121.4059887696,-3.72994327545166,-0.3396410644054413,-0.4960225820541382
1776038972904122400,-1522121.3858776856,-3.55645751953125,-0.35063666105270386,-0.4691445231437683
1776038972924233500,-1522121.3657666016,-3.4159584045410156,-0.27000242471694946,-0.8063421249389648
1776038972934304300,-1522121.3556958009,-3.3536500930786133,-0.2125810980796814,-0.9187413454055786
1776038972944405500,-1522121.3455944825,-3.258355140686035,-0.1466076523065567,-0.8674286603927612
1776038972954445800,-1522121.3355541993,-3.143512487411499,-0.04886921867728233,-0.7428121566772461
1776038972964516600,-1522121.3254833985,-3.045774221420288,0.05619960278272629,-0.6524040699005127
1776038972974557000,-1522121.3154431153,-2.9749138355255127,0.13316862285137177,-0.6108652353286743
1776038972984627700,-1522121.3053723145,-2.8955013751983643,0.1820378452539444,-0.5607742667198181
1776038972994729000,-1522121.2952709962,-2.7794368267059326,0.21502456068992615,-0.45204028487205505
1776038973024910800,-1522121.2650891114,-2.3017401695251465,0.2968805134296417,0.06719517707824707
1776038973045052400,-1522121.2449475098,-1.9071213006973267,0.32498031854629517,0.3335324227809906
1776038973065194000,-1522121.2248059083,-1.4770721197128296,0.28588494658470154,0.47769662737846375
1776038973075295500,-1522121.21470459,-1.2559388875961304,0.25045475363731384,0.5204572081565857
1776038973085335600,-1522121.2046645507,-1.016479730606079,0.21013765037059784,0.5595525503158569
1776038973095406600,-1522121.194593506,-0.7586946487426758,0.1612684279680252,0.5815436840057373
1776038973125649400,-1522121.164350586,0.09529497474431992,0,0.3396410644054413
1776038973135750700,-1522121.1542492677,0.3677408695220947,-0.04764748737215996,0.15393804013729095
1776038973145821400,-1522121.1441784669,0.6255260109901428,-0.08918632566928864,-0.004886921960860491
1776038973155892200,-1522121.134107666,0.8930850028991699,-0.1417207419872284,-0.05742133408784866
1776038973165963000,-1522121.1240371093,1.1704177856445312,-0.18936823308467865,-0.015882495790719986
1776038973176003300,-1522121.113996582,1.4428637027740479,-0.21013765037059784,0.042760565876960754
1776038973186074000,-1522121.1039257813,1.7006487846374512,-0.18814650177955627,0.024434609338641167
1776038973196175600,-1522121.093824463,1.9339994192123413,-0.1466076523065567,-0.10262536257505417
1776038973236458800,-1522121.0535412598,2.6780333518981934,-0.06230825558304787,-0.045204028487205505
1776038973246529500,-1522121.043470459,2.858849287033081,-0.04398229718208313,-0.21135938167572021
1776038973256600300,-1522121.0333996583,3.137403964996338,-0.07330382615327835,-0.5229006409645081
1776038973266640600,-1522121.023359375,3.445280075073242,-0.16737708449363708,-0.8625417351722717
1776038973276711400,-1522121.0132885743,3.6334264278411865,-0.2932153046131134,-1.166752576828003
1776038973286782200,-1522121.0032177735,3.765373468399048,-0.4141666293144226,-1.3170254230499268
1776038973296853000,-1522120.9931469727,3.938858985900879,-0.4398229718208313,-1.2864822149276733
1776038973306893300,-1522120.9831066895,4.129448890686035,-0.41172316670417786,-1.1191051006317139
1776038973327035000,-1522120.962965088,4.461759567260742,-0.43249258399009705,-0.6731734871864319
1776038973347146000,-1522120.942854004,4.63891077041626,-0.5375614166259766,-0.29565876722335815
1776038973367257000,-1522120.92274292,4.461759567260742,-0.42638394236564636,0.03176499158143997
1776038973377327900,-1522120.9126721192,4.318817138671875,-0.32009339332580566,0.28955012559890747
1776038973387398700,-1522120.9026013184,4.195422649383545,-0.2076941877603531,0.7440338730812073
1776038973397469400,-1522120.8925305177,3.992615222930908,-0.07330382615327835,1.3084733486175537
1776038973407509800,-1522120.8824902344,3.6969563961029053,0.0757472887635231,1.909564733505249
1776038973427681800,-1522120.8623181153,3.081204414367676,0.33597588539123535,2.973691940307617
1776038973447793000,-1522120.8422070313,2.539977788925171,0.5070181488990784,3.332880735397339
1776038973457863700,-1522120.8321362305,2.2516493797302246,0.5155702829360962,3.2094860076904297
1776038973467934500,-1522120.8220654298,1.9743164777755737,0.5253441333770752,2.9297096729278564
1776038973478005200,-1522120.811994873,1.7263051271438599,0.5522221922874451,2.5363125801086426
1776038973488076000,-1522120.8019240722,1.500285029411316,0.5852088928222656,2.054950714111328
1776038973498116400,-1522120.791883545,1.2791517972946167,0.6108652353286743,1.5039502382278442
1776038973508187100,-1522120.7818127442,1.0726794004440308,0.6133087277412415,0.9162978529930115
1776038973548439800,-1522120.7415603027,0.5729916095733643,0.45814892649650574,-0.8894197940826416
1776038973558480100,-1522120.7315197755,0.50335294008255,0.44104471802711487,-1.1313223838806152
1776038973568551000,-1522120.7214489747,0.43127086758613586,0.43127086758613586,-1.3096951246261597
1776038973578591200,-1522120.7114086915,0.3543018400669098,0.4031710624694824,-1.4367550611495972
1776038973588662000,-1522120.7013378907,0.27488934993743896,0.35674530267715454,-1.508837103843689
1776038973598732800,-1522120.69126709,0.21013765037059784,0.3127630054950714,-1.5259413719177246
1776038973608773000,-1522120.6812268067,0.1722639948129654,0.2541199326515198,-1.5076154470443726
1776038973618844000,-1522120.671156006,0.1722639948129654,0.2541199326515198,-1.5076154470443726
1776038973649056300,-1522120.6409438476,0.11728613078594208,0.1270599663257599,-1.3170254230499268
1776038973659157800,-1522120.6308422852,0.08307767659425735,0.1368338167667389,-1.1911872625350952
1776038973669228500,-1522120.6207714844,0.05742133408784866,0.13439035415649414,-1.0054842233657837
1776038973679299300,-1522120.6107006837,0.03298672288656235,0.11972958594560623,-0.7806857824325562
1776038973689339600,-1522120.6006604005,-0.015882495790719986,0.11484266817569733,-0.5693264007568359
1776038973699410400,-1522120.5905895997,-0.0659734457731247,0.1014036312699318,-0.39706242084503174
1776038973709450800,-1522120.5805493165,-0.14538592100143433,-0.015882495790719986,-0.17837265133857727
1776038973719552000,-1522120.5704479981,-0.14538592100143433,-0.015882495790719986,-0.17837265133857727
1776038973749734000,-1522120.5402661134,-0.27611109614372253,-0.12461651116609573,0.07941248267889023
1776038973759804700,-1522120.5301953126,-0.3127630054950714,-0.1368338167667389,0.06841690838336945
1776038973769875500,-1522120.5201245118,-0.41172316670417786,-0.1612684279680252,-0.00733038317412138
1776038973779946200,-1522120.510053711,-0.485027015209198,-0.2174680233001709,-0.04153883829712868
1776038973790017000,-1522120.4999829102,-0.49846604466438293,-0.2370157092809677,-0.03420845419168472
1776038973800118300,-1522120.4898818359,-0.5326744914054871,-0.20891591906547546,0.015882495790719986
1776038973810189000,-1522120.479811035,-0.6145304441452026,-0.1661553531885147,0.09896016865968704
1776038973820260000,-1522120.4697399903,-0.6951646208763123,-0.10262536257505417,0.2174680233001709
1776038973830331000,-1522120.4596691895,-0.7562511563301086,-0.018325956538319588,0.3701843321323395
1776038973870583600,-1522120.419416504,-0.8662069439888,0.0757472887635231,0.9053022861480713
1776038973880654300,-1522120.4093457032,-0.9297369122505188,0.01710422709584236,0.9712757468223572
1776038973890725000,-1522120.3992749024,-1.0042624473571777,-0.10262536257505417,0.9822713136672974
1776038973900796000,-1522120.3892041016,-1.0812314748764038,-0.32620203495025635,0.9040805697441101
1776038973910836200,-1522120.3791638184,-1.1704177856445312,-0.6377432942390442,0.7293730974197388
1776038973920876500,-1522120.3691235352,-1.303586483001709,-0.9553932547569275,0.47280970215797424
1776038973930916600,-1522120.359083496,-1.4819591045379639,-1.1594222784042358,0.19547687470912933
1776038973940987600,-1522120.3490124512,-1.693318486213684,-1.1911872625350952,-0.04642575979232788
1776038973971200000,-1522120.318800049,-2.4055874347686768,-0.8894197940826416,-0.24923302233219147
1776038973981301200,-1522120.3086987305,-2.582738161087036,-0.8002334833145142,-0.14294247329235077
1776038973991372000,-1522120.2986279298,-2.718350410461426,-0.7244861721992493,-0.024434609338641167
1776038974001412400,-1522120.2885876466,-2.808758497238159,-0.6646214127540588,0.07208210229873657
1776038974011452700,-1522120.2785473634,-2.863736152648926,-0.608421802520752,0.11239920556545258
1776038974021554000,-1522120.268446045,-2.9187140464782715,-0.5668829679489136,0.09407325088977814
1776038974031594200,-1522120.2584057618,-2.989574432373047,-0.5583308339118958,0.05619960278272629
1776038974041695500,-1522120.2483044434,-3.0689868927001953,-0.5815436840057373,0.021991148591041565
1776038974082009300,-1522120.2079907227,-3.0970869064331055,-0.7843509912490845,-0.2638937830924988
1776038974092019000,-1522120.197980957,-3.037221908569336,-0.8319984674453735,-0.37262779474258423
1776038974102089700,-1522120.1879101563,-2.9578094482421875,-0.8527678847312927,-0.4740314185619354
1776038974112160500,-1522120.1778395995,-2.8649580478668213,-0.8417723178863525,-0.5558874011039734
1776038974122262000,-1522120.1677380372,-2.7733283042907715,-0.817337691783905,-0.6096435189247131
1776038974132302300,-1522120.157697754,-2.680476665496826,-0.7623597979545593,-0.6377432942390442
1776038974142403600,-1522120.1475964356,-2.5973989963531494,-0.675616979598999,-0.6548475623130798
1776038974172616000,-1522120.1173840333,-2.356718063354492,-0.37262779474258423,-0.5412266254425049
1776038974182686700,-1522120.1073132325,-2.2797491550445557,-0.25045475363731384,-0.455705463886261
1776038974192757500,-1522120.0972424317,-2.1930062770843506,-0.1514945775270462,-0.3225368559360504
1776038974202858800,-1522120.0871413574,-2.068389654159546,-0.06108652427792549,-0.13805554807186127
1776038974212899000,-1522120.0771008302,-1.9242255687713623,0.059864792972803116,0.030543262138962746
1776038974223000600,-1522120.0669995118,-1.794722080230713,0.16371189057826996,0.12828169763088226
1776038974233071400,-1522120.056928711,-1.6517796516418457,0.2565633952617645,0.20036379992961884
1776038974243142100,-1522120.0468579102,-1.4844025373458862,0.3579670190811157,0.2687807083129883
1776038974283394800,-1522120.0066052247,-0.7709119319915771,0.5326744914054871,0.5668829679489136
1776038974293404400,-1522119.996595703,-0.5681046843528748,0.5082398653030396,0.6621779203414917
1776038974313515500,-1522119.976484375,-0.15027284622192383,0.4447098970413208,0.7648032903671265
1776038974323617000,-1522119.9663830567,0.04886921867728233,0.43615779280662537,0.7391469478607178
1776038974333596200,-1522119.9564038087,0.23457226157188416,0.42638394236564636,0.6414085030555725
1776038974343697400,-1522119.9463024903,0.4190535545349121,0.39217549562454224,0.5009095072746277
1776038974373879300,-1522119.9161206055,1.0421360731124878,0.3066543638706207,0.17104226350784302
1776038974383980800,-1522119.9060192872,1.2596040964126587,0.3029891550540924,0.13561208546161652
1776038974394051600,-1522119.8959484864,1.500285029411316,0.31642818450927734,0.13072516024112701
1776038974404152800,-1522119.885847168,1.7702875137329102,0.32498031854629517,0.12217304855585098
1776038974414193200,-1522119.8758068848,2.0170769691467285,0.32009339332580566,0.14905111491680145
1776038974424264000,-1522119.865736084,2.255314588546753,0.34208452701568604,0.2125810980796814
1776038974434304300,-1522119.8556958009,2.5253169536590576,0.4092797040939331,0.29565876722335815
1776038974444375000,-1522119.845625,2.8234190940856934,0.475253164768219,0.40194934606552124
1776038974454384600,-1522119.8356154785,3.145956039428711,0.5192354321479797,0.5241223573684692
1776038974474526500,-1522119.815473633,3.8508944511413574,0.5351179838180542,0.6597344875335693
1776038974484566500,-1522119.8054335937,4.181983470916748,0.5412266254425049,0.6572909951210022
1776038974494606800,-1522119.7953930665,4.466646671295166,0.5729916095733643,0.6316346526145935
1776038974504677600,-1522119.7853222657,4.697553634643555,0.6120869517326355,0.6108652353286743
1776038974514748400,-1522119.775251465,4.858822345733643,0.6475171446800232,0.6304129362106323
1776038974524819200,-1522119.7651809081,4.91990852355957,0.66584312915802,0.6963863968849182
1776038974534829000,-1522119.7551708985,4.8783698081970215,0.6817256212234497,0.8136724829673767
1776038974544930300,-1522119.7450695802,4.754974842071533,0.7000515460968018,0.9749409556388855
1776038974555001000,-1522119.7349990234,4.533842086791992,0.7232644557952881,1.156978726387024
1776038974595223300,-1522119.6947766114,3.0298917293548584,1.056796908378601,2.4935519695281982
1776038974605324800,-1522119.684675293,2.602285861968994,1.0286970138549805,2.90649676322937
1776038974615334400,-1522119.6746655274,2.2186625003814697,0.9334021210670471,3.202155590057373
1776038974625405200,-1522119.6645947266,1.86191725730896,0.8381071090698242,3.3841934204101562
1776038974635476000,-1522119.6545239259,1.5063936710357666,0.7415903806686401,3.547905445098877
1776038974645546800,-1522119.644453369,1.1496484279632568,0.6450737118721008,3.751934289932251
1776038974655617500,-1522119.6343825683,0.8393288254737854,0.5791002511978149,3.958406686782837
1776038974685799400,-1522119.6042006835,0.32620203495025635,0.43127086758613586,3.5637879371643066
1776038974695870200,-1522119.5941298828,0.19792033731937408,0.3885102868080139,2.7122416496276855
1776038974705941200,-1522119.584058838,0.11239920556545258,0.28955012559890747,1.7373007535934448
1776038974715981300,-1522119.5740187988,0.1160643994808197,0.1918116807937622,0.8124507665634155
1776038974726082800,-1522119.5639172364,0.16493362188339233,0.11972958594560623,0.03787364438176155
1776038974736092400,-1522119.5539074708,0.2028072625398636,0.0806342139840126,-0.5656611919403076
1776038974746194000,-1522119.5438061524,0.2577851414680481,0.13316862285137177,-1.1044443845748901
1776038974756234000,-1522119.5337661132,0.3445279896259308,0.2382374405860901,-1.742187738418579
1776038974766305000,-1522119.5236950684,0.4434881806373596,0.26511552929878235,-2.4996604919433594
1776038974786446600,-1522119.5035534669,0.6108652353286743,0.09285151958465576,-3.5772268772125244
1776038974796487000,-1522119.4935131837,0.6963863968849182,0.09285151958465576,-3.615100622177124
1776038974806557700,-1522119.483442383,0.7672467231750488,0.09285151958465576,-3.343876361846924
1776038974816597800,-1522119.4734023437,0.8185594081878662,0.08918632566928864,-2.8551840782165527
1776038974826668800,-1522119.463331299,0.8625417351722717,0.2015855312347412,-2.361604928970337
1776038974836739600,-1522119.4532604981,0.8772025108337402,0.2932153046131134,-1.9926424026489258
1776038974846810400,-1522119.4431896973,0.8381071090698242,0.28099802136421204,-1.645671010017395
1776038974856881200,-1522119.4331188966,0.8002334833145142,0.30543261766433716,-1.2376129627227783
1776038974866921500,-1522119.4230786134,0.7660250067710876,0.3579670190811157,-0.7953465580940247
1776038974917275400,-1522119.3727246094,0.4239404797554016,0.5253441333770752,0.7000515460968018
1776038974927376600,-1522119.362623291,0.294437050819397,0.5387831330299377,0.7415903806686401
1776038974937417000,-1522119.352583008,0.17592918872833252,0.504574716091156,0.6927211880683899
1776038974947487700,-1522119.342512207,0.06841690838336945,0.4495968222618103,0.5754350423812866
1776038974957558500,-1522119.3324414063,-0.05253441259264946,0.39706242084503174,0.3885102868080139
1776038974977700000,-1522119.3122998048,-0.28588494658470154,0.2321287989616394,-0.04153883829712868
1776038975038094300,-1522119.2519057617,-0.6585127115249634,-0.21624629199504852,-1.567480206489563
1776038975048134700,-1522119.2418652344,-0.7061602473258972,-0.294437050819397,-1.7153096199035645
1776038975058205400,-1522119.2317946777,-0.7354817390441895,-0.3738495409488678,-1.703092336654663
1776038975068307000,-1522119.2216931153,-0.7489207983016968,-0.4153883755207062,-1.528384804725647
1776038975078347300,-1522119.211652832,-0.7305948138237,-0.39706242084503174,-1.320690631866455
1776038975088418000,-1522119.2015820313,-0.7086036801338196,-0.42149701714515686,-1.2192870378494263
1776038975098458000,-1522119.1915419921,-0.7086036801338196,-0.42149701714515686,-1.2192870378494263
1776038975118600000,-1522119.1714001466,-0.6646214127540588,-0.7012733221054077,-1.1166616678237915
1776038975128670700,-1522119.1613293458,-0.6646214127540588,-0.7012733221054077,-1.1166616678237915
1776038975138710800,-1522119.1512893066,-0.5974262356758118,-0.7623597979545593,-0.8491026759147644
1776038975148781800,-1522119.1412182618,-0.5167919993400574,-0.789237916469574,-0.5155702829360962
1776038975158852600,-1522119.131147461,-0.4862487316131592,-0.8637634515762329,-0.26022860407829285
1776038975168923400,-1522119.1210766602,-0.5253441333770752,-1.009149432182312,-0.1270599663257599
1776038975178963700,-1522119.111036377,-0.5937610268592834,-1.177748203277588,-0.06963863968849182
1776038975189065000,-1522119.1009350587,-0.6548475623130798,-1.3768903017044067,0.018325956538319588
1776038975209176000,-1522119.0808239747,-0.7293730974197388,-1.6908750534057617,0.2993239760398865
1776038975239388400,-1522119.0506115723,-1.1301007270812988,-2.252871036529541,-0.25534167885780334
1776038975249459200,-1522119.0405407716,-1.2901474237442017,-2.400700330734253,-0.5302310585975647
1776038975259530000,-1522119.0304699708,-1.4611896276474,-2.459343433380127,-0.8051204085350037
1776038975269600800,-1522119.02039917,-1.6224581003189087,-2.459343433380127,-1.1313223838806152
1776038975279671600,-1522119.0103283692,-1.7568484544754028,-2.4410176277160645,-1.5796974897384644
1776038975289742300,-1522119.0002575684,-1.881464958190918,-2.41413950920105,-2.2015583515167236
1776038975309853400,-1522118.9801464844,-2.129476308822632,-2.4434609413146973,-3.506366491317749
1776038975340035300,-1522118.9499645997,-2.3542747497558594,-2.3628268241882324,-3.944967746734619
1776038975350106000,-1522118.939893799,-2.361604928970337,-2.322509765625,-3.6419785022735596
