time,seconds_elapsed,z,y,x
1776038959374196200,-1522134.915803711,9.370905876159668,1.7381904125213623,0.6416460275650024
1776038959384228000,-1522134.9057719726,9.184157371520996,1.5514427423477173,0.5985504388809204
1776038959394099000,-1522134.895901123,9.042900085449219,1.6687586307525635,0.6751648783683777
1776038959403969800,-1522134.8860302735,9.169792175292969,1.702277421951294,0.608127236366272
1776038959414009900,-1522134.8759902343,9.196128845214844,2.0231003761291504,0.5602431893348694
1776038959424111400,-1522134.865888672,9.093177795410156,1.8698714971542358,0.5602431893348694
1776038959434151700,-1522134.8558483887,9.064447402954102,1.9536685943603516,0.6392518281936646
1776038959454293200,-1522134.8357067872,9.062053680419922,2.0422539710998535,0.6392518281936646
1776038959464364000,-1522134.8256359864,8.990227699279785,1.7334020137786865,0.6272808313369751
1776038959474404400,-1522134.8155957032,9.155426979064941,1.8722656965255737,0.3974374830722809
1776038959484475100,-1522134.8055249024,9.251194953918457,1.9249382019042969,0.35913026332855225
1776038959494454300,-1522134.7955456544,9.160215377807617,1.7908629179000854,0.3495534360408783
1776038959514595800,-1522134.7754040528,9.232041358947754,1.9584569931030273,0.36152446269989014
1776038959524697300,-1522134.7653027344,9.196128845214844,1.7812861204147339,0.33039984107017517
1776038959534707000,-1522134.7552929688,9.148244857788086,1.4652514457702637,0.4908113479614258
1776038959544777700,-1522134.745222168,9.224859237670898,1.7717092037200928,0.6703764796257019
1776038959554818000,-1522134.7351818848,9.35654067993164,1.5897499322891235,0.2513911724090576
1776038959564888800,-1522134.725111084,9.495404243469238,1.766920804977417,-0.002394201699644327
1776038959574898700,-1522134.7151013184,9.404424667358398,2.0398597717285156,0.2992752194404602
1776038959584969500,-1522134.7050305177,9.294290542602539,2.054224967956543,0.5530605912208557
1776038959595040300,-1522134.6949597169,9.198522567749023,1.867477297782898,0.6416460275650024
1776038959605111000,-1522134.684888916,8.585607528686523,-0.011971008032560349,1.4197616577148438
1776038959615121000,-1522134.6748791505,8.827422142028809,2.03507137298584,0.14844051003456116
1776038959625252600,-1522134.6647473145,9.148244857788086,3.5194764137268066,-0.5267243981361389
1776038959635323400,-1522134.6546765137,9.028534889221191,3.780444383621216,-0.40222588181495667
1776038959645394200,-1522134.644605713,8.798690795898438,2.580949544906616,0.4357447028160095
1776038959655434500,-1522134.6345654298,8.822632789611816,1.7286136150360107,0.751779317855835
1776038959665535700,-1522134.6244643554,8.96149730682373,2.0398597717285156,0.6392518281936646
1776038959675576000,-1522134.6144238282,9.081207275390625,2.6384103298187256,0.3280056416988373
1776038959685677600,-1522134.6043225098,8.956708908081055,2.9951462745666504,0.15083470940589905
1776038959695717600,-1522134.5942824706,8.99740982055664,2.9017724990844727,0.11013327538967133
1776038959715859500,-1522134.574140625,9.732429504394531,3.804386615753174,0.27054479718208313
1776038959725930200,-1522134.5640698243,10.216058731079102,4.8722004890441895,-0.10534487664699554
1776038959735970600,-1522134.554029541,11.068394660949707,4.896142482757568,-0.12689268589019775
1776038959746071800,-1522134.5439282227,11.255142211914062,4.347870349884033,-0.31124621629714966
1776038959756142600,-1522134.533857422,11.477803230285645,3.2561142444610596,-0.2992752194404602
1776038959766183000,-1522134.5238171387,11.099518775939941,2.604891538619995,-0.15322890877723694
1776038959776223200,-1522134.5137768555,10.44350814819336,3.1747114658355713,-0.040701430290937424
1776038959786294000,-1522134.5037060548,10.33098030090332,3.49314022064209,-0.1388636976480484
1776038959796334000,-1522134.4936660156,10.230423927307129,2.9065608978271484,-0.1604115068912506
1776038959826516000,-1522134.4634841308,10.56800651550293,1.6160861253738403,-0.26096799969673157
1776038959836587000,-1522134.453413086,10.3549222946167,0.5817909836769104,0.26336219906806946
1776038959846657800,-1522134.4433422852,10.18493366241455,-0.5506663918495178,0.8188169598579407
1776038959866769000,-1522134.4232312012,9.567230224609375,-1.8148049116134644,1.4939818382263184
1776038959876809000,-1522134.413190918,9.423578262329102,-1.9081788063049316,1.6328455209732056
1776038959886879700,-1522134.4031203613,9.363722801208496,-2.0685901641845703,1.8363527059555054
1776038959896950800,-1522134.3930493165,9.404424667358398,-2.43011474609375,1.9823989868164062
1776038959917031200,-1522134.37296875,8.614337921142578,-3.6798880100250244,2.054224967956543
1776038959937234000,-1522134.3527661134,7.955932140350342,-4.359841346740723,2.38462495803833
1776038959947304700,-1522134.3426953126,7.582436561584473,-4.5394062995910645,2.300827741622925
1776038959957345000,-1522134.3326550294,7.173028469085693,-4.632780075073242,2.0853497982025146
1776038959967415800,-1522134.3225842286,6.4834980964660645,-4.874594688415527,1.6711528301239014
1776038959977456000,-1522134.3125439454,6.016628742218018,-5.284003257751465,1.3646949529647827
1776038959987618300,-1522134.3023815919,5.647922039031982,-5.7125654220581055,1.1300631761550903
1776038959997658600,-1522134.2923413087,5.458779811859131,-6.0405707359313965,1.0342950820922852
1776038960007729400,-1522134.282270508,5.410895824432373,-6.14831018447876,0.8954314589500427
1776038960037941800,-1522134.2520583495,5.439626216888428,-6.162675380706787,0.035913024097681046
1776038960048012500,-1522134.2419875488,5.382165431976318,-6.385335922241211,-0.5027823448181152
1776038960058083600,-1522134.231916504,5.2049946784973145,-6.435614109039307,-1.070208191871643
1776038960068184800,-1522134.2218151856,4.917690277099609,-6.6127848625183105,-1.9488801956176758
1776038960078255600,-1522134.2117443848,4.596867084503174,-6.854599475860596,-2.911349296569824
1776038960088356900,-1522134.2016430665,4.127603530883789,-6.830657482147217,-3.751713991165161
1776038960098397200,-1522134.1916027833,3.7876269817352295,-6.521805286407471,-4.405331134796143
1776038960108468000,-1522134.1815319825,3.265691041946411,-6.2847795486450195,-4.910507678985596
1776038960128640000,-1522134.1613601074,2.2816741466522217,-5.762843608856201,-5.770026206970215
1776038960138710800,-1522134.1512893066,1.764526605606079,-5.6455278396606445,-6.189011573791504
1776038960148812300,-1522134.1411877442,1.7836803197860718,-6.291962146759033,-6.610390663146973
1776038960158883000,-1522134.1311169434,1.7357962131500244,-6.873753070831299,-6.734889507293701
1776038960168953900,-1522134.1210461427,1.4987702369689941,-7.273584842681885,-6.627150535583496
1776038960179024600,-1522134.1109753419,1.4772224426269531,-7.316680431365967,-6.337451934814453
1776038960189126000,-1522134.1008740235,1.434126853942871,-7.084442615509033,-5.971138954162598
1776038960199166200,-1522134.0908337403,1.5322890281677246,-6.7277069091796875,-5.676652431488037
1776038960209237000,-1522134.0807629395,1.6639702320098877,-6.399701118469238,-5.590460777282715
1776038960219277300,-1522134.0707226563,1.766920804977417,-5.894524574279785,-5.542576789855957
1776038960239449300,-1522134.0505505372,1.5873557329177856,-4.730942726135254,-5.382165431976318
1776038960259591000,-1522134.0304091796,0.9002198576927185,-4.060565948486328,-5.260061264038086
1776038960279732700,-1522134.010267334,0.016759412363171577,-4.127603530883789,-5.69580602645874
1776038960289803500,-1522134.0001965333,-0.45489832758903503,-4.242525577545166,-6.078877925872803
1776038960299843800,-1522133.99015625,-0.7086837291717529,-4.663905143737793,-6.538564682006836
1776038960309914600,-1522133.9800854493,-0.9888052940368652,-5.509057998657227,-6.962338447570801
1776038960340127000,-1522133.949873047,-1.4939818382263184,-8.640673637390137,-9.083600997924805
1776038960350197800,-1522133.9398022462,-1.1971008777618408,-9.14345645904541,-9.787496566772461
1776038960400521200,-1522133.8894787598,0.35913026332855225,-7.86734676361084,-11.745953559875488
1776038960430733600,-1522133.8592663575,1.5538369417190552,-8.60236644744873,-13.290213584899902
1776038960521340400,-1522133.768659668,2.741360902786255,-9.370905876159668,-12.351686477661133
1776038960561562400,-1522133.728437744,3.9456443786621094,-7.881711959838867,-12.042834281921387
1776038960571664000,-1522133.7183361817,4.410119533538818,-8.037335395812988,-11.441889762878418
1776038960581734700,-1522133.708265381,4.675876140594482,-8.429984092712402,-10.919954299926758
1776038960611947000,-1522133.6780529786,5.243301868438721,-9.248801231384277,-11.109095573425293
1776038960642098400,-1522133.6479016114,5.25527286529541,-9.981427192687988,-11.111490249633789
1776038960652199700,-1522133.637800293,4.922478675842285,-10.18493366241455,-10.83855152130127
1776038960662240000,-1522133.6277600098,4.508281707763672,-10.067618370056152,-10.625467300415039
1776038960672310800,-1522133.617689209,4.240131378173828,-10.091560363769531,-10.836156845092773
1776038960682381600,-1522133.6076184083,4.089296340942383,-9.971850395202637,-11.075576782226562
1776038960692482800,-1522133.59751709,3.8786067962646484,-10.053253173828125,-11.480196952819824
1776038960702553600,-1522133.5874462891,3.8283286094665527,-10.105925559997559,-12.042834281921387
1776038960712655000,-1522133.5773449708,3.9001545906066895,-10.096348762512207,-12.54801082611084
1776038960722695200,-1522133.5673049316,4.005499362945557,-9.84256362915039,-12.72757625579834
1776038960732766200,-1522133.5572338868,3.780444383621216,-9.41400146484375,-12.550405502319336
1776038960742806300,-1522133.5471938476,3.485957622528076,-8.892065048217773,-11.980585098266602
1776038960752877000,-1522133.5371230468,2.8778305053710938,-8.389283180236816,-11.437101364135742
1776038960762948000,-1522133.527052002,2.099714994430542,-7.948749542236328,-11.077971458435059
1776038960773049300,-1522133.5169506837,1.3072341680526733,-7.4770917892456055,-11.176133155822754
1776038960813363000,-1522133.476636963,-0.8188169598579407,-6.308721542358398,-13.84566879272461
1776038960823433700,-1522133.4665661622,-0.8930372595787048,-6.081272125244141,-13.91270637512207
1776038960833535200,-1522133.4564648438,-1.0797849893569946,-6.196194171905518,-13.646949768066406
1776038960843606000,-1522133.446394043,-1.036689281463623,-6.411672115325928,-13.39316463470459
1776038960853676800,-1522133.4363232423,-0.8307880163192749,-6.368576526641846,-13.39316463470459
1776038960863747600,-1522133.4262524415,-0.6129156351089478,-6.184223175048828,-13.572729110717773
1776038960873818400,-1522133.4161816407,-0.5554547905921936,-6.189011573791504,-13.82412052154541
1776038960893929500,-1522133.3960705567,-0.5985504388809204,-6.7277069091796875,-14.25268268585205
1776038960904000300,-1522133.385999756,-0.9481038451194763,-7.311892032623291,-14.798561096191406
1776038960914101500,-1522133.3758984376,-1.5083470344543457,-6.938396453857422,-15.042769432067871
1776038960924172300,-1522133.3658276368,-2.0470423698425293,-6.1267619132995605,-14.954183578491211
1776038960934212600,-1522133.3557873536,-2.2816741466522217,-5.372588634490967,-14.563928604125977
1776038960944313900,-1522133.3456860352,-2.497152328491211,-4.78122091293335,-13.867216110229492
1776038960954384600,-1522133.3356154785,-2.5234885215759277,-4.479551315307617,-13.043610572814941
1776038960964455400,-1522133.3255446777,-2.4636335372924805,-4.853046894073486,-12.334927558898926
1776038960974495700,-1522133.3155041505,-2.367865562438965,-5.216965675354004,-11.750741958618164
1776038960984566500,-1522133.3054335937,-2.205059766769409,-5.157110691070557,-11.3269681930542
1776038961004738800,-1522133.2852612305,-1.8626888990402222,-4.730942726135254,-10.481815338134766
1776038961014748400,-1522133.275251465,-1.6687586307525635,-4.07014274597168,-9.981427192687988
1776038961024850000,-1522133.2651501466,-1.5466543436050415,-3.6080620288848877,-9.404424667358398
1776038961034951200,-1522133.2550488282,-1.5203180313110352,-3.512293815612793,-8.760383605957031
1776038961045022000,-1522133.2449780274,-1.4245500564575195,-3.3901896476745605,-8.166622161865234
1776038961055092700,-1522133.2349072266,-1.4484920501708984,-3.3303346633911133,-7.620744228363037
1776038961065194000,-1522133.2248059083,-1.2856862545013428,-3.203441858291626,-7.2113356590271
1776038961075264800,-1522133.2147353515,-1.3072341680526733,-3.021482467651367,-6.7492547035217285
1776038961085335600,-1522133.2046645507,-1.173158884048462,-2.999934673309326,-6.466738700866699
1776038961095406600,-1522133.194593506,-0.9265560507774353,-2.999934673309326,-6.112396717071533
1776038961115517400,-1522133.174482666,-0.790086567401886,-2.9520506858825684,-5.633556365966797
1776038961125588500,-1522133.1644116212,-0.5506663918495178,-2.8347349166870117,-5.463568210601807
1776038961135598000,-1522133.1544018555,-0.14844051003456116,-2.7126305103302,-5.34625244140625
1776038961145699300,-1522133.1443007812,-0.08858546614646912,-2.6455929279327393,-5.190629482269287
1776038961155770000,-1522133.1342299804,0.0454898327589035,-2.5905263423919678,-5.142745018005371
1776038961165841200,-1522133.1241589356,0.10055647045373917,-2.5546131134033203,-5.032611846923828
1776038961175881200,-1522133.1141188964,0.1628057211637497,-2.5905263423919678,-4.776432514190674
1776038961185952000,-1522133.1040480956,0.5410895943641663,-2.7102363109588623,-4.656722068786621
1776038961206063000,-1522133.0839370117,1.2761094570159912,-3.050212860107422,-4.496310710906982
1776038961216134000,-1522133.0738662109,1.556231141090393,-3.2130186557769775,-4.525041103363037
1776038961226205000,-1522133.063795166,1.86508309841156,-3.272873640060425,-4.587290287017822
1776038961236275700,-1522133.0537243653,2.0638017654418945,-3.6990416049957275,-4.927267074584961
1776038961246346500,-1522133.0436535645,2.2218191623687744,-4.331110954284668,-5.566518783569336
1776038961256417300,-1522133.0335827637,2.3558945655822754,-4.93923807144165,-6.382941722869873
1776038961266488000,-1522133.023511963,2.628833532333374,-5.446808815002441,-6.993463039398193
1776038961276558800,-1522133.0134411622,2.7676970958709717,-5.7987565994262695,-7.565677165985107
1776038961286599200,-1522133.003400879,2.4827871322631836,-5.916072368621826,-8.08043098449707
1776038961306710300,-1522132.983289795,1.7764976024627686,-5.1810526847839355,-9.308655738830566
1776038961326851800,-1522132.9631481934,1.678335428237915,-5.22175407409668,-10.400412559509277
1776038961336892200,-1522132.9531079102,1.7262194156646729,-5.726930618286133,-10.675745010375977
1776038961346932200,-1522132.943067871,1.8531121015548706,-6.121973514556885,-10.714052200317383
1776038961357033700,-1522132.9329663087,1.946485996246338,-6.631938934326172,-10.424354553222656
1776038961367104500,-1522132.922895508,2.2697031497955322,-6.983886241912842,-10.093954086303711
1776038961377205800,-1522132.9127941895,2.5953147411346436,-7.000645637512207,-9.923966407775879
1776038961387246000,-1522132.9027539063,2.5953147411346436,-7.000645637512207,-9.923966407775879
1776038961397316900,-1522132.8926831055,2.9688100814819336,-6.677428722381592,-9.911994934082031
1776038961417428000,-1522132.8725720216,3.663128614425659,-6.387730121612549,-10.644620895385742
1776038961427498800,-1522132.8625012208,3.8091750144958496,-5.95677375793457,-11.140220642089844
1776038961437569500,-1522132.85243042,3.77565598487854,-5.595249176025391,-11.492168426513672
1776038961447640300,-1522132.8423596192,3.5913026332855225,-5.140350818634033,-11.798625946044922
1776038961457711000,-1522132.8322888184,3.248931646347046,-4.807557106018066,-11.956643104553223
1776038961467782000,-1522132.8222180177,2.940079689025879,-4.575319290161133,-12.191274642944336
1776038961477883400,-1522132.8121166993,2.5546131134033203,-4.402936935424805,-12.310985565185547
1776038961487923500,-1522132.80207666,2.2601263523101807,-4.426878929138184,-12.382811546325684
1776038961497994200,-1522132.7920058593,2.03507137298584,-4.458003520965576,-12.351686477661133
1776038961508065300,-1522132.7819348145,2.0231003761291504,-4.654327869415283,-12.265495300292969
1776038961528206800,-1522132.761793213,2.164358377456665,-5.240907669067383,-11.899182319641113
1776038961538247200,-1522132.7517529298,2.298433542251587,-5.683835029602051,-11.729193687438965
1776038961548318000,-1522132.741682129,2.3367409706115723,-6.0597243309021,-11.511322021484375
1776038961558388700,-1522132.7316113282,2.3271639347076416,-6.543353080749512,-11.245565414428711
1776038961568459500,-1522132.7215405274,2.207453966140747,-6.806715488433838,-10.989385604858398
1776038961578560800,-1522132.711439209,1.9776105880737305,-7.137115478515625,-10.675745010375977
1776038961588631600,-1522132.7013684083,1.6663644313812256,-7.41484260559082,-10.398017883300781
1776038961598702300,-1522132.6912976075,1.6615760326385498,-7.869740962982178,-10.196905136108398
1776038961608773000,-1522132.6812268067,1.7621324062347412,-8.212111473083496,-9.828198432922363
1776038961618844000,-1522132.671156006,2.2673089504241943,-8.619126319885254,-9.528923034667969
1776038961628914700,-1522132.6610852052,2.868253707885742,-8.865729331970215,-9.035717010498047
1776038961639016200,-1522132.6509838868,3.134010076522827,-8.662221908569336,-8.588001251220703
1776038961649087000,-1522132.640913086,3.3016040325164795,-8.226476669311523,-8.17380428314209
1776038961659157800,-1522132.6308422852,3.2585084438323975,-7.661445617675781,-7.838616371154785
1776038961669198000,-1522132.620802002,3.1699230670928955,-7.177816867828369,-7.627926826477051
1776038961679268900,-1522132.6107312012,3.2393548488616943,-6.89530086517334,-7.3669586181640625
1776038961689309200,-1522132.600690918,3.4548330307006836,-6.823474884033203,-7.086836814880371
1776038961699380000,-1522132.5906201173,3.823540210723877,-6.938396453857422,-6.789956092834473
1776038961709450800,-1522132.5805493165,4.098873138427734,-7.046135425567627,-6.557718276977539
1776038961719552000,-1522132.5704479981,4.311957359313965,-7.0772600173950195,-6.481103897094727
1776038961739693600,-1522132.5503063966,4.7405195236206055,-7.364564418792725,-7.0557122230529785
1776038961749734000,-1522132.5402661134,4.800374507904053,-7.565677165985107,-7.400477409362793
1776038961759804700,-1522132.5301953126,4.680664539337158,-7.745242595672607,-7.582436561584473
1776038961769845000,-1522132.5201550294,4.546588897705078,-7.967903137207031,-7.702147006988525
1776038961779885300,-1522132.5101147462,4.37420654296875,-8.197746276855469,-7.711723804473877
1776038961789956000,-1522132.5000439454,4.055777549743652,-8.310274124145508,-7.955932140350342
1776038961800057300,-1522132.489942627,4.0533833503723145,-8.26239013671875,-8.216899871826172
1776038961810128100,-1522132.4798718262,3.823540210723877,-8.453926086425781,-8.47786808013916
1776038961820260000,-1522132.4697399903,3.758896589279175,-8.597578048706055,-8.769960403442383
1776038961830300200,-1522132.459699951,3.7708675861358643,-8.62391471862793,-9.198522567749023
1776038961860482000,-1522132.4295180663,3.8546648025512695,-7.920019149780273,-10.876858711242676
1776038961870552800,-1522132.4194472656,3.754108190536499,-7.723694801330566,-11.743558883666992
1776038961880623900,-1522132.4093762208,3.641580820083618,-7.773972988128662,-12.569559097290039
1776038961890664000,-1522132.3993361816,3.4787750244140625,-8.078036308288574,-13.615824699401855
1776038961900734700,-1522132.3892653808,3.270479440689087,-8.317456245422363,-14.475343704223633
1776038961910805800,-1522132.379194336,2.999934673309326,-8.489839553833008,-15.356410026550293
1776038961920876500,-1522132.3691235352,2.719813108444214,-9.011775016784668,-15.986084938049316
1776038961930947300,-1522132.3590527344,2.4875755310058594,-9.682151794433594,-16.302120208740234
1776038961941018000,-1522132.3489819337,2.1308395862579346,-10.043676376342773,-16.306907653808594
1776038961951089000,-1522132.338911133,1.8387469053268433,-9.818621635437012,-15.756241798400879
1776038961961159700,-1522132.328840332,1.5442601442337036,-9.169792175292969,-15.121777534484863
1776038961971230500,-1522132.3187695313,1.2330138683319092,-8.38449478149414,-14.54956340789795
1776038961981270800,-1522132.3087292481,0.9528923034667969,-7.726089000701904,-14.053963661193848
1776038961991311000,-1522132.298688965,0.8475474119186401,-7.156269073486328,-13.828908920288086
1776038962001382000,-1522132.2886181641,0.9193734526634216,-6.703764915466309,-13.807361602783203
1776038962011452700,-1522132.2785473634,0.9768342971801758,-6.493074893951416,-13.761871337890625
1776038962021554000,-1522132.268446045,0.9289502501487732,-6.229712963104248,-13.563152313232422
1776038962031594200,-1522132.2584057618,0.9528923034667969,-6.090848922729492,-13.21599292755127
1776038962051735800,-1522132.2382641602,0.8690952062606812,-6.610390663146973,-12.334927558898926
1776038962061837000,-1522132.2281628419,0.8331822156906128,-6.866570472717285,-11.911153793334961
1776038962071877400,-1522132.2181225587,0.8475474119186401,-6.540958881378174,-11.602301597595215
1776038962081948200,-1522132.208051758,0.8020575642585754,-6.064512729644775,-11.417947769165039
1776038962092019000,-1522132.197980957,0.6129156351089478,-5.537788391113281,-11.283872604370117
1776038962102120400,-1522132.1878796387,0.3878606855869293,-5.097255229949951,-11.125855445861816
1776038962112160500,-1522132.1778395995,0.10773907601833344,-4.778826713562012,-10.74996566772461
1776038962122231300,-1522132.1677687988,-0.22744916379451752,-4.55616569519043,-10.299856185913086
1776038962132302300,-1522132.157697754,-0.021547814831137657,-4.4939165115356445,-9.679757118225098
1776038962152504800,-1522132.1374951173,-0.09816227108240128,-4.101267337799072,-8.643068313598633
1776038962162606000,-1522132.127393799,-0.33997663855552673,-3.9839515686035156,-8.212111473083496
1776038962172646400,-1522132.1173535157,-0.5195417404174805,-3.7421371936798096,-7.757213592529297
1776038962182717200,-1522132.107282715,-0.6224924325942993,-3.60566782951355,-7.390900611877441
1776038962192788000,-1522132.0972119141,-0.17956513166427612,-3.3854012489318848,-7.06528902053833
1776038962202889500,-1522132.0871105958,0.0933738648891449,-3.2632968425750732,-6.797138690948486
1776038962212899000,-1522132.0771008302,0.16519992053508759,-3.2345664501190186,-6.485892295837402
1776038962223000600,-1522132.0669995118,0.21308395266532898,-3.1459810733795166,-6.179434776306152
1776038962233040600,-1522132.0569594726,-0.08858546614646912,-2.7461493015289307,-5.674258232116699
1776038962243081000,-1522132.0469189454,-0.42377370595932007,-2.3032219409942627,-5.092466831207275
1776038962263253200,-1522132.0267468262,0.2082955539226532,-2.2026655673980713,-4.036623954772949
1776038962273324000,-1522132.0166760255,0.4836287498474121,-2.9472622871398926,-3.7038300037384033
1776038962283394800,-1522132.0066052247,0.8259995579719543,-3.734954595565796,-3.6296098232269287
1776038962293435100,-1522131.9965649415,1.5418659448623657,-4.24970817565918,-3.6990416049957275
1776038962303536400,-1522131.9864636231,1.9153614044189453,-4.268861770629883,-3.706224203109741
1776038962313576700,-1522131.97642334,1.8315643072128296,-3.9480385780334473,-3.536235809326172
1776038962323617000,-1522131.9663830567,1.6400281190872192,-3.708618402481079,-3.117250680923462
1776038962333687800,-1522131.956312256,1.6041151285171509,-3.308786630630493,-2.8179752826690674
1776038962363930600,-1522131.926069336,2.013523578643799,-3.2537200450897217,-2.8586769104003906
1776038962373909800,-1522131.916090332,2.0901381969451904,-3.488351821899414,-3.0334534645080566
1776038962383980800,-1522131.9060192872,2.188300371170044,-3.9264907836914062,-3.1747114658355713
1776038962394051600,-1522131.8959484864,2.118868589401245,-4.1874589920043945,-3.2417490482330322
1776038962404122400,-1522131.8858776856,2.2026655673980713,-4.69024133682251,-3.378218650817871
1776038962414132000,-1522131.87586792,2.3319525718688965,-5.295974254608154,-3.708618402481079
1776038962424233500,-1522131.8657666016,2.3798365592956543,-6.430825710296631,-4.369418144226074
1776038962434273500,-1522131.8557265624,2.6001031398773193,-7.769184589385986,-5.252878665924072
1776038962474526500,-1522131.815473633,0.9289502501487732,-7.371747016906738,-9.624691009521484
1776038962484597200,-1522131.805402832,0.6153098344802856,-7.173028469085693,-9.718064308166504
1776038962494576400,-1522131.795423584,0.42377370595932007,-6.7923502922058105,-9.988609313964844
1776038962504677600,-1522131.7853222657,0.6703764796257019,-6.572083473205566,-10.141838073730469
1776038962514748400,-1522131.775251465,0.9528923034667969,-6.9455790519714355,-10.268731117248535
1776038962524819200,-1522131.7651809081,1.5275006294250488,-7.287950038909912,-10.369287490844727
1776038962534859500,-1522131.755140381,2.1045033931732178,-7.333439826965332,-10.103530883789062
1776038962544961000,-1522131.7450390626,2.4468741416931152,-7.422025203704834,-10.105925559997559
1776038962565133000,-1522131.7248669434,3.2537200450897217,-7.113173484802246,-10.450690269470215
1776038962575173400,-1522131.7148266602,3.49314022064209,-6.907271862030029,-10.848128318786621
1776038962595345400,-1522131.694654541,3.864241600036621,-6.514622688293457,-11.310209274291992
1776038962605416200,-1522131.6845837403,3.7229835987091064,-6.315904140472412,-11.401188850402832
1776038962615456500,-1522131.674543457,3.445256233215332,-6.09324312210083,-11.463438034057617
1776038962625557800,-1522131.6644421387,3.1890766620635986,-5.947196960449219,-11.4849853515625
1776038962635598000,-1522131.6544018555,2.80361008644104,-5.863399982452393,-11.528080940246582
1776038962645668900,-1522131.6443310548,2.5330653190612793,-5.913678169250488,-11.535264015197754
1776038962665780000,-1522131.6242199708,2.1045033931732178,-6.090848922729492,-11.293449401855469
1776038962675820300,-1522131.6141796876,2.0925323963165283,-6.143521785736084,-11.097125053405762
1776038962685891000,-1522131.6041088868,2.1787235736846924,-6.217741966247559,-10.948684692382812
1776038962695931400,-1522131.5940686036,2.360682964324951,-6.339846134185791,-10.76193618774414
1776038962706032600,-1522131.5839672852,2.583343744277954,-6.490680694580078,-10.558429718017578
1776038962716073000,-1522131.573927002,2.784456491470337,-6.574477672576904,-10.33098030090332
1776038962726174200,-1522131.5638256837,2.6791117191314697,-6.670246124267578,-9.998186111450195
1776038962736184000,-1522131.553815918,2.540247917175293,-6.564900875091553,-9.557653427124023
1776038962746285300,-1522131.5437145997,2.3247697353363037,-6.4834980964660645,-9.129091262817383
1776038962756325600,-1522131.5336743165,2.1930887699127197,-6.3302693367004395,-8.707711219787598
1776038962776467200,-1522131.513532715,1.8794482946395874,-6.143521785736084,-8.339004516601562
1776038962786538000,-1522131.5034619141,1.7932571172714233,-5.995080947875977,-8.118738174438477
1776038962796608800,-1522131.4933911134,1.9967641830444336,-5.975927352905273,-7.879317760467529
1776038962806710300,-1522131.483289795,2.2026655673980713,-6.0190229415893555,-7.556100368499756
1776038962816750300,-1522131.4732497558,2.0638017654418945,-5.9304375648498535,-7.328651428222656
1776038962826790700,-1522131.4632092286,1.9273324012756348,-6.021417140960693,-7.242460250854492
1776038962836831000,-1522131.4531689454,1.944091796875,-6.112396717071533,-7.201758861541748
1776038962856942000,-1522131.4330578614,1.8986018896102905,-6.835445880889893,-6.675034523010254
1776038962877114000,-1522131.4128859863,2.1523873805999756,-7.228095054626465,-6.196194171905518
1776038962887215600,-1522131.402784424,2.231395959854126,-7.364564418792725,-6.2201361656188965
1776038962897256000,-1522131.3927441407,2.4588451385498047,-7.448361396789551,-6.2847795486450195
1776038962907357200,-1522131.3826428223,2.6575639247894287,-7.493851184844971,-6.361393928527832
1776038962917428000,-1522131.3725720216,2.6575639247894287,-7.493851184844971,-6.361393928527832
1776038962927498800,-1522131.3625012208,2.782062292098999,-7.4986395835876465,-6.469132900238037
1776038962937569500,-1522131.35243042,2.7988216876983643,-7.599195957183838,-6.777985095977783
1776038962947640300,-1522131.3423596192,3.045424461364746,-7.671022415161133,-7.074865818023682
1776038962957711000,-1522131.3322888184,3.268085241317749,-7.817068576812744,-7.3238630294799805
1776038962977883400,-1522131.3121166993,3.4308910369873047,-7.8098859786987305,-7.711723804473877
1776038962998055400,-1522131.2919445802,3.4141316413879395,-7.493851184844971,-8.248024940490723
1776038963008156700,-1522131.2818432618,3.4524388313293457,-7.5417351722717285,-8.75080680847168
1776038963018227500,-1522131.271772461,3.4835634231567383,-7.745242595672607,-9.23443603515625
1776038963028328700,-1522131.2616713867,3.512293815612793,-8.1139497756958,-9.627084732055664
1776038963038399700,-1522131.2516003419,3.4141316413879395,-8.233659744262695,-9.785101890563965
1776038963048470500,-1522131.241529541,3.2130186557769775,-8.133103370666504,-10.314221382141113
1776038963058541300,-1522131.2314587403,3.1244332790374756,-7.785943984985352,-11.094730377197266
1776038963088723200,-1522131.2012768555,2.6815059185028076,-7.9846625328063965,-14.599842071533203
1776038963098763500,-1522131.1912365723,2.7126305103302,-8.090007781982422,-15.401899337768555
1776038963108834300,-1522131.1811657716,2.4660277366638184,-8.164227485656738,-15.899893760681152
1776038963118905000,-1522131.1710949708,2.2649147510528564,-8.078036308288574,-16.079458236694336
1776038963129006300,-1522131.1609936524,2.2026655673980713,-7.931990146636963,-15.82327938079834
1776038963139046700,-1522131.1509533692,2.212242364883423,-7.692570209503174,-14.911087989807129
1776038963149117400,-1522131.1408825684,2.1739351749420166,-7.5968017578125,-13.64455509185791
1776038963159188200,-1522131.1308117677,1.9991583824157715,-7.529764175415039,-12.289437294006348
1776038963209420000,-1522131.080580078,0.5147533416748047,-8.267178535461426,-11.985373497009277
1776038963219460400,-1522131.0705395509,0.1843535304069519,-8.039729118347168,-11.915942192077637
1776038963229561900,-1522131.0604382325,-0.05027823522686958,-7.508216381072998,-11.690886497497559
1776038963239632600,-1522131.0503674317,-0.09576806426048279,-7.0772600173950195,-11.422736167907715
1776038963249703400,-1522131.040296631,-0.14604631066322327,-6.584054470062256,-11.252747535705566
1776038963259743700,-1522131.0302563477,-0.0694318488240242,-6.1985883712768555,-11.42752456665039
1776038963269814500,-1522131.020185547,0.040701430290937424,-5.872976779937744,-11.69806957244873
1776038963299996400,-1522130.9900036622,0.2059013396501541,-5.305551052093506,-11.209651947021484
1776038963310036500,-1522130.979963623,0.11971008777618408,-5.243301868438721,-10.737994194030762
1776038963320107500,-1522130.9698925782,-0.05746084079146385,-5.219359874725342,-10.342951774597168
1776038963330178300,-1522130.9598217774,-0.2801215946674347,-5.039794445037842,-9.959878921508789
1776038963340218400,-1522130.9497817382,-0.395043283700943,-4.733336925506592,-9.5408935546875
1776038963350319900,-1522130.9396801759,-0.4908113479614258,-4.4939165115356445,-9.033323287963867
1776038963360360200,-1522130.9296398927,-0.42377370595932007,-4.244919776916504,-8.710105895996094
1776038963370461400,-1522130.9195385743,-0.49799394607543945,-4.177882194519043,-8.243236541748047
1776038963410683600,-1522130.8793164063,-0.05027823522686958,-3.5410242080688477,-6.303933143615723
1776038963430794800,-1522130.8592053223,0.31842881441116333,-3.7493197917938232,-5.631162166595459
1776038963440834800,-1522130.8491652831,0.36152446269989014,-3.88818359375,-5.341464042663574
1776038963450905900,-1522130.8390942384,0.27054479718208313,-4.02465295791626,-5.006275653839111
1776038963460976600,-1522130.8290234376,0.31124621629714966,-3.9217023849487305,-4.7620673179626465
1776038963471047400,-1522130.8189526368,0.4836287498474121,-3.8379054069519043,-4.486733913421631
1776038963481118200,-1522130.808881836,0.7541735172271729,-3.818751811981201,-4.343081951141357
1776038963491219500,-1522130.7987805177,0.9528923034667969,-3.8953661918640137,-4.036623954772949
1776038963511300000,-1522130.7786999512,1.2952631711959839,-3.7708675861358643,-3.2178070545196533
1776038963521371000,-1522130.7686291505,1.5658079385757446,-3.952826976776123,-2.832340717315674
1776038963531441700,-1522130.7585583497,1.6376339197158813,-4.182670593261719,-2.516305923461914
1776038963541512400,-1522130.748487549,1.5873557329177856,-4.151545524597168,-2.4827871322631836
1776038963551613700,-1522130.7383862305,1.5921441316604614,-4.079719543457031,-2.6192567348480225
1776038963561684500,-1522130.7283154298,1.5107412338256836,-4.359841346740723,-2.561795711517334
1776038963571755300,-1522130.718244629,1.3551181554794312,-4.7836151123046875,-2.609679937362671
1776038963581826000,-1522130.7081740722,1.3263877630233765,-5.128379821777344,-2.7246015071868896
1776038963591896800,-1522130.6981032714,1.3623007535934448,-5.568912982940674,-2.8993782997131348
1776038963601937200,-1522130.6880627442,1.4867992401123047,-5.813121795654297,-3.335123062133789
1776038963622078700,-1522130.6679213867,1.6065093278884888,-6.433219909667969,-4.381389141082764
1776038963632149500,-1522130.6578505859,1.8076223134994507,-6.861782073974609,-4.876988887786865
1776038963642189800,-1522130.6478100587,1.7166426181793213,-7.673416614532471,-5.4875102043151855
1776038963652260600,-1522130.637739502,1.4987702369689941,-8.401253700256348,-6.754043102264404
1776038963662331400,-1522130.627668701,0.9097966551780701,-8.135497093200684,-7.94635534286499
1776038963672402400,-1522130.6175976563,0.33518823981285095,-7.412448406219482,-8.772355079650879
1776038963682473200,-1522130.6075268555,-0.05506663769483566,-7.117961883544922,-9.327810287475586
1776038963692544000,-1522130.5974560548,-0.4381389021873474,-6.572083473205566,-9.514557838439941
1776038963702614800,-1522130.587385254,-0.586579442024231,-6.6391215324401855,-9.588777542114258
1776038963722756400,-1522130.5672436524,-0.48602294921875,-7.249642848968506,-9.57441234588623
1776038963732827100,-1522130.5571728516,-0.26815059781074524,-7.390900611877441,-9.418789863586426
1776038963742928400,-1522130.5470715333,0.019153613597154617,-7.41484260559082,-9.378087997436523
1776038963752999200,-1522130.5370007325,0.2322375625371933,-7.285555839538574,-9.38048267364502
1776038963763039500,-1522130.5269604493,0.6272808313369751,-7.204153060913086,-9.509769439697266
1776038963773110300,-1522130.5168896485,1.0127472877502441,-7.139509677886963,-9.873687744140625
1776038963783211500,-1522130.5067885742,1.6304513216018677,-7.122750282287598,-10.247182846069336
1776038963793313000,-1522130.4966870118,2.1787235736846924,-7.115567684173584,-10.639832496643066
1776038963803383800,-1522130.486616211,2.7030537128448486,-7.06528902053833,-11.109095573425293
1776038963823525400,-1522130.4664746094,2.808398485183716,-6.53377628326416,-11.695674896240234
1776038963833596200,-1522130.4564038087,2.717418909072876,-6.320692539215088,-11.717223167419434
1776038963843636500,-1522130.4463635255,2.4157495498657227,-6.114790916442871,-11.604695320129395
1776038963853737700,-1522130.436262207,2.0039467811584473,-6.016628742218018,-11.396400451660156
1776038963863839000,-1522130.4261611328,1.6663644313812256,-6.030993938446045,-11.224017143249512
1776038963873940500,-1522130.4160595704,1.4077905416488647,-6.1530985832214355,-11.075576782226562
1776038963883980800,-1522130.4060192872,1.2425906658172607,-6.035782337188721,-10.793061256408691
1776038963893990400,-1522130.3960095216,1.290474772453308,-5.815515995025635,-10.615890502929688
1776038963924233500,-1522130.3657666016,1.8339585065841675,-5.394136428833008,-9.75637149810791
1776038963944405500,-1522130.3455944825,2.075772762298584,-5.56173038482666,-9.241618156433105
1776038963954476300,-1522130.3355236817,1.9991583824157715,-5.882553577423096,-8.83699893951416
1776038963964516600,-1522130.3254833985,1.8842366933822632,-6.033388137817383,-8.434772491455078
1776038963974557000,-1522130.3154431153,1.7046716213226318,-6.112396717071533,-8.092401504516602
1776038963984627700,-1522130.3053723145,1.5682021379470825,-6.160281181335449,-7.884106159210205
1776038963994729000,-1522130.2952709962,1.53707754611969,-6.212953567504883,-7.759607791900635
1776038964024941300,-1522130.2650585938,1.5682021379470825,-6.531382083892822,-7.982268333435059
1776038964045083000,-1522130.2449172363,2.4013843536376953,-6.89530086517334,-7.637503623962402
1776038964055153700,-1522130.2348464355,2.7485435009002686,-7.072471618652344,-7.252037048339844
1776038964065255200,-1522130.2247448731,3.2106244564056396,-7.026981830596924,-7.0772600173950195
1776038964075356400,-1522130.2146435548,3.706224203109741,-6.885724067687988,-7.015010833740234
1776038964085396700,-1522130.2046032716,3.890577793121338,-6.813898086547852,-7.247248649597168
1776038964095437000,-1522130.1945629884,4.280832767486572,-6.8593878746032715,-7.630321025848389
1776038964105507800,-1522130.1844921876,4.675876140594482,-7.168240070343018,-7.762001991271973
1776038964135628500,-1522130.154371338,5.123591423034668,-7.836222171783447,-7.594407558441162
1776038964145699300,-1522130.1443007812,5.169081687927246,-7.953537940979004,-7.898471355438232
1776038964165841200,-1522130.1241589356,4.786009311676025,-8.401253700256348,-8.973467826843262
1776038964175912000,-1522130.1140881348,4.378994941711426,-8.26239013671875,-9.27034854888916
1776038964185952000,-1522130.1040480956,4.0078935623168945,-8.097189903259277,-9.488221168518066
1776038964196023000,-1522130.0939770509,3.7924153804779053,-7.979874134063721,-9.768342971801758
1776038964206093800,-1522130.08390625,3.5458126068115234,-8.123526573181152,-9.976638793945312
1776038964216164600,-1522130.0738354493,3.3303346633911133,-8.149862289428711,-10.429142951965332
1776038964236245000,-1522130.053755127,3.44765043258667,-8.640673637390137,-12.876016616821289
1776038964246285300,-1522130.0437145997,3.6176388263702393,-8.89685344696045,-14.223952293395996
1776038964266427000,-1522130.0235729981,3.6774938106536865,-9.14585018157959,-15.780183792114258
1776038964276528400,-1522130.0134716798,3.3231520652770996,-9.033323287963867,-15.938200950622559
1776038964286599200,-1522130.003400879,2.9735984802246094,-8.702922821044922,-15.725116729736328
1776038964296670000,-1522129.9933300782,2.5785553455352783,-8.259995460510254,-15.021221160888672
1776038964316750300,-1522129.9732497558,1.98958158493042,-6.835445880889893,-12.87362289428711
1776038964326790700,-1522129.9632092286,1.7357962131500244,-6.414066314697266,-12.236764907836914
1776038964357033700,-1522129.9329663087,1.4939818382263184,-5.035006046295166,-12.84968090057373
1776038964377175300,-1522129.912824707,1.4939818382263184,-4.6040496826171875,-12.892776489257812
1776038964387215600,-1522129.902784424,1.5969325304031372,-4.800374507904053,-12.58152961730957
1776038964397256000,-1522129.8927441407,1.7310078144073486,-5.233725070953369,-12.464214324951172
1776038964407326700,-1522129.88267334,1.7908629179000854,-5.6191911697387695,-12.78503704071045
1776038964417397500,-1522129.8726025391,1.359906554222107,-5.726930618286133,-13.15613842010498
1776038964427468300,-1522129.8625317384,0.8188169598579407,-5.578489780426025,-13.46020221710205
1776038964447579400,-1522129.8424206544,0.2561795711517334,-5.25527286529541,-13.39316463470459
1776038964457650200,-1522129.8323498536,-0.22266076505184174,-4.747702121734619,-13.048398971557617
1776038964467721000,-1522129.8222790528,-0.7733271718025208,-4.434061527252197,-12.466608047485352
1776038964477791700,-1522129.812208252,-1.0319008827209473,-4.37420654296875,-11.726799964904785
1776038964487832000,-1522129.8021679688,-1.1420341730117798,-4.247313976287842,-11.022904396057129
1776038964497902800,-1522129.792097168,-1.2186486721038818,-4.182670593261719,-10.374075889587402
1776038964507943200,-1522129.7820568848,-1.0055646896362305,-4.043806552886963,-9.828198432922363
1776038964518014000,-1522129.771986084,-0.6631938815116882,-3.9384617805480957,-9.38048267364502
1776038964528084700,-1522129.7619152833,-0.4118026793003082,-3.6727054119110107,-8.939949035644531
1776038964538186000,-1522129.751813965,-0.2322375625371933,-3.4955344200134277,-8.394071578979492
1776038964558297000,-1522129.731702881,-0.031124621629714966,-3.993528366088867,-7.6351094245910645
1776038964568367900,-1522129.7216320802,-0.08858546614646912,-4.022258758544922,-7.321468830108643
1776038964578438700,-1522129.7115612794,-0.2753331959247589,-3.7445313930511475,-6.952761650085449
1776038964588509400,-1522129.7014904786,-0.3423708379268646,-3.3638534545898438,-6.636727333068848
1776038964598610700,-1522129.6913894042,-0.37828385829925537,-2.978386878967285,-6.186617374420166
1776038964608681700,-1522129.6813183594,-0.304063618183136,-2.736572504043579,-5.688623428344727
1776038964618783000,-1522129.671217041,-0.2298433631658554,-2.6144683361053467,-5.197812080383301
1776038964628853800,-1522129.6611462403,-0.08140286058187485,-2.5761611461639404,-4.857835292816162
1776038964638924500,-1522129.6510754395,-0.11252748221158981,-2.4636335372924805,-4.491522312164307
1776038964659096600,-1522129.6309033204,-0.07661445438861847,-1.7980455160140991,-4.079719543457031
1776038964669137000,-1522129.6208630372,-0.24181437492370605,-1.4987702369689941,-3.866635799407959
1776038964679177200,-1522129.610822754,-0.3878606855869293,-1.2449848651885986,-3.5889084339141846
1776038964689248000,-1522129.6007519532,-0.38546648621559143,-1.161187767982483,-3.359065055847168
1776038964699288300,-1522129.59071167,-0.26815059781074524,-1.1180921792984009,-3.1435868740081787
1776038964709359000,-1522129.5806408692,-0.047884032130241394,-1.1994950771331787,-3.0861260890960693
1776038964719460400,-1522129.5705395509,0.18914192914962769,-1.3000515699386597,-3.181894063949585
1776038964729531100,-1522129.56046875,0.5674257874488831,-1.4915876388549805,-3.2393548488616943
1776038964759804700,-1522129.5301953126,1.522712230682373,-2.557007312774658,-4.163516521453857
1776038964779946200,-1522129.510053711,1.7573440074920654,-3.758896589279175,-5.410895824432373
1776038964790017000,-1522129.4999829102,2.164358377456665,-4.455609321594238,-6.098031520843506
1776038964800087800,-1522129.4899121094,2.5929205417633057,-5.102043628692627,-7.091625213623047
1776038964810158600,-1522129.4798413087,2.4899697303771973,-5.389348030090332,-8.379706382751465
1776038964820260000,-1522129.4697399903,2.4372973442077637,-5.461174011230469,-9.847352027893066
1776038964830300200,-1522129.459699951,2.078166961669922,-5.171475887298584,-11.441889762878418
1776038964840371000,-1522129.4496291503,1.721431016921997,-5.700594425201416,-12.741941452026367
1776038964880654300,-1522129.4093457032,1.2473790645599365,-6.3973069190979,-15.562311172485352
1776038964890694700,-1522129.39930542,1.764526605606079,-7.050923824310303,-16.019603729248047
1776038964900765400,-1522129.3892346192,2.296039342880249,-7.417236804962158,-16.235082626342773
1776038964910836200,-1522129.3791638184,2.983175277709961,-7.443572998046875,-16.381128311157227
1776038964920876500,-1522129.3691235352,3.6320040225982666,-7.168240070343018,-16.45534896850586
1776038964930947300,-1522129.3590527344,4.381389141082764,-6.72531270980835,-16.450559616088867
1776038964941018000,-1522129.3489819337,5.04218864440918,-6.643909931182861,-16.484079360961914
1776038964951089000,-1522129.338911133,5.5114521980285645,-6.629544734954834,-16.373945236206055
1776038964981331700,-1522129.308668213,5.363011837005615,-7.338228225708008,-14.88475227355957
1776038964991402500,-1522129.2985974122,4.72376012802124,-7.194576263427734,-14.200010299682617
1776038965001504000,-1522129.2884960938,3.8163576126098633,-6.912060260772705,-13.42668342590332
1776038965011544000,-1522129.2784560546,2.9017724990844727,-6.538564682006836,-12.528857231140137
1776038965021645600,-1522129.2683544923,2.3511061668395996,-6.050147533416748,-11.8441162109375
1776038965031716400,-1522129.2582836915,1.8291701078414917,-5.767632007598877,-11.097125053405762
1776038965041787100,-1522129.2482128907,1.5490485429763794,-5.523423194885254,-10.651803016662598
1776038965051796700,-1522129.238203369,1.4844050407409668,-5.207388877868652,-10.156203269958496
1776038965061898200,-1522129.2281018067,1.4700398445129395,-5.051765441894531,-9.624691009521484
1776038965092080000,-1522129.197919922,1.6065093278884888,-5.0469770431518555,-7.893682956695557
1776038965102151000,-1522129.1878491212,1.482010841369629,-5.202600479125977,-7.3238630294799805
1776038965112221700,-1522129.1777783204,1.3311761617660522,-5.1810526847839355,-6.885724067687988
1776038965122323000,-1522129.167677002,1.1755530834197998,-5.386953830718994,-6.358999729156494
1776038965132332800,-1522129.1576672364,0.9097966551780701,-5.521028995513916,-5.944802761077881
1776038965142434000,-1522129.147565918,0.7541735172271729,-5.614402770996094,-5.671864032745361
1776038965152444000,-1522129.1375561524,0.7254431247711182,-5.810727596282959,-5.51624059677124
1776038965162545200,-1522129.127454834,0.8571242094039917,-6.200982570648193,-5.413290023803711
1776038965182686700,-1522129.1073132325,1.5275006294250488,-6.926425457000732,-5.044582843780518
1776038965192757500,-1522129.0972424317,1.699883222579956,-7.161057472229004,-5.018246650695801
1776038965202858800,-1522129.0871413574,1.9632453918457031,-7.271190643310547,-5.094861030578613
1776038965212899000,-1522129.0771008302,2.145204782485962,-7.139509677886963,-5.17626428604126
1776038965222939400,-1522129.067060547,2.1763293743133545,-6.900089263916016,-5.214571475982666
1776038965232979700,-1522129.0570202637,2.1045033931732178,-6.627150535583496,-5.207388877868652
1776038965243050500,-1522129.046949463,2.075772762298584,-6.428431510925293,-5.157110691070557
1776038965253121300,-1522129.0368786622,2.0207061767578125,-6.385335922241211,-5.4659624099731445
1776038965263192000,-1522129.0268078614,2.097320795059204,-6.433219909667969,-5.829881191253662
1776038965273232400,-1522129.0167675782,2.3247697353363037,-6.536170482635498,-6.485892295837402
1776038965293313000,-1522128.9966870118,2.604891538619995,-7.060500621795654,-7.405265808105469
1776038965313424100,-1522128.9765759278,2.9281086921691895,-7.175422668457031,-7.977479934692383
1776038965333535200,-1522128.9564648438,3.023876667022705,-7.201758861541748,-8.62391471862793
1776038965343606000,-1522128.946394043,3.2345664501190186,-7.247248649597168,-9.193734169006348
1776038965353676800,-1522128.9363232423,3.35667085647583,-7.144298076629639,-9.636661529541016
1776038965363747600,-1522128.9262524415,3.3901896476745605,-7.084442615509033,-10.005369186401367
1776038965373788000,-1522128.9162121583,3.380612850189209,-6.909666061401367,-10.304644584655762
1776038965383889200,-1522128.90611084,3.3016040325164795,-6.9240312576293945,-10.76193618774414
1776038965393960000,-1522128.8960400391,3.287238836288452,-6.8162922859191895,-11.329362869262695
1776038965404030700,-1522128.8859692384,3.2848446369171143,-6.830657482147217,-12.148179054260254
1776038965414040600,-1522128.8759594727,3.315969467163086,-6.789956092834473,-12.94305419921875
1776038965424111400,-1522128.865888672,3.2154128551483154,-6.8378400802612305,-13.807361602783203
1776038965434151700,-1522128.8558483887,3.095702886581421,-6.878541469573975,-14.532804489135742
1776038965444253000,-1522128.8457470704,3.2154128551483154,-7.12035608291626,-15.184026718139648
1776038965454293200,-1522128.8357067872,3.3446998596191406,-7.433996200561523,-15.758635520935059
1776038965464394500,-1522128.8256054688,3.4332852363586426,-7.931990146636963,-16.41464614868164
1776038965474434800,-1522128.8155651856,3.663128614425659,-7.965508937835693,-16.88869857788086
1776038965514626600,-1522128.7753735352,2.58813214302063,-7.292738437652588,-14.123395919799805
1776038965524727800,-1522128.7652722169,1.7549498081207275,-7.072471618652344,-13.316550254821777
1776038965534768000,-1522128.7552319337,1.158793568611145,-6.598419666290283,-13.050793647766113
1776038965544808400,-1522128.7451916505,0.7829039692878723,-6.124367713928223,-13.266271591186523
1776038965554879200,-1522128.7351208497,0.6607996821403503,-5.75326681137085,-13.48414421081543
1776038965564980500,-1522128.7250195313,0.5913678407669067,-5.770026206970215,-13.52005672454834
1776038965575020800,-1522128.7149792481,0.545877993106842,-5.6670756340026855,-13.33809757232666
1776038965585122000,-1522128.7048779298,0.5363011956214905,-5.453991413116455,-12.945448875427246
1776038965605263600,-1522128.6847363282,0.7110779285430908,-5.370194435119629,-12.327744483947754
1776038965615304000,-1522128.674696045,0.9169792532920837,-5.430049419403076,-12.157755851745605
1776038965655556600,-1522128.6344433594,0.6177040338516235,-4.477157115936279,-10.795455932617188
1776038965665657900,-1522128.624342041,0.2322375625371933,-4.005499362945557,-10.105925559997559
1776038965675728600,-1522128.6142712403,-0.1149216815829277,-3.5889084339141846,-9.406818389892578
1776038965685799400,-1522128.6042006835,-0.4165911078453064,-3.246537446975708,-8.655038833618164
1776038965695839700,-1522128.5941601563,-0.7015010714530945,-3.043030261993408,-7.977479934692383
1776038965705880000,-1522128.5841198731,-0.6751648783683777,-2.782062292098999,-7.333439826965332
1776038965715950800,-1522128.5740490723,-0.40222588181495667,-2.5258827209472656,-6.751648902893066
1776038965726052000,-1522128.563947998,-0.2298433631658554,-2.691082715988159,-6.325480937957764
1776038965736123100,-1522128.5538769532,-0.1628057211637497,-3.1268274784088135,-5.901707172393799
1776038965746194000,-1522128.5438061524,-0.35913026332855225,-3.361459255218506,-5.643133640289307
1776038965756234000,-1522128.5337661132,-0.6105214357376099,-3.1100680828094482,-5.439626216888428
1776038965766305000,-1522128.5236950684,-0.7445967197418213,-2.736572504043579,-5.17626428604126
1776038965776345000,-1522128.5136550292,-0.8643068075180054,-2.185906171798706,-4.850652694702148
1776038965786415900,-1522128.5035842285,-0.7829039692878723,-1.9847931861877441,-4.333505153656006
1776038965796456200,-1522128.4935437012,-0.40940847992897034,-1.8531121015548706,-3.751713991165161
1776038965806527000,-1522128.4834731445,-0.28730419278144836,-2.0661959648132324,-3.1699230670928955
1776038965826607600,-1522128.463392334,0.12928688526153564,-2.2625205516815186,-2.233790159225464
1776038965836678400,-1522128.4533215333,0.20111294090747833,-2.382230758666992,-2.099714994430542
1776038965846749200,-1522128.4432507325,0.19393034279346466,-2.367865562438965,-1.9847931861877441
1776038965856789500,-1522128.4332104493,0.304063618183136,-2.3080103397369385,-2.032677173614502
1776038965866890800,-1522128.423109131,0.22744916379451752,-2.231395959854126,-2.0685901641845703
1776038965876961500,-1522128.4130385742,0.33518823981285095,-2.2170307636260986,-2.3104045391082764
1776038965887063000,-1522128.4029370118,0.45010992884635925,-2.346317768096924,-2.542642116546631
1776038965897103400,-1522128.3928967286,0.6823474764823914,-2.4875755310058594,-2.9017724990844727
1776038965917245000,-1522128.372755127,0.7972691655158997,-2.7533318996429443,-3.6607344150543213
1776038965937386500,-1522128.3526135255,0.8475474119186401,-3.1938650608062744,-4.292803764343262
1776038965947457300,-1522128.3425427247,1.0295066833496094,-4.520252704620361,-5.061342239379883
1776038965957528000,-1522128.332471924,1.0295066833496094,-4.520252704620361,-5.954379558563232
1776038965967568400,-1522128.3224316407,1.4628572463989258,-5.240907669067383,-6.916848659515381
1776038965977639200,-1522128.31236084,1.5634137392044067,-6.066906929016113,-7.920019149780273
1776038965987710000,-1522128.3022900391,2.0422539710998535,-6.682217121124268,-8.949525833129883
1776038965997780700,-1522128.2922192384,2.3726539611816406,-6.892906665802002,-10.067618370056152
1776038966017922300,-1522128.2720776368,1.7764976024627686,-7.364564418792725,-12.358869552612305
1776038966038063900,-1522128.2519360352,0.7182605266571045,-5.9974751472473145,-14.216769218444824
1776038966048134700,-1522128.2418652344,0.22744916379451752,-6.074089527130127,-14.97812557220459
1776038966058205400,-1522128.2317946777,-0.08858546614646912,-6.303933143615723,-15.911864280700684
1776038966068307000,-1522128.2216931153,-0.11013327538967133,-6.617573261260986,-16.704345703125
1776038966078377700,-1522128.2116223145,0.08858546614646912,-7.161057472229004,-17.142484664916992
1776038966088448500,-1522128.2015515137,0.6368576288223267,-7.5417351722717285,-16.9581298828125
1776038966098488800,-1522128.1915112305,1.4053963422775269,-7.829039573669434,-16.251840591430664
1776038966108559600,-1522128.1814404298,2.1499931812286377,-8.087613105773926,-15.421052932739258
1776038966118630400,-1522128.171369629,2.959233283996582,-8.329427719116211,-14.877569198608398
1776038966138741500,-1522128.151258545,4.113238334655762,-8.327033042907715,-14.09705924987793
1776038966148842800,-1522128.1411572266,4.280832767486572,-8.058882713317871,-13.776236534118652
1776038966158883000,-1522128.1311169434,4.3191399574279785,-7.716512203216553,-13.402741432189941
1776038966168953900,-1522128.1210461427,4.098873138427734,-7.249642848968506,-13.017274856567383
1776038966178994200,-1522128.1110058594,3.9025487899780273,-7.0317702293396,-12.60547161102295
1776038966189065000,-1522128.1009350587,3.471592426300049,-6.761225700378418,-12.011710166931152
1776038966199135700,-1522128.090864258,3.090914487838745,-6.481103897094727,-11.386823654174805
1776038966209237000,-1522128.0807629395,2.7461493015289307,-6.270414352416992,-10.805032730102539
1776038966219277300,-1522128.0707226563,2.3918075561523438,-5.95677375793457,-10.204087257385254
1776038966239419000,-1522128.0505810548,2.1595699787139893,-5.43723201751709,-8.927978515625
1776038966249489700,-1522128.040510254,2.0159177780151367,-4.98472785949707,-8.377311706542969
1776038966259530000,-1522128.0304699708,2.0638017654418945,-4.726154327392578,-7.845798969268799
1776038966279641000,-1522128.0103588868,1.9608511924743652,-4.656722068786621,-7.232883453369141
1776038966289711900,-1522128.000288086,1.8770540952682495,-4.687847137451172,-6.921637058258057
1776038966299752200,-1522127.9902478028,1.7956513166427612,-4.714183330535889,-6.466738700866699
1776038966309823000,-1522127.980177002,1.8267759084701538,-4.862623691558838,-6.1770405769348145
1776038966319893800,-1522127.9701062012,1.7357962131500244,-4.924872875213623,-5.803544998168945
1776038966329995000,-1522127.960004883,1.5873557329177856,-4.908113479614258,-5.489904403686523
1776038966350136600,-1522127.9398635253,1.2737152576446533,-5.118803024291992,-4.932055473327637
1776038966360207600,-1522127.9297924805,1.213860273361206,-5.252878665924072,-4.683058738708496
1776038966370278400,-1522127.9197216798,1.522712230682373,-5.590460777282715,-4.623203277587891
1776038966380318500,-1522127.9096816406,1.6041151285171509,-5.827486991882324,-4.580107688903809
1776038966390389500,-1522127.8996105958,1.6950948238372803,-5.995080947875977,-4.51067590713501
1776038966400429600,-1522127.8895703126,1.6663644313812256,-6.157886981964111,-4.424484729766846
1776038966410531000,-1522127.8794689942,1.8100165128707886,-6.169857978820801,-4.304774761199951
1776038966420632300,-1522127.8693676759,1.8579005002975464,-6.021417140960693,-4.292803764343262
1776038966440804400,-1522127.8491955567,2.1499931812286377,-5.9519853591918945,-4.924872875213623
1776038966450905900,-1522127.8390942384,2.4013843536376953,-6.086060523986816,-5.477933406829834
1776038966460946000,-1522127.8290541992,2.6862943172454834,-6.3733649253845215,-5.846640586853027
1776038966471047400,-1522127.8189526368,3.0406360626220703,-6.631938934326172,-6.076483726501465
1776038966481118200,-1522127.808881836,3.3063924312591553,-6.847416877746582,-6.291962146759033
1776038966491189000,-1522127.7988110352,3.533841609954834,-6.998251438140869,-6.648698329925537
1776038966501229300,-1522127.788770752,4.266467571258545,-7.311892032623291,-7.343016624450684
1776038966511300000,-1522127.7786999512,4.323928356170654,-7.333439826965332,-7.898471355438232
1776038966521371000,-1522127.7686291505,4.448426723480225,-7.467514991760254,-8.377311706542969
1776038966561654000,-1522127.7283459473,4.285621166229248,-6.950367450714111,-9.967061996459961
1776038966571694300,-1522127.7183056641,4.2975921630859375,-7.134721279144287,-10.33098030090332
1776038966581734700,-1522127.708265381,4.261679172515869,-7.132327079772949,-10.8720703125
1776038966591805400,-1522127.6981945802,4.460397720336914,-7.249642848968506,-11.78665542602539
1776038966601845800,-1522127.688154297,4.627991676330566,-7.580042362213135,-12.993332862854004
1776038966611947000,-1522127.6780529786,4.771644115447998,-7.977479934692383,-14.573505401611328
1776038966622017800,-1522127.6679821778,5.037400245666504,-8.281543731689453,-16.141708374023438
1776038966632119000,-1522127.6578808594,4.991910457611084,-8.528146743774414,-17.719486236572266
1776038966642189800,-1522127.6478100587,4.786009311676025,-8.583212852478027,-18.732234954833984
1776038966672371700,-1522127.617628174,3.4117374420166016,-8.355764389038086,-16.685192108154297
1776038966682412000,-1522127.6075878907,2.8778305053710938,-7.922413349151611,-15.021221160888672
1776038966692452400,-1522127.5975476075,2.5067291259765625,-7.386112213134766,-13.529633522033691
1776038966702523100,-1522127.5874768067,2.1571757793426514,-6.981492042541504,-12.624625205993652
1776038966712594000,-1522127.577406006,2.0207061767578125,-6.7277069091796875,-12.325350761413574
1776038966722664700,-1522127.5673352052,1.9033904075622559,-6.399701118469238,-12.571952819824219
1776038966732735500,-1522127.5572644044,1.7549498081207275,-6.141127586364746,-13.08910083770752
1776038966742806300,-1522127.5471938476,1.5514427423477173,-5.70777702331543,-13.769054412841797
1776038966762948000,-1522127.527052002,1.1300631761550903,-5.16429328918457,-13.55118179321289
1776038966773019000,-1522127.5169812012,0.9983820915222168,-5.114014625549316,-12.911930084228516
1776038966783120100,-1522127.506879883,1.0869675874710083,-5.281609058380127,-12.389993667602539
1776038966793191000,-1522127.496809082,1.1109095811843872,-5.475539207458496,-11.765107154846191
1776038966803231200,-1522127.486768799,1.158793568611145,-5.602431774139404,-11.44907283782959
1776038966813302000,-1522127.4766979981,1.3000515699386597,-5.602431774139404,-11.207258224487305
1776038966823403300,-1522127.4665966798,1.3479355573654175,-5.348646640777588,-11.099518775939941
1776038966833474000,-1522127.456525879,1.479616641998291,-5.07570743560791,-10.924742698669434
1776038966843514400,-1522127.4464855958,1.2186486721038818,-4.580107688903809,-10.828974723815918
1776038966873726700,-1522127.4162731934,0.28730419278144836,-3.24414324760437,-9.742006301879883
1776038966883767000,-1522127.4062329102,0.026336219161748886,-3.0190882682800293,-9.26795482635498
1776038966893837800,-1522127.3961621094,-0.2537853717803955,-2.82515811920166,-8.762778282165527
1776038966903908600,-1522127.3860913087,-0.5817909836769104,-2.7437551021575928,-8.35097599029541
1776038966914010000,-1522127.3759899903,-0.7254431247711182,-2.6575639247894287,-7.979874134063721
1776038966924050200,-1522127.365949707,-0.7541735172271729,-2.4899697303771973,-7.515398979187012
1776038966934060000,-1522127.3559399415,-0.5171475410461426,-2.3750481605529785,-7.16584587097168
1776038966944130800,-1522127.3458691407,-0.49799394607543945,-2.3319525718688965,-6.868964672088623
1776038966954201600,-1522127.33579834,-0.3016694188117981,-2.2170307636260986,-6.3973069190979
1776038966964272400,-1522127.3257275391,-0.11971008777618408,-2.0661959648132324,-6.054935932159424
1776038966974343200,-1522127.3156567384,-0.033518824726343155,-1.8124107122421265,-5.693411827087402
1776038966984444700,-1522127.30555542,0.09816227108240128,-1.8148049116134644,-5.279214859008789
1776038966994515500,-1522127.2954846192,0.11971008777618408,-1.6663644313812256,-5.056553840637207
1776038967004586200,-1522127.2854138184,0.12689268589019775,-1.5825673341751099,-4.738125324249268
1776038967014657000,-1522127.2753430177,0.090979665517807,-1.501164436340332,-4.474762916564941
1776038967024758300,-1522127.2652416993,0.10534487664699554,-1.4676456451416016,-4.182670593261719
1776038967034859500,-1522127.255140381,0.20111294090747833,-1.3934253454208374,-3.931279182434082
1776038967044899800,-1522127.2451000977,0.3758896589279175,-1.3910311460494995,-3.7708675861358643
1776038967054940200,-1522127.2350598145,0.40222588181495667,-1.460463047027588,-3.641580820083618
1776038967065041400,-1522127.2249584962,0.7589619159698486,-1.436521053314209,-3.5865142345428467
1776038967075143000,-1522127.2148571778,0.9313444495201111,-1.5155296325683594,-3.6320040225982666
1776038967085183000,-1522127.2048171386,1.1492167711257935,-1.5514427423477173,-3.60566782951355
1776038967095223300,-1522127.1947766114,1.290474772453308,-1.766920804977417,-3.514688014984131
1776038967105324800,-1522127.184675293,1.2737152576446533,-2.0039467811584473,-3.426102638244629
1776038967115364900,-1522127.1746352538,1.3886369466781616,-2.2649147510528564,-3.3925838470458984
1776038967125435600,-1522127.164564453,1.4508862495422363,-2.425326347351074,-3.4165258407592773
1776038967135506700,-1522127.1544934083,1.556231141090393,-2.80361008644104,-3.450044631958008
1776038967165719000,-1522127.124281006,2.051830768585205,-4.189853191375732,-3.7158010005950928
1776038967175820300,-1522127.1141796876,2.183511972427368,-4.438849925994873,-3.8331170082092285
1776038967185860600,-1522127.1041394044,2.1763293743133545,-4.896142482757568,-3.931279182434082
1776038967195901000,-1522127.0940991212,2.252943754196167,-5.147533416748047,-4.331110954284668
1776038967205971700,-1522127.0840283204,2.2433669567108154,-5.365406036376953,-4.81473970413208
1776038967216042500,-1522127.0739575196,2.145204782485962,-5.494692802429199,-5.5114521980285645
1776038967226113300,-1522127.0638867188,1.8626888990402222,-5.801150798797607,-6.244078159332275
1776038967236214500,-1522127.0537854005,1.680729627609253,-5.959167957305908,-6.962338447570801
1776038967246285300,-1522127.0437145997,1.558625340461731,-6.2416839599609375,-7.682993412017822
1776038967256325600,-1522127.0336743165,1.5682021379470825,-6.473921298980713,-8.683769226074219
1776038967266366000,-1522127.0236340333,1.501164436340332,-6.6630635261535645,-9.816226959228516
1776038967276436700,-1522127.0135632325,1.2449848651885986,-6.72531270980835,-11.05402946472168
1776038967286477000,-1522127.0035229493,0.8403648138046265,-6.868964672088623,-12.45703125
1776038967296547800,-1522126.9934521485,0.5003881454467773,-6.469132900238037,-14.080300331115723
1776038967306618600,-1522126.9833813477,0.15562310814857483,-5.827486991882324,-15.488090515136719
1776038967316719900,-1522126.9732800294,-0.3495534360408783,-5.588066577911377,-16.610971450805664
1776038967326760200,-1522126.9632397462,-0.646434485912323,-5.70777702331543,-17.544710159301758
1776038967336800500,-1522126.953199463,-0.5482721924781799,-6.076483726501465,-18.272546768188477
1776038967346871300,-1522126.9431286622,-0.0933738648891449,-6.677428722381592,-18.701108932495117
1776038967367043300,-1522126.922956787,1.216254472732544,-8.018181800842285,-18.198328018188477
1776038967387154400,-1522126.902845459,2.1045033931732178,-8.899248123168945,-16.338031768798828
1776038967397225200,-1522126.8927749023,2.0422539710998535,-8.774748802185059,-15.169661521911621
1776038967407296000,-1522126.8827041015,1.6950948238372803,-8.44195556640625,-13.951013565063477
1776038967417367000,-1522126.8726330567,1.216254472732544,-7.728483200073242,-12.87362289428711
1776038967427407000,-1522126.8625930175,0.7326257228851318,-6.897695064544678,-12.00452709197998
1776038967437508600,-1522126.8524914552,0.45250412821769714,-6.217741966247559,-11.595118522644043
1776038967447549000,-1522126.842451172,0.21308395266532898,-5.633556365966797,-11.44907283782959
1776038967467659800,-1522126.822340332,0.28730419278144836,-5.193023681640625,-11.434707641601562
1776038967487801600,-1522126.8021984864,0.19871874153614044,-5.276820659637451,-11.281478881835938
1776038967497872400,-1522126.7921276856,0.19393034279346466,-5.396530628204346,-10.90558910369873
1776038967507912400,-1522126.7820876464,-0.08619125932455063,-5.348646640777588,-10.508151054382324
1776038967518014000,-1522126.771986084,-0.181959331035614,-5.477933406829834,-10.108319282531738
1776038967528054300,-1522126.7619458009,-0.33997663855552673,-5.698200225830078,-9.641449928283691
1776038967538125000,-1522126.751875,-0.5913678407669067,-5.928043365478516,-9.131484985351562
1776038967548165400,-1522126.7418347169,-0.7374141216278076,-6.145915985107422,-8.621520042419434
1776038967578438700,-1522126.7115612794,-1.0654197931289673,-6.18182897567749,-7.06528902053833
1776038967588479000,-1522126.7015209962,-1.094150185585022,-6.308721542358398,-6.682217121124268
1776038967598549800,-1522126.6914501954,-1.1085153818130493,-6.260837554931641,-6.335057735443115
1776038967608590000,-1522126.6814099122,-1.0055646896362305,-6.270414352416992,-6.102819919586182
1776038967618660900,-1522126.6713391114,-0.9648633003234863,-6.078877925872803,-5.8203043937683105
1776038967628731600,-1522126.6612683106,-0.9169792532920837,-5.906495571136475,-5.6670756340026855
1776038967638833000,-1522126.6511669923,-0.6655880808830261,-5.770026206970215,-5.585672378540039
1776038967648903700,-1522126.6410964355,-0.3495534360408783,-5.7125654220581055,-5.501875400543213
1776038967659005200,-1522126.6309948731,-0.2059013396501541,-5.530605792999268,-5.621585369110107
1776038967689187000,-1522126.6008129884,0.10295066982507706,-5.216965675354004,-6.052541732788086
1776038967699227400,-1522126.5907727052,0.08379705995321274,-5.061342239379883,-6.303933143615723
1776038967709298200,-1522126.5807019044,0.004788403399288654,-4.821922302246094,-6.502651691436768
1776038967719369000,-1522126.5706311036,-0.040701430290937424,-4.747702121734619,-6.75883150100708
1776038967729409300,-1522126.5605908204,-0.07661445438861847,-4.752490520477295,-6.89530086517334
1776038967739480000,-1522126.5505200196,0.14365209639072418,-4.843470096588135,-6.782773494720459
1776038967749520100,-1522126.5404799804,0.37828385829925537,-5.058948040008545,-6.512228488922119
1776038967759621600,-1522126.530378418,0.43095630407333374,-5.078101634979248,-6.294356346130371
1776038967799904800,-1522126.490095215,1.6543933153152466,-5.475539207458496,-6.782773494720459
1776038967809945000,-1522126.4800549317,2.2625205516815186,-5.6670756340026855,-6.888118267059326
1776038967830025700,-1522126.4599743653,2.8586769104003906,-5.872976779937744,-7.206547260284424
1776038967840096500,-1522126.4499035645,2.999934673309326,-5.87776517868042,-7.252037048339844
1776038967850167300,-1522126.4398327637,3.1076738834381104,-6.035782337188721,-7.568071365356445
1776038967860238000,-1522126.429761963,3.2537200450897217,-6.174646377563477,-7.927201747894287
1776038967870308900,-1522126.4196911622,3.4572272300720215,-6.268020153045654,-8.226476669311523
1776038967880410000,-1522126.4095898438,3.799597978591919,-6.370970726013184,-8.628703117370605
1776038967900521200,-1522126.3894787598,4.563348293304443,-6.698976516723633,-9.100360870361328
1776038967910592000,-1522126.379407959,4.886565685272217,-6.696582317352295,-9.32541561126709
1776038967920632300,-1522126.3693676759,4.9368438720703125,-6.825869083404541,-9.44752025604248
1776038967930703000,-1522126.359296875,4.948814868927002,-6.98628044128418,-9.59596061706543
1776038967940774000,-1522126.3492260743,4.867412090301514,-7.086836814880371,-9.871294021606445
1776038967950814200,-1522126.339185791,4.829104900360107,-7.113173484802246,-10.06043529510498
1776038967960915500,-1522126.3290844727,4.685452938079834,-7.072471618652344,-10.340557098388672
1776038968001137700,-1522126.2888623048,5.240907669067383,-8.65982723236084,-11.57357120513916
1776038968011208400,-1522126.278791504,5.360617637634277,-9.016563415527344,-11.200075149536133
1776038968021279200,-1522126.2687207032,5.25527286529541,-9.210494041442871,-10.6709566116333
1776038968031350000,-1522126.2586499024,4.869806289672852,-8.9064302444458,-10.27591323852539
1776038968041451300,-1522126.248548828,4.359841346740723,-8.432378768920898,-10.249577522277832
1776038968051491600,-1522126.2385083009,4.046200752258301,-7.931990146636963,-10.429142951965332
1776038968061593000,-1522126.2284069825,3.6535518169403076,-7.352593421936035,-11.063606262207031
1776038968071663900,-1522126.2183361817,3.6152446269989014,-6.799532890319824,-11.75792407989502
1776038968091836000,-1522126.1981640626,3.6774938106536865,-6.174646377563477,-12.96460247039795
1776038968101906700,-1522126.1880932618,3.751713991165161,-6.121973514556885,-13.19205093383789
1776038968111977500,-1522126.178022461,3.7158010005950928,-5.975927352905273,-13.196839332580566
1776038968122078700,-1522126.1679213867,3.4524388313293457,-5.839457988739014,-13.362039566040039
1776038968132119000,-1522126.1578808594,3.2106244564056396,-5.805939197540283,-13.543998718261719
1776038968142220500,-1522126.147779541,2.9233202934265137,-5.6670756340026855,-13.51766300201416
1776038968152260600,-1522126.137739502,2.5977089405059814,-5.430049419403076,-13.345280647277832
1776038968162362000,-1522126.1276379395,2.513911724090576,-5.22175407409668,-13.014880180358887
1776038968172402400,-1522126.1175976563,2.3104045391082764,-5.109226226806641,-12.610260009765625
1776038968202614800,-1522126.087385254,1.7764976024627686,-4.8722004890441895,-11.350910186767578
1776038968222756400,-1522126.0672436524,1.3646949529647827,-4.592078685760498,-10.666168212890625
1776038968232827100,-1522126.0571728516,1.2521674633026123,-4.67827033996582,-10.42195987701416
1776038968242898000,-1522126.0471020509,1.4987702369689941,-5.154716491699219,-10.101137161254883
1776038968252968700,-1522126.03703125,1.944091796875,-5.34625244140625,-9.880870819091797
1776038968263039500,-1522126.0269604493,2.183511972427368,-5.0014872550964355,-9.6989107131958
1776038968273110300,-1522126.0168896485,2.410961151123047,-4.458003520965576,-9.653421401977539
1776038968303383800,-1522125.986616211,2.233790159225464,-3.2082302570343018,-9.102754592895508
1776038968313454600,-1522125.9765454102,2.1140801906585693,-3.313575267791748,-9.026140213012695
1776038968323525400,-1522125.9664746094,1.7405846118927002,-3.1100680828094482,-8.96149730682373
1776038968333504500,-1522125.9564956054,1.3910311460494995,-2.911349296569824,-8.791508674621582
1776038968343575300,-1522125.9464248046,1.0271124839782715,-2.736572504043579,-8.398859977722168
1776038968353615600,-1522125.9363842774,0.7326257228851318,-2.5761611461639404,-7.850587368011475
1776038968363656000,-1522125.9263439942,0.5147533416748047,-2.5067291259765625,-7.354987621307373
1776038968373665800,-1522125.9163342286,0.4836287498474121,-2.255337953567505,-6.94079065322876
1776038968383767000,-1522125.9062329102,0.524330198764801,-2.1164743900299072,-6.588842868804932
1776038968403878100,-1522125.8861218262,0.8643068075180054,-1.9177556037902832,-5.659893035888672
1776038968423989200,-1522125.8660107423,1.7070658206939697,-2.22660756111145,-4.884171485900879
1776038968434060000,-1522125.8559399415,1.8531121015548706,-2.0805611610412598,-4.441244125366211
1776038968444130800,-1522125.8458691407,2.0853497982025146,-2.5665841102600098,-4.0533833503723145
1776038968454110200,-1522125.8358898927,1.8746598958969116,-3.2393548488616943,-3.4093432426452637
1776038968464211500,-1522125.8257885743,1.742978811264038,-3.44765043258667,-3.047818660736084
1776038968474282200,-1522125.8157177735,1.6352397203445435,-3.5482068061828613,-2.607285737991333
1776038968484383500,-1522125.8056164552,1.558625340461731,-3.7277719974517822,-2.207453966140747
1776038968494393300,-1522125.7956066895,1.4676456451416016,-3.622427225112915,-1.867477297782898
1776038968514565400,-1522125.7754345704,1.6328455209732056,-3.6511576175689697,-1.7262194156646729
1776038968524666600,-1522125.765333496,1.5849615335464478,-3.9408559799194336,-2.1547815799713135
1776038968534707000,-1522125.7552929688,1.5729905366897583,-4.266467571258545,-2.7772738933563232
1776038968544777700,-1522125.745222168,1.5849615335464478,-4.9368438720703125,-3.4739866256713867
1776038968554848500,-1522125.7351513673,1.7717092037200928,-5.8203043937683105,-4.285621166229248
1776038968574959600,-1522125.7150402833,1.800439715385437,-7.960720539093018,-6.138733386993408
1776038968585061000,-1522125.704938965,1.800439715385437,-8.034940719604492,-6.821080684661865
1776038968595132000,-1522125.6948681641,1.4844050407409668,-8.26478385925293,-7.354987621307373
1776038968605233200,-1522125.6847668458,1.5179238319396973,-8.446743965148926,-8.08043098449707
1776038968625374700,-1522125.6646252442,1.115697979927063,-8.257601737976074,-9.114726066589355
1776038968635445500,-1522125.6545544434,1.192312479019165,-8.595184326171875,-9.411606788635254
1776038968645546800,-1522125.644453369,1.482010841369629,-8.607154846191406,-9.653421401977539
1776038968655587000,-1522125.6344128419,2.0877439975738525,-8.382100105285645,-9.93593692779541
1776038968665657900,-1522125.624342041,2.406172752380371,-8.248024940490723,-10.716446876525879
1776038968675698200,-1522125.614301758,2.7006595134735107,-8.04930591583252,-11.628637313842773
1776038968685769000,-1522125.604230957,2.9281086921691895,-7.735665798187256,-12.562376022338867
1776038968695809300,-1522125.594190674,2.9759926795959473,-7.196970462799072,-13.424288749694824
1776038968705880000,-1522125.5841198731,2.7892448902130127,-6.72531270980835,-14.135366439819336
1776038968715950800,-1522125.5740490723,2.655169725418091,-6.428431510925293,-14.695610046386719
1776038968726052000,-1522125.563947998,2.346317768096924,-6.244078159332275,-14.903905868530273
1776038968736062000,-1522125.5539379884,2.142810583114624,-6.102819919586182,-14.666879653930664
1776038968766305000,-1522125.5236950684,1.2114660739898682,-5.870582580566406,-13.117831230163574
1776038968776375800,-1522125.5136242677,0.8044517636299133,-5.616796970367432,-12.667720794677734
1776038968786415900,-1522125.5035842285,0.4213795065879822,-5.370194435119629,-12.054805755615234
1776038968796487000,-1522125.4935131837,0.12928688526153564,-5.094861030578613,-11.26950740814209
1776038968806557700,-1522125.483442383,-0.10773907601833344,-4.8267107009887695,-10.517727851867676
1776038968816597800,-1522125.4734023437,-0.2537853717803955,-4.651933670043945,-9.66299819946289
1776038968836708900,-1522125.4532910157,-0.545877993106842,-4.606443881988525,-8.034940719604492
1776038968846749200,-1522125.4432507325,-0.6344634294509888,-4.824316501617432,-7.5201873779296875
1776038968856820000,-1522125.4331799317,-0.7206547260284424,-5.003881454467773,-6.943184852600098
1776038968866860300,-1522125.4231396485,-0.7996633648872375,-5.315127849578857,-6.519411087036133
1776038968876900600,-1522125.4130993653,-0.8164227604866028,-5.5760955810546875,-6.366182327270508
1776038968886971400,-1522125.4030285645,-0.811634361743927,-5.8657941818237305,-6.114790916442871
1776038968897042200,-1522125.3929577637,-0.7637503147125244,-5.92325496673584,-5.825092792510986
1776038968907113000,-1522125.382886963,-0.6751648783683777,-5.937620162963867,-5.604825973510742
1776038968917183700,-1522125.3728161622,-0.5937620401382446,-5.916072368621826,-5.453991413116455
1776038968947426800,-1522125.3425732423,-0.27054479718208313,-5.765237808227539,-5.303156852722168
1776038968957467100,-1522125.332532959,-0.10534487664699554,-5.7987565994262695,-5.480327606201172
1776038968967538000,-1522125.3224621583,0.1364694982767105,-5.770026206970215,-5.5976433753967285
1776038968977608700,-1522125.3123913575,0.395043283700943,-5.815515995025635,-5.772420406341553
1776038968987710000,-1522125.3022900391,0.7134721279144287,-5.928043365478516,-5.961562156677246
1776038968997750300,-1522125.292249756,0.7134721279144287,-5.928043365478516,-5.961562156677246
1776038969007821000,-1522125.2821789552,1.292868971824646,-6.1770405769348145,-6.186617374420166
1776038969017891800,-1522125.2721081544,1.6089035272598267,-6.356605529785156,-6.370970726013184
1776038969038003000,-1522125.2519970704,2.078166961669922,-6.933608055114746,-7.007828235626221
1776038969058144500,-1522125.2318554688,2.2864625453948975,-7.252037048339844,-7.843404769897461
1776038969068215300,-1522125.221784668,2.513911724090576,-7.184999465942383,-7.862558364868164
1776038969078255600,-1522125.2117443848,2.762908697128296,-7.556100368499756,-7.975085735321045
1776038969088356900,-1522125.2016430665,3.1962592601776123,-7.5848307609558105,-8.200140953063965
1776038969098397200,-1522125.1916027833,3.4835634231567383,-7.812280178070068,-8.822632789611816
1776038969108468000,-1522125.1815319825,3.5960910320281982,-8.054094314575195,-9.502586364746094
1776038969118508300,-1522125.1714916993,3.667917013168335,-8.02536392211914,-10.122684478759766
1776038969148659700,-1522125.141340332,3.799597978591919,-8.075642585754395,-11.824962615966797
1776038969168831700,-1522125.121168213,3.804386615753174,-7.888894557952881,-12.09550666809082
1776038969178902500,-1522125.1110974122,3.77565598487854,-7.668628215789795,-12.18409252166748
1776038969189003800,-1522125.1009963378,3.5889084339141846,-7.532158374786377,-12.277466773986816
1776038969199044000,-1522125.0909558106,3.529053211212158,-7.448361396789551,-12.593501091003418
1776038969209115000,-1522125.0808850098,3.6559460163116455,-7.4986395835876465,-12.988544464111328
1776038969219124700,-1522125.0708752442,3.9217023849487305,-7.886500358581543,-13.4506254196167
1776038969229165000,-1522125.060834961,4.446032524108887,-8.370129585266113,-14.197615623474121
1776038969269417700,-1522125.0205822755,4.790797710418701,-8.461109161376953,-13.929465293884277
1776038969279488500,-1522125.0105114747,4.194641590118408,-8.051700592041016,-12.966996192932129
1776038969289559300,-1522125.000440674,3.5170822143554688,-7.603984832763672,-12.294225692749023
1776038969299630000,-1522124.9903698731,2.8850131034851074,-7.465120792388916,-12.045228958129883
1776038969309700900,-1522124.9802990723,2.7246015071868896,-7.467514991760254,-12.394782066345215
1776038969319771600,-1522124.9702282716,2.63362193107605,-7.522581577301025,-13.132196426391602
1776038969329873000,-1522124.9601271972,2.6839001178741455,-7.230489253997803,-14.013262748718262
1776038969350045200,-1522124.939954834,2.1954829692840576,-6.301538944244385,-14.94221305847168
1776038969360116000,-1522124.9298840333,1.821987509727478,-5.856217384338379,-15.119383811950684
1776038969370217200,-1522124.919782715,1.2880805730819702,-5.51624059677124,-15.023615837097168
1776038969380257500,-1522124.9097424317,0.7493851184844971,-5.348646640777588,-14.805743217468262
1776038969390297900,-1522124.8997021485,0.35673606395721436,-5.128379821777344,-14.39872932434082
1776038969400338200,-1522124.8896618653,-0.016759412363171577,-5.0014872550964355,-14.13057804107666
1776038969410409000,-1522124.8795910645,-0.3471592366695404,-4.7620673179626465,-13.603854179382324
1776038969420479700,-1522124.8695202637,-0.42377370595932007,-4.563348293304443,-13.062764167785645
1776038969430581000,-1522124.8594189454,-0.5267243981361389,-4.405331134796143,-12.361263275146484
1776038969440682200,-1522124.849317871,-0.48602294921875,-4.268861770629883,-11.707646369934082
1776038969480965600,-1522124.809034424,-0.30885201692581177,-3.9240965843200684,-9.516951560974121
1776038969491067000,-1522124.7989331055,-0.40462008118629456,-3.7253777980804443,-9.090784072875977
1776038969501107200,-1522124.7888928223,-0.40940847992897034,-3.6320040225982666,-8.664615631103516
1776038969511178000,-1522124.7788220216,-0.3878606855869293,-3.4165258407592773,-8.224082946777344
1776038969521218300,-1522124.7687817384,-0.4213795065879822,-3.141192674636841,-7.738059997558594
1776038969531319600,-1522124.75868042,-0.4357447028160095,-2.8826189041137695,-7.292738437652588
1776038969561532000,-1522124.7284680177,-0.3208230137825012,-1.9129672050476074,-6.098031520843506
1776038969571602700,-1522124.7183972169,-0.2825157940387726,-1.5873557329177856,-5.729324817657471
1776038969581643000,-1522124.7083569337,-0.12928688526153564,-1.37906014919281,-5.549759387969971
1776038969591683300,-1522124.6983166505,-0.004788403399288654,-1.3718775510787964,-5.331887245178223
1776038969601723600,-1522124.6882763673,0.11971008777618408,-1.292868971824646,-5.152322292327881
1776038969611825000,-1522124.678175049,-0.004788403399288654,-1.1109095811843872,-4.886565685272217
1776038969621895700,-1522124.6681042481,0.07182604819536209,-0.9169792532920837,-4.675876140594482
1776038969631966500,-1522124.6580334473,0.06464344263076782,-0.8331822156906128,-4.347870349884033
1776038969642006800,-1522124.6479931641,-0.031124621629714966,-0.8044517636299133,-4.110844135284424
1776038969672249900,-1522124.6177502442,0.38546648621559143,-0.8619126081466675,-4.197035789489746
1776038969682320600,-1522124.6076794434,0.6775590777397156,-1.1228805780410767,-4.491522312164307
1776038969702523100,-1522124.5874768067,1.1300631761550903,-1.6352397203445435,-5.468356609344482
1776038969712594000,-1522124.577406006,1.3623007535934448,-2.0159177780151367,-6.078877925872803
1776038969722664700,-1522124.5673352052,1.4317326545715332,-2.2649147510528564,-6.847416877746582
1776038969732735500,-1522124.5572644044,1.7932571172714233,-2.6192567348480225,-7.582436561584473
1776038969742806300,-1522124.5471938476,2.070984363555908,-2.920926094055176,-8.520963668823242
1776038969773019000,-1522124.5169812012,1.1420341730117798,-3.9456443786621094,-12.466608047485352
1776038969783089700,-1522124.5069104005,0.5554547905921936,-3.7229835987091064,-13.187262535095215
1776038969793191000,-1522124.496809082,0.14365209639072418,-3.552995204925537,-13.620613098144531
1776038969803261700,-1522124.4867382813,0.06703764945268631,-3.8977603912353516,-13.833697319030762
1776038969813240800,-1522124.4767592773,0.16519992053508759,-4.132391929626465,-14.149731636047363
1776038969823311600,-1522124.4666884765,0.31364041566848755,-4.620809078216553,-14.542381286621094
1776038969833382700,-1522124.4566174317,0.8355764150619507,-5.408501625061035,-15.047557830810547
1776038969843453400,-1522124.446546631,1.4460978507995605,-6.066906929016113,-15.516820907592773
1776038969873665800,-1522124.4163342286,3.531447410583496,-7.038952827453613,-16.508020401000977
1776038969893807400,-1522124.396192627,4.517858505249023,-7.644686222076416,-16.393098831176758
1776038969903878100,-1522124.3861218262,4.7405195236206055,-7.836222171783447,-15.971719741821289
1776038969914010000,-1522124.3759899903,4.776432514190674,-7.704541206359863,-15.239093780517578
1776038969924050200,-1522124.365949707,4.654327869415283,-7.620744228363037,-14.336480140686035
1776038969934090500,-1522124.355909424,4.132391929626465,-7.364564418792725,-13.594277381896973
1776038969944191700,-1522124.3458083495,3.56017804145813,-7.086836814880371,-12.67250919342041
1776038969954262800,-1522124.3357373048,2.959233283996582,-6.62236213684082,-11.88002872467041
1776038969994546000,-1522124.2954541016,1.7118542194366455,-3.9432501792907715,-9.737217903137207
1776038970004616700,-1522124.2853833009,1.6519991159439087,-3.4979286193847656,-9.253589630126953
1776038970014657000,-1522124.2753430177,1.6328455209732056,-3.2154128551483154,-8.779537200927734
1776038970024758300,-1522124.2652416993,1.5298948287963867,-3.2752678394317627,-8.44434928894043
1776038970034829000,-1522124.2551708985,1.4700398445129395,-3.5458126068115234,-8.214506149291992
1776038970044869400,-1522124.2451306153,1.256955862045288,-3.912125587463379,-8.010998725891113
1776038970054940200,-1522124.2350598145,1.0342950820922852,-4.292803764343262,-7.759607791900635
1776038970115395600,-1522124.1746044923,1.0199298858642578,-7.122750282287598,-6.04775333404541
1776038970125435600,-1522124.164564453,1.2210428714752197,-7.496245384216309,-5.9519853591918945
1776038970135506700,-1522124.1544934083,1.3934253454208374,-7.876923561096191,-6.030993938446045
1776038970145546800,-1522124.144453369,1.7310078144073486,-8.04691219329834,-6.13633918762207
1776038970155617500,-1522124.1343825683,2.1164743900299072,-8.358158111572266,-6.342240333557129
1776038970165657900,-1522124.124342041,2.5450363159179688,-8.44195556640625,-6.670246124267578
1776038970175728600,-1522124.1142712403,2.9041666984558105,-8.307879447937012,-6.828263282775879
1776038970185799400,-1522124.1042006835,3.2992098331451416,-8.006210327148438,-6.971915245056152
1776038970195901000,-1522124.0940991212,3.758896589279175,-7.615955829620361,-7.117961883544922
1776038970205941200,-1522124.084058838,4.132391929626465,-7.412448406219482,-7.228095054626465
1776038970216012000,-1522124.0739880372,4.525041103363037,-7.38132381439209,-7.481880187988281
1776038970226052000,-1522124.063947998,4.809951305389404,-7.438784599304199,-7.9176249504089355
1776038970236123100,-1522124.0538769532,4.69024133682251,-7.026981830596924,-8.485051155090332
1776038970246194000,-1522124.0438061524,4.376600742340088,-6.9910688400268555,-9.071630477905273
1776038970256264700,-1522124.0337353516,3.8786067962646484,-6.976703643798828,-9.670180320739746
1776038970266305000,-1522124.0236950684,3.8139634132385254,-7.0126166343688965,-10.137049674987793
1776038970276406300,-1522124.01359375,3.4572272300720215,-7.000645637512207,-10.223240852355957
1776038970286446600,-1522124.0035534669,3.406949043273926,-7.299921035766602,-10.541669845581055
1776038970316689400,-1522123.973310547,3.4308910369873047,-8.394071578979492,-12.926295280456543
1776038970326760200,-1522123.9632397462,3.711012601852417,-8.667010307312012,-13.838485717773438
1776038970336861400,-1522123.9531386718,3.950432777404785,-8.7484130859375,-14.592658996582031
1776038970346901800,-1522123.9430981446,3.9647979736328125,-8.647856712341309,-15.203181266784668
1776038970356972500,-1522123.9330273438,3.8546648025512695,-8.288725852966309,-15.598223686218262
1776038970367043300,-1522123.922956787,3.5697548389434814,-7.682993412017822,-15.507244110107422
1776038970377144800,-1522123.9128552247,3.19865345954895,-6.971915245056152,-14.626177787780762
1776038970417397500,-1522123.8726025391,2.2361843585968018,-5.506663799285889,-12.533645629882812
1776038970437539000,-1522123.8524609376,2.5665841102600098,-5.202600479125977,-13.136984825134277
1776038970447579400,-1522123.8424206544,3.112462282180786,-5.109226226806641,-13.285425186157227
1776038970457650200,-1522123.8323498536,3.380612850189209,-4.886565685272217,-13.352462768554688
1776038970467721000,-1522123.8222790528,3.5410242080688477,-4.95120906829834,-13.306973457336426
1776038970477791700,-1522123.812208252,3.442862033843994,-5.066130638122559,-13.438653945922852
1776038970487862500,-1522123.8021374512,3.0406360626220703,-5.006275653839111,-13.362039566040039
1776038970497963800,-1522123.792036133,2.8179752826690674,-5.094861030578613,-13.204022407531738
1776038970508004000,-1522123.7819958497,2.7940332889556885,-5.214571475982666,-13.043610572814941
1776038970518105300,-1522123.7718947753,2.631227731704712,-5.0900726318359375,-12.85207462310791
1776038970528176000,-1522123.7618239745,2.1164743900299072,-4.807557106018066,-12.562376022338867
1776038970538247200,-1522123.7517529298,1.5155296325683594,-4.5394062995910645,-12.157755851745605
1776038970548318000,-1522123.741682129,1.5155296325683594,-4.5394062995910645,-12.157755851745605
1776038970558419200,-1522123.7315808106,0.5099649429321289,-3.9815573692321777,-11.669339179992676
1776038970568459500,-1522123.7215405274,0.5099649429321289,-3.9815573692321777,-11.063606262207031
1776038970578530300,-1522123.7114697266,0.2298433631658554,-3.6128504276275635,-10.42195987701416
1776038970588601000,-1522123.7013989259,0.08619125932455063,-3.3063924312591553,-9.931148529052734
1776038970598672000,-1522123.691328125,0.17477671802043915,-3.1531636714935303,-9.38048267364502
1776038970608742700,-1522123.6812573243,0.29209262132644653,-3.0837318897247314,-8.987833023071289
1776038970618844000,-1522123.671156006,0.24899697303771973,-2.9544448852539062,-8.559270858764648
1776038970628914700,-1522123.6610852052,0.17477671802043915,-2.868253707885742,-8.154650688171387
1776038970638985500,-1522123.6510146484,0.18914192914962769,-2.7102363109588623,-7.862558364868164
1776038970649056300,-1522123.6409438476,0.21547815203666687,-2.5546131134033203,-7.467514991760254
1776038970659127300,-1522123.6308728028,0.2346317619085312,-2.4396915435791016,-7.046135425567627
1776038970669198000,-1522123.620802002,0.10773907601833344,-2.188300371170044,-6.689399719238281
1776038970679268900,-1522123.6107312012,0.10773907601833344,-2.126051187515259,-6.282385349273682
1776038970689339600,-1522123.6006604005,0.19153612852096558,-1.9632453918457031,-5.8442463874816895
1776038970699441000,-1522123.590559082,0.2082955539226532,-1.8124107122421265,-5.386953830718994
1776038970719552000,-1522123.5704479981,-0.05027823522686958,-1.7094600200653076,-4.6950297355651855
1776038970729622800,-1522123.5603771973,-0.13407529890537262,-1.6519991159439087,-4.410119533538818
1776038970739724000,-1522123.550275879,-0.08140286058187485,-1.482010841369629,-4.153939723968506
1776038970749794800,-1522123.5402050782,-0.07182604819536209,-1.50355863571167,-3.950432777404785
1776038970759896300,-1522123.5301037598,-0.08858546614646912,-1.6112977266311646,-3.8570590019226074
1776038970769936400,-1522123.5200637206,0.05985504388809204,-1.6639702320098877,-3.883395195007324
1776038970780038000,-1522123.5099621583,0.12928688526153564,-1.8052281141281128,-3.955221176147461
1776038970790108700,-1522123.4998913575,0.2537853717803955,-1.889025092124939,-4.220977783203125
1776038970810219800,-1522123.4797802735,0.3974374830722809,-2.5665841102600098,-5.054159641265869
1776038970830331000,-1522123.4596691895,0.6009446382522583,-3.550601005554199,-6.277596950531006
1776038970840401700,-1522123.4495983887,0.9385270476341248,-4.220977783203125,-7.062894821166992
1776038970850472400,-1522123.439527588,1.290474772453308,-4.802768707275391,-7.884106159210205
1776038970860573700,-1522123.4294262696,1.5107412338256836,-5.521028995513916,-8.542511940002441
1776038970870614000,-1522123.4193859864,1.7980455160140991,-6.0597243309021,-9.23443603515625
1776038970880684800,-1522123.4093151856,1.845929503440857,-6.469132900238037,-9.974244117736816
1776038970890755600,-1522123.3992443848,1.5849615335464478,-6.528987884521484,-10.618284225463867
1776038970900856800,-1522123.3891430665,1.4652514457702637,-7.146692276000977,-11.319786071777344
1776038970910897200,-1522123.3791027833,1.3263877630233765,-7.393294811248779,-12.255918502807617
1776038970920968000,-1522123.3690319825,1.4173674583435059,-7.350199222564697,-13.048398971557617
1776038970931038700,-1522123.3589611817,1.3239935636520386,-7.338228225708008,-13.51766300201416
1776038970951149800,-1522123.3388500977,1.3862427473068237,-7.747636795043945,-13.160926818847656
1776038970961220600,-1522123.328779297,1.6065093278884888,-7.7428483963012695,-12.641385078430176
1776038970971291400,-1522123.3187084962,2.0661959648132324,-7.508216381072998,-12.105083465576172
1776038970981362200,-1522123.3086379394,2.4851813316345215,-7.201758861541748,-12.035652160644531
1776038970991433000,-1522123.2985671386,2.9257144927978516,-6.904877662658691,-12.310985565185547
1776038971001473300,-1522123.2885266114,3.529053211212158,-6.507440090179443,-12.799402236938477
1776038971021614800,-1522123.2683852538,4.661510944366455,-6.117185115814209,-13.275848388671875
1776038971031686000,-1522123.258314209,5.169081687927246,-6.038176536560059,-13.21599292755127
1776038971051858000,-1522123.23814209,5.631162166595459,-6.028599739074707,-12.854469299316406
1776038971061928700,-1522123.2280712891,5.439626216888428,-6.076483726501465,-12.574347496032715
1776038971071999500,-1522123.2180004884,5.351040840148926,-5.992686748504639,-12.212822914123535
1776038971082070300,-1522123.2079296876,5.16429328918457,-5.925649166107178,-11.563994407653809
1776038971092110600,-1522123.1978894044,5.082890033721924,-5.535394191741943,-10.831368446350098
1776038971102211800,-1522123.187788086,4.9799394607543945,-5.197812080383301,-10.146626472473145
1776038971122292500,-1522123.1677075196,3.754108190536499,-4.220977783203125,-8.932766914367676
1776038971132332800,-1522123.1576672364,3.2082302570343018,-4.05817174911499,-8.49941635131836
1776038971152444000,-1522123.1375561524,2.631227731704712,-4.108449935913086,-7.659051418304443
1776038971162545200,-1522123.127454834,2.719813108444214,-4.309563159942627,-7.273584842681885
1776038971172616000,-1522123.1173840333,3.0621838569641113,-4.6734819412231445,-6.780379295349121
1776038971182717200,-1522123.107282715,3.1723172664642334,-4.927267074584961,-6.244078159332275
1776038971192757500,-1522123.0972424317,2.896984100341797,-5.013458251953125,-5.774814605712891
1776038971202828300,-1522123.087171631,2.5689783096313477,-5.169081687927246,-5.418078422546387
1776038971212868600,-1522123.0771313477,2.2170307636260986,-5.228936672210693,-5.197812080383301
1776038971222909000,-1522123.0670910645,1.8770540952682495,-5.274426460266113,-5.035006046295166
1776038971232949200,-1522123.0570507813,1.6903064250946045,-5.47075080871582,-4.879383087158203
1776038971243020000,-1522123.0469799805,1.6376339197158813,-5.710171222686768,-4.891354084014893
1776038971253029600,-1522123.036970459,1.3886369466781616,-5.884947776794434,-4.774038314819336
1776038971263100700,-1522123.0268994141,1.1851298809051514,-5.985504150390625,-4.9368438720703125
1776038971273140700,-1522123.016859375,0.9433154463768005,-6.004657745361328,-5.197812080383301
1776038971283211500,-1522123.0067885742,0.7493851184844971,-6.174646377563477,-5.477933406829834
1776038971293191000,-1522122.996809082,0.7661445140838623,-6.347028732299805,-5.693411827087402
1776038971303292200,-1522122.9867077637,1.0821791887283325,-6.737283706665039,-5.770026206970215
1776038971323464400,-1522122.9665356446,1.1516109704971313,-7.405265808105469,-5.894524574279785
1776038971333443600,-1522122.9565563966,1.3287819623947144,-7.694964408874512,-6.14831018447876
1776038971343514400,-1522122.9464855958,1.4245500564575195,-7.872135162353516,-6.5912370681762695
1776038971353554700,-1522122.9364453126,1.7549498081207275,-8.075642585754395,-7.101202011108398
1776038971363625500,-1522122.9263745118,2.0183119773864746,-8.334216117858887,-7.489062786102295
1776038971373665800,-1522122.9163342286,2.346317768096924,-8.487444877624512,-7.872135162353516
1776038971383767000,-1522122.9062329102,2.6575639247894287,-8.485051155090332,-8.109161376953125
1776038971393837800,-1522122.8961621094,2.717418909072876,-8.1139497756958,-8.38449478149414
1776038971403908600,-1522122.8860913087,2.7317841053009033,-8.252813339233398,-8.556877136230469
1776038971413888000,-1522122.8761120606,2.7054479122161865,-8.161833763122559,-8.877699851989746
1776038971434060000,-1522122.8559399415,2.7724854946136475,-7.884106159210205,-9.615114212036133
1776038971444130800,-1522122.8458691407,2.8395233154296875,-7.69735860824585,-9.923966407775879
1776038971454140700,-1522122.835859375,2.760514497756958,-7.560888767242432,-10.314221382141113
1776038971464211500,-1522122.8257885743,2.7892448902130127,-7.666234016418457,-10.931924819946289
1776038971474251800,-1522122.815748291,3.1435868740081787,-8.161833763122559,-11.848904609680176
1776038971484353000,-1522122.8056469727,3.7277719974517822,-9.157821655273438,-12.897564888000488
1776038971494393300,-1522122.7956066895,3.6343982219696045,-10.156203269958496,-14.166491508483887
1776038971504494600,-1522122.7855053712,3.248931646347046,-10.802638053894043,-15.64610767364502
1776038971514535000,-1522122.775465088,2.7700912952423096,-10.96544361114502,-17.166425704956055
1776038971524605700,-1522122.7653942872,2.0590133666992188,-10.517727851867676,-18.131288528442383
1776038971534615600,-1522122.7553845216,1.5418659448623657,-9.897629737854004,-18.267759323120117
1776038971544686300,-1522122.7453137208,1.280897855758667,-9.346963882446289,-17.599777221679688
1776038971554757000,-1522122.73524292,1.2425906658172607,-8.796297073364258,-16.211139678955078
1776038971564858400,-1522122.7251416016,1.2018892765045166,-8.501810073852539,-14.748282432556152
1776038971574898700,-1522122.7151013184,1.1348515748977661,-8.2312650680542,-13.496114730834961
1776038971584969500,-1522122.7050305177,0.950498104095459,-7.783549785614014,-12.576741218566895
1776038971595040300,-1522122.6949597169,0.7757213711738586,-7.316680431365967,-12.339715957641602
1776038971605111000,-1522122.684888916,0.5841852426528931,-6.730101108551025,-12.4785795211792
1776038971615151400,-1522122.674848633,0.4165911078453064,-6.390124320983887,-12.804190635681152
1776038971655465000,-1522122.6345351562,0.7541735172271729,-6.603208065032959,-12.073959350585938
1776038971675576000,-1522122.6144238282,1.0103530883789062,-6.782773494720459,-11.439496040344238
1776038971685646800,-1522122.6043532714,1.1085153818130493,-6.801927089691162,-11.23598861694336
1776038971695717600,-1522122.5942824706,1.259350061416626,-6.3733649253845215,-11.015722274780273
1776038971705788700,-1522122.5842114259,1.4915876388549805,-6.01423454284668,-10.826580047607422
1776038971715828700,-1522122.5741711427,1.3982137441635132,-5.497087001800537,-10.596736907958984
1776038971725899500,-1522122.5641005859,1.1444283723831177,-4.637568473815918,-10.448296546936035
1776038971735909400,-1522122.5540905762,0.8978256583213806,-3.8139634132385254,-10.244789123535156
1776038971776162000,-1522122.5138378907,-0.38067805767059326,-2.185906171798706,-8.044517517089844
1776038971786232800,-1522122.50376709,-0.6871358752250671,-2.1595699787139893,-7.457938194274902
1776038971796334000,-1522122.4936660156,-1.0127472877502441,-1.922544002532959,-6.852205276489258
1776038971806405000,-1522122.4835949708,-1.1779472827911377,-1.7142484188079834,-6.313509941101074
1776038971816476000,-1522122.47352417,-1.1348515748977661,-1.6112977266311646,-5.829881191253662
1776038971826546700,-1522122.4634533692,-0.9816226959228516,-1.4724340438842773,-5.4659624099731445
1776038971836617500,-1522122.4533825684,-0.8140285611152649,-1.3958195447921753,-5.080495834350586
1776038971846718700,-1522122.44328125,-0.6775590777397156,-1.1228805780410767,-4.745307922363281
1776038971856759000,-1522122.4332409669,-0.2537853717803955,-1.0773907899856567,-4.4077253341674805
1776038971866860300,-1522122.4231396485,-0.10773907601833344,-1.1085153818130493,-4.0749311447143555
1776038971876931000,-1522122.4130688477,0.002394201699644327,-0.9864110946655273,-3.8546648025512695
1776038971887001900,-1522122.402998047,0.15801730751991272,-1.0414776802062988,-3.600879430770874
1776038971897103400,-1522122.3928967286,0.28969839215278625,-1.0869675874710083,-3.3303346633911133
1776038971907174100,-1522122.3828259278,0.3758896589279175,-1.2306196689605713,-3.114856481552124
1776038971917245000,-1522122.372755127,0.5171475410461426,-1.3000515699386597,-2.978386878967285
1776038971927315700,-1522122.3626843262,0.8092401623725891,-1.292868971824646,-2.8850131034851074
1776038971937356000,-1522122.352644043,1.1851298809051514,-1.479616641998291,-2.896984100341797
1776038971947396000,-1522122.3426040038,1.278503656387329,-2.5905263423919678,-2.896984100341797
1776038971977608700,-1522122.3123913575,0.5195417404174805,-5.331887245178223,-4.141968727111816
1776038971987710000,-1522122.3022900391,0.7781155705451965,-5.588066577911377,-4.570530891418457
1776038971997750300,-1522122.292249756,0.8667010068893433,-5.638344764709473,-4.793191909790039
1776038972007821000,-1522122.2821789552,1.1803414821624756,-6.023811340332031,-5.123591423034668
1776038972017891800,-1522122.2721081544,1.6927006244659424,-7.101202011108398,-5.588066577911377
1776038972027993000,-1522122.262006836,1.9632453918457031,-8.592789649963379,-6.229712963104248
1776038972038063900,-1522122.2519360352,2.5689783096313477,-8.999804496765137,-7.132327079772949
1776038972048134700,-1522122.2418652344,2.5689783096313477,-8.999804496765137,-7.132327079772949
1776038972058175000,-1522122.2318249512,3.00711727142334,-8.62391471862793,-8.085219383239746
1776038972068307000,-1522122.2216931153,3.4596214294433594,-8.7484130859375,-8.918401718139648
1776038972088479000,-1522122.2015209962,2.9927520751953125,-8.063671112060547,-10.338163375854492
1776038972098519300,-1522122.191480713,2.434903144836426,-7.862558364868164,-10.591948509216309
1776038972108620500,-1522122.1813793946,1.843535304069519,-7.726089000701904,-10.81460952758789
1776038972118660900,-1522122.1713391114,1.3215993642807007,-7.747636795043945,-11.417947769165039
1776038972128731600,-1522122.1612683106,0.9265560507774353,-7.884106159210205,-12.210428237915039
1776038972138772000,-1522122.1512280274,0.7589619159698486,-8.324639320373535,-13.139378547668457
1776038972148842800,-1522122.1411572266,0.8307880163192749,-8.975862503051758,-13.809755325317383
1776038972158913500,-1522122.1310864259,1.173158884048462,-9.387664794921875,-14.053963661193848
1776038972179085600,-1522122.1109145507,2.4899697303771973,-9.591172218322754,-13.266271591186523
1776038972199227400,-1522122.0907727052,3.7493197917938232,-9.244012832641602,-12.236764907836914
1776038972219338200,-1522122.0706618652,4.125209331512451,-8.20492935180664,-11.688492774963379
1776038972239510500,-1522122.050489502,3.7421371936798096,-6.672640323638916,-11.161767959594727
1776038972249581300,-1522122.0404187012,3.5218706130981445,-5.91128396987915,-10.900800704956055
1776038972259652000,-1522122.0303479005,3.141192674636841,-5.504269599914551,-10.6709566116333
1776038972269723000,-1522122.0202770997,2.9472622871398926,-5.104437828063965,-10.366893768310547
1776038972279793700,-1522122.010206299,2.585737943649292,-4.927267074584961,-9.93593692779541
1776038972289864400,-1522122.0001354981,2.5043349266052246,-4.685452938079834,-9.418789863586426
1776038972299935200,-1522121.9900646973,2.4205379486083984,-4.486733913421631,-8.937555313110352
1776038972310036500,-1522121.979963623,2.3343467712402344,-4.177882194519043,-8.480262756347656
1776038972320107500,-1522121.9698925782,2.2242133617401123,-3.9001545906066895,-8.073247909545898
1776038972330178300,-1522121.9598217774,2.1787235736846924,-3.797203779220581,-7.647080421447754
1776038972340188000,-1522121.9498120118,2.1523873805999756,-3.8714241981506348,-7.115567684173584
1776038972350258700,-1522121.939741211,2.030282974243164,-4.019864559173584,-6.631938934326172
1776038972360329500,-1522121.9296704102,1.8770540952682495,-4.1395745277404785,-6.217741966247559
1776038972400643300,-1522121.8893566895,1.1994950771331787,-5.303156852722168,-4.833893299102783
1776038972410744600,-1522121.8792553712,1.158793568611145,-5.48272180557251,-4.51067590713501
1776038972420785000,-1522121.869215088,1.0534487962722778,-5.628767967224121,-4.323928356170654
1776038972430855700,-1522121.8591442872,1.0271124839782715,-5.8203043937683105,-4.079719543457031
1776038972440926500,-1522121.8490734864,0.9911994934082031,-5.899312973022461,-4.015076160430908
1776038972451027700,-1522121.838972168,1.048660397529602,-6.098031520843506,-4.027047157287598
1776038972461098500,-1522121.8289016113,1.1013327836990356,-6.356605529785156,-4.197035789489746
1776038972471200000,-1522121.818800049,1.3215993642807007,-6.461950302124023,-4.438849925994873
1776038972491341600,-1522121.7986584473,2.296039342880249,-6.718130111694336,-4.879383087158203
1776038972501382000,-1522121.7886181641,2.9041666984558105,-6.75883150100708,-5.104437828063965
1776038972511483100,-1522121.7785168458,3.3423056602478027,-6.6391215324401855,-5.453991413116455
1776038972521554000,-1522121.768446045,3.7253777980804443,-6.6846113204956055,-5.96874475479126
1776038972531624700,-1522121.7583752442,3.936067581176758,-6.797138690948486,-6.449979305267334
1776038972541695500,-1522121.7483044434,4.060565948486328,-7.06528902053833,-7.074865818023682
1776038972551766300,-1522121.7382336427,4.027047157287598,-7.448361396789551,-7.754819393157959
1776038972561837000,-1522121.7281628419,3.9408559799194336,-7.5417351722717285,-8.42040729522705
1776038972571907800,-1522121.718092041,3.794809579849243,-7.433996200561523,-9.02135181427002
1776038972612191200,-1522121.677808838,2.7892448902130127,-8.489839553833008,-10.584765434265137
1776038972622262000,-1522121.6677380372,2.557007312774658,-8.743624687194824,-10.800244331359863
1776038972632332800,-1522121.6576672364,2.655169725418091,-8.801085472106934,-11.54244613647461
1776038972642403600,-1522121.6475964356,2.829946517944336,-8.918401718139648,-12.744335174560547
1776038972652474400,-1522121.6375256348,3.227383852005005,-9.131484985351562,-13.862427711486816
1776038972662545200,-1522121.627454834,3.670311212539673,-9.409213066101074,-14.987702369689941
1776038972672585500,-1522121.6174145509,4.034229755401611,-9.703699111938477,-15.873557090759277
1776038972682656300,-1522121.60734375,4.060565948486328,-9.780313491821289,-16.66364288330078
1776038972692727000,-1522121.5972729493,3.9384617805480957,-9.564835548400879,-17.08262825012207
1776038972712899000,-1522121.5771008302,3.2297780513763428,-8.47786808013916,-15.5311861038208
1776038972722969900,-1522121.5670300294,2.9017724990844727,-7.879317760467529,-13.97016716003418
1776038972733010200,-1522121.5569897462,2.518700122833252,-7.60637903213501,-12.701239585876465
1776038972753182500,-1522121.536817627,1.9321208000183105,-6.524199485778809,-11.906365394592285
1776038972763253200,-1522121.5267468262,2.1811177730560303,-6.069301128387451,-12.090718269348145
1776038972773262800,-1522121.5167370606,2.27209734916687,-5.540182590484619,-12.258312225341797
1776038972783333600,-1522121.5066662598,2.5761611461639404,-5.473145008087158,-12.368446350097656
1776038972793404400,-1522121.496595703,2.4013843536376953,-5.719748020172119,-12.191274642944336
1776038972823586300,-1522121.4664135743,1.0773907899856567,-6.619967937469482,-11.659762382507324
1776038972833687800,-1522121.456312256,0.727837324142456,-6.265625953674316,-11.398794174194336
1776038972853799000,-1522121.436201172,0.40940847992897034,-5.779603004455566,-10.709263801574707
1776038972863900200,-1522121.4260998536,0.395043283700943,-5.588066577911377,-10.429142951965332
1776038972873971000,-1522121.4160290528,0.15083470940589905,-4.910507678985596,-10.261548042297363
1776038972884011300,-1522121.4059887696,0.15562310814857483,-4.469974517822266,-9.828198432922363
1776038972894051600,-1522121.3959484864,-0.009576806798577309,-3.8977603912353516,-9.224859237670898
1776038972904122400,-1522121.3858776856,-0.07661445438861847,-3.6128504276275635,-8.310274124145508
1776038972914193200,-1522121.3758068848,-0.0933738648891449,-3.5936968326568604,-7.575253963470459
1776038972924233500,-1522121.3657666016,0.19871874153614044,-3.6798880100250244,-6.981492042541504
1776038972934304300,-1522121.3556958009,0.2753331959247589,-3.584120035171509,-6.3973069190979
1776038972944405500,-1522121.3455944825,0.4884171485900879,-3.4548330307006836,-6.052541732788086
1776038972954445800,-1522121.3355541993,0.47165772318840027,-3.246537446975708,-5.700594425201416
1776038972964516600,-1522121.3254833985,0.33518823981285095,-3.31118106842041,-5.547365188598633
1776038972974557000,-1522121.3154431153,0.11971008777618408,-3.308786630630493,-5.420472621917725
1776038972984627700,-1522121.3053723145,-0.15562310814857483,-3.4811692237854004,-5.243301868438721
1776038972994729000,-1522121.2952709962,-0.33758243918418884,-3.287238836288452,-4.970362663269043
1776038973024910800,-1522121.2650891114,-0.5722141861915588,-2.2577321529388428,-4.173093795776367
1776038973045052400,-1522121.2449475098,-0.5937620401382446,-1.6759412288665771,-3.928884983062744
1776038973065194000,-1522121.2248059083,-0.4189853072166443,-1.482010841369629,-3.512293815612793
1776038973075295500,-1522121.21470459,-0.2825157940387726,-1.400607943534851,-3.3494882583618164
1776038973085335600,-1522121.2046645507,-0.16998831927776337,-1.2066776752471924,-3.24414324760437
1776038973095406600,-1522121.194593506,-0.14604631066322327,-1.0558429956436157,-3.292027235031128
1776038973125649400,-1522121.164350586,-0.08619125932455063,-1.9632453918457031,-3.6990416049957275
1776038973135750700,-1522121.1542492677,0.13168109953403473,-2.741360902786255,-3.9600095748901367
1776038973145821400,-1522121.1441784669,0.23702596127986908,-3.399766445159912,-4.345476150512695
1776038973155892200,-1522121.134107666,0.19871874153614044,-3.9169139862060547,-4.551377296447754
1776038973165963000,-1522121.1240371093,0.181959331035614,-4.079719543457031,-4.627991676330566
1776038973176003300,-1522121.113996582,0.2561795711517334,-4.299986362457275,-4.745307922363281
1776038973186074000,-1522121.1039257813,0.6177040338516235,-4.616020679473877,-5.252878665924072
1776038973196175600,-1522121.093824463,0.730231523513794,-5.233725070953369,-6.2201361656188965
1776038973236458800,-1522121.0535412598,1.7166426181793213,-8.08043098449707,-11.403582572937012
1776038973246529500,-1522121.043470459,1.7477672100067139,-6.406883716583252,-12.969390869140625
1776038973256600300,-1522121.0333996583,0.828393816947937,-5.8657941818237305,-14.204798698425293
1776038973266640600,-1522121.023359375,-0.15322890877723694,-6.325480937957764,-14.832079887390137
1776038973276711400,-1522121.0132885743,-0.8930372595787048,-7.271190643310547,-14.932636260986328
1776038973286782200,-1522121.0032177735,-1.5155296325683594,-8.346187591552734,-15.150507926940918
1776038973296853000,-1522120.9931469727,-1.6974890232086182,-9.172186851501465,-15.648502349853516
1776038973306893300,-1522120.9831066895,-1.659181833267212,-9.636661529541016,-16.493656158447266
1776038973347146000,-1522120.942854004,-0.4141969084739685,-10.764330863952637,-14.94460678100586
1776038973357216800,-1522120.9327832032,-0.1843535304069519,-11.405977249145508,-13.7666597366333
1776038973367257000,-1522120.92274292,0.6009446382522583,-11.384428977966309,-13.00051498413086
1776038973377327900,-1522120.9126721192,1.0797849893569946,-11.101913452148438,-12.22000503540039
1776038973387398700,-1522120.9026013184,1.7549498081207275,-10.919954299926758,-11.547234535217285
1776038973397469400,-1522120.8925305177,2.451662540435791,-10.295066833496094,-11.152191162109375
1776038973407509800,-1522120.8824902344,2.9759926795959473,-9.454702377319336,-11.013327598571777
1776038973417611000,-1522120.872388916,3.2561142444610596,-8.307879447937012,-10.876858711242676
1776038973427681800,-1522120.8623181153,3.201047658920288,-7.137115478515625,-10.759542465209961
1776038973447793000,-1522120.8422070313,2.7940332889556885,-5.542576789855957,-10.153809547424316
1776038973457863700,-1522120.8321362305,2.497152328491211,-5.054159641265869,-9.588777542114258
1776038973467934500,-1522120.8220654298,2.1763293743133545,-4.697423934936523,-9.006986618041992
1776038973478005200,-1522120.811994873,2.032677173614502,-4.623203277587891,-8.437167167663574
1776038973488076000,-1522120.8019240722,1.8076223134994507,-4.7405195236206055,-8.051700592041016
1776038973498116400,-1522120.791883545,1.7381904125213623,-4.8722004890441895,-7.884106159210205
1776038973508187100,-1522120.7818127442,1.699883222579956,-5.2480902671813965,-7.623138427734375
1776038973518258000,-1522120.7717421874,1.702277421951294,-5.537788391113281,-7.3454108238220215
1776038973548439800,-1522120.7415603027,1.6974890232086182,-5.363011837005615,-5.664681434631348
1776038973558480100,-1522120.7315197755,1.8507179021835327,-5.351040840148926,-5.262455463409424
1776038973568551000,-1522120.7214489747,2.492363929748535,-5.257667064666748,-5.051765441894531
1776038973578591200,-1522120.7114086915,2.8443117141723633,-5.224148273468018,-4.90571928024292
1776038973588662000,-1522120.7013378907,3.0526070594787598,-5.406107425689697,-4.786009311676025
1776038973598732800,-1522120.69126709,3.0597896575927734,-5.360617637634277,-4.711789131164551
1776038973608773000,-1522120.6812268067,3.0597896575927734,-5.360617637634277,-4.711789131164551
1776038973618844000,-1522120.671156006,3.071760892868042,-5.370194435119629,-4.405331134796143
1776038973628914700,-1522120.6610852052,2.8395233154296875,-5.410895824432373,-4.1156325340271
1776038973649056300,-1522120.6409438476,2.956839084625244,-6.023811340332031,-4.264073371887207
1776038973659157800,-1522120.6308422852,2.983175277709961,-6.344634532928467,-4.630385875701904
1776038973669228500,-1522120.6207714844,3.136404275894165,-6.665457725524902,-5.140350818634033
1776038973679299300,-1522120.6107006837,3.2609026432037354,-6.8162922859191895,-5.669469833374023
1776038973689339600,-1522120.6006604005,3.3423056602478027,-6.596025466918945,-6.4380083084106445
1776038973699410400,-1522120.5905895997,3.428496837615967,-6.277596950531006,-7.010222434997559
1776038973709450800,-1522120.5805493165,3.60566782951355,-6.143521785736084,-7.5848307609558105
1776038973719552000,-1522120.5704479981,3.514688014984131,-5.810727596282959,-8.085219383239746
1776038973729592300,-1522120.560407715,3.3710360527038574,-5.6670756340026855,-8.549694061279297
1776038973749734000,-1522120.5402661134,3.184288263320923,-5.676652431488037,-9.636661529541016
1776038973759804700,-1522120.5301953126,3.2537200450897217,-5.612008571624756,-10.141838073730469
1776038973769875500,-1522120.5201245118,3.224989652633667,-5.710171222686768,-10.532093048095703
1776038973779946200,-1522120.510053711,3.0095114707946777,-6.04775333404541,-10.63743782043457
1776038973790017000,-1522120.4999829102,3.064578056335449,-6.3518171310424805,-10.639832496643066
1776038973800118300,-1522120.4898818359,3.090914487838745,-6.701370716094971,-10.795455932617188
1776038973810189000,-1522120.479811035,3.0382418632507324,-6.797138690948486,-10.915165901184082
1776038973820260000,-1522120.4697399903,2.913743495941162,-6.909666061401367,-11.39161205291748
1776038973830331000,-1522120.4596691895,2.829946517944336,-7.036558628082275,-12.030863761901855
1776038973840401700,-1522120.4495983887,2.9472622871398926,-7.101202011108398,-12.744335174560547
1776038973870583600,-1522120.419416504,4.786009311676025,-8.33182144165039,-15.3731689453125
1776038973880654300,-1522120.4093457032,5.123591423034668,-8.609549522399902,-16.599000930786133
1776038973890725000,-1522120.3992749024,4.900930881500244,-8.588001251220703,-17.49443244934082
1776038973900796000,-1522120.3892041016,4.0078935623168945,-8.252813339233398,-17.295713424682617
1776038973910836200,-1522120.3791638184,2.9257144927978516,-7.7643961906433105,-16.021997451782227
1776038973920876500,-1522120.3691235352,1.6950948238372803,-7.06528902053833,-14.051569938659668
1776038973930916600,-1522120.359083496,0.569819986820221,-6.3733649253845215,-12.583924293518066
1776038973940987600,-1522120.3490124512,-0.09816227108240128,-5.793968200683594,-11.710040092468262
1776038973971200000,-1522120.318800049,-0.47644615173339844,-4.982333660125732,-11.496956825256348
1776038973981301200,-1522120.3086987305,-0.19632454216480255,-5.056553840637207,-11.537657737731934
1776038973991372000,-1522120.2986279298,-0.10534487664699554,-5.035006046295166,-11.413159370422363
1776038974001412400,-1522120.2885876466,0.043095629662275314,-5.049371242523193,-11.125855445861816
1776038974011452700,-1522120.2785473634,0.29209262132644653,-5.200206279754639,-10.979808807373047
1776038974021554000,-1522120.268446045,0.7565677165985107,-5.513846397399902,-10.879252433776855
1776038974031594200,-1522120.2584057618,1.1683704853057861,-5.774814605712891,-10.934319496154785
1776038974041695500,-1522120.2483044434,1.4867992401123047,-5.70777702331543,-10.936713218688965
1776038974051766300,-1522120.2382336427,1.3694833517074585,-5.365406036376953,-10.893617630004883
1776038974082009300,-1522120.2079907227,0.031124621629714966,-4.168305397033691,-9.593565940856934
1776038974092019000,-1522120.197980957,-0.2753331959247589,-3.9480385780334473,-8.992621421813965
1776038974102089700,-1522120.1879101563,-0.6799532771110535,-3.7900211811065674,-8.370129585266113
1776038974112160500,-1522120.1778395995,-0.7230489253997803,-3.737348794937134,-7.750030994415283
1776038974122262000,-1522120.1677380372,-1.0749965906143188,-3.598485231399536,-7.2352776527404785
1776038974132302300,-1522120.157697754,-1.3455413579940796,-3.5051112174987793,-6.677428722381592
1776038974142403600,-1522120.1475964356,-1.4221558570861816,-3.4165258407592773,-6.234501361846924
1776038974172616000,-1522120.1173840333,-1.6615760326385498,-2.9496564865112305,-5.013458251953125
1776038974182686700,-1522120.1073132325,-1.5083470344543457,-2.762908697128296,-4.716577529907227
1776038974192757500,-1522120.0972424317,-1.3048399686813354,-2.406172752380371,-4.469974517822266
1776038974202858800,-1522120.0871413574,-1.278503656387329,-2.1547815799713135,-4.1180267333984375
1776038974212899000,-1522120.0771008302,-1.048660397529602,-2.0805611610412598,-3.8953661918640137
1776038974223000600,-1522120.0669995118,-0.9888052940368652,-2.03507137298584,-3.751713991165161
1776038974233071400,-1522120.056928711,-0.9840168952941895,-2.190694570541382,-3.708618402481079
1776038974243142100,-1522120.0468579102,-0.6536170840263367,-2.406172752380371,-3.624821424484253
1776038974283394800,-1522120.0066052247,0.790086567401886,-3.1435868740081787,-4.627991676330566
1776038974293404400,-1522119.996595703,0.8786720037460327,-2.959233283996582,-4.596867084503174
1776038974313515500,-1522119.976484375,0.9409212470054626,-2.8802247047424316,-4.752490520477295
1776038974323617000,-1522119.9663830567,1.091755986213684,-2.9472622871398926,-5.125985622406006
1776038974333596200,-1522119.9564038087,1.2832920551300049,-3.00711727142334,-5.590460777282715
1776038974343697400,-1522119.9463024903,1.2641384601593018,-3.1316158771514893,-5.928043365478516
1776038974373879300,-1522119.9161206055,1.2330138683319092,-3.24414324760437,-7.398083209991455
1776038974383980800,-1522119.9060192872,1.01753568649292,-3.1890766620635986,-7.848193168640137
1776038974394051600,-1522119.8959484864,1.2186486721038818,-3.2609026432037354,-8.60236644744873
1776038974404152800,-1522119.885847168,1.3096283674240112,-3.598485231399536,-9.277531623840332
1776038974414193200,-1522119.8758068848,1.5682021379470825,-3.823540210723877,-10.036493301391602
1776038974424264000,-1522119.865736084,1.6304513216018677,-4.259284973144531,-11.216835021972656
1776038974434304300,-1522119.8556958009,1.5849615335464478,-4.405331134796143,-12.717999458312988
1776038974444375000,-1522119.845625,1.280897855758667,-4.436455726623535,-14.197615623474121
1776038974454384600,-1522119.8356154785,1.0271124839782715,-4.4939165115356445,-15.540762901306152
1776038974474526500,-1522119.815473633,1.1061211824417114,-4.917690277099609,-17.18797492980957
1776038974484566500,-1522119.8054335937,1.4197616577148438,-5.590460777282715,-17.707515716552734
1776038974494606800,-1522119.7953930665,1.845929503440857,-6.3949127197265625,-17.949329376220703
1776038974504677600,-1522119.7853222657,2.612074136734009,-7.249642848968506,-17.937358856201172
1776038974514748400,-1522119.775251465,3.442862033843994,-8.13789176940918,-17.523162841796875
1776038974524819200,-1522119.7651809081,4.031835556030273,-8.643068313598633,-16.75941276550293
1776038974534829000,-1522119.7551708985,4.666299343109131,-8.889671325683594,-15.952566146850586
1776038974544930300,-1522119.7450695802,5.044582843780518,-8.98543930053711,-14.980520248413086
1776038974555001000,-1522119.7349990234,5.272032260894775,-8.9064302444458,-14.077905654907227
1776038974595223300,-1522119.6947766114,4.594472885131836,-6.660669326782227,-12.75870132446289
1776038974605324800,-1522119.684675293,4.185064792633057,-5.9519853591918945,-12.36365795135498
1776038974615334400,-1522119.6746655274,3.7181951999664307,-5.3127336502075195,-11.60948371887207
