time,seconds_elapsed,z,y,x
1776038959374196200,-1522134.915803711,0.23942017555236816,-0.14604631066322327,0.009576806798577309
1776038959384228000,-1522134.9057719726,11.923124313354492,10.266336441040039,-3.4739866256713867
1776038959394099000,-1522134.895901123,-0.43095630407333374,-0.2322375625371933,-0.05985504388809204
1776038959403969800,-1522134.8860302735,-0.5770025849342346,-0.090979665517807,0.019153613597154617
1776038959414009900,-1522134.8759902343,-0.45010992884635925,-0.05985504388809204,-0.05506663769483566
1776038959424111400,-1522134.865888672,-0.42377370595932007,0.2561795711517334,-0.09816227108240128
1776038959434151700,-1522134.8558483887,-0.5171475410461426,0.05027823522686958,-0.08619125932455063
1776038959444253000,-1522134.8457470704,-0.5410895943641663,0.11013327538967133,0
1776038959464364000,-1522134.8256359864,-0.5267243981361389,0.1173158809542656,-0.014365210197865963
1776038959474404400,-1522134.8155957032,-0.5913678407669067,-0.22505496442317963,-0.031124621629714966
1776038959484475100,-1522134.8055249024,-0.42856210470199585,-0.0694318488240242,-0.26096799969673157
1776038959514595800,-1522134.7754040528,-0.4357447028160095,0.0454898327589035,-0.10534487664699554
1776038959524697300,-1522134.7653027344,-0.35673606395721436,-0.004788403399288654,-0.17238251864910126
1776038959534707000,-1522134.7552929688,-0.3902548849582672,-0.19153612852096558,-0.17717093229293823
1776038959554818000,-1522134.7351818848,-0.38067805767059326,-0.11971008777618408,0.17956513166427612
1776038959564888800,-1522134.725111084,-0.24899697303771973,-0.2944868206977844,-0.27054479718208313
1776038959574898700,-1522134.7151013184,-0.11971008777618408,-0.07900865375995636,-0.4812345504760742
1776038959584969500,-1522134.7050305177,-0.21547815203666687,0.20111294090747833,-0.10055647045373917
1776038959605111000,-1522134.684888916,-0.40462008118629456,-0.0454898327589035,0.22505496442317963
1776038959615121000,-1522134.6748791505,-1.015141487121582,-1.9297266006469727,0.9648633003234863
1776038959625252600,-1522134.6647473145,-0.8164227604866028,0.395043283700943,-0.47644615173339844
1776038959635323400,-1522134.6546765137,-0.4836287498474121,1.7908629179000854,-1.0797849893569946
1776038959645394200,-1522134.644605713,-0.5985504388809204,2.008735179901123,-0.9217676520347595
1776038959655434500,-1522134.6345654298,-0.8236053586006165,0.7733271718025208,-0.040701430290937424
1776038959665535700,-1522134.6244643554,-0.8044517636299133,-0.05746084079146385,0.28969839215278625
1776038959675576000,-1522134.6144238282,-0.6727706789970398,0.29209262132644653,0.181959331035614
1776038959685677600,-1522134.6043225098,-0.5602431893348694,0.9241618514060974,-0.1149216815829277
1776038959715859500,-1522134.574140625,-0.47884035110473633,1.3982137441635132,-0.15801730751991272
1776038959725930200,-1522134.5640698243,0.2992752194404602,1.1492167711257935,-0.033518824726343155
1776038959735970600,-1522134.554029541,0.8307880163192749,2.056619167327881,-0.40222588181495667
1776038959746071800,-1522134.5439282227,1.6615760326385498,2.1547815799713135,-0.42377370595932007
1776038959756142600,-1522134.533857422,1.8195933103561401,1.7070658206939697,-0.6200982332229614
1776038959766183000,-1522134.5238171387,2.013523578643799,0.7182605266571045,-0.629675030708313
1776038959776223200,-1522134.5137768555,1.599326729774475,0.21787235140800476,-0.5315127968788147
1776038959786294000,-1522134.5037060548,0.912190854549408,0.9241618514060974,-0.47165772318840027
1776038959826516000,-1522134.4634841308,0.8523358106613159,0.7422025203704834,-1.1204863786697388
1776038959836587000,-1522134.453413086,0.8858546018600464,0.3208230137825012,-1.0893617868423462
1776038959846657800,-1522134.4433422852,0.6536170840263367,-0.49559974670410156,-0.646434485912323
1776038959866769000,-1522134.4232312012,0.15801730751991272,-1.9608511924743652,0.05985504388809204
1776038959876809000,-1522134.413190918,-0.15083470940589905,-1.9512743949890137,0.22266076505184174
1776038959886879700,-1522134.4031203613,-0.2801215946674347,-1.7549498081207275,0.2513911724090576
1776038959896950800,-1522134.3930493165,-0.31124621629714966,-1.5969325304031372,0.33758243918418884
1776038959906990800,-1522134.3830090333,-0.2322375625371933,-1.644816517829895,0.3758896589279175
1776038959917031200,-1522134.37296875,-0.5985504388809204,-1.9297266006469727,0.2753331959247589
1776038959937234000,-1522134.3527661134,-1.1516109704971313,-2.3558945655822754,0.29209262132644653
1776038959947304700,-1522134.3426953126,-1.4053963422775269,-2.2673089504241943,0.3663128614425659
1776038959957345000,-1522134.3326550294,-1.6711528301239014,-2.094926595687866,0.181959331035614
1776038959967415800,-1522134.3225842286,-1.987187385559082,-1.9177556037902832,-0.10534487664699554
1776038959977456000,-1522134.3125439454,-2.559401512145996,-1.843535304069519,-0.5961562395095825
1776038959987618300,-1522134.3023815919,-2.913743495941162,-1.9752163887023926,-0.9552865028381348
1776038959997658600,-1522134.2923413087,-3.1531636714935303,-2.097320795059204,-1.235408067703247
1776038960007729400,-1522134.282270508,-3.227383852005005,-2.1763293743133545,-1.357512354850769
1776038960027901700,-1522134.2620983887,-2.8179752826690674,-1.721431016921997,-1.6376339197158813
1776038960037941800,-1522134.2520583495,-2.691082715988159,-1.3886369466781616,-1.9536685943603516
1776038960048012500,-1522134.2419875488,-2.6886885166168213,-1.2330138683319092,-2.3558945655822754
1776038960058083600,-1522134.231916504,-2.5713725090026855,-1.158793568611145,-2.8562827110290527
1776038960068184800,-1522134.2218151856,-2.5929205417633057,-0.9648633003234863,-3.3854012489318848
1776038960078255600,-1522134.2117443848,-2.6791117191314697,-0.8403648138046265,-4.20421838760376
1776038960088356900,-1522134.2016430665,-2.8203697204589844,-0.8331822156906128,-5.109226226806641
1776038960098397200,-1522134.1916027833,-3.0573954582214355,-0.5051765441894531,-5.863399982452393
1776038960108468000,-1522134.1815319825,-3.1723172664642334,0.07422025501728058,-6.440402507781982
1776038960128640000,-1522134.1613601074,-3.620033025741577,1.1851298809051514,-7.175422668457031
1776038960138710800,-1522134.1512893066,-3.883395195007324,1.644816517829895,-7.5632829666137695
1776038960148812300,-1522134.1411877442,-4.129997730255127,1.9967641830444336,-7.905653953552246
1776038960158883000,-1522134.1311169434,-3.7469255924224854,1.6400281190872192,-8.226476669311523
1776038960168953900,-1522134.1210461427,-3.4739866256713867,1.2880805730819702,-8.26239013671875
1776038960179024600,-1522134.1109753419,-3.31118106842041,1.1516109704971313,-8.037335395812988
1776038960189126000,-1522134.1008740235,-3.0166940689086914,1.2952631711959839,-7.647080421447754
1776038960199166200,-1522134.0908337403,-2.7222073078155518,1.7142484188079834,-7.156269073486328
1776038960209237000,-1522134.0807629395,-2.3942017555236816,2.190694570541382,-6.7492547035217285
1776038960239449300,-1522134.0505505372,-1.6711528301239014,3.8379054069519043,-6.0836663246154785
1776038960259591000,-1522134.0304091796,-2.099714994430542,4.953603267669678,-5.406107425689697
1776038960279732700,-1522134.010267334,-2.7748796939849854,5.16429328918457,-5.149928092956543
1776038960289803500,-1522134.0001965333,-3.201047658920288,5.118803024291992,-5.16429328918457
1776038960299843800,-1522133.99015625,-3.643975019454956,4.991910457611084,-5.25527286529541
1776038960340127000,-1522133.949873047,-4.532223701477051,1.290474772453308,-6.045359134674072
1776038960350197800,-1522133.9398022462,-4.426878929138184,0.33997663855552673,-6.473921298980713
1776038960390511400,-1522133.8994885255,-3.026270866394043,0.14365209639072418,-6.356605529785156
1776038960420662800,-1522133.8693371583,-2.3247697353363037,-0.33279404044151306,-6.7923502922058105
1776038960501198600,-1522133.7888015136,-1.1875240802764893,-5.434837818145752,-6.157886981964111
1776038960561562400,-1522133.728437744,0.45010992884635925,-5.152322292327881,-3.466804027557373
1776038960581734700,-1522133.708265381,1.5394717454910278,-5.789179801940918,-2.341529369354248
1776038960601876200,-1522133.6881237794,2.2218191623687744,-6.813898086547852,-1.6065093278884888
1776038960642098400,-1522133.6479016114,2.892195701599121,-7.881711959838867,-1.965639591217041
1776038960652199700,-1522133.637800293,2.80361008644104,-8.346187591552734,-1.7621324062347412
1776038960662240000,-1522133.6277600098,2.5258827209472656,-8.56884765625,-1.4700398445129395
1776038960682381600,-1522133.6076184083,1.9129672050476074,-8.470685958862305,-1.4508862495422363
1776038960692482800,-1522133.59751709,1.7860745191574097,-8.336610794067383,-1.6879122257232666
1776038960702553600,-1522133.5874462891,1.599326729774475,-8.38449478149414,-2.0925323963165283
1776038960712655000,-1522133.5773449708,1.5682021379470825,-8.391676902770996,-2.6599581241607666
1776038960722695200,-1522133.5673049316,1.656787633895874,-8.317456245422363,-3.1723172664642334
1776038960732766200,-1522133.5572338868,1.7717092037200928,-7.996633529663086,-3.3638534545898438
1776038960742806300,-1522133.5471938476,1.5466543436050415,-7.469909191131592,-3.205836057662964
1776038960752877000,-1522133.5371230468,1.2425906658172607,-6.854599475860596,-2.6575639247894287
1776038960762948000,-1522133.527052002,0.6057330369949341,-6.222530364990234,-2.1499931812286377
1776038960773049300,-1522133.5169506837,-0.20111294090747833,-5.664681434631348,-1.8267759084701538
1776038960813363000,-1522133.476636963,-3.0789434909820557,-3.7181951999664307,-4.637568473815918
1776038960823433700,-1522133.4665661622,-3.3686418533325195,-3.1220390796661377,-4.932055473327637
1776038960833535200,-1522133.4564648438,-3.5027170181274414,-2.669534921646118,-5.102043628692627
1776038960843606000,-1522133.446394043,-3.7636849880218506,-2.518700122833252,-4.965574264526367
1776038960853676800,-1522133.4363232423,-3.7876269817352295,-2.5043349266052246,-4.833893299102783
1776038960863747600,-1522133.4262524415,-3.6607344150543213,-2.1978771686553955,-4.98472785949707
1776038960893929500,-1522133.3960705567,-3.7158010005950928,-1.3934253454208374,-6.107608318328857
1776038960904000300,-1522133.385999756,-3.7253777980804443,-1.4413094520568848,-6.6127848625183105
1776038960914101500,-1522133.3758984376,-4.134786128997803,-1.7405846118927002,-7.3885064125061035
1776038960924172300,-1522133.3658276368,-4.745307922363281,-1.0534487962722778,-7.903259754180908
1776038960934212600,-1522133.3557873536,-5.3127336502075195,0.014365210197865963,-8.04691219329834
1776038960944313900,-1522133.3456860352,-5.57370138168335,1.0773907899856567,-7.95832633972168
1776038960954384600,-1522133.3356154785,-5.808333396911621,1.9153614044189453,-7.5201873779296875
1776038960964455400,-1522133.3255446777,-5.856217384338379,2.5091233253479004,-7.029376029968262
1776038960974495700,-1522133.3155041505,-5.803544998168945,2.389413356781006,-6.636727333068848
1776038961004738800,-1522133.2852612305,-5.178658485412598,2.7772738933563232,-6.315904140472412
1776038961014748400,-1522133.275251465,-5.161899089813232,3.4117374420166016,-6.133944988250732
1776038961024850000,-1522133.2651501466,-4.9583916664123535,4.24970817565918,-5.975927352905273
1776038961034951200,-1522133.2550488282,-4.8267107009887695,4.874594688415527,-5.74129581451416
1776038961045022000,-1522133.2449780274,-4.774038314819336,5.157110691070557,-5.540182590484619
1776038961055092700,-1522133.2349072266,-4.651933670043945,5.372588634490967,-5.183446884155273
1776038961065194000,-1522133.2248059083,-4.6255974769592285,5.566518783569336,-4.999093055725098
1776038961075264800,-1522133.2147353515,-4.414907932281494,5.7987565994262695,-4.910507678985596
1776038961085335600,-1522133.2046645507,-4.395754337310791,6.069301128387451,-4.759673118591309
1776038961095406600,-1522133.194593506,-4.2329487800598145,6.155492782592773,-4.750096321105957
1776038961115517400,-1522133.174482666,-3.892971992492676,6.1770405769348145,-4.680664539337158
1776038961125588500,-1522133.1644116212,-3.845088005065918,6.325480937957764,-4.776432514190674
1776038961135598000,-1522133.1544018555,-3.6343982219696045,6.452373504638672,-4.855441093444824
1776038961145699300,-1522133.1443007812,-3.2752678394317627,6.572083473205566,-4.994304656982422
1776038961155770000,-1522133.1342299804,-3.2585084438323975,6.631938934326172,-5.035006046295166
1776038961165841200,-1522133.1241589356,-3.177105665206909,6.66785192489624,-5.207388877868652
1776038961175881200,-1522133.1141188964,-3.1675288677215576,6.687005519866943,-5.262455463409424
1776038961206063000,-1522133.0839370117,-2.5091233253479004,6.311115741729736,-5.257667064666748
1776038961216134000,-1522133.0738662109,-2.231395959854126,6.074089527130127,-5.257667064666748
1776038961226205000,-1522133.063795166,-2.027888774871826,5.872976779937744,-5.367800235748291
1776038961236275700,-1522133.0537243653,-1.7860745191574097,5.781997203826904,-5.475539207458496
1776038961246346500,-1522133.0436535645,-1.6855180263519287,5.3127336502075195,-5.839457988739014
1776038961256417300,-1522133.0335827637,-1.5921441316604614,4.654327869415283,-6.471527099609375
1776038961266488000,-1522133.023511963,-1.5442601442337036,4.01268196105957,-7.24485445022583
1776038961276558800,-1522133.0134411622,-1.338358759880066,3.4811692237854004,-7.7883381843566895
1776038961306710300,-1522132.983289795,-2.070984363555908,3.3423056602478027,-9.155426979064941
1776038961326851800,-1522132.9631481934,-2.5067291259765625,3.8786067962646484,-9.86889934539795
1776038961336892200,-1522132.9531079102,-2.5737667083740234,3.6080620288848877,-10.187328338623047
1776038961346932200,-1522132.943067871,-2.5498247146606445,3.0789434909820557,-10.160991668701172
1776038961357033700,-1522132.9329663087,-2.432508945465088,2.6599581241607666,-9.926360130310059
1776038961367104500,-1522132.922895508,-2.33913516998291,2.1092917919158936,-9.279925346374512
1776038961377205800,-1522132.9127941895,-2.0159177780151367,1.7118542194366455,-8.643068313598633
1776038961387246000,-1522132.9027539063,-1.702277421951294,1.6136919260025024,-8.08282470703125
1776038961417428000,-1522132.8725720216,-1.0031704902648926,1.5610195398330688,-7.285555839538574
1776038961427498800,-1522132.8625012208,-0.8547300100326538,1.6496049165725708,-7.316680431365967
1776038961437569500,-1522132.85243042,-0.8020575642585754,1.86508309841156,-7.445967197418213
1776038961447640300,-1522132.8423596192,-0.9600749015808105,1.9512743949890137,-7.407660007476807
1776038961457711000,-1522132.8322888184,-1.2449848651885986,2.164358377456665,-7.405265808105469
1776038961467782000,-1522132.8222180177,-1.699883222579956,2.209848165512085,-7.230489253997803
1776038961477883400,-1522132.8121166993,-2.118868589401245,2.1380221843719482,-7.1490864753723145
1776038961487923500,-1522132.80207666,-2.612074136734009,1.9632453918457031,-6.936002254486084
1776038961497994200,-1522132.7920058593,-2.9759926795959473,1.6496049165725708,-6.7492547035217285
1776038961528206800,-1522132.761793213,-3.1747114658355713,0.2801215946674347,-5.705382823944092
1776038961538247200,-1522132.7517529298,-3.1076738834381104,-0.33758243918418884,-5.245696067810059
1776038961548318000,-1522132.741682129,-2.8993782997131348,-1.0414776802062988,-4.836287498474121
1776038961558388700,-1522132.7316113282,-2.7724854946136475,-1.6304513216018677,-4.412513732910156
1776038961568459500,-1522132.7215405274,-2.676717519760132,-2.3080103397369385,-3.957615375518799
1776038961578560800,-1522132.711439209,-2.6862943172454834,-2.7509377002716064,-3.5266590118408203
1776038961588631600,-1522132.7013684083,-2.808398485183716,-3.2537200450897217,-3.0526070594787598
1776038961598702300,-1522132.6912976075,-3.0166940689086914,-3.7014358043670654,-2.626439332962036
1776038961618844000,-1522132.671156006,-2.738966703414917,-4.8482584953308105,-1.7956513166427612
1776038961628914700,-1522132.6610852052,-2.1595699787139893,-5.432443618774414,-1.3838485479354858
1776038961639016200,-1522132.6509838868,-1.4963760375976562,-5.863399982452393,-0.7852981686592102
1776038961649087000,-1522132.640913086,-1.170764684677124,-5.889736175537109,-0.22744916379451752
1776038961659157800,-1522132.6308422852,-0.9744400978088379,-5.60722017288208,0.24899697303771973
1776038961669198000,-1522132.620802002,-0.9864110946655273,-5.25527286529541,0.6607996821403503
1776038961679268900,-1522132.6107312012,-1.0534487962722778,-4.9368438720703125,0.9289502501487732
1776038961689309200,-1522132.600690918,-0.9576807022094727,-4.843470096588135,1.2497732639312744
1776038961699380000,-1522132.5906201173,-0.7206547260284424,-4.90571928024292,1.5729905366897583
1776038961709450800,-1522132.5805493165,-0.3208230137825012,-5.1595048904418945,1.9129672050476074
1776038961739693600,-1522132.5503063966,0.40940847992897034,-5.609614372253418,2.0901381969451904
1776038961749734000,-1522132.5402661134,0.7015010714530945,-5.901707172393799,1.7549498081207275
1776038961759804700,-1522132.5301953126,0.7876923680305481,-6.13633918762207,1.4293384552001953
1776038961769845000,-1522132.5201550294,0.6967126727104187,-6.344634532928467,1.2641384601593018
1776038961779885300,-1522132.5101147462,0.5817909836769104,-6.57926607131958,1.1540051698684692
1776038961789956000,-1522132.5000439454,0.42377370595932007,-6.811503887176514,1.1516109704971313
1776038961800057300,-1522132.489942627,0.1149216815829277,-6.921637058258057,0.912190854549408
1776038961810128100,-1522132.4798718262,0.11971008777618408,-6.861782073974609,0.6512228846549988
1776038961820260000,-1522132.4697399903,-0.10295066982507706,-7.036558628082275,0.3902548849582672
1776038961830300200,-1522132.459699951,-0.1628057211637497,-7.151480674743652,0.09576806426048279
1776038961860482000,-1522132.4295180663,0.011971008032560349,-6.8162922859191895,-1.434126853942871
1776038961870552800,-1522132.4194472656,-0.06703764945268631,-6.289567947387695,-2.0422539710998535
1776038961880623900,-1522132.4093762208,-0.16759411990642548,-6.026205539703369,-2.920926094055176
1776038961890664000,-1522132.3993361816,-0.2753331959247589,-5.985504150390625,-3.7636849880218506
1776038961900734700,-1522132.3892653808,-0.43095630407333374,-6.200982570648193,-4.824316501617432
1776038961910805800,-1522132.379194336,-0.6224924325942993,-6.31829833984375,-5.705382823944092
1776038961920876500,-1522132.3691235352,-0.8690952062606812,-6.339846134185791,-6.6127848625183105
1776038961941018000,-1522132.3489819337,-1.3048399686813354,-7.127538681030273,-7.632715225219727
1776038961951089000,-1522132.338911133,-1.6041151285171509,-7.216124057769775,-7.69735860824585
1776038961961159700,-1522132.328840332,-1.8483237028121948,-6.754043102264404,-7.206547260284424
1776038961971230500,-1522132.3187695313,-2.0829553604125977,-5.813121795654297,-6.658275127410889
1776038961981270800,-1522132.3087292481,-2.3535003662109375,-4.786009311676025,-6.167463779449463
1776038961991311000,-1522132.298688965,-2.5953147411346436,-3.823540210723877,-5.791574001312256
1776038962001382000,-1522132.2886181641,-2.671929121017456,-3.002328872680664,-5.679046630859375
1776038962011452700,-1522132.2785473634,-2.5737667083740234,-2.2361843585968018,-5.810727596282959
1776038962021554000,-1522132.268446045,-2.494758129119873,-1.7405846118927002,-5.92325496673584
1776038962051735800,-1522132.2382641602,-2.4612393379211426,-0.5602431893348694,-5.535394191741943
1776038962061837000,-1522132.2281628419,-2.5450363159179688,-0.7134721279144287,-5.288791656494141
1776038962071877400,-1522132.2181225587,-2.559401512145996,-0.6799532771110535,-5.104437828063965
1776038962081948200,-1522132.208051758,-2.5282769203186035,-0.07661445438861847,-5.049371242523193
1776038962092019000,-1522132.197980957,-2.5689783096313477,0.6823474764823914,-5.157110691070557
1776038962102120400,-1522132.1878796387,-2.7700912952423096,1.4221558570861816,-5.2672438621521
1776038962112160500,-1522132.1778395995,-3.023876667022705,2.1045033931732178,-5.418078422546387
1776038962122231300,-1522132.1677687988,-3.332728862762451,2.609679937362671,-5.303156852722168
1776038962132302300,-1522132.157697754,-3.7014358043670654,3.047818660736084,-5.1810526847839355
1776038962152504800,-1522132.1374951173,-3.5889084339141846,3.7014358043670654,-4.649539470672607
1776038962162606000,-1522132.127393799,-3.6607344150543213,4.0078935623168945,-4.443638324737549
1776038962172646400,-1522132.1173535157,-3.936067581176758,4.278438568115234,-4.352658748626709
1776038962182717200,-1522132.107282715,-4.141968727111816,4.63517427444458,-4.177882194519043
1776038962192788000,-1522132.0972119141,-4.268861770629883,4.886565685272217,-4.120420932769775
1776038962202889500,-1522132.0871105958,-3.847482204437256,5.20978307723999,-4.0964789390563965
1776038962212899000,-1522132.0771008302,-3.5865142345428467,5.432443618774414,-4.156333923339844
1776038962223000600,-1522132.0669995118,-3.514688014984131,5.535394191741943,-4.108449935913086
1776038962233040600,-1522132.0569594726,-3.4572272300720215,5.70777702331543,-4.113238334655762
1776038962263253200,-1522132.0267468262,-3.9025487899780273,6.967126846313477,-3.2106244564056396
1776038962273324000,-1522132.0166760255,-3.423708438873291,6.845022678375244,-2.999934673309326
1776038962283394800,-1522132.0066052247,-3.1483752727508545,6.119579315185547,-2.8610711097717285
1776038962293435100,-1522131.9965649415,-2.8131868839263916,5.34625244140625,-3.002328872680664
1776038962303536400,-1522131.9864636231,-2.1116859912872314,4.836287498474121,-3.248931646347046
1776038962313576700,-1522131.97642334,-1.7693150043487549,4.812345504760742,-3.4165258407592773
1776038962323617000,-1522131.9663830567,-1.9033904075622559,5.114014625549316,-3.3925838470458984
1776038962333687800,-1522131.956312256,-2.1739351749420166,5.322310447692871,-3.1100680828094482
1776038962343758600,-1522131.9462414552,-2.296039342880249,5.686229228973389,-2.9065608978271484
1776038962363930600,-1522131.926069336,-2.2457611560821533,6.057330131530762,-2.9089550971984863
1776038962373909800,-1522131.916090332,-2.229001760482788,5.578489780426025,-3.162740468978882
1776038962383980800,-1522131.9060192872,-2.231395959854126,5.305551052093506,-3.361459255218506
1776038962394051600,-1522131.8959484864,-2.1978771686553955,4.833893299102783,-3.507505416870117
1776038962404122400,-1522131.8858776856,-2.3056161403656006,4.553771495819092,-3.557783842086792
1776038962414132000,-1522131.87586792,-2.2361843585968018,4.046200752258301,-3.648763418197632
1776038962424233500,-1522131.8657666016,-2.0925323963165283,3.450044631958008,-3.9217023849487305
1776038962434273500,-1522131.8557265624,-1.9967641830444336,2.33913516998291,-4.486733913421631
1776038962464486100,-1522131.825513916,-1.920149803161621,0.6272808313369751,-7.702147006988525
1776038962484597200,-1522131.805402832,-3.0190882682800293,1.5729905366897583,-8.935160636901855
1776038962494576400,-1522131.795423584,-3.2752678394317627,1.7764976024627686,-8.793902397155762
1776038962504677600,-1522131.7853222657,-3.4332852363586426,2.140416383743286,-8.801085472106934
1776038962514748400,-1522131.775251465,-3.1723172664642334,2.3247697353363037,-8.669404029846191
1776038962524819200,-1522131.7651809081,-2.8802247047424316,1.900996208190918,-8.492233276367188
1776038962534859500,-1522131.755140381,-2.298433542251587,1.482010841369629,-8.243236541748047
1776038962555031800,-1522131.7349682618,-1.3862427473068237,1.1516109704971313,-7.304709434509277
1776038962575173400,-1522131.7148266602,-0.6392518281936646,1.173158884048462,-6.952761650085449
1776038962595345400,-1522131.694654541,-0.33518823981285095,1.2449848651885986,-6.931213855743408
1776038962605416200,-1522131.6845837403,-0.17956513166427612,1.1994950771331787,-6.813898086547852
1776038962615456500,-1522131.674543457,-0.3926490843296051,1.115697979927063,-6.509834289550781
1776038962625557800,-1522131.6644421387,-0.7254431247711182,1.1109095811843872,-6.289567947387695
1776038962635598000,-1522131.6544018555,-1.0414776802062988,0.9959878921508789,-6.009446144104004
1776038962645668900,-1522131.6443310548,-1.4844050407409668,0.8068459630012512,-5.767632007598877
1776038962655678700,-1522131.6343212891,-1.8100165128707886,0.45250412821769714,-5.477933406829834
1776038962665780000,-1522131.6242199708,-2.1068975925445557,0.05985504388809204,-5.082890033721924
1776038962675820300,-1522131.6141796876,-2.3056161403656006,-0.2513911724090576,-4.76924991607666
1776038962685891000,-1522131.6041088868,-2.341529369354248,-0.5793967843055725,-4.352658748626709
1776038962695931400,-1522131.5940686036,-2.2697031497955322,-0.950498104095459,-3.97916316986084
1776038962706032600,-1522131.5839672852,-2.0901381969451904,-1.3072341680526733,-3.622427225112915
1776038962716073000,-1522131.573927002,-1.8626888990402222,-1.7310078144073486,-3.2321722507476807
1776038962726174200,-1522131.5638256837,-1.6519991159439087,-2.027888774871826,-2.8634653091430664
1776038962736184000,-1522131.553815918,-1.742978811264038,-2.3702597618103027,-2.3774423599243164
1776038962746285300,-1522131.5437145997,-1.867477297782898,-2.454056739807129,-1.824381709098816
1776038962776467200,-1522131.513532715,-2.3487119674682617,-2.7269957065582275,-0.40940847992897034
1776038962786538000,-1522131.5034619141,-2.4588451385498047,-2.7293899059295654,-0.23702596127986908
1776038962796608800,-1522131.4933911134,-2.52109432220459,-2.7078421115875244,0.0454898327589035
1776038962806710300,-1522131.483289795,-2.2912509441375732,-2.7964274883270264,0.3423708379268646
1776038962816750300,-1522131.4732497558,-2.054224967956543,-2.937685489654541,0.7182605266571045
1776038962826790700,-1522131.4632092286,-2.164358377456665,-2.913743495941162,0.9840168952941895
1776038962836831000,-1522131.4531689454,-2.2697031497955322,-3.0550012588500977,1.1037269830703735
1776038962856942000,-1522131.4330578614,-0.11252748221158981,-0.751779317855835,0.730231523513794
1776038962877114000,-1522131.4128859863,0.047884032130241394,-1.113303780555725,1.1276689767837524
1776038962887215600,-1522131.402784424,0.28730419278144836,-1.2114660739898682,1.314416766166687
1776038962897256000,-1522131.3927441407,0.45010992884635925,-1.359906554222107,1.3215993642807007
1776038962907357200,-1522131.3826428223,0.730231523513794,-1.4437036514282227,1.2689268589019775
1776038962917428000,-1522131.3725720216,0.9768342971801758,-1.4891934394836426,1.2042834758758545
1776038962927498800,-1522131.3625012208,1.0031704902648926,-1.482010841369629,1.2042834758758545
1776038962937569500,-1522131.35243042,1.137245774269104,-1.479616641998291,1.0893617868423462
1776038962947640300,-1522131.3423596192,1.161187767982483,-1.5705963373184204,0.7757213711738586
1776038962977883400,-1522131.3121166993,1.7094600200653076,-1.8076223134994507,0.019153613597154617
1776038962998055400,-1522131.2919445802,1.6855180263519287,-1.7310078144073486,-0.3423708379268646
1776038963008156700,-1522131.2818432618,1.7070658206939697,-1.5203180313110352,-0.6631938815116882
1776038963018227500,-1522131.271772461,1.7310078144073486,-1.5825673341751099,-1.158793568611145
1776038963028328700,-1522131.2616713867,1.7573440074920654,-1.7908629179000854,-1.6400281190872192
1776038963038399700,-1522131.2516003419,1.7908629179000854,-2.1523873805999756,-2.03507137298584
1776038963048470500,-1522131.241529541,1.699883222579956,-2.2577321529388428,-2.205059766769409
1776038963078683000,-1522131.2113171387,1.2066776752471924,-1.644816517829895,-4.8051629066467285
1776038963088723200,-1522131.2012768555,1.1204863786697388,-1.721431016921997,-6.138733386993408
1776038963098763500,-1522131.1912365723,1.0079588890075684,-1.7357962131500244,-7.2352776527404785
1776038963108834300,-1522131.1811657716,1.05105459690094,-1.766920804977417,-8.097189903259277
1776038963118905000,-1522131.1710949708,0.8140285611152649,-1.7501614093780518,-8.674192428588867
1776038963129006300,-1522131.1609936524,0.6224924325942993,-1.5634137392044067,-8.942343711853027
1776038963139046700,-1522131.1509533692,0.5722141861915588,-1.2976573705673218,-8.793902397155762
1776038963149117400,-1522131.1408825684,0.5961562395095825,-0.950498104095459,-7.979874134063721
1776038963159188200,-1522131.1308117677,0.5841852426528931,-0.7158663272857666,-6.845022678375244
1776038963169289500,-1522131.1207104493,0.4357447028160095,-0.5267243981361389,-5.609614372253418
1776038963209420000,-1522131.080580078,-0.44532153010368347,-0.8188169598579407,-5.621585369110107
1776038963219460400,-1522131.0705395509,-0.8523358106613159,-0.47165772318840027,-6.200982570648193
1776038963229561900,-1522131.0604382325,-1.1659762859344482,-0.07900865375995636,-6.356605529785156
1776038963239632600,-1522131.0503674317,-1.403002142906189,0.6129156351089478,-6.370970726013184
1776038963249703400,-1522131.040296631,-1.4772224426269531,1.1994950771331787,-6.356605529785156
1776038963259743700,-1522131.0302563477,-1.580173134803772,1.8579005002975464,-6.481103897094727
1776038963269814500,-1522131.020185547,-1.558625340461731,2.3702597618103027,-6.907271862030029
1776038963279885300,-1522131.0101147462,-1.5155296325683594,2.832340717315674,-7.47230339050293
1776038963299996400,-1522130.9900036622,-1.6112977266311646,3.514688014984131,-7.970297336578369
1776038963320107500,-1522130.9698925782,-1.702277421951294,3.928884983062744,-7.797914981842041
1776038963330178300,-1522130.9598217774,-1.9249382019042969,4.034229755401611,-7.69735860824585
1776038963340218400,-1522130.9497817382,-2.188300371170044,4.299986362457275,-7.6782050132751465
1776038963350319900,-1522130.9396801759,-2.322375535964966,4.671087741851807,-7.556100368499756
1776038963360360200,-1522130.9296398927,-2.4157495498657227,4.982333660125732,-7.41484260559082
1776038963370461400,-1522130.9195385743,-2.319981336593628,5.288791656494141,-7.42681360244751
1776038963380501800,-1522130.909498291,-2.3343467712402344,5.408501625061035,-7.326257228851318
1776038963410683600,-1522130.8793164063,-1.941697597503662,6.042964935302734,-6.732495307922363
1776038963430794800,-1522130.8592053223,-1.2617442607879639,5.985504150390625,-6.651092529296875
1776038963440834800,-1522130.8491652831,-1.1659762859344482,5.896918773651123,-6.564900875091553
1776038963450905900,-1522130.8390942384,-1.1061211824417114,5.729324817657471,-6.557718276977539
1776038963460976600,-1522130.8290234376,-1.1971008777618408,5.549759387969971,-6.521805286407471
1776038963471047400,-1522130.8189526368,-1.1683704853057861,5.612008571624756,-6.509834289550781
1776038963481118200,-1522130.808881836,-1.0223240852355957,5.643133640289307,-6.478709697723389
1776038963511300000,-1522130.7786999512,-0.5626373887062073,5.475539207458496,-6.275202751159668
1776038963521371000,-1522130.7686291505,-0.36152446269989014,5.4659624099731445,-6.054935932159424
1776038963531441700,-1522130.7585583497,-0.13168109953403473,5.228936672210693,-5.817910194396973
1776038963541512400,-1522130.748487549,-0.1173158809542656,4.934449672698975,-5.6670756340026855
1776038963551613700,-1522130.7383862305,-0.22026655077934265,4.908113479614258,-5.767632007598877
1776038963561684500,-1522130.7283154298,-0.26336219906806946,4.920084476470947,-6.035782337188721
1776038963571755300,-1522130.718244629,-0.3734954595565796,4.599261283874512,-6.071695327758789
1776038963581826000,-1522130.7081740722,-0.5410895943641663,4.132391929626465,-6.217741966247559
1776038963601937200,-1522130.6880627442,-0.5219359993934631,3.3039982318878174,-6.617573261260986
1776038963622078700,-1522130.6679213867,-0.2992752194404602,2.7317841053009033,-7.560888767242432
1776038963632149500,-1522130.6578505859,-0.21547815203666687,2.4444799423217773,-8.118738174438477
1776038963642189800,-1522130.6478100587,0.011971008032560349,2.0398597717285156,-8.573636054992676
1776038963652260600,-1522130.637739502,-0.047884032130241394,1.2545616626739502,-9.129091262817383
1776038963662331400,-1522130.627668701,-0.22505496442317963,0.5746083855628967,-10.29746150970459
1776038963672402400,-1522130.6175976563,-0.7805097699165344,0.8810662031173706,-11.403582572937012
1776038963682473200,-1522130.6075268555,-1.3024457693099976,1.6663644313812256,-12.090718269348145
1776038963702614800,-1522130.587385254,-1.9752163887023926,2.6360161304473877,-12.504915237426758
1776038963722756400,-1522130.5672436524,-2.0374655723571777,2.3750481605529785,-12.176909446716309
1776038963732827100,-1522130.5571728516,-1.8555063009262085,2.188300371170044,-11.841721534729004
1776038963742928400,-1522130.5470715333,-1.5753847360610962,2.1284453868865967,-11.35809326171875
1776038963752999200,-1522130.5370007325,-1.2425906658172607,2.166752576828003,-11.025299072265625
1776038963773110300,-1522130.5168896485,-0.5793967843055725,2.477998733520508,-10.453084945678711
1776038963783211500,-1522130.5067885742,-0.19632454216480255,2.5737667083740234,-10.402806282043457
1776038963793313000,-1522130.4966870118,0.3974374830722809,2.6001031398773193,-10.429142951965332
1776038963803383800,-1522130.486616211,0.8954314589500427,2.6001031398773193,-10.38604736328125
1776038963823525400,-1522130.4664746094,1.4413094520568848,2.82515811920166,-10.376470565795898
1776038963833596200,-1522130.4564038087,1.2090718746185303,3.026270866394043,-10.237606048583984
1776038963843636500,-1522130.4463635255,0.9552865028381348,3.141192674636841,-9.864110946655273
1776038963853737700,-1522130.436262207,0.4668693244457245,3.227383852005005,-9.361329078674316
1776038963863839000,-1522130.4261611328,-0.15562310814857483,3.1675288677215576,-8.734047889709473
1776038963873940500,-1522130.4160595704,-0.6655880808830261,3.00711727142334,-8.22887134552002
1776038963883980800,-1522130.4060192872,-1.1061211824417114,2.7078421115875244,-7.723694801330566
1776038963893990400,-1522130.3960095216,-1.4317326545715332,2.6384103298187256,-7.096413612365723
1776038963904091600,-1522130.3859084472,-1.5394717454910278,2.6455929279327393,-6.555324077606201
1776038963924233500,-1522130.3657666016,-1.3479355573654175,2.6384103298187256,-5.305551052093506
1776038963944405500,-1522130.3455944825,-1.1779472827911377,2.2816741466522217,-4.266467571258545
1776038963954476300,-1522130.3355236817,-1.048660397529602,1.965639591217041,-3.794809579849243
1776038963964516600,-1522130.3254833985,-1.0989385843276978,1.4460978507995605,-3.1100680828094482
1776038963974557000,-1522130.3154431153,-1.1803414821624756,1.1540051698684692,-2.513911724090576
1776038963984627700,-1522130.3053723145,-1.3096283674240112,0.9097966551780701,-1.9536685943603516
1776038963994729000,-1522130.2952709962,-1.400607943534851,0.7374141216278076,-1.5825673341751099
1776038964004769300,-1522130.285230713,-1.37906014919281,0.5506663918495178,-1.290474772453308
1776038964024941300,-1522130.2650585938,-1.357512354850769,0.002394201699644327,-1.1540051698684692
1776038964045083000,-1522130.2449172363,-0.7038952708244324,-0.45489832758903503,-0.8259995579719543
1776038964055153700,-1522130.2348464355,-0.2082955539226532,-0.7110779285430908,-0.4908113479614258
1776038964065255200,-1522130.2247448731,0.22026655077934265,-1.015141487121582,0.028730420395731926
1776038964075356400,-1522130.2146435548,0.727837324142456,-1.0319008827209473,0.27054479718208313
1776038964085396700,-1522130.2046032716,1.2832920551300049,-0.9792284965515137,0.42377370595932007
1776038964095437000,-1522130.1945629884,1.5179238319396973,-0.9816226959228516,0.26575639843940735
1776038964105507800,-1522130.1844921876,1.9560627937316895,-1.094150185585022,-0.047884032130241394
1776038964115548200,-1522130.1744519044,2.3989901542663574,-1.460463047027588,-0.12210428714752197
1776038964145699300,-1522130.1443007812,2.9735984802246094,-2.2577321529388428,0.17477671802043915
1776038964165841200,-1522130.1241589356,2.918531894683838,-2.626439332962036,-0.5746083855628967
1776038964185952000,-1522130.1040480956,2.31758713722229,-2.7748796939849854,-1.41257905960083
1776038964196023000,-1522130.0939770509,1.9584569931030273,-2.6144683361053467,-1.623268723487854
1776038964206093800,-1522130.08390625,1.745373010635376,-2.499546527862549,-1.900996208190918
1776038964236245000,-1522130.053755127,1.2689268589019775,-2.7916390895843506,-3.670311212539673
1776038964246285300,-1522130.0437145997,1.3455413579940796,-3.1100680828094482,-5.058948040008545
1776038964266427000,-1522130.0235729981,1.6496049165725708,-3.531447410583496,-7.417236804962158
1776038964276528400,-1522130.0134716798,1.482010841369629,-3.514688014984131,-8.063671112060547
1776038964286599200,-1522130.003400879,1.0773907899856567,-3.3518824577331543,-8.274360656738281
1776038964296670000,-1522129.9933300782,0.667982280254364,-2.959233283996582,-8.125920295715332
1776038964316750300,-1522129.9732497558,-0.19393034279346466,-1.5969325304031372,-6.471527099609375
1776038964346932200,-1522129.943067871,-1.0797849893569946,0.3280056416988373,-5.114014625549316
1776038964357033700,-1522129.9329663087,-1.3335703611373901,0.8667010068893433,-5.5976433753967285
1776038964377175300,-1522129.912824707,-1.2832920551300049,2.0638017654418945,-6.5265936851501465
1776038964387215600,-1522129.902784424,-1.3431471586227417,2.4157495498657227,-6.665457725524902
1776038964397256000,-1522129.8927441407,-1.2737152576446533,2.3965959548950195,-6.576871871948242
1776038964407326700,-1522129.88267334,-1.173158884048462,2.1811177730560303,-6.7492547035217285
1776038964417397500,-1522129.8726025391,-1.1348515748977661,1.9776105880737305,-7.326257228851318
1776038964427468300,-1522129.8625317384,-1.580173134803772,2.0901381969451904,-8.027758598327637
1776038964437539000,-1522129.8524609376,-2.126051187515259,2.4372973442077637,-8.647856712341309
1776038964447579400,-1522129.8424206544,-2.123656988143921,2.626439332962036,-8.978256225585938
1776038964467721000,-1522129.8222790528,-3.1268274784088135,3.8307228088378906,-9.296685218811035
1776038964477791700,-1522129.812208252,-3.6535518169403076,4.288015365600586,-9.040505409240723
1776038964487832000,-1522129.8021679688,-3.861847400665283,4.49870491027832,-8.669404029846191
1776038964497902800,-1522129.792097168,-3.9001545906066895,4.76924991607666,-8.339004516601562
1776038964507943200,-1522129.7820568848,-3.8786067962646484,4.975151062011719,-8.101978302001953
1776038964518014000,-1522129.771986084,-3.579331636428833,5.214571475982666,-7.891288757324219
1776038964528084700,-1522129.7619152833,-3.1292216777801514,5.4252610206604,-7.850587368011475
1776038964558297000,-1522129.731702881,-2.3343467712402344,5.765237808227539,-7.457938194274902
1776038964568367900,-1522129.7216320802,-2.1571757793426514,5.5760955810546875,-7.522581577301025
1776038964578438700,-1522129.7115612794,-2.1475989818573,5.56173038482666,-7.513004779815674
1776038964588509400,-1522129.7014904786,-2.250549554824829,5.841852188110352,-7.513004779815674
1776038964598610700,-1522129.6913894042,-2.2385785579681396,6.212953567504883,-7.524975776672363
1776038964608681700,-1522129.6813183594,-2.2002713680267334,6.57926607131958,-7.393294811248779
1776038964618783000,-1522129.671217041,-2.056619167327881,6.789956092834473,-7.201758861541748
1776038964628853800,-1522129.6611462403,-1.9105730056762695,6.868964672088623,-7.0317702293396
1776038964659096600,-1522129.6309033204,-1.580173134803772,7.0126166343688965,-6.845022678375244
1776038964669137000,-1522129.6208630372,-1.6112977266311646,7.450755596160889,-6.952761650085449
1776038964679177200,-1522129.610822754,-1.7836803197860718,7.694964408874512,-6.909666061401367
1776038964699288300,-1522129.59071167,-1.9967641830444336,7.893682956695557,-6.756437301635742
1776038964709359000,-1522129.5806408692,-1.9369091987609863,7.86734676361084,-6.696582317352295
1776038964719460400,-1522129.5705395509,-1.766920804977417,7.735665798187256,-6.742072105407715
1776038964729531100,-1522129.56046875,-1.5921441316604614,7.582436561584473,-6.933608055114746
1776038964739632600,-1522129.5503674317,-1.2737152576446533,7.352593421936035,-7.048529624938965
1776038964759804700,-1522129.5301953126,-0.8259995579719543,6.761225700378418,-7.553706169128418
1776038964779946200,-1522129.510053711,-0.3998316824436188,5.717353820800781,-8.525752067565918
1776038964790017000,-1522129.4999829102,-0.31124621629714966,5.116408824920654,-9.028534889221191
1776038964800087800,-1522129.4899121094,0.0694318488240242,4.462791919708252,-9.593565940856934
1776038964810158600,-1522129.4798413087,0.4692635238170624,3.8810009956359863,-10.395624160766602
1776038964820260000,-1522129.4697399903,0.33518823981285095,3.6535518169403076,-11.494562149047852
1776038964830300200,-1522129.459699951,0.22744916379451752,3.6583402156829834,-12.689269065856934
1776038964840371000,-1522129.4496291503,-0.19393034279346466,4.010287761688232,-14.025233268737793
1776038964850411300,-1522129.4395886231,-0.6440402865409851,3.550601005554199,-14.958971977233887
1776038964880654300,-1522129.4093457032,-1.400607943534851,3.428496837615967,-16.184803009033203
1776038964890694700,-1522129.39930542,-1.4245500564575195,3.021482467651367,-16.074670791625977
1776038964900765400,-1522129.3892346192,-0.9600749015808105,2.365471363067627,-16.031574249267578
1776038964910836200,-1522129.3791638184,-0.47644615173339844,1.968033790588379,-15.674838066101074
1776038964920876500,-1522129.3691235352,0.16998831927776337,1.889025092124939,-15.344438552856445
1776038964930947300,-1522129.3590527344,0.768538773059845,2.0661959648132324,-14.839262008666992
1776038964941018000,-1522129.3489819337,1.4700398445129395,2.3989901542663574,-14.362815856933594
1776038964951089000,-1522129.338911133,2.0614075660705566,2.3104045391082764,-13.836091995239258
1776038964991402500,-1522129.2985974122,2.123656988143921,0.7876923680305481,-10.465055465698242
1776038965001504000,-1522129.2884960938,1.414973258972168,0.6991068720817566,-9.421183586120605
1776038965011544000,-1522129.2784560546,0.43335050344467163,0.7445967197418213,-8.329427719116211
1776038965021645600,-1522129.2683544923,-0.5506663918495178,0.8882488012313843,-7.146692276000977
1776038965031716400,-1522129.2582836915,-1.173158884048462,1.1348515748977661,-6.184223175048828
1776038965041787100,-1522129.2482128907,-1.7381904125213623,1.2330138683319092,-5.238513469696045
1776038965051796700,-1522129.238203369,-2.0446481704711914,1.2976573705673218,-4.596867084503174
1776038965092080000,-1522129.197919922,-1.8148049116134644,1.3024457693099976,-1.98958158493042
1776038965102151000,-1522129.1878491212,-1.8171991109848022,1.235408067703247,-1.192312479019165
1776038965112221700,-1522129.1777783204,-1.8507179021835327,1.0342950820922852,-0.5339069962501526
1776038965122323000,-1522129.167677002,-1.9129672050476074,1.0319008827209473,-0.031124621629714966
1776038965132332800,-1522129.1576672364,-1.9488801956176758,0.811634361743927,0.5626373887062073
1776038965142434000,-1522129.147565918,-2.094926595687866,0.6751648783683777,1.0319008827209473
1776038965152444000,-1522129.1375561524,-2.121262788772583,0.5889736413955688,1.3527239561080933
1776038965182686700,-1522129.1073132325,-1.2234370708465576,-0.3447650372982025,1.9321208000183105
1776038965192757500,-1522129.0972424317,-0.7876923680305481,-0.6655880808830261,2.1332337856292725
1776038965202858800,-1522129.0871413574,-0.5003881454467773,-0.8906430602073669,2.188300371170044
1776038965212899000,-1522129.0771008302,-0.11971008777618408,-0.9911994934082031,2.140416383743286
1776038965222939400,-1522129.067060547,0.16519992053508759,-0.8571242094039917,2.0829553604125977
1776038965232979700,-1522129.0570202637,0.29209262132644653,-0.6105214357376099,2.0661959648132324
1776038965243050500,-1522129.046949463,0.2801215946674347,-0.33518823981285095,2.0877439975738525
1776038965253121300,-1522129.0368786622,0.304063618183136,-0.14365209639072418,2.1571757793426514
1776038965263192000,-1522129.0268078614,0.2801215946674347,-0.11252748221158981,1.86508309841156
1776038965293313000,-1522128.9966870118,0.8547300100326538,-0.6129156351089478,0.35673606395721436
1776038965303383800,-1522128.986616211,0.9145850539207458,-0.8571242094039917,-0.004788403399288654
1776038965333535200,-1522128.9564648438,1.2401964664459229,-1.3215993642807007,-0.6991068720817566
1776038965343606000,-1522128.946394043,1.3000515699386597,-1.0797849893569946,-1.1635819673538208
1776038965353676800,-1522128.9363232423,1.4867992401123047,-1.1324573755264282,-1.7310078144073486
1776038965363747600,-1522128.9262524415,1.5897499322891235,-1.0271124839782715,-2.1811177730560303
1776038965373788000,-1522128.9162121583,1.5969325304031372,-0.9552865028381348,-2.5665841102600098
1776038965393960000,-1522128.8960400391,1.4652514457702637,-0.7398083209991455,-3.380612850189209
1776038965404030700,-1522128.8859692384,1.434126853942871,-0.5889736413955688,-3.9863457679748535
1776038965414040600,-1522128.8759594727,1.4197616577148438,-0.5434837937355042,-4.8602294921875
1776038965424111400,-1522128.865888672,1.4460978507995605,-0.43095630407333374,-5.719748020172119
1776038965434151700,-1522128.8558483887,1.338358759880066,-0.3878606855869293,-6.66785192489624
1776038965444253000,-1522128.8457470704,1.213860273361206,-0.3471592366695404,-7.469909191131592
1776038965454293200,-1522128.8357067872,1.3239935636520386,-0.4812345504760742,-8.224082946777344
1776038965464394500,-1522128.8256054688,1.4413094520568848,-0.7038952708244324,-8.889671325683594
1776038965474434800,-1522128.8155651856,1.5083470344543457,-1.0773907899856567,-9.677363395690918
1776038965484475100,-1522128.8055249024,1.7142484188079834,-1.015141487121582,-10.256759643554688
1776038965514626600,-1522128.7753735352,1.0103530883789062,-0.35434186458587646,-8.863334655761719
1776038965524727800,-1522128.7652722169,0.45010992884635925,0.10295066982507706,-8.056488990783691
1776038965534768000,-1522128.7552319337,-0.4381389021873474,0.45010992884635925,-7.429207801818848
1776038965544808400,-1522128.7451916505,-1.0773907899856567,1.0630255937576294,-7.362170219421387
1776038965554879200,-1522128.7351208497,-1.4844050407409668,1.702277421951294,-7.82185697555542
1776038965564980500,-1522128.7250195313,-1.6184803247451782,2.2194249629974365,-8.257601737976074
1776038965575020800,-1522128.7149792481,-1.6879122257232666,2.38462495803833,-8.580819129943848
1776038965605263600,-1522128.6847363282,-1.7764976024627686,3.2130186557769775,-8.583212852478027
1776038965615304000,-1522128.674696045,-1.6065093278884888,3.397372245788574,-8.607154846191406
1776038965655556600,-1522128.6344433594,-1.5418659448623657,4.1611223220825195,-8.980650901794434
1776038965665657900,-1522128.624342041,-1.8579005002975464,4.795586109161377,-8.798690795898438
1776038965675728600,-1522128.6142712403,-2.2912509441375732,5.329493045806885,-8.49941635131836
1776038965685799400,-1522128.6042006835,-2.676717519760132,5.78678560256958,-8.118738174438477
1776038965705880000,-1522128.5841198731,-3.313575267791748,6.387730121612549,-7.3885064125061035
1776038965726052000,-1522128.563947998,-3.004723072052002,6.926425457000732,-6.830657482147217
1776038965736123100,-1522128.5538769532,-2.806004285812378,6.75883150100708,-6.754043102264404
1776038965746194000,-1522128.5438061524,-2.7102363109588623,6.313509941101074,-6.605602264404297
1776038965756234000,-1522128.5337661132,-2.8610711097717285,6.0621185302734375,-6.670246124267578
1776038965766305000,-1522128.5236950684,-3.066972494125366,6.294356346130371,-6.722918510437012
1776038965776345000,-1522128.5136550292,-3.136404275894165,6.6391215324401855,-6.761225700378418
1776038965786415900,-1522128.5035842285,-3.19865345954895,7.156269073486328,-6.698976516723633
1776038965806527000,-1522128.4834731445,-2.6431987285614014,7.407660007476807,-6.076483726501465
1776038965826607600,-1522128.463392334,-2.2170307636260986,7.046135425567627,-5.39174222946167
1776038965836678400,-1522128.4533215333,-1.968033790588379,6.854599475860596,-5.171475887298584
1776038965846749200,-1522128.4432507325,-1.8722656965255737,6.691793918609619,-5.183446884155273
1776038965856789500,-1522128.4332104493,-1.8698714971542358,6.658275127410889,-5.20978307723999
1776038965866890800,-1522128.423109131,-1.766920804977417,6.670246124267578,-5.382165431976318
1776038965876961500,-1522128.4130385742,-1.867477297782898,6.698976516723633,-5.52821159362793
1776038965887063000,-1522128.4029370118,-1.7860745191574097,6.67982292175293,-5.841852188110352
1776038965897103400,-1522128.3928967286,-1.7046716213226318,6.519411087036133,-6.129156112670898
1776038965917245000,-1522128.372755127,-1.50355863571167,6.256049156188965,-6.959944248199463
1776038965937386500,-1522128.3526135255,-1.4413094520568848,5.647922039031982,-7.857769966125488
1776038965947457300,-1522128.3425427247,-1.4676456451416016,5.6670756340026855,-7.790732383728027
1776038965957528000,-1522128.332471924,-1.3096283674240112,4.378994941711426,-8.446743965148926
1776038965967568400,-1522128.3224316407,-1.3287819623947144,4.422090530395508,-9.208099365234375
1776038965977639200,-1522128.31236084,-0.9193734526634216,3.758896589279175,-9.99100399017334
1776038965987710000,-1522128.3022900391,-0.8379706144332886,2.9759926795959473,-10.848128318786621
1776038965997780700,-1522128.2922192384,-0.3902548849582672,2.4205379486083984,-11.662156105041504
1776038966007851500,-1522128.2821484376,-0.0933738648891449,2.2577321529388428,-12.574347496032715
1776038966017922300,-1522128.2720776368,-0.23942017555236816,1.5897499322891235,-13.374011039733887
1776038966038063900,-1522128.2519360352,-1.2856862545013428,2.978386878967285,-14.990097045898438
1776038966058205400,-1522128.2317946777,-2.456450939178467,3.31118106842041,-15.883133888244629
1776038966068307000,-1522128.2216931153,-2.7772738933563232,3.1076738834381104,-16.46492576599121
1776038966078377700,-1522128.2116223145,-2.7533318996429443,2.8227639198303223,-16.725893020629883
1776038966088448500,-1522128.2015515137,-2.5258827209472656,2.279279947280884,-16.807296752929688
1776038966098488800,-1522128.1915112305,-1.9249382019042969,1.8818424940109253,-16.117765426635742
1776038966118630400,-1522128.171369629,-0.30885201692581177,1.2330138683319092,-13.64455509185791
1776038966138741500,-1522128.151258545,1.2401964664459229,0.7398083209991455,-11.75792407989502
1776038966148842800,-1522128.1411572266,1.7597382068634033,0.6631938815116882,-10.982203483581543
1776038966158883000,-1522128.1311169434,1.9345149993896484,0.7661445140838623,-10.213664054870605
1776038966168953900,-1522128.1210461427,1.9584569931030273,0.9576807022094727,-9.500192642211914
1776038966178994200,-1522128.1110058594,1.6927006244659424,1.2306196689605713,-8.731653213500977
1776038966189065000,-1522128.1009350587,1.4437036514282227,1.2832920551300049,-8.032546997070312
1776038966199135700,-1522128.090864258,0.9313444495201111,1.3455413579940796,-7.122750282287598
1776038966209237000,-1522128.0807629395,0.47644615173339844,1.455674648284912,-6.265625953674316
1776038966219277300,-1522128.0707226563,0.043095629662275314,1.4652514457702637,-5.427655220031738
1776038966239419000,-1522128.0505810548,-0.5530605912208557,1.6352397203445435,-3.737348794937134
1776038966249489700,-1522128.040510254,-0.7158663272857666,1.8148049116134644,-2.9927520751953125
1776038966259530000,-1522128.0304699708,-0.8834604024887085,2.1380221843719482,-2.298433542251587
1776038966279641000,-1522128.0103588868,-0.912190854549408,2.296039342880249,-1.1779472827911377
1776038966289711900,-1522128.000288086,-0.8906430602073669,2.190694570541382,-0.8236053586006165
1776038966299752200,-1522127.9902478028,-0.9145850539207458,2.1045033931732178,-0.42856210470199585
1776038966309823000,-1522127.980177002,-0.9169792532920837,2.0398597717285156,0.09576806426048279
1776038966319893800,-1522127.9701062012,-0.7852981686592102,1.86508309841156,0.45489832758903503
1776038966350136600,-1522127.9398635253,-0.9864110946655273,1.7070658206939697,1.6376339197158813
1776038966360207600,-1522127.9297924805,-0.8643068075180054,1.599326729774475,1.8770540952682495
1776038966370278400,-1522127.9197216798,-0.8068459630012512,1.4748282432556152,2.1547815799713135
1776038966380318500,-1522127.9096816406,-0.35434186458587646,1.1492167711257935,2.2433669567108154
1776038966390389500,-1522127.8996105958,-0.15801730751991272,0.9193734526634216,2.3080103397369385
1776038966400429600,-1522127.8895703126,0.06464344263076782,0.7613561153411865,2.4013843536376953
1776038966410531000,-1522127.8794689942,0.15322890877723694,0.608127236366272,2.5067291259765625
1776038966440804400,-1522127.8491955567,0.6943184733390808,0.8188169598579407,2.4444799423217773
1776038966450905900,-1522127.8390942384,0.9433154463768005,0.8020575642585754,2.075772762298584
1776038966460946000,-1522127.8290541992,1.235408067703247,0.6536170840263367,1.5442601442337036
1776038966471047400,-1522127.8189526368,1.5538369417190552,0.3471592366695404,1.1971008777618408
1776038966481118200,-1522127.808881836,1.944091796875,0.06464344263076782,0.9983820915222168
1776038966491189000,-1522127.7988110352,2.22660756111145,-0.16998831927776337,0.8044517636299133
1776038966501229300,-1522127.788770752,2.4660277366638184,-0.3519476354122162,0.47884035110473633
1776038966511300000,-1522127.7786999512,3.201047658920288,-0.6943184733390808,-0.18914192914962769
1776038966561654000,-1522127.7283459473,3.1890766620635986,-0.42377370595932007,-2.3702597618103027
1776038966571694300,-1522127.7183056641,3.043030261993408,-0.4884171485900879,-2.7006595134735107
1776038966581734700,-1522127.708265381,3.0095114707946777,-0.6871358752250671,-3.0597896575927734
1776038966591805400,-1522127.6981945802,2.9472622871398926,-0.689530074596405,-3.600879430770874
1776038966601845800,-1522127.688154297,3.1220390796661377,-0.7996633648872375,-4.525041103363037
1776038966611947000,-1522127.6780529786,3.2800562381744385,-1.1180921792984009,-5.746084213256836
1776038966622017800,-1522127.6679821778,3.421314239501953,-1.4939818382263184,-7.347805023193359
1776038966642189800,-1522127.6478100587,3.648763418197632,-1.968033790588379,-10.560823440551758
1776038966662270500,-1522127.6277294923,3.002328872680664,-1.9560627937316895,-11.997344970703125
1776038966672371700,-1522127.617628174,2.542642116546631,-1.8100165128707886,-11.291055679321289
1776038966682412000,-1522127.6075878907,2.0183119773864746,-1.5298948287963867,-9.78989028930664
1776038966692452400,-1522127.5975476075,1.45806884765625,-1.0127472877502441,-8.214506149291992
1776038966702523100,-1522127.5874768067,1.0606313943862915,-0.3687070608139038,-6.840234279632568
1776038966712594000,-1522127.577406006,0.6919242739677429,0.1628057211637497,-6.074089527130127
1776038966722664700,-1522127.5673352052,0.5530605912208557,0.5650315880775452,-5.942408561706543
1776038966732735500,-1522127.5572644044,0.4429273009300232,1.0582371950149536,-6.380547523498535
1776038966752877000,-1522127.5371230468,0.1149216815829277,2.1164743900299072,-8.042123794555664
1776038966773019000,-1522127.5169812012,-0.33518823981285095,3.0310592651367188,-8.377311706542969
1776038966783120100,-1522127.506879883,-0.5147533416748047,3.272873640060425,-8.068459510803223
1776038966793191000,-1522127.496809082,-0.47405192255973816,3.251325845718384,-7.826645374298096
1776038966803231200,-1522127.486768799,-0.5099649429321289,3.227383852005005,-7.556100368499756
1776038966813302000,-1522127.4766979981,-0.5147533416748047,3.227383852005005,-7.536946773529053
1776038966823403300,-1522127.4665966798,-0.4357447028160095,3.3710360527038574,-7.663839817047119
1776038966833474000,-1522127.456525879,-0.45010992884635925,3.7397429943084717,-7.90086555480957
1776038966843514400,-1522127.4464855958,-0.38307225704193115,4.1156325340271,-8.073247909545898
1776038966873726700,-1522127.4162731934,-1.5418659448623657,5.942408561706543,-8.38449478149414
1776038966883767000,-1522127.4062329102,-1.8100165128707886,6.232107162475586,-8.35097599029541
1776038966893837800,-1522127.3961621094,-2.097320795059204,6.490680694580078,-8.192957878112793
1776038966903908600,-1522127.3860913087,-2.389413356781006,6.715735912322998,-8.034940719604492
1776038966914010000,-1522127.3759899903,-2.7102363109588623,6.818686485290527,-7.9631147384643555
1776038966924050200,-1522127.365949707,-2.8227639198303223,6.919242858886719,-7.95832633972168
1776038966934060000,-1522127.3559399415,-2.8107926845550537,7.091625213623047,-7.785943984985352
1776038966954201600,-1522127.33579834,-2.4157495498657227,7.242460250854492,-7.759607791900635
1776038966964272400,-1522127.3257275391,-2.123656988143921,7.340622425079346,-7.6111674308776855
1776038966974343200,-1522127.3156567384,-1.8602946996688843,7.469909191131592,-7.522581577301025
1776038966984444700,-1522127.30555542,-1.6759412288665771,7.690176010131836,-7.46033239364624
1776038966994515500,-1522127.2954846192,-1.45806884765625,7.65186882019043,-7.3023152351379395
1776038967004586200,-1522127.2854138184,-1.357512354850769,7.757213592529297,-7.3238630294799805
1776038967014657000,-1522127.2753430177,-1.278503656387329,7.793126583099365,-7.2352776527404785
1776038967024758300,-1522127.2652416993,-1.2497732639312744,7.826645374298096,-7.184999465942383
1776038967034859500,-1522127.255140381,-1.1779472827911377,7.8098859786987305,-7.086836814880371
1776038967054940200,-1522127.2350598145,-0.8092401623725891,7.7883381843566895,-7.007828235626221
1776038967065041400,-1522127.2249584962,-0.7469909191131592,7.675810813903809,-7.0126166343688965
1776038967075143000,-1522127.2148571778,-0.35913026332855225,7.659051418304443,-7.070077419281006
1776038967085183000,-1522127.2048171386,-0.15083470940589905,7.539340972900391,-7.232883453369141
1776038967095223300,-1522127.1947766114,0.08619125932455063,7.486668586730957,-7.254431247711182
1776038967105324800,-1522127.184675293,0.26575639843940735,7.254431247711182,-7.2137298583984375
1776038967115364900,-1522127.1746352538,0.2825157940387726,7.0126166343688965,-7.146692276000977
1776038967125435600,-1522127.164564453,0.4381389021873474,6.75883150100708,-7.110779285430908
1776038967135506700,-1522127.1544934083,0.5386953949928284,6.6127848625183105,-7.108384609222412
1776038967145577500,-1522127.1444226075,0.6823474764823914,6.258443355560303,-7.091625213623047
1776038967165719000,-1522127.124281006,1.1300631761550903,5.370194435119629,-7.134721279144287
1776038967185860600,-1522127.1041394044,1.534683346748352,4.809951305389404,-7.01979923248291
1776038967195901000,-1522127.0940991212,1.5849615335464478,4.4077253341674805,-6.967126846313477
1776038967205971700,-1522127.0840283204,1.7357962131500244,4.225766181945801,-7.161057472229004
1776038967216042500,-1522127.0739575196,1.7884687185287476,4.065354347229004,-7.457938194274902
1776038967226113300,-1522127.0638867188,1.7597382068634033,3.998316764831543,-7.929595947265625
1776038967236214500,-1522127.0537854005,1.5466543436050415,3.754108190536499,-8.418013572692871
1776038967256325600,-1522127.0336743165,1.3503297567367554,3.423708438873291,-9.315838813781738
1776038967266366000,-1522127.0236340333,1.3838485479354858,3.2417490482330322,-9.981427192687988
1776038967276436700,-1522127.0135632325,1.3096283674240112,3.090914487838745,-10.788272857666016
1776038967286477000,-1522127.0035229493,1.0199298858642578,3.0573954582214355,-11.6430025100708
1776038967296547800,-1522126.9934521485,0.5650315880775452,2.9257144927978516,-12.717999458312988
1776038967306618600,-1522126.9833813477,0.14844051003456116,3.3279404640197754,-13.958195686340332
1776038967316719900,-1522126.9732800294,-0.2801215946674347,3.952826976776123,-14.961366653442383
1776038967326760200,-1522126.9632397462,-0.8762778043746948,4.151545524597168,-15.619771957397461
1776038967336800500,-1522126.953199463,-1.235408067703247,3.97916316986084,-16.16086196899414
1776038967346871300,-1522126.9431286622,-1.1803414821624756,3.531447410583496,-16.438589096069336
1776038967367043300,-1522126.922956787,-0.06703764945268631,2.0877439975738525,-15.849615097045898
1776038967387154400,-1522126.902845459,1.3479355573654175,0.4572925269603729,-13.658920288085938
1776038967397225200,-1522126.8927749023,1.7166426181793213,0,-12.248735427856445
1776038967407296000,-1522126.8827041015,1.764526605606079,-0.08858546614646912,-10.63504409790039
1776038967417367000,-1522126.8726330567,1.5107412338256836,0.05746084079146385,-9.07641887664795
1776038967427407000,-1522126.8625930175,1.139639973640442,0.545877993106842,-7.618350028991699
1776038967437508600,-1522126.8524914552,0.7493851184844971,1.173158884048462,-6.440402507781982
1776038967447549000,-1522126.842451172,0.5602431893348694,1.656787633895874,-5.758055210113525
1776038967467659800,-1522126.822340332,0.6248866319656372,2.231395959854126,-5.202600479125977
1776038967487801600,-1522126.8021984864,0.7086837291717529,1.922544002532959,-4.649539470672607
1776038967497872400,-1522126.7921276856,0.7996633648872375,1.800439715385437,-4.527435302734375
1776038967507912400,-1522126.7820876464,0.8930372595787048,1.5418659448623657,-4.017470359802246
1776038967518014000,-1522126.771986084,0.706289529800415,1.460463047027588,-3.5027170181274414
1776038967528054300,-1522126.7619458009,0.7110779285430908,1.1994950771331787,-2.9879636764526367
1776038967538125000,-1522126.751875,0.6368576288223267,0.8810662031173706,-2.4396915435791016
1776038967548165400,-1522126.7418347169,0.4908113479614258,0.5339069962501526,-1.8411411046981812
1776038967568337400,-1522126.7216625977,0.3423708379268646,0.10773907601833344,-0.6057330369949341
1776038967578438700,-1522126.7115612794,0.3519476354122162,-0.035913024097681046,0.009576806798577309
1776038967588479000,-1522126.7015209962,0.42377370595932007,-0.1149216815829277,0.4884171485900879
1776038967598549800,-1522126.6914501954,0.49320554733276367,-0.33997663855552673,0.9313444495201111
1776038967608590000,-1522126.6814099122,0.5841852426528931,-0.40222588181495667,1.3407529592514038
1776038967618660900,-1522126.6713391114,0.768538773059845,-0.5003881454467773,1.6208745241165161
1776038967628731600,-1522126.6612683106,0.8930372595787048,-0.40462008118629456,1.9560627937316895
1776038967638833000,-1522126.6511669923,1.015141487121582,-0.3256114423274994,2.1571757793426514
1776038967648903700,-1522126.6410964355,1.3407529592514038,-0.28969839215278625,2.2912509441375732
1776038967679146800,-1522126.6108532716,2.2625205516815186,-0.2777273952960968,2.363077163696289
1776038967689187000,-1522126.6008129884,2.3702597618103027,-0.31124621629714966,2.140416383743286
1776038967699227400,-1522126.5907727052,2.3535003662109375,-0.08619125932455063,1.9919757843017578
1776038967709298200,-1522126.5807019044,2.382230758666992,0.009576806798577309,1.764526605606079
1776038967719369000,-1522126.5706311036,2.343923568725586,0.2082955539226532,1.577778935432434
1776038967729409300,-1522126.5605908204,2.3487119674682617,0.23702596127986908,1.335964560508728
1776038967739480000,-1522126.5505200196,2.365471363067627,0.19153612852096558,1.2090718746185303
1776038967749520100,-1522126.5404799804,2.6455929279327393,0.06224924325942993,1.3263877630233765
1776038967759621600,-1522126.530378418,2.9472622871398926,-0.19153612852096558,1.599326729774475
1776038967799904800,-1522126.490095215,3.995922565460205,-0.6919242739677429,1.5442601442337036
1776038967809945000,-1522126.4800549317,4.661510944366455,-0.8547300100326538,1.3215993642807007
1776038967830025700,-1522126.4599743653,5.722142219543457,-1.2449848651885986,1.072602391242981
1776038967840096500,-1522126.4499035645,6.145915985107422,-1.3958195447921753,0.871489405632019
1776038967850167300,-1522126.4398327637,6.382941722869873,-1.4532804489135742,0.8140285611152649
1776038967860238000,-1522126.429761963,6.562506675720215,-1.6519991159439087,0.4908113479614258
1776038967870308900,-1522126.4196911622,6.789956092834473,-1.8387469053268433,0.12210428714752197
1776038967880410000,-1522126.4095898438,7.0557122230529785,-1.9704279899597168,-0.181959331035614
1776038967900521200,-1522126.3894787598,7.807491779327393,-2.38462495803833,-0.7972691655158997
1776038967910592000,-1522126.379407959,8.31985092163086,-2.516305923461914,-1.0678139925003052
1776038967920632300,-1522126.3693676759,8.707711219787598,-2.564189910888672,-1.2976573705673218
1776038967930703000,-1522126.359296875,8.834604263305664,-2.7557260990142822,-1.4245500564575195
1776038967940774000,-1522126.3492260743,8.908824920654297,-2.9759926795959473,-1.5729905366897583
1776038967950814200,-1522126.339185791,8.904036521911621,-3.1507694721221924,-1.8483237028121948
1776038967960915500,-1522126.3290844727,8.942343711853027,-3.2609026432037354,-2.0374655723571777
1776038968001137700,-1522126.2888623048,9.397241592407227,-4.819528102874756,-3.620033025741577
1776038968011208400,-1522126.278791504,9.718064308166504,-5.2672438621521,-3.5386300086975098
1776038968021279200,-1522126.2687207032,9.883264541625977,-5.6910176277160645,-3.162740468978882
1776038968031350000,-1522126.2586499024,9.816226959228516,-5.947196960449219,-2.628833532333374
1776038968051491600,-1522126.2385083009,8.942343711853027,-5.20978307723999,-2.205059766769409
1776038968061593000,-1522126.2284069825,8.62630844116211,-4.687847137451172,-2.3918075561523438
1776038968081765000,-1522126.2082348634,8.17380428314209,-3.423708438873291,-3.7612907886505127
1776038968091836000,-1522126.1981640626,8.17141056060791,-2.8850131034851074,-4.527435302734375
1776038968101906700,-1522126.1880932618,8.20732307434082,-2.5713725090026855,-5.051765441894531
1776038968111977500,-1522126.178022461,8.26478385925293,-2.3726539611816406,-5.336675643920898
1776038968122078700,-1522126.1679213867,8.20492935180664,-2.0661959648132324,-5.408501625061035
1776038968132119000,-1522126.1578808594,7.910442352294922,-1.7381904125213623,-5.655104637145996
1776038968142220500,-1522126.147779541,7.63989782333374,-1.5394717454910278,-5.91128396987915
1776038968152260600,-1522126.137739502,7.316680431365967,-1.192312479019165,-5.983109951019287
1776038968162362000,-1522126.1276379395,6.959944248199463,-0.7829039692878723,-5.896918773651123
1776038968202614800,-1522126.087385254,6.1052141189575195,0.43095630407333374,-4.730942726135254
1776038968212655000,-1522126.0773449708,5.966350555419922,0.7589619159698486,-4.508281707763672
1776038968222756400,-1522126.0672436524,5.884947776794434,1.0199298858642578,-4.335899353027344
1776038968232827100,-1522126.0571728516,5.521028995513916,1.381454348564148,-4.0964789390563965
1776038968242898000,-1522126.0471020509,5.4013190269470215,1.4652514457702637,-4.0078935623168945
1776038968252968700,-1522126.03703125,5.65031623840332,1.170764684677124,-3.866635799407959
1776038968263039500,-1522126.0269604493,6.1052141189575195,1.1204863786697388,-3.799597978591919
1776038968303383800,-1522125.986616211,6.471527099609375,3.6176388263702393,-3.8522706031799316
1776038968313454600,-1522125.9765454102,6.344634532928467,4.027047157287598,-3.9217023849487305
1776038968323525400,-1522125.9664746094,6.172252178192139,4.07014274597168,-4.01268196105957
1776038968333504500,-1522125.9564956054,5.746084213256836,4.422090530395508,-4.129997730255127
1776038968343575300,-1522125.9464248046,5.3582234382629395,4.733336925506592,-4.108449935913086
1776038968353615600,-1522125.9363842774,4.963180065155029,5.020640850067139,-3.8762125968933105
1776038968363656000,-1522125.9263439942,4.642356872558594,5.281609058380127,-3.4811692237854004
1776038968373665800,-1522125.9163342286,4.402936935424805,5.451597213745117,-3.1507694721221924
1776038968403878100,-1522125.8861218262,4.584896087646484,6.141127586364746,-2.2625205516815186
1776038968423989200,-1522125.8660107423,5.169081687927246,6.212953567504883,-1.6328455209732056
1776038968434060000,-1522125.8559399415,5.552153587341309,6.066906929016113,-1.338358759880066
1776038968444130800,-1522125.8458691407,5.688623428344727,6.248866558074951,-0.9696516990661621
1776038968454110200,-1522125.8358898927,5.901707172393799,5.796362400054932,-0.6440402865409851
1776038968464211500,-1522125.8257885743,5.671864032745361,5.145139217376709,-0.031124621629714966
1776038968474282200,-1522125.8157177735,5.5114521980285645,4.955997467041016,0.31124621629714966
1776038968484383500,-1522125.8056164552,5.3797712326049805,4.865017890930176,0.7541735172271729
1776038968514565400,-1522125.7754345704,5.238513469696045,4.881777286529541,1.7573440074920654
1776038968524666600,-1522125.765333496,5.272032260894775,4.7189717292785645,1.8555063009262085
1776038968534707000,-1522125.7552929688,5.178658485412598,4.398148536682129,1.5394717454910278
1776038968544777700,-1522125.745222168,5.118803024291992,4.031835556030273,1.0534487962722778
1776038968554848500,-1522125.7351513673,5.082890033721924,3.308786630630493,0.5123591423034668
1776038968574959600,-1522125.7150402833,5.2696380615234375,0.8978256583213806,-0.8571242094039917
1776038968585061000,-1522125.704938965,5.142745018005371,0.035913024097681046,-1.5610195398330688
1776038968605233200,-1522125.6847668458,4.697423934936523,-0.507570743560791,-2.2912509441375732
1776038968625374700,-1522125.6646252442,4.2951979637146,-1.0797849893569946,-3.1747114658355713
1776038968635445500,-1522125.6545544434,4.048594951629639,-1.0319008827209473,-3.1723172664642334
1776038968645546800,-1522125.644453369,4.039018154144287,-1.5921441316604614,-3.1699230670928955
1776038968655587000,-1522125.6344128419,4.2544965744018555,-1.8507179021835327,-3.112462282180786
1776038968665657900,-1522125.624342041,4.800374507904053,-1.8962076902389526,-3.1028854846954346
1776038968675698200,-1522125.614301758,5.070919036865234,-2.051830768585205,-3.603273630142212
1776038968685769000,-1522125.604230957,5.324704647064209,-2.1523873805999756,-4.24970817565918
1776038968695809300,-1522125.594190674,5.51624059677124,-2.1787235736846924,-4.910507678985596
1776038968705880000,-1522125.5841198731,5.537788391113281,-1.920149803161621,-5.568912982940674
1776038968715950800,-1522125.5740490723,5.322310447692871,-1.7549498081207275,-6.074089527130127
1776038968736062000,-1522125.5539379884,4.812345504760742,-1.8962076902389526,-6.471527099609375
1776038968766305000,-1522125.5236950684,3.88818359375,-2.494758129119873,-4.817133903503418
1776038968776375800,-1522125.5136242677,3.512293815612793,-2.580949544906616,-4.173093795776367
1776038968786415900,-1522125.5035842285,3.0550012588500977,-2.540247917175293,-3.6367924213409424
1776038968796487000,-1522125.4935131837,2.5977089405059814,-2.559401512145996,-2.918531894683838
1776038968816597800,-1522125.4734023437,1.9393033981323242,-2.427720546722412,-1.235408067703247
1776038968836708900,-1522125.4532910157,1.5107412338256836,-2.5091233253479004,0.5793967843055725
1776038968846749200,-1522125.4432507325,1.3048399686813354,-2.7461493015289307,1.4101848602294922
1776038968856820000,-1522125.4331799317,1.1444283723831177,-3.155557870864868,1.9728221893310547
1776038968866860300,-1522125.4231396485,1.0007762908935547,-3.4835634231567383,2.585737943649292
1776038968876900600,-1522125.4130993653,0.8619126081466675,-3.955221176147461,3.045424461364746
1776038968886971400,-1522125.4030285645,0.7876923680305481,-4.367023944854736,3.2297780513763428
1776038968897042200,-1522125.3929577637,0.7230489253997803,-4.833893299102783,3.512293815612793
1776038968907113000,-1522125.382886963,0.727837324142456,-5.003881454467773,3.821146011352539
1776038968937325300,-1522125.3526748046,0.8092401623725891,-5.317522048950195,4.369418144226074
1776038968947426800,-1522125.3425732423,0.8523358106613159,-5.4228668212890625,4.395754337310791
1776038968957467100,-1522125.332532959,0.9457096457481384,-5.51624059677124,4.422090530395508
1776038968967538000,-1522125.3224621583,1.0678139925003052,-5.683835029602051,4.252102375030518
1776038968977608700,-1522125.3123913575,1.2737152576446533,-5.793968200683594,4.1395745277404785
1776038968987710000,-1522125.3022900391,1.50355863571167,-5.978321552276611,3.9671921730041504
1776038968997750300,-1522125.292249756,1.7980455160140991,-6.251260757446289,3.77565598487854
1776038969007821000,-1522125.2821789552,1.7884687185287476,-6.385335922241211,3.7708675861358643
1776038969038003000,-1522125.2519970704,2.889801502227783,-7.4770917892456055,3.0334534645080566
1776038969058144500,-1522125.2318554688,3.3470940589904785,-8.403648376464844,2.22660756111145
1776038969068215300,-1522125.221784668,3.4189200401306152,-8.604761123657227,1.800439715385437
1776038969078255600,-1522125.2117443848,3.689464807510376,-8.69095230102539,1.7525556087493896
1776038969088356900,-1522125.2016430665,3.9815573692321777,-9.186552047729492,1.6136919260025024
1776038969098397200,-1522125.1916027833,4.489128112792969,-9.366117477416992,1.3527239561080933
1776038969108468000,-1522125.1815319825,4.833893299102783,-9.706093788146973,0.6991068720817566
1776038969118508300,-1522125.1714916993,5.018246650695801,-10.062829971313477,-0.011971008032560349
1776038969148659700,-1522125.141340332,5.48272180557251,-10.448296546936035,-2.075772762298584
1776038969168831700,-1522125.121168213,5.693411827087402,-10.467450141906738,-2.652775526046753
1776038969178902500,-1522125.1110974122,5.791574001312256,-10.374075889587402,-2.8227639198303223
1776038969189003800,-1522125.1009963378,5.8442463874816895,-10.187328338623047,-2.937685489654541
1776038969199044000,-1522125.0909558106,5.746084213256836,-10.077195167541504,-3.0597896575927734
1776038969209115000,-1522125.0808850098,5.750872611999512,-10.007762908935547,-3.3925838470458984
1776038969219124700,-1522125.0708752442,5.947196960449219,-10.062829971313477,-3.8067808151245117
1776038969269417700,-1522125.0205822755,7.795520782470703,-11.36048698425293,-5.655104637145996
1776038969279488500,-1522125.0105114747,7.331045627593994,-10.807426452636719,-4.754884719848633
1776038969289559300,-1522125.000440674,6.742072105407715,-10.309432983398438,-3.773261785507202
1776038969299630000,-1522124.9903698731,6.054935932159424,-9.744400978088379,-3.069366693496704
1776038969309700900,-1522124.9802990723,5.408501625061035,-9.493009567260742,-2.7916390895843506
1776038969319771600,-1522124.9702282716,5.2265424728393555,-9.346963882446289,-3.1028854846954346
1776038969350045200,-1522124.939954834,4.93923807144165,-8.044517517089844,-5.188235282897949
1776038969360116000,-1522124.9298840333,4.659116744995117,-7.271190643310547,-5.504269599914551
1776038969370217200,-1522124.919782715,4.2760443687438965,-6.567295074462891,-5.655104637145996
1776038969380257500,-1522124.9097424317,3.7181951999664307,-5.896918773651123,-5.535394191741943
1776038969390297900,-1522124.8997021485,3.1507694721221924,-5.446808815002441,-5.303156852722168
1776038969400338200,-1522124.8896618653,2.7126305103302,-4.869806289672852,-4.886565685272217
1776038969410409000,-1522124.8795910645,2.293645143508911,-4.446032524108887,-4.620809078216553
1776038969420479700,-1522124.8695202637,1.9033904075622559,-3.8379054069519043,-4.108449935913086
1776038969430581000,-1522124.8594189454,1.7693150043487549,-3.2968156337738037,-3.5913026332855225
1776038969480965600,-1522124.809034424,1.5490485429763794,-1.01753568649292,-0.9313444495201111
1776038969491067000,-1522124.7989331055,1.5442601442337036,-0.6057330369949341,-0.47884035110473633
1776038969501107200,-1522124.7888928223,1.3838485479354858,-0.009576806798577309,-0.19632454216480255
1776038969511178000,-1522124.7788220216,1.3335703611373901,0.3447650372982025,0.12210428714752197
1776038969521218300,-1522124.7687817384,1.2880805730819702,0.912190854549408,0.40940847992897034
1776038969531319600,-1522124.75868042,1.192312479019165,1.4700398445129395,0.7589619159698486
1776038969541359900,-1522124.7486401368,1.091755986213684,2.0638017654418945,1.0319008827209473
1776038969561532000,-1522124.7284680177,0.8882488012313843,3.3446998596191406,1.5442601442337036
1776038969571602700,-1522124.7183972169,0.8954314589500427,3.866635799407959,1.7262194156646729
1776038969581643000,-1522124.7083569337,0.7924807667732239,4.467580318450928,1.9033904075622559
1776038969591683300,-1522124.6983166505,0.8259995579719543,4.886565685272217,1.9273324012756348
1776038969601723600,-1522124.6882763673,0.8068459630012512,5.135562419891357,1.9560627937316895
1776038969611825000,-1522124.678175049,0.8164227604866028,5.394136428833008,1.9800047874450684
1776038969621895700,-1522124.6681042481,0.5650315880775452,5.781997203826904,2.0614075660705566
1776038969631966500,-1522124.6580334473,0.545877993106842,6.129156112670898,2.126051187515259
1776038969642006800,-1522124.6479931641,0.4429273009300232,6.36378812789917,2.298433542251587
1776038969672249900,-1522124.6177502442,0.19153612852096558,6.818686485290527,2.252943754196167
1776038969682320600,-1522124.6076794434,0.49799394607543945,6.785167694091797,1.9369091987609863
1776038969702523100,-1522124.5874768067,0.9911994934082031,6.445190906524658,1.1252747774124146
1776038969712594000,-1522124.577406006,1.1563993692398071,6.141127586364746,0.5003881454467773
1776038969722664700,-1522124.5673352052,1.3646949529647827,5.762843608856201,-0.11013327538967133
1776038969732735500,-1522124.5572644044,1.41257905960083,5.492298603057861,-0.849941611289978
1776038969742806300,-1522124.5471938476,1.7549498081207275,5.0876784324646,-1.5203180313110352
1776038969773019000,-1522124.5169812012,1.7908629179000854,3.734954595565796,-4.917690277099609
1776038969783089700,-1522124.5069104005,1.0749965906143188,3.287238836288452,-5.849034786224365
1776038969793191000,-1522124.496809082,0.49559974670410156,3.3303346633911133,-6.380547523498535
1776038969803261700,-1522124.4867382813,0.10534487664699554,3.246537446975708,-6.560112476348877
1776038969813240800,-1522124.4767592773,0.05506663769483566,2.6599581241607666,-6.5481414794921875
1776038969823311600,-1522124.4666884765,0.19871874153614044,2.0829553604125977,-6.572083473205566
1776038969833382700,-1522124.4566174317,0.3974374830722809,1.2449848651885986,-6.689399719238281
1776038969843453400,-1522124.446546631,0.9816226959228516,0.06703764945268631,-6.919242858886719
1776038969853493500,-1522124.4365065917,1.659181833267212,-1.0127472877502441,-7.12035608291626
1776038969873665800,-1522124.4163342286,3.222595453262329,-2.655169725418091,-7.378929615020752
1776038969893807400,-1522124.396192627,4.575319290161133,-4.182670593261719,-7.326257228851318
1776038969903878100,-1522124.3861218262,5.054159641265869,-5.063736438751221,-6.952761650085449
1776038969914010000,-1522124.3759899903,5.322310447692871,-5.700594425201416,-6.423643112182617
1776038969924050200,-1522124.365949707,5.406107425689697,-6.04775333404541,-5.5976433753967285
1776038969934090500,-1522124.355909424,5.329493045806885,-6.418854713439941,-4.630385875701904
1776038969944191700,-1522124.3458083495,4.857835292816162,-6.629544734954834,-3.845088005065918
1776038969984475100,-1522124.3055249024,3.043030261993408,-5.899312973022461,-0.9648633003234863
1776038969994546000,-1522124.2954541016,2.849100112915039,-5.4444146156311035,-0.4692635238170624
1776038970004616700,-1522124.2853833009,2.8802247047424316,-5.0685248374938965,-0.06703764945268631
1776038970014657000,-1522124.2753430177,2.8993782997131348,-4.809951305389404,0.38067805767059326
1776038970024758300,-1522124.2652416993,2.96162748336792,-4.7405195236206055,0.811634361743927
1776038970034829000,-1522124.2551708985,2.9089550971984863,-4.963180065155029,1.113303780555725
1776038970044869400,-1522124.2451306153,2.8850131034851074,-5.413290023803711,1.3048399686813354
1776038970054940200,-1522124.2350598145,2.6862943172454834,-5.9519853591918945,1.4700398445129395
1776038970065011000,-1522124.2249890137,2.454056739807129,-6.521805286407471,1.680729627609253
1776038970115395600,-1522124.1746044923,2.0207061767578125,-9.533711433410645,3.095702886581421
1776038970125435600,-1522124.164564453,2.0422539710998535,-10.295066833496094,3.1723172664642334
1776038970135506700,-1522124.1544934083,2.1499931812286377,-10.807426452636719,3.2297780513763428
1776038970145546800,-1522124.144453369,2.22660756111145,-11.33654499053955,3.1052796840667725
1776038970155617500,-1522124.1343825683,2.492363929748535,-11.621455192565918,2.96162748336792
1776038970165657900,-1522124.124342041,2.8107926845550537,-12.057199478149414,2.7102363109588623
1776038970185799400,-1522124.1042006835,3.4955344200134277,-12.255918502807617,2.126051187515259
1776038970195901000,-1522124.0940991212,3.861847400665283,-12.052411079406738,1.941697597503662
1776038970205941200,-1522124.084058838,4.304774761199951,-11.777078628540039,1.742978811264038
1776038970216012000,-1522124.0739880372,4.6734819412231445,-11.66455078125,1.5897499322891235
1776038970226052000,-1522124.063947998,5.0685248374938965,-11.736376762390137,1.2856862545013428
1776038970236123100,-1522124.0538769532,5.3582234382629395,-11.870451927185059,0.811634361743927
1776038970246194000,-1522124.0438061524,5.243301868438721,-11.537657737731934,0.20111294090747833
1776038970256264700,-1522124.0337353516,4.932055473327637,-11.554417610168457,-0.4118026793003082
1776038970266305000,-1522124.0236950684,4.441244125366211,-11.590330123901367,-1.036689281463623
1776038970286446600,-1522124.0035534669,4.02465295791626,-11.676521301269531,-1.623268723487854
1776038970316689400,-1522123.973310547,3.8091750144958496,-12.725181579589844,-3.488351821899414
1776038970326760200,-1522123.9632397462,3.9647979736328125,-13.03403377532959,-4.304774761199951
1776038970336861400,-1522123.9531386718,4.256890773773193,-13.256694793701172,-5.193023681640625
1776038970346901800,-1522123.9430981446,4.527435302734375,-13.263877868652344,-5.9088897705078125
1776038970356972500,-1522123.9330273438,4.577713489532471,-13.084312438964844,-6.4834980964660645
1776038970367043300,-1522123.922956787,4.5154643058776855,-12.6150484085083,-6.825869083404541
1776038970377144800,-1522123.9128552247,4.280832767486572,-11.87763500213623,-6.675034523010254
1776038970407326700,-1522123.88267334,3.361459255218506,-9.648633003234863,-3.663128614425659
1776038970437539000,-1522123.8524609376,2.9089550971984863,-8.226476669311523,-3.4979286193847656
1776038970447579400,-1522123.8424206544,3.268085241317749,-7.860164165496826,-3.7277719974517822
1776038970457650200,-1522123.8323498536,3.801992416381836,-7.462726593017578,-3.794809579849243
1776038970467721000,-1522123.8222790528,4.060565948486328,-6.919242858886719,-3.7852327823638916
1776038970477791700,-1522123.812208252,4.201824188232422,-6.648698329925537,-3.6750996112823486
1776038970497963800,-1522123.792036133,3.641580820083618,-5.995080947875977,-3.627215623855591
1776038970508004000,-1522123.7819958497,3.361459255218506,-5.647922039031982,-3.4308910369873047
1776038970518105300,-1522123.7718947753,3.28963303565979,-5.475539207458496,-3.2561142444610596
1776038970528176000,-1522123.7618239745,3.0573954582214355,-4.987122058868408,-3.0597896575927734
1776038970538247200,-1522123.7517529298,2.4612393379211426,-4.3406877517700195,-2.7772738933563232
1776038970548318000,-1522123.741682129,1.7549498081207275,-3.6727054119110107,-2.3965959548950195
1776038970558419200,-1522123.7315808106,1.6615760326385498,-3.3470940589904785,-2.427720546722412
1776038970568459500,-1522123.7215405274,0.5363011956214905,-2.3942017555236816,-1.9943699836730957
1776038970578530300,-1522123.7114697266,0.4213795065879822,-2.0422539710998535,-1.4532804489135742
1776038970598672000,-1522123.691328125,-0.2298433631658554,-0.6727706789970398,-0.49320554733276367
1776038970618844000,-1522123.671156006,-0.24181437492370605,0.21308395266532898,0.22744916379451752
1776038970628914700,-1522123.6610852052,-0.3926490843296051,0.7015010714530945,0.5123591423034668
1776038970638985500,-1522123.6510146484,-0.5482721924781799,1.0749965906143188,0.790086567401886
1776038970649056300,-1522123.6409438476,-0.6153098344802856,1.5442601442337036,0.9313444495201111
1776038970669198000,-1522123.620802002,-0.706289529800415,2.4372973442077637,1.403002142906189
1776038970679268900,-1522123.6107312012,-0.8786720037460327,2.942473888397217,1.6041151285171509
1776038970689339600,-1522123.6006604005,-0.9217676520347595,3.2992098331451416,1.8171991109848022
1776038970699441000,-1522123.590559082,-0.8643068075180054,3.691859006881714,2.0925323963165283
1776038970719552000,-1522123.5704479981,-1.048660397529602,4.3622355461120605,2.52109432220459
1776038970729622800,-1522123.5603771973,-1.1324573755264282,4.63517427444458,2.698265314102173
1776038970739724000,-1522123.550275879,-1.2066776752471924,4.876988887786865,2.8227639198303223
1776038970749794800,-1522123.5402050782,-1.137245774269104,5.2265424728393555,2.9161376953125
1776038970759896300,-1522123.5301037598,-1.115697979927063,5.3342814445495605,2.9975404739379883
1776038970769936400,-1522123.5200637206,-1.1204863786697388,5.343858242034912,2.9735984802246094
1776038970780038000,-1522123.5099621583,-0.9648633003234863,5.386953830718994,2.849100112915039
1776038970810219800,-1522123.4797802735,-0.5985504388809204,4.967968463897705,1.968033790588379
1776038970830331000,-1522123.4596691895,-0.5793967843055725,4.242525577545166,0.8571242094039917
1776038970850472400,-1522123.439527588,0.002394201699644327,2.8826189041137695,-0.3711012601852417
1776038970860573700,-1522123.4294262696,0.40940847992897034,2.2218191623687744,-1.1037269830703735
1776038970870614000,-1522123.4193859864,0.706289529800415,1.3934253454208374,-1.6400281190872192
1776038970880684800,-1522123.4093151856,1.0606313943862915,0.7445967197418213,-2.2170307636260986
1776038970890755600,-1522123.3992443848,1.1851298809051514,0.18914192914962769,-2.8107926845550537
1776038970900856800,-1522123.3891430665,0.9983820915222168,-0.038307227194309235,-3.292027235031128
1776038970920968000,-1522123.3690319825,0.871489405632019,-1.3239935636520386,-4.570530891418457
1776038970951149800,-1522123.3388500977,0.8523358106613159,-2.4899697303771973,-5.317522048950195
1776038970961220600,-1522123.328779297,0.9864110946655273,-2.846705913543701,-4.680664539337158
1776038970971291400,-1522123.3187084962,1.1540051698684692,-3.24414324760437,-3.9432501792907715
1776038970981362200,-1522123.3086379394,1.556231141090393,-3.35667085647583,-3.2393548488616943
1776038970991433000,-1522123.2985671386,1.9033904075622559,-3.4979286193847656,-2.978386878967285
1776038971001473300,-1522123.2885266114,2.2840683460235596,-3.620033025741577,-3.095702886581421
1776038971021614800,-1522123.2683852538,3.4165258407592773,-3.9240965843200684,-3.689464807510376
1776038971031686000,-1522123.258314209,3.97916316986084,-4.129997730255127,-3.7014358043670654
1776038971051858000,-1522123.23814209,4.934449672698975,-4.850652694702148,-3.40216064453125
1776038971061928700,-1522123.2280712891,5.137956619262695,-5.279214859008789,-3.093308687210083
1776038971071999500,-1522123.2180004884,5.056553840637207,-5.738901615142822,-2.784456491470337
1776038971082070300,-1522123.2079296876,5.066130638122559,-5.971138954162598,-2.4133553504943848
1776038971092110600,-1522123.1978894044,4.991910457611084,-6.22731876373291,-1.766920804977417
1776038971112221700,-1522123.1777783204,5.027823448181152,-6.117185115814209,-0.38546648621559143
1776038971122292500,-1522123.1677075196,4.489128112792969,-5.722142219543457,0.22744916379451752
1776038971132332800,-1522123.1576672364,3.936067581176758,-5.571307182312012,0.7733271718025208
1776038971152444000,-1522123.1375561524,3.043030261993408,-5.614402770996094,1.53707754611969
1776038971162545200,-1522123.127454834,2.918531894683838,-5.999869346618652,1.9560627937316895
1776038971172616000,-1522123.1173840333,3.0095114707946777,-6.356605529785156,2.3080103397369385
1776038971182717200,-1522123.107282715,3.332728862762451,-6.864176273345947,2.7700912952423096
1776038971192757500,-1522123.0972424317,3.399766445159912,-7.264008045196533,3.2752678394317627
1776038971212868600,-1522123.0771313477,2.655169725418091,-7.735665798187256,4.043806552886963
1776038971232949200,-1522123.0570507813,1.7693150043487549,-8.027758598327637,4.37420654296875
1776038971243020000,-1522123.0469799805,1.482010841369629,-8.29590892791748,4.505887508392334
1776038971253029600,-1522123.036970459,1.3096283674240112,-8.59997272491455,4.469974517822266
1776038971263100700,-1522123.0268994141,0.9313444495201111,-8.832210540771484,4.565742492675781
1776038971273140700,-1522123.016859375,0.5817909836769104,-8.98543930053711,4.376600742340088
1776038971283211500,-1522123.0067885742,0.21787235140800476,-9.038111686706543,4.0964789390563965
1776038971293191000,-1522122.996809082,-0.12210428714752197,-9.239224433898926,3.7924153804779053
1776038971323464400,-1522122.9665356446,-0.05267243832349777,-10.249577522277832,3.3662476539611816
1776038971333443600,-1522122.9565563966,-0.24660277366638184,-10.5344877243042,3.28963303565979
1776038971343514400,-1522122.9464855958,-0.19393034279346466,-10.828974723815918,3.0142998695373535
1776038971353554700,-1522122.9364453126,-0.22505496442317963,-11.003750801086426,2.5522189140319824
1776038971363625500,-1522122.9263745118,0.011971008032560349,-11.207258224487305,2.0231003761291504
1776038971373665800,-1522122.9163342286,0.19153612852096558,-11.468226432800293,1.6184803247451782
1776038971383767000,-1522122.9062329102,0.45010992884635925,-11.626243591308594,1.2210428714752197
1776038971393837800,-1522122.8961621094,0.7015010714530945,-11.628637313842773,0.9696516990661621
1776038971403908600,-1522122.8860913087,0.730231523513794,-11.259930610656738,0.6847416758537292
1776038971434060000,-1522122.8559399415,0.751779317855835,-11.027692794799805,-0.23942017555236816
1776038971444130800,-1522122.8458691407,0.8355764150619507,-11.027692794799805,-0.5315127968788147
1776038971454140700,-1522122.835859375,0.9696516990661621,-10.821791648864746,-0.8212111592292786
1776038971464211500,-1522122.8257885743,0.9600749015808105,-10.66137981414795,-1.1899182796478271
1776038971474251800,-1522122.815748291,1.0893617868423462,-10.72602367401123,-1.7741034030914307
1776038971484353000,-1522122.8056469727,1.53707754611969,-11.176133155822754,-2.6575639247894287
1776038971494393300,-1522122.7956066895,2.252943754196167,-12.105083465576172,-3.663128614425659
1776038971504494600,-1522122.7855053712,2.2888567447662354,-13.029245376586914,-4.891354084014893
1776038971514535000,-1522122.775465088,2.0446481704711914,-13.57512378692627,-6.320692539215088
1776038971534615600,-1522122.7553845216,1.0749965906143188,-13.043610572814941,-8.710105895996094
1776038971544686300,-1522122.7453137208,0.6560112833976746,-12.265495300292969,-8.796297073364258
1776038971554757000,-1522122.73524292,0.4812345504760742,-11.523292541503906,-8.075642585754395
1776038971564858400,-1522122.7251416016,0.49559974670410156,-10.802638053894043,-6.643909931182861
1776038971574898700,-1522122.7151013184,0.49320554733276367,-10.299856185913086,-5.137956619262695
1776038971584969500,-1522122.7050305177,0.45010992884635925,-9.801861763000488,-3.84269380569458
1776038971595040300,-1522122.6949597169,0.2801215946674347,-9.078812599182129,-2.8826189041137695
1776038971605111000,-1522122.684888916,0.12210428714752197,-8.365341186523438,-2.6144683361053467
1776038971615151400,-1522122.674848633,-0.035913024097681046,-7.445967197418213,-2.7222073078155518
1776038971625252600,-1522122.6647473145,-0.16759411990642548,-6.813898086547852,-3.028665065765381
1776038971645394200,-1522122.644605713,-0.181959331035614,-5.990292549133301,-3.069366693496704
1776038971655465000,-1522122.6345351562,0.11013327538967133,-5.781997203826904,-2.7676970958709717
1776038971675576000,-1522122.6144238282,0.6727706789970398,-5.418078422546387,-2.0614075660705566
1776038971685646800,-1522122.6043532714,0.828393816947937,-5.04218864440918,-1.7932571172714233
1776038971695717600,-1522122.5942824706,0.9888052940368652,-4.697423934936523,-1.6615760326385498
1776038971705788700,-1522122.5842114259,1.1994950771331787,-3.909731388092041,-1.5275006294250488
1776038971715828700,-1522122.5741711427,1.4915876388549805,-3.1196448802948,-1.460463047027588
1776038971725899500,-1522122.5641005859,1.4317326545715332,-2.31758713722229,-1.3215993642807007
1776038971776162000,-1522122.5138378907,0.023942016065120697,2.4588451385498047,-0.12449848651885986
1776038971786232800,-1522122.50376709,-0.31364041566848755,2.9759926795959473,0.28969839215278625
1776038971796334000,-1522122.4936660156,-0.6248866319656372,3.313575267791748,0.6751648783683777
1776038971806405000,-1522122.4835949708,-0.950498104095459,3.7900211811065674,1.113303780555725
1776038971816476000,-1522122.47352417,-1.1109095811843872,4.273650169372559,1.4460978507995605
1776038971826546700,-1522122.4634533692,-1.0558429956436157,4.611232280731201,1.745373010635376
1776038971836617500,-1522122.4533825684,-0.8834604024887085,4.989516258239746,1.9057846069335938
1776038971856759000,-1522122.4332409669,-0.5363011956214905,5.702988624572754,2.2888567447662354
1776038971866860300,-1522122.4231396485,-0.090979665517807,5.916072368621826,2.4588451385498047
1776038971876931000,-1522122.4130688477,0.07182604819536209,6.052541732788086,2.6168625354766846
1776038971887001900,-1522122.402998047,0.18914192914962769,6.296750545501709,2.7054479122161865
1776038971897103400,-1522122.3928967286,0.3447650372982025,6.375759124755859,2.806004285812378
1776038971907174100,-1522122.3828259278,0.47165772318840027,6.426037311553955,2.964021682739258
1776038971917245000,-1522122.372755127,0.5434837937355042,6.392518520355225,3.047818660736084
1776038971927315700,-1522122.3626843262,0.6703764796257019,6.382941722869873,3.1100680828094482
1776038971937356000,-1522122.352644043,0.933738648891449,6.45476770401001,3.1220390796661377
1776038971947396000,-1522122.3426040038,1.280897855758667,6.311115741729736,3.0550012588500977
1776038971977608700,-1522122.3123913575,0.6584054827690125,3.1483752727508545,2.231395959854126
1776038971987710000,-1522122.3022900391,0.44771572947502136,2.456450939178467,1.8100165128707886
1776038971997750300,-1522122.292249756,0.6607996821403503,2.1547815799713135,1.4389152526855469
1776038972007821000,-1522122.2821789552,0.7134721279144287,2.051830768585205,1.2832920551300049
1776038972017891800,-1522122.2721081544,0.9888052940368652,1.580173134803772,1.0606313943862915
1776038972027993000,-1522122.262006836,1.482010841369629,0.40940847992897034,0.706289529800415
1776038972038063900,-1522122.2519360352,1.742978811264038,-1.216254472732544,0.22266076505184174
1776038972048134700,-1522122.2418652344,2.3535003662109375,-1.7549498081207275,-0.5315127968788147
1776038972058175000,-1522122.2318249512,2.367865562438965,-1.920149803161621,-0.35434186458587646
1776038972088479000,-1522122.2015209962,3.2824504375457764,-2.1763293743133545,-2.43011474609375
1776038972098519300,-1522122.191480713,2.873042106628418,-1.8171991109848022,-2.784456491470337
1776038972108620500,-1522122.1813793946,2.3343467712402344,-1.86508309841156,-2.8371291160583496
1776038972118660900,-1522122.1713391114,1.7621324062347412,-2.0398597717285156,-2.827552318572998
1776038972128731600,-1522122.1612683106,1.2521674633026123,-2.3247697353363037,-3.251325845718384
1776038972138772000,-1522122.1512280274,0.8738836050033569,-2.779668092727661,-3.840299606323242
1776038972148842800,-1522122.1411572266,0.727837324142456,-3.56017804145813,-4.572925090789795
1776038972169014800,-1522122.1209851075,1.1994950771331787,-5.363011837005615,-5.116408824920654
1776038972189156400,-1522122.10084375,2.564189910888672,-6.358999729156494,-4.01268196105957
1776038972209298200,-1522122.0807019044,3.845088005065918,-6.813898086547852,-2.741360902786255
1776038972229439700,-1522122.0605603028,4.23773717880249,-6.53377628326416,-2.027888774871826
1776038972239510500,-1522122.050489502,4.1180267333984375,-6.1530985832214355,-1.7142484188079834
1776038972249581300,-1522122.0404187012,3.883395195007324,-5.700594425201416,-1.4077905416488647
1776038972259652000,-1522122.0303479005,3.6846764087677,-5.228936672210693,-1.1228805780410767
1776038972279793700,-1522122.010206299,3.1675288677215576,-4.9368438720703125,-0.5674257874488831
1776038972289864400,-1522122.0001354981,2.832340717315674,-4.948814868927002,-0.13407529890537262
1776038972299935200,-1522121.9900646973,2.779668092727661,-4.891354084014893,0.37828385829925537
1776038972310036500,-1522121.979963623,2.717418909072876,-4.8602294921875,0.8523358106613159
1776038972320107500,-1522121.9698925782,2.6455929279327393,-4.728548526763916,1.3024457693099976
1776038972330178300,-1522121.9598217774,2.537853717803955,-4.55616569519043,1.702277421951294
1776038972340188000,-1522121.9498120118,2.4803929328918457,-4.5825018882751465,2.118868589401245
1776038972350258700,-1522121.939741211,2.432508945465088,-4.750096321105957,2.6431987285614014
1776038972360329500,-1522121.9296704102,2.2697031497955322,-5.0014872550964355,3.1196448802948
1776038972370431000,-1522121.9195690919,2.070984363555908,-5.197812080383301,3.5266590118408203
1776038972400643300,-1522121.8893566895,1.2425906658172607,-6.303933143615723,4.508281707763672
1776038972410744600,-1522121.8792553712,1.1109095811843872,-6.619967937469482,4.881777286529541
1776038972420785000,-1522121.869215088,0.9840168952941895,-6.852205276489258,5.195417881011963
1776038972430855700,-1522121.8591442872,0.811634361743927,-7.036558628082275,5.374982833862305
1776038972440926500,-1522121.8490734864,0.706289529800415,-7.271190643310547,5.612008571624756
1776038972451027700,-1522121.838972168,0.608127236366272,-7.383718013763428,5.669469833374023
1776038972461098500,-1522121.8289016113,0.6033388376235962,-7.620744228363037,5.647922039031982
1776038972491341600,-1522121.7986584473,1.170764684677124,-8.44195556640625,4.989516258239746
1776038972501382000,-1522121.7886181641,1.6974890232086182,-8.429984092712402,4.754884719848633
1776038972511483100,-1522121.7785168458,2.293645143508911,-8.53293514251709,4.517858505249023
1776038972521554000,-1522121.768446045,2.7293899059295654,-8.489839553833008,4.153939723968506
1776038972531624700,-1522121.7583752442,3.114856481552124,-8.604761123657227,3.624821424484253
1776038972541695500,-1522121.7483044434,3.337517261505127,-8.796297073364258,3.1292216777801514
1776038972551766300,-1522121.7382336427,3.4787750244140625,-9.153033256530762,2.4851813316345215
1776038972561837000,-1522121.7281628419,3.4739866256713867,-9.634267807006836,1.7860745191574097
1776038972571907800,-1522121.718092041,3.4141316413879395,-9.81143856048584,1.1013327836990356
1776038972581978600,-1522121.7080214843,3.3039982318878174,-9.794678688049316,0.47884035110473633
1776038972612191200,-1522121.677808838,2.6623523235321045,-10.812214851379395,-1.1013327836990356
1776038972622262000,-1522121.6677380372,2.43011474609375,-11.168951034545898,-1.161187767982483
1776038972632332800,-1522121.6576672364,2.2218191623687744,-11.468226432800293,-1.3886369466781616
1776038972642403600,-1522121.6475964356,2.3487119674682617,-11.566388130187988,-2.140416383743286
1776038972652474400,-1522121.6375256348,2.561795711517334,-11.707646369934082,-3.3494882583618164
1776038972662545200,-1522121.627454834,3.0166940689086914,-11.925518989562988,-4.467580318450928
1776038972672585500,-1522121.6174145509,3.531447410583496,-12.191274642944336,-5.588066577911377
1776038972682656300,-1522121.60734375,3.9815573692321777,-12.45463752746582,-6.464344501495361
1776038972712899000,-1522121.5771008302,3.88818359375,-11.686098098754883,-7.259219646453857
1776038972722969900,-1522121.5670300294,3.4596214294433594,-10.92953109741211,-6.042964935302734
1776038972733010200,-1522121.5569897462,3.162740468978882,-10.223240852355957,-4.455609321594238
1776038972753182500,-1522121.536817627,2.406172752380371,-9.131484985351562,-2.4660277366638184
1776038972763253200,-1522121.5267468262,2.145204782485962,-8.346187591552734,-2.274491548538208
1776038972773262800,-1522121.5167370606,2.363077163696289,-7.68538761138916,-2.4229321479797363
1776038972783333600,-1522121.5066662598,2.4229321479797363,-6.871358871459961,-2.5474305152893066
1776038972803444700,-1522121.4865551759,2.499546527862549,-6.457161903381348,-2.4157495498657227
1776038972823586300,-1522121.4664135743,1.6328455209732056,-6.536170482635498,-2.056619167327881
1776038972843758600,-1522121.4462414552,0.7158663272857666,-5.5976433753967285,-1.6184803247451782
1776038972853799000,-1522121.436201172,0.40701428055763245,-4.946420669555664,-1.338358759880066
1776038972863900200,-1522121.4260998536,0.35673606395721436,-4.41969633102417,-1.0007762908935547
1776038972873971000,-1522121.4160290528,0.3208230137825012,-3.861847400665283,-0.7781155705451965
1776038972884011300,-1522121.4059887696,0.05506663769483566,-2.784456491470337,-0.6919242739677429
1776038972904122400,-1522121.3858776856,-0.1412578970193863,-1.0582371950149536,0.15562310814857483
1776038972924233500,-1522121.3657666016,-0.26336219906806946,-0.05267243832349777,1.5634137392044067
1776038972934304300,-1522121.3556958009,0.021547814831137657,0.11252748221158981,2.056619167327881
1776038972944405500,-1522121.3455944825,0.10773907601833344,0.545877993106842,2.4899697303771973
1776038972954445800,-1522121.3355541993,0.33758243918418884,0.9433154463768005,2.7054479122161865
1776038972964516600,-1522121.3254833985,0.3519476354122162,1.4652514457702637,2.894589900970459
1776038972974557000,-1522121.3154431153,0.24660277366638184,1.6687586307525635,2.896984100341797
1776038972984627700,-1522121.3053723145,0.0694318488240242,1.9249382019042969,2.868253707885742
1776038973024910800,-1522121.2650891114,-0.42616790533065796,3.557783842086792,3.19865345954895
1776038973045052400,-1522121.2449475098,-0.3926490843296051,4.67827033996582,3.2609026432037354
1776038973065194000,-1522121.2248059083,-0.3256114423274994,5.276820659637451,3.3662476539611816
1776038973075295500,-1522121.21470459,-0.24899697303771973,5.4252610206604,3.442862033843994
1776038973085335600,-1522121.2046645507,-0.12689268589019775,5.6191911697387695,3.490746021270752
1776038973095406600,-1522121.194593506,-0.033518824726343155,5.892130374908447,3.5170822143554688
1776038973105477400,-1522121.1845227052,-0.035913024097681046,6.119579315185547,3.3877954483032227
1776038973135750700,-1522121.1542492677,-0.07182604819536209,5.3127336502075195,2.87064790725708
1776038973145821400,-1522121.1441784669,0.1173158809542656,4.527435302734375,2.6168625354766846
1776038973155892200,-1522121.134107666,0.2082955539226532,3.845088005065918,2.2577321529388428
1776038973165963000,-1522121.1240371093,0.16519992053508759,3.2824504375457764,2.10210919380188
1776038973176003300,-1522121.113996582,0.14365209639072418,3.064578056335449,2.0829553604125977
1776038973186074000,-1522121.1039257813,0.2059013396501541,2.765302896499634,2.049436569213867
1776038973196175600,-1522121.093824463,0.5506663918495178,2.3511061668395996,1.6424223184585571
1776038973206246400,-1522121.0837536622,0.646434485912323,1.6041151285171509,0.8044517636299133
1776038973236458800,-1522121.0535412598,1.0438719987869263,-2.497152328491211,-2.585737943649292
1776038973246529500,-1522121.043470459,1.6424223184585571,-1.900996208190918,-3.794809579849243
1776038973256600300,-1522121.0333996583,1.6711528301239014,-0.43335050344467163,-5.197812080383301
1776038973266640600,-1522121.023359375,0.7589619159698486,-0.1149216815829277,-6.265625953674316
1776038973276711400,-1522121.0132885743,-0.19632454216480255,-0.8259995579719543,-6.715735912322998
1776038973286782200,-1522121.0032177735,-0.9002198576927185,-2.0853497982025146,-6.615179061889648
1776038973296853000,-1522120.9931469727,-1.4915876388549805,-3.4356794357299805,-6.66785192489624
1776038973306893300,-1522120.9831066895,-1.647210717201233,-4.584896087646484,-6.98628044128418
1776038973337105700,-1522120.9528942872,-0.7972691655158997,-6.742072105407715,-7.793126583099365
1776038973347146000,-1522120.942854004,-0.5626373887062073,-7.309497833251953,-6.840234279632568
1776038973367257000,-1522120.92274292,-0.2059013396501541,-9.248801231384277,-4.20421838760376
1776038973377327900,-1522120.9126721192,0.5339069962501526,-9.624691009521484,-3.35667085647583
1776038973387398700,-1522120.9026013184,0.9672574996948242,-9.816226959228516,-2.5019407272338867
1776038973397469400,-1522120.8925305177,1.6089035272598267,-10.055646896362305,-1.7836803197860718
1776038973407509800,-1522120.8824902344,2.279279947280884,-9.84256362915039,-1.359906554222107
1776038973427681800,-1522120.8623181153,3.0861260890960693,-8.650250434875488,-1.0797849893569946
1776038973447793000,-1522120.8422070313,3.028665065765381,-7.161057472229004,-0.768538773059845
1776038973457863700,-1522120.8321362305,2.786850690841675,-6.768408298492432,-0.42616790533065796
1776038973467934500,-1522120.8220654298,2.583343744277954,-6.524199485778809,0.10295066982507706
1776038973478005200,-1522120.811994873,2.363077163696289,-6.380547523498535,0.6488286852836609
1776038973488076000,-1522120.8019240722,2.3343467712402344,-6.509834289550781,1.1779472827911377
1776038973498116400,-1522120.791883545,2.2002713680267334,-6.768408298492432,1.5322890281677246
1776038973508187100,-1522120.7818127442,2.2409727573394775,-7.046135425567627,1.6615760326385498
1776038973548439800,-1522120.7415603027,2.5785553455352783,-7.888894557952881,3.205836057662964
1776038973558480100,-1522120.7315197755,2.516305923461914,-7.967903137207031,3.751713991165161
1776038973568551000,-1522120.7214489747,2.6886885166168213,-8.018181800842285,4.134786128997803
1776038973578591200,-1522120.7114086915,3.3423056602478027,-7.982268333435059,4.32871675491333
1776038973588662000,-1522120.7013378907,3.6990416049957275,-7.999027729034424,4.458003520965576
1776038973598732800,-1522120.69126709,3.9049429893493652,-8.226476669311523,4.565742492675781
1776038973608773000,-1522120.6812268067,3.9001545906066895,-8.224082946777344,4.627991676330566
1776038973618844000,-1522120.671156006,3.88818359375,-8.252813339233398,4.618414878845215
1776038973649056300,-1522120.6409438476,3.6535518169403076,-8.662221908569336,5.257667064666748
1776038973659157800,-1522120.6308422852,3.689464807510376,-9.023746490478516,5.04218864440918
1776038973669228500,-1522120.6207714844,3.6846764087677,-9.366117477416992,4.671087741851807
1776038973679299300,-1522120.6107006837,3.8163576126098633,-9.701305389404297,4.156333923339844
1776038973689339600,-1522120.6006604005,3.9217023849487305,-9.86650562286377,3.624821424484253
1776038973699410400,-1522120.5905895997,3.9911341667175293,-9.653421401977539,2.853888511657715
1776038973709450800,-1522120.5805493165,4.07014274597168,-9.337387084960938,2.2816741466522217
1776038973719552000,-1522120.5704479981,4.244919776916504,-9.198522567749023,1.7070658206939697
1776038973749734000,-1522120.5402661134,3.8714241981506348,-8.38449478149414,0.15083470940589905
1776038973759804700,-1522120.5301953126,3.7900211811065674,-8.664615631103516,-0.31842881441116333
1776038973769875500,-1522120.5201245118,3.8498764038085938,-8.571242332458496,-0.8140285611152649
1776038973779946200,-1522120.510053711,3.8115692138671875,-8.643068313598633,-1.194706678390503
1776038973790017000,-1522120.4999829102,3.581725835800171,-8.942343711853027,-1.2880805730819702
1776038973810189000,-1522120.479811035,3.6152446269989014,-9.500192642211914,-1.41257905960083
1776038973820260000,-1522120.4697399903,3.5458126068115234,-9.550470352172852,-1.5179238319396973
1776038973830331000,-1522120.4596691895,3.406949043273926,-9.59835433959961,-1.9752163887023926
1776038973870583600,-1522120.419416504,4.661510944366455,-10.146626472473145,-4.824316501617432
1776038973880654300,-1522120.4093457032,5.363011837005615,-10.63743782043457,-5.863399982452393
1776038973890725000,-1522120.3992749024,5.731719017028809,-10.819397926330566,-7.067683219909668
1776038973900796000,-1522120.3892041016,5.52821159362793,-10.711658477783203,-7.94635534286499
1776038973910836200,-1522120.3791638184,4.644751071929932,-10.273519515991211,-7.726089000701904
1776038973920876500,-1522120.3691235352,3.550601005554199,-9.677363395690918,-6.428431510925293
1776038973930916600,-1522120.359083496,2.2649147510528564,-8.848969459533691,-4.4292731285095215
1776038973940987600,-1522120.3490124512,1.0654197931289673,-8.042123794555664,-2.935291290283203
1776038973971200000,-1522120.318800049,-0.42377370595932007,-6.157886981964111,-1.7262194156646729
1776038973981301200,-1522120.3086987305,-0.4165911078453064,-5.944802761077881,-1.7405846118927002
1776038973991372000,-1522120.2986279298,-0.2346317619085312,-5.760449409484863,-1.7597382068634033
1776038974001412400,-1522120.2885876466,-0.22266076505184174,-5.4875102043151855,-1.6208745241165161
1776038974011452700,-1522120.2785473634,-0.14604631066322327,-5.233725070953369,-1.3263877630233765
1776038974021554000,-1522120.268446045,0.035913024097681046,-5.109226226806641,-1.1803414821624756
1776038974031594200,-1522120.2584057618,0.4357447028160095,-5.116408824920654,-1.0893617868423462
1776038974041695500,-1522120.2483044434,0.7972691655158997,-5.118803024291992,-1.158793568611145
1776038974082009300,-1522120.2079907227,-0.15322890877723694,-2.628833532333374,-0.6248866319656372
1776038974092019000,-1522120.197980957,-0.646434485912323,-1.9823989868164062,-0.05985504388809204
1776038974102089700,-1522120.1879101563,-1.015141487121582,-1.4963760375976562,0.4692635238170624
1776038974122262000,-1522120.1677380372,-1.5969325304031372,-0.7158663272857666,1.534683346748352
1776038974132302300,-1522120.157697754,-2.0207061767578125,-0.2537853717803955,1.9297266006469727
1776038974142403600,-1522120.1475964356,-2.3343467712402344,0.0454898327589035,2.406172752380371
1776038974152474400,-1522120.1375256348,-2.4612393379211426,0.40701428055763245,2.7317841053009033
1776038974172616000,-1522120.1173840333,-2.7557260990142822,1.2042834758758545,3.3446998596191406
1776038974182686700,-1522120.1073132325,-2.7748796939849854,1.5610195398330688,3.6176388263702393
1776038974192757500,-1522120.0972424317,-2.628833532333374,1.9560627937316895,3.801992416381836
1776038974202858800,-1522120.0871413574,-2.425326347351074,2.5115175247192383,3.936067581176758
1776038974212899000,-1522120.0771008302,-2.3942017555236816,2.9688100814819336,4.165910720825195
1776038974223000600,-1522120.0669995118,-2.161964178085327,3.19865345954895,4.290409564971924
1776038974233071400,-1522120.056928711,-2.099714994430542,3.4141316413879395,4.321534156799316
1776038974243142100,-1522120.0468579102,-2.0877439975738525,3.3877954483032227,4.2760443687438965
1776038974253151700,-1522120.0368481446,-1.7477672100067139,3.313575267791748,4.261679172515869
1776038974283394800,-1522120.0066052247,-0.44771572947502136,2.832340717315674,3.246537446975708
1776038974293404400,-1522119.996595703,-0.24660277366638184,2.937685489654541,2.9903578758239746
1776038974313515500,-1522119.976484375,-0.19871874153614044,3.3494882583618164,2.937685489654541
1776038974323617000,-1522119.9663830567,-0.10295066982507706,3.31118106842041,2.7772738933563232
1776038974333596200,-1522119.9564038087,0.031124621629714966,3.246537446975708,2.3989901542663574
1776038974343697400,-1522119.9463024903,0.2106897532939911,3.177105665206909,1.9393033981323242
1776038974353768200,-1522119.9362316895,0.1843535304069519,3.026270866394043,1.6208745241165161
1776038974373879300,-1522119.9161206055,0.14844051003456116,2.7246015071868896,0.7805097699165344
1776038974394051600,-1522119.8959484864,-0.035913024097681046,2.734178304672241,-0.10773907601833344
1776038974404152800,-1522119.885847168,0.17956513166427612,2.564189910888672,-0.7852981686592102
1776038974414193200,-1522119.8758068848,0.28969839215278625,2.094926595687866,-1.3623007535934448
1776038974424264000,-1522119.865736084,0.5650315880775452,1.7405846118927002,-2.027888774871826
1776038974434304300,-1522119.8556958009,0.646434485912323,1.1252747774124146,-3.0837318897247314
1776038974444375000,-1522119.845625,0.6177040338516235,0.811634361743927,-4.474762916564941
1776038974454384600,-1522119.8356154785,0.33279404044151306,0.545877993106842,-5.808333396911621
1776038974474526500,-1522119.815473633,0.11013327538967133,-0.13407529890537262,-7.838616371154785
1776038974484566500,-1522119.8054335937,0.22026655077934265,-0.7637503147125244,-8.35336971282959
1776038974494606800,-1522119.7953930665,0.5578489899635315,-1.821987509727478,-8.700529098510742
1776038974504677600,-1522119.7853222657,1.0079588890075684,-2.9735984802246094,-8.803479194641113
1776038974514748400,-1522119.775251465,1.8076223134994507,-4.244919776916504,-8.643068313598633
1776038974524819200,-1522119.7651809081,2.676717519760132,-5.578489780426025,-8.092401504516602
1776038974534829000,-1522119.7551708985,3.318363666534424,-6.596025466918945,-7.19936466217041
1776038974544930300,-1522119.7450695802,3.998316764831543,-7.273584842681885,-6.308721542358398
1776038974555001000,-1522119.7349990234,4.431667327880859,-7.845798969268799,-5.264849662780762
1776038974565072000,-1522119.7249282226,4.7189717292785645,-8.236053466796875,-4.314351558685303
1776038974595223300,-1522119.6947766114,4.752490520477295,-7.829039573669434,-3.117250680923462
1776038974605324800,-1522119.684675293,4.3861775398254395,-7.592013359069824,-3.002328872680664
1776038974615334400,-1522119.6746655274,4.120420932769775,-7.2113356590271,-2.6408045291900635
1776038974625405200,-1522119.6645947266,3.7924153804779053,-6.823474884033203,-1.922544002532959
1776038974635476000,-1522119.6545239259,3.4763808250427246,-7.177816867828369,-1.1827356815338135
1776038974645546800,-1522119.644453369,3.028665065765381,-7.939172744750977,-0.47884035110473633
1776038974655617500,-1522119.6343825683,3.3686418533325195,-7.857769966125488,0.014365210197865963
1776038974685799400,-1522119.6042006835,3.1292216777801514,-4.807557106018066,0.9744400978088379
1776038974695870200,-1522119.5941298828,3.5936968326568604,-3.8546648025512695,1.436521053314209
1776038974705941200,-1522119.584058838,4.062960147857666,-3.2632968425750732,1.7717092037200928
1776038974715981300,-1522119.5740187988,4.1874589920043945,-3.0190882682800293,2.1380221843719482
1776038974726082800,-1522119.5639172364,4.426878929138184,-3.1938650608062744,2.6360161304473877
1776038974736092400,-1522119.5539074708,4.55616569519043,-3.2321722507476807,3.201047658920288
1776038974746194000,-1522119.5438061524,4.321534156799316,-3.064578056335449,3.892971992492676
1776038974756234000,-1522119.5337661132,4.242525577545166,-2.473210334777832,4.532223701477051
1776038974786446600,-1522119.5035534669,4.180276393890381,-4.252102375030518,4.54419469833374
1776038974796487000,-1522119.4935131837,4.106055736541748,-5.719748020172119,4.599261283874512
1776038974806557700,-1522119.483442383,4.649539470672607,-7.007828235626221,4.563348293304443
1776038974816597800,-1522119.4734023437,4.424484729766846,-8.063671112060547,4.60165548324585
1776038974826668800,-1522119.463331299,4.371812343597412,-8.614337921142578,4.9368438720703125
1776038974836739600,-1522119.4532604981,5.070919036865234,-8.767566680908203,5.070919036865234
1776038974846810400,-1522119.4431896973,5.157110691070557,-9.126696586608887,4.687847137451172
1776038974856881200,-1522119.4331188966,5.4013190269470215,-9.354146003723145,4.3622355461120605
1776038974866921500,-1522119.4230786134,5.621585369110107,-9.217676162719727,3.998316764831543
1776038974917275400,-1522119.3727246094,5.789179801940918,-7.4770917892456055,2.8227639198303223
1776038974927376600,-1522119.362623291,6.035782337188721,-6.823474884033203,2.3558945655822754
1776038974937417000,-1522119.352583008,6.129156112670898,-6.167463779449463,1.8363527059555054
1776038974947487700,-1522119.342512207,6.222530364990234,-5.60722017288208,1.6831238269805908
1776038974957558500,-1522119.3324414063,5.801150798797607,-5.197812080383301,1.4245500564575195
1776038974977700000,-1522119.3122998048,5.817910194396973,-4.659116744995117,0.8331822156906128
1776038975038094300,-1522119.2519057617,6.179434776306152,-3.0526070594787598,0.395043283700943
1776038975048134700,-1522119.2418652344,6.50025749206543,-3.426102638244629,0.3280056416988373
1776038975058205400,-1522119.2317946777,7.036558628082275,-3.88818359375,0.07422025501728058
1776038975068307000,-1522119.2216931153,7.400477409362793,-4.158728122711182,-0.35913026332855225
1776038975078347300,-1522119.211652832,7.544129371643066,-4.113238334655762,-0.9648633003234863
1776038975088418000,-1522119.2015820313,7.785943984985352,-4.23773717880249,-1.6496049165725708
1776038975098458000,-1522119.1915419921,7.783549785614014,-4.431667327880859,-2.293645143508911
1776038975118600000,-1522119.1714001466,7.5848307609558105,-4.730942726135254,-2.853888511657715
1776038975128670700,-1522119.1613293458,7.702147006988525,-5.216965675354004,-3.555389642715454
1776038975138710800,-1522119.1512893066,7.704541206359863,-5.853823184967041,-4.422090530395508
1776038975148781800,-1522119.1412182618,7.671022415161133,-6.368576526641846,-4.999093055725098
1776038975158852600,-1522119.131147461,7.898471355438232,-6.428431510925293,-5.207388877868652
1776038975168923400,-1522119.1210766602,8.054094314575195,-6.698976516723633,-5.1331682205200195
1776038975178963700,-1522119.111036377,8.346187591552734,-6.670246124267578,-4.881777286529541
1776038975189065000,-1522119.1009350587,8.300697326660156,-6.888118267059326,-4.778826713562012
1776038975209176000,-1522119.0808239747,7.910442352294922,-4.398148536682129,-4.383783340454102
1776038975239388400,-1522119.0506115723,6.212953567504883,-0.6512228846549988,-3.066972494125366
1776038975249459200,-1522119.0405407716,5.535394191741943,-0.8619126081466675,-2.5713725090026855
1776038975259530000,-1522119.0304699708,4.728548526763916,-1.3024457693099976,-2.126051187515259
1776038975269600800,-1522119.02039917,3.8810009956359863,-1.580173134803772,-2.008735179901123
1776038975279671600,-1522119.0103283692,2.9735984802246094,-1.6543933153152466,-1.8363527059555054
1776038975289742300,-1522119.0002575684,2.4133553504943848,-1.6974890232086182,-1.6112977266311646
1776038975309853400,-1522118.9801464844,2.008735179901123,-2.094926595687866,-1.824381709098816
1776038975329964500,-1522118.9600354005,1.659181833267212,-3.2106244564056396,-2.382230758666992
1776038975350106000,-1522118.939893799,0.507570743560791,-3.9408559799194336,-2.123656988143921
1776038975360146400,-1522118.9298535157,-0.1628057211637497,-3.907337188720703,-1.7764976024627686
1776038975370217200,-1522118.919782715,-1.01753568649292,-3.5649664402008057,-1.338358759880066
1776038975380227000,-1522118.9097729493,-2.229001760482788,-3.2130186557769775,-0.8427590131759644
1776038975390267400,-1522118.899732666,-2.6623523235321045,-3.3231520652770996,-0.4213795065879822
1776038975400307700,-1522118.889692383,-2.717418909072876,-3.5410242080688477,-0.33758243918418884
1776038975410409000,-1522118.8795910645,-2.8179752826690674,-3.801992416381836,-0.21547815203666687
1776038975440621300,-1522118.8493786622,-3.3854012489318848,-2.432508945465088,0.0933738648891449
1776038975450722600,-1522118.8392773438,-3.7014358043670654,-1.3479355573654175,0.040701430290937424
1776038975460763000,-1522118.8292370606,-4.10366153717041,-0.5099649429321289,0.07422025501728058
1776038975470833700,-1522118.8191662598,-4.288015365600586,0.24899697303771973,0.12689268589019775
1776038975480874000,-1522118.8091259766,-4.280832767486572,0.689530074596405,0.2513911724090576
1776038975490944800,-1522118.7990551759,-4.481945514678955,1.1228805780410767,0.4357447028160095
1776038975511086300,-1522118.7789135743,-4.733336925506592,1.460463047027588,0.7589619159698486
1776038975531258600,-1522118.7587414552,-4.580107688903809,2.0853497982025146,1.036689281463623
1776038975541298700,-1522118.748701416,-4.486733913421631,2.4205379486083984,1.0749965906143188
1776038975551369700,-1522118.7386303712,-4.311957359313965,2.497152328491211,1.161187767982483
1776038975561440500,-1522118.7285595704,-4.07014274597168,2.717418909072876,1.2425906658172607
1776038975571480600,-1522118.7185195312,-4.039018154144287,2.889801502227783,1.3024457693099976
1776038975581551400,-1522118.7084487304,-3.892971992492676,3.1052796840667725,1.3431471586227417
