time,seconds_elapsed,z,y,x
1776038959384228000,-1522134.9057719726,9.649749755859375,1.6300991773605347,0.6288901567459106
1776038959394099000,-1522134.895901123,9.648014068603516,1.6545063257217407,0.5906132459640503
1776038959403969800,-1522134.8860302735,9.640666961669922,1.7197121381759644,0.5201201438903809
1776038959414009900,-1522134.8759902343,9.653412818908691,1.637561321258545,0.5480943918228149
1776038959424111400,-1522134.865888672,9.656476020812988,1.6174644231796265,0.5537763833999634
1776038959434151700,-1522134.8558483887,9.659658432006836,1.603027105331421,0.5400772094726562
1776038959454293200,-1522134.8357067872,9.662335395812988,1.591691255569458,0.5255402326583862
1776038959464364000,-1522134.8256359864,9.663786888122559,1.5863773822784424,0.5147973299026489
1776038959474404400,-1522134.8155957032,9.666181564331055,1.5765305757522583,0.4998584985733032
1776038959484475100,-1522134.8055249024,9.667713165283203,1.5705991983413696,0.48880961537361145
1776038959514595800,-1522134.7754040528,9.674324989318848,1.5368481874465942,0.4646774232387543
1776038959524697300,-1522134.7653027344,9.67703628540039,1.5226367712020874,0.4549061059951782
1776038959534707000,-1522134.7552929688,9.679940223693848,1.5069124698638916,0.4453744888305664
1776038959544777700,-1522134.745222168,9.682926177978516,1.4902194738388062,0.43655794858932495
1776038959554818000,-1522134.7351818848,9.68471622467041,1.4820727109909058,0.42441675066947937
1776038959564888800,-1522134.725111084,9.68526554107666,1.4832533597946167,0.40738484263420105
1776038959574898700,-1522134.7151013184,9.686842918395996,1.476960301399231,0.39250221848487854
1776038959584969500,-1522134.7050305177,9.694634437561035,1.4285069704055786,0.37922003865242004
1776038959605111000,-1522134.684888916,9.705490112304688,1.3545953035354614,0.37271848320961
1776038959615121000,-1522134.6748791505,9.712367057800293,1.3053656816482544,0.3692292869091034
1776038959625252600,-1522134.6647473145,9.710497856140137,1.3278815746307373,0.33666402101516724
1776038959635323400,-1522134.6546765137,9.701550483703613,1.402974009513855,0.28631001710891724
1776038959645394200,-1522134.644605713,9.697482109069824,1.437867283821106,0.248533234000206
1776038959655434500,-1522134.6345654298,9.700504302978516,1.4197442531585693,0.2343510091304779
1776038959665535700,-1522134.6244643554,9.706348419189453,1.3800454139709473,0.22948016226291656
1776038959675576000,-1522134.6144238282,9.710689544677734,1.3512071371078491,0.21709559857845306
1776038959685677600,-1522134.6043225098,9.712812423706055,1.3392943143844604,0.19482751190662384
1776038959695717600,-1522134.5942824706,9.716819763183594,1.314721703529358,0.1590707004070282
1776038959715859500,-1522134.574140625,9.72922134399414,1.2230522632598877,0.12956584990024567
1776038959725930200,-1522134.5640698243,9.7333984375,1.189813494682312,0.12520331144332886
1776038959735970600,-1522134.554029541,9.743066787719727,1.108372688293457,0.12055815011262894
1776038959746071800,-1522134.5439282227,9.753047943115234,1.0167516469955444,0.12110230326652527
1776038959756142600,-1522134.533857422,9.764203071594238,0.9014711380004883,0.13444317877292633
1776038959766183000,-1522134.5238171387,9.780808448791504,0.6862989068031311,0.1875292807817459
1776038959776223200,-1522134.5137768555,9.789216995239258,0.5353102684020996,0.2346792221069336
1776038959786294000,-1522134.5037060548,9.792322158813477,0.46240511536598206,0.2588650584220886
1776038959826516000,-1522134.4634841308,9.784828186035156,-0.3909876346588135,0.5240756273269653
1776038959836587000,-1522134.453413086,9.7777099609375,-0.5057665705680847,0.5576534867286682
1776038959846657800,-1522134.4433422852,9.753992080688477,-0.7836691737174988,0.6448972225189209
1776038959866769000,-1522134.4232312012,9.666159629821777,-1.4133856296539307,0.859115719795227
1776038959876809000,-1522134.413190918,9.569262504577637,-1.8864035606384277,1.0203262567520142
1776038959886879700,-1522134.4031203613,9.530765533447266,-2.042529582977295,1.0784152746200562
1776038959896950800,-1522134.3930493165,9.402278900146484,-2.5056843757629395,1.2202813625335693
1776038959917031200,-1522134.37296875,9.241852760314941,-2.9852921962738037,1.358888864517212
1776038959937234000,-1522134.3527661134,8.978137969970703,-3.633319854736328,1.5370169878005981
1776038959947304700,-1522134.3426953126,8.83336353302002,-3.941368579864502,1.6148347854614258
1776038959957345000,-1522134.3326550294,8.68721866607666,-4.228420734405518,1.6801997423171997
1776038959967415800,-1522134.3225842286,8.465473175048828,-4.630946159362793,1.7494257688522339
1776038959977456000,-1522134.3125439454,8.388339042663574,-4.762739181518555,1.7670499086380005
1776038959987618300,-1522134.3023815919,8.230167388916016,-5.023062705993652,1.7898517847061157
1776038959997658600,-1522134.2923413087,8.063638687133789,-5.282557010650635,1.8007506132125854
1776038960007729400,-1522134.282270508,7.89170503616333,-5.536001682281494,1.8011295795440674
1776038960037941800,-1522134.2520583495,7.349020957946777,-6.2599687576293945,1.7248417139053345
1776038960048012500,-1522134.2419875488,7.1496429443359375,-6.500934600830078,1.670586109161377
1776038960058083600,-1522134.231916504,6.937417030334473,-6.742672920227051,1.6059238910675049
1776038960068184800,-1522134.2218151856,6.710903167724609,-6.985658645629883,1.5279902219772339
1776038960078255600,-1522134.2117443848,6.4706878662109375,-7.228231906890869,1.4329174757003784
1776038960088356900,-1522134.2016430665,6.08425760269165,-7.584257125854492,1.277199625968933
1776038960098397200,-1522134.1916027833,5.9492058753967285,-7.700948715209961,1.2135635614395142
1776038960108468000,-1522134.1815319825,5.671080589294434,-7.923937797546387,1.1047366857528687
1776038960128640000,-1522134.1613601074,5.068412780761719,-8.349082946777344,0.8799930214881897
1776038960138710800,-1522134.1512893066,4.55179500579834,-8.658072471618652,0.6995096206665039
1776038960148812300,-1522134.1411877442,4.36192512512207,-8.762866020202637,0.5967988967895508
1776038960158883000,-1522134.1311169434,3.9556777477264404,-8.967206954956055,0.3349824845790863
1776038960168953900,-1522134.1210461427,3.548506259918213,-9.141448020935059,0.11145283281803131
1776038960179024600,-1522134.1109753419,3.1609842777252197,-9.281878471374512,-0.1590624302625656
1776038960189126000,-1522134.1008740235,2.840463638305664,-9.379982948303223,-0.34365445375442505
1776038960199166200,-1522134.0908337403,2.588588237762451,-9.444620132446289,-0.5184215307235718
1776038960209237000,-1522134.0807629395,2.3981809616088867,-9.48291015625,-0.7025278210639954
1776038960239449300,-1522134.0505505372,2.1190755367279053,-9.48256778717041,-1.3269585371017456
1776038960259591000,-1522134.0304091796,2.091543674468994,-9.406106948852539,-1.8223648071289062
1776038960279732700,-1522134.010267334,2.102989435195923,-9.274096488952637,-2.3956124782562256
1776038960289803500,-1522134.0001965333,2.105620861053467,-9.185525894165039,-2.7134604454040527
1776038960299843800,-1522133.99015625,2.0992627143859863,-9.080181121826172,-3.0518548488616943
1776038960340127000,-1522133.949873047,1.9283643960952759,-8.317401885986328,-4.82417106628418
1776038960350197800,-1522133.9398022462,1.9127055406570435,-8.202703475952148,-5.022708415985107
1776038960400521200,-1522133.8894787598,2.0912065505981445,-6.4367356300354,-7.096876621246338
1776038960430733600,-1522133.8592663575,2.2175862789154053,-5.162452220916748,-8.03752613067627
1776038960521340400,-1522133.768659668,1.9725837707519531,-1.5786468982696533,-9.475610733032227
1776038960561562400,-1522133.728437744,1.6801778078079224,-0.48073098063468933,-9.649678230285645
1776038960581734700,-1522133.708265381,1.5664268732070923,-0.17005349695682526,-9.679244995117188
1776038960611947000,-1522133.6780529786,1.444977879524231,0.09836743772029877,-9.69911003112793
1776038960642098400,-1522133.6479016114,1.3013169765472412,0.28299686312675476,-9.715806007385254
1776038960652199700,-1522133.637800293,1.2804250717163086,0.3017383813858032,-9.718017578125
1776038960662240000,-1522133.6277600098,1.2676550149917603,0.3059694468975067,-9.719559669494629
1776038960682381600,-1522133.6076184083,1.248116135597229,0.2740291357040405,-9.723040580749512
1776038960692482800,-1522133.59751709,1.2436001300811768,0.25590017437934875,-9.724112510681152
1776038960702553600,-1522133.5874462891,1.2328718900680542,0.20875732600688934,-9.726603507995605
1776038960712655000,-1522133.5773449708,1.2155319452285767,0.10428542643785477,-9.730466842651367
1776038960722695200,-1522133.5673049316,1.2103227376937866,0.0604524239897728,-9.731489181518555
1776038960732766200,-1522133.5572338868,1.2021020650863647,-0.09981588274240494,-9.732182502746582
1776038960742806300,-1522133.5471938476,1.208677887916565,-0.23031945526599884,-9.729154586791992
1776038960752877000,-1522133.5371230468,1.215513825416565,-0.30478522181510925,-9.726255416870117
1776038960762948000,-1522133.527052002,1.2356407642364502,-0.46359923481941223,-9.717440605163574
1776038960773049300,-1522133.5169506837,1.2743266820907593,-0.7322647571563721,-9.695890426635742
1776038960813363000,-1522133.476636963,1.3765233755111694,-1.5141699314117432,-9.590770721435547
1776038960823433700,-1522133.4665661622,1.4185428619384766,-1.7768723964691162,-9.539436340332031
1776038960833535200,-1522133.4564648438,1.5074656009674072,-2.203227996826172,-9.436300277709961
1776038960843606000,-1522133.446394043,1.53950035572052,-2.351022243499756,-9.39537239074707
1776038960853676800,-1522133.4363232423,1.6118886470794678,-2.655564308166504,-9.301623344421387
1776038960863747600,-1522133.4262524415,1.6827590465545654,-2.971041440963745,-9.193018913269043
1776038960893929500,-1522133.3960705567,1.8845582008361816,-3.965724468231201,-8.768800735473633
1776038960904000300,-1522133.385999756,1.9645711183547974,-4.476240634918213,-8.501420021057129
1776038960914101500,-1522133.3758984376,1.9860066175460815,-4.646718978881836,-8.404413223266602
1776038960924172300,-1522133.3658276368,2.017317771911621,-4.988142013549805,-8.198734283447266
1776038960934212600,-1522133.3557873536,2.0407004356384277,-5.3274126052856445,-7.976501941680908
1776038960944313900,-1522133.3456860352,2.060314655303955,-5.6597981452941895,-7.739004611968994
1776038960954384600,-1522133.3356154785,2.075622081756592,-5.983816623687744,-7.487063407897949
1776038960964455400,-1522133.3255446777,2.082005023956299,-6.456631660461426,-7.081491947174072
1776038960974495700,-1522133.3155041505,2.0732107162475586,-6.605892181396484,-6.945096492767334
1776038961004738800,-1522133.2852612305,1.996353268623352,-7.4471755027771,-6.060078144073486
1776038961014748400,-1522133.275251465,1.954553246498108,-7.6793694496154785,-5.777318954467773
1776038961024850000,-1522133.2651501466,1.882858395576477,-7.868379592895508,-5.5420074462890625
1776038961034951200,-1522133.2550488282,1.7946964502334595,-8.043394088745117,-5.315382480621338
1776038961045022000,-1522133.2449780274,1.7038328647613525,-8.3384428024292,-4.872138023376465
1776038961055092700,-1522133.2349072266,1.6645216941833496,-8.426765441894531,-4.731740474700928
1776038961065194000,-1522133.2248059083,1.5714386701583862,-8.683837890625,-4.2769036293029785
1776038961075264800,-1522133.2147353515,1.539523959159851,-8.759988784790039,-4.13071870803833
1776038961085335600,-1522133.2046645507,1.4730545282363892,-8.96697998046875,-3.686976432800293
1776038961095406600,-1522133.194593506,1.4454425573349,-9.083619117736816,-3.4013140201568604
1776038961115517400,-1522133.174482666,1.4325605630874634,-9.228891372680664,-2.9909417629241943
1776038961125588500,-1522133.1644116212,1.454829454421997,-9.34136962890625,-2.6062779426574707
1776038961135598000,-1522133.1544018555,1.465888261795044,-9.372901916503906,-2.4840047359466553
1776038961145699300,-1522133.1443007812,1.5139073133468628,-9.448993682861328,-2.143594741821289
1776038961155770000,-1522133.1342299804,1.5312366485595703,-9.469813346862793,-2.036745309829712
1776038961165841200,-1522133.1241589356,1.587207317352295,-9.519000053405762,-1.7435036897659302
1776038961175881200,-1522133.1141188964,1.6073917150497437,-9.531814575195312,-1.6526377201080322
1776038961206063000,-1522133.0839370117,1.765567660331726,-9.565855979919434,-1.2440075874328613
1776038961216134000,-1522133.0738662109,1.8305697441101074,-9.564353942871094,-1.1586880683898926
1776038961226205000,-1522133.063795166,1.9026801586151123,-9.556944847106934,-1.1022814512252808
1776038961236275700,-1522133.0537243653,1.9820144176483154,-9.543534278869629,-1.0784093141555786
1776038961246346500,-1522133.0436535645,2.064711093902588,-9.524420738220215,-1.0921508073806763
1776038961256417300,-1522133.0335827637,2.1462364196777344,-9.498906135559082,-1.1553560495376587
1776038961266488000,-1522133.023511963,2.2252955436706543,-9.462052345275879,-1.2992392778396606
1776038961276558800,-1522133.0134411622,2.333348274230957,-9.380152702331543,-1.6548726558685303
1776038961306710300,-1522132.983289795,2.4795074462890625,-9.172839164733887,-2.425177812576294
1776038961326851800,-1522132.9631481934,2.532255172729492,-9.027322769165039,-2.874981164932251
1776038961336892200,-1522132.9531079102,2.5540952682495117,-8.91677474975586,-3.1840426921844482
1776038961346932200,-1522132.943067871,2.5658743381500244,-8.788559913635254,-3.5139565467834473
1776038961357033700,-1522132.9329663087,2.570432424545288,-8.640698432922363,-3.8602583408355713
1776038961367104500,-1522132.922895508,2.577758312225342,-8.469731330871582,-4.21772575378418
1776038961377205800,-1522132.9127941895,2.618436574935913,-8.160258293151855,-4.767007350921631
1776038961387246000,-1522132.9027539063,2.667865514755249,-7.914976119995117,-5.138679504394531
1776038961417428000,-1522132.8725720216,2.837299108505249,-7.193446159362793,-6.031125545501709
1776038961427498800,-1522132.8625012208,2.9260480403900146,-6.862054347991943,-6.365599632263184
1776038961437569500,-1522132.85243042,3.027595281600952,-6.5062432289123535,-6.683776378631592
1776038961447640300,-1522132.8423596192,3.1232869625091553,-6.13446569442749,-6.984538555145264
1776038961457711000,-1522132.8322888184,3.2148702144622803,-5.746454238891602,-7.26727294921875
1776038961467782000,-1522132.8222180177,3.2973434925079346,-5.350421905517578,-7.528006553649902
1776038961477883400,-1522132.8121166993,3.3643407821655273,-4.946037292480469,-7.770991802215576
1776038961487923500,-1522132.80207666,3.4091806411743164,-4.542297840118408,-7.994711875915527
1776038961497994200,-1522132.7920058593,3.4293999671936035,-4.145019054412842,-8.199294090270996
1776038961528206800,-1522132.761793213,3.3420157432556152,-3.0341038703918457,-8.706063270568848
1776038961538247200,-1522132.7517529298,3.2732560634613037,-2.706010580062866,-8.839327812194824
1776038961548318000,-1522132.741682129,3.1935465335845947,-2.3988397121429443,-8.956405639648438
1776038961558388700,-1522132.7316113282,3.1096389293670654,-2.111644983291626,-9.057676315307617
1776038961568459500,-1522132.7215405274,3.028179407119751,-1.8411825895309448,-9.143880844116211
1776038961578560800,-1522132.711439209,2.9533133506774902,-1.5832852125167847,-9.216374397277832
1776038961588631600,-1522132.7013684083,2.8867485523223877,-1.33645498752594,-9.276365280151367
1776038961598702300,-1522132.6912976075,2.8284265995025635,-1.0961811542510986,-9.325705528259277
1776038961618844000,-1522132.671156006,2.734485149383545,-0.6387166976928711,-9.396010398864746
1776038961628914700,-1522132.6610852052,2.698035717010498,-0.41938626766204834,-9.418869018554688
1776038961639016200,-1522132.6509838868,2.66835355758667,-0.2088775783777237,-9.434333801269531
1776038961649087000,-1522132.640913086,2.6445295810699463,-0.014640958048403263,-9.443337440490723
1776038961659157800,-1522132.6308422852,2.622389793395996,0.15680661797523499,-9.448219299316406
1776038961669198000,-1522132.620802002,2.601334571838379,0.2961865961551666,-9.450699806213379
1776038961679268900,-1522132.6107312012,2.5864503383636475,0.3951391279697418,-9.451165199279785
1776038961689309200,-1522132.600690918,2.5811190605163574,0.45555955171585083,-9.44990348815918
1776038961699380000,-1522132.5906201173,2.5844764709472656,0.4912712275981903,-9.447196006774902
1776038961709450800,-1522132.5805493165,2.5941946506500244,0.5085004568099976,-9.443620681762695
1776038961739693600,-1522132.5503063966,2.6161248683929443,0.5327053666114807,-9.436234474182129
1776038961749734000,-1522132.5402661134,2.6113579273223877,0.5430059432983398,-9.436966896057129
1776038961759804700,-1522132.5301953126,2.607978343963623,0.5424696207046509,-9.437932968139648
1776038961769845000,-1522132.5201550294,2.6092584133148193,0.5323975682258606,-9.438152313232422
1776038961779885300,-1522132.5101147462,2.6158499717712402,0.5136746168136597,-9.43736457824707
1776038961789956000,-1522132.5000439454,2.62705135345459,0.487527072429657,-9.435640335083008
1776038961800057300,-1522132.489942627,2.6358606815338135,0.45777666568756104,-9.434674263000488
1776038961810128100,-1522132.4798718262,2.645796775817871,0.4210008680820465,-9.433605194091797
1776038961820260000,-1522132.4697399903,2.6556975841522217,0.3774981200695038,-9.43266487121582
1776038961830300200,-1522132.459699951,2.665408134460449,0.32559946179389954,-9.431859970092773
1776038961860482000,-1522132.4295180663,2.673257827758789,0.1250438541173935,-9.434428215026855
1776038961870552800,-1522132.4194472656,2.668799638748169,0.03872165456414223,-9.436440467834473
1776038961880623900,-1522132.4093762208,2.6603193283081055,-0.06138795241713524,-9.438714027404785
1776038961890664000,-1522132.3993361816,2.646883487701416,-0.17774872481822968,-9.441018104553223
1776038961900734700,-1522132.3892653808,2.6287622451782227,-0.31381869316101074,-9.442537307739258
1776038961910805800,-1522132.379194336,2.6071131229400635,-0.47728317975997925,-9.441692352294922
1776038961920876500,-1522132.3691235352,2.584207534790039,-0.6714460253715515,-9.436175346374512
1776038961941018000,-1522132.3489819337,2.5279016494750977,-1.1482641696929932,-9.405401229858398
1776038961951089000,-1522132.338911133,2.493818759918213,-1.4179221391677856,-9.37767219543457
1776038961961159700,-1522132.328840332,2.456631660461426,-1.6975969076156616,-9.340959548950195
1776038961971230500,-1522132.3187695313,2.4201719760894775,-1.9883285760879517,-9.292991638183594
1776038961981270800,-1522132.3087292481,2.3708577156066895,-2.4493672847747803,-9.195109367370605
1776038961991311000,-1522132.298688965,2.3365960121154785,-2.7710089683532715,-9.112202644348145
1776038962001382000,-1522132.2886181641,2.3179759979248047,-2.9351611137390137,-9.065441131591797
1776038962011452700,-1522132.2785473634,2.28305721282959,-3.268897771835327,-8.95948314666748
1776038962021554000,-1522132.268446045,2.235203504562378,-3.780200958251953,-8.768372535705566
1776038962051735800,-1522132.2382641602,2.152937889099121,-4.65358829498291,-8.35938835144043
1776038962061837000,-1522132.2281628419,2.1002941131591797,-5.1792311668396,-8.058207511901855
1776038962071877400,-1522132.2181225587,2.0812745094299316,-5.348351001739502,-7.951971054077148
1776038962081948200,-1522132.208051758,2.056833267211914,-5.830378532409668,-7.6122612953186035
1776038962092019000,-1522132.197980957,2.0493991374969482,-5.978996753692627,-7.498130798339844
1776038962102120400,-1522132.1878796387,2.050933599472046,-6.267655372619629,-7.258138656616211
1776038962112160500,-1522132.1778395995,2.0550761222839355,-6.539229393005371,-7.013240814208984
1776038962122231300,-1522132.1677687988,2.065493106842041,-6.924022197723389,-6.630387783050537
1776038962132302300,-1522132.157697754,2.0491342544555664,-7.023646831512451,-6.529918193817139
1776038962142434000,-1522132.147565918,2.0207273960113525,-7.213076591491699,-6.329183101654053
1776038962152504800,-1522132.1374951173,1.9967288970947266,-7.390069007873535,-6.129465579986572
1776038962162606000,-1522132.127393799,1.9984893798828125,-7.58622407913208,-5.884354591369629
1776038962172646400,-1522132.1173535157,2.0110862255096436,-7.780525207519531,-5.6204400062561035
1776038962182717200,-1522132.107282715,2.0365350246429443,-8.056256294250488,-5.207653045654297
1776038962192788000,-1522132.0972119141,2.041409969329834,-8.138806343078613,-5.075714588165283
1776038962202889500,-1522132.0871105958,2.0516741275787354,-8.380671501159668,-4.661045551300049
1776038962212899000,-1522132.0771008302,2.0471596717834473,-8.525752067565918,-4.392161846160889
1776038962223000600,-1522132.0669995118,2.036257028579712,-8.661027908325195,-4.124398231506348
1776038962233040600,-1522132.0569594726,2.022775650024414,-8.783843994140625,-3.8630120754241943
1776038962263253200,-1522132.0267468262,1.9986332654953003,-9.035531044006348,-3.2457711696624756
1776038962273324000,-1522132.0166760255,1.9955165386199951,-9.112658500671387,-3.0245261192321777
1776038962283394800,-1522132.0066052247,1.9955521821975708,-9.177838325500488,-2.8205413818359375
1776038962293435100,-1522131.9965649415,2.002270460128784,-9.231290817260742,-2.6352601051330566
1776038962303536400,-1522131.9864636231,2.0449650287628174,-9.289449691772461,-2.3863461017608643
1776038962313576700,-1522131.97642334,2.066558361053467,-9.303918838500977,-2.310152530670166
1776038962323617000,-1522131.9663830567,2.1772453784942627,-9.324950218200684,-2.115492343902588
1776038962333687800,-1522131.956312256,2.2762880325317383,-9.325085639953613,-2.007908821105957
1776038962343758600,-1522131.9462414552,2.386108160018921,-9.316635131835938,-1.9175962209701538
1776038962363930600,-1522131.926069336,2.5467724800109863,-9.294305801391602,-1.8166531324386597
1776038962373909800,-1522131.916090332,2.6317315101623535,-9.277444839477539,-1.7814087867736816
1776038962383980800,-1522131.9060192872,2.6904146671295166,-9.263050079345703,-1.7686036825180054
1776038962394051600,-1522131.8959484864,2.7228827476501465,-9.25160026550293,-1.7788225412368774
1776038962404122400,-1522131.8858776856,2.728266954421997,-9.242815017700195,-1.815853238105774
1776038962414132000,-1522131.87586792,2.678894281387329,-9.235300064086914,-1.9243571758270264
1776038962424233500,-1522131.8657666016,2.615499258041382,-9.228869438171387,-2.0390026569366455
1776038962434273500,-1522131.8557265624,2.5332021713256836,-9.19104290008545,-2.2973947525024414
1776038962444375000,-1522131.845625,2.4840400218963623,-9.177331924438477,-2.4034392833709717
1776038962474526500,-1522131.815473633,2.1372551918029785,-9.033905029296875,-3.1608707904815674
1776038962494576400,-1522131.795423584,2.0590531826019287,-8.887207984924316,-3.598365068435669
1776038962504677600,-1522131.7853222657,2.0391669273376465,-8.759210586547852,-3.9100430011749268
1776038962514748400,-1522131.775251465,2.027381658554077,-8.531532287597656,-4.390111446380615
1776038962524819200,-1522131.7651809081,2.0266244411468506,-8.351367950439453,-4.724174499511719
1776038962534859500,-1522131.755140381,2.0279364585876465,-8.250733375549316,-4.897271156311035
1776038962544961000,-1522131.7450390626,2.0563621520996094,-7.920807361602783,-5.4039435386657715
1776038962565133000,-1522131.7248669434,2.1134283542633057,-7.533786296844482,-5.911503314971924
1776038962575173400,-1522131.7148266602,2.191286087036133,-7.105213165283203,-6.394109725952148
1776038962595345400,-1522131.694654541,2.2771921157836914,-6.630140781402588,-6.857550144195557
1776038962605416200,-1522131.6845837403,2.335444927215576,-6.297178745269775,-7.145742893218994
1776038962615456500,-1522131.674543457,2.392378091812134,-5.953014850616455,-7.416772842407227
1776038962625557800,-1522131.6644421387,2.471259832382202,-5.4260029792785645,-7.7859978675842285
1776038962635598000,-1522131.6544018555,2.494204044342041,-5.245323657989502,-7.901639461517334
1776038962645668900,-1522131.6443310548,2.5507946014404297,-4.713305950164795,-8.212709426879883
1776038962665780000,-1522131.6242199708,2.5843746662139893,-4.186000823974609,-8.483443260192871
1776038962675820300,-1522131.6141796876,2.6003408432006836,-3.6779232025146484,-8.71099853515625
1776038962685891000,-1522131.6041088868,2.6012117862701416,-3.3527626991271973,-8.840989112854004
1776038962695931400,-1522131.5940686036,2.59875750541687,-3.1970126628875732,-8.899211883544922
1776038962706032600,-1522131.5839672852,2.5867233276367188,-2.747544050216675,-9.051533699035645
1776038962716073000,-1522131.573927002,2.5810599327087402,-2.610363483428955,-9.093653678894043
1776038962726174200,-1522131.5638256837,2.564249038696289,-2.2156124114990234,-9.20250415802002
1776038962736184000,-1522131.553815918,2.5542869567871094,-1.9857205152511597,-9.257587432861328
1776038962746285300,-1522131.5437145997,2.548787832260132,-1.8923455476760864,-9.278637886047363
1776038962776467200,-1522131.513532715,2.5214147567749023,-1.4431781768798828,-9.366434097290039
1776038962786538000,-1522131.5034619141,2.507380247116089,-1.3687975406646729,-9.381355285644531
1776038962796608800,-1522131.4933911134,2.497567892074585,-1.3390820026397705,-9.388259887695312
1776038962806710300,-1522131.483289795,2.497401475906372,-1.3846063613891602,-9.381695747375488
1776038962816750300,-1522131.4732497558,2.489797830581665,-1.366073727607727,-9.386433601379395
1776038962826790700,-1522131.4632092286,2.487652063369751,-1.4441741704940796,-9.375304222106934
1776038962836831000,-1522131.4531689454,2.475660562515259,-1.4716732501983643,-9.374201774597168
1776038962846901800,-1522131.4430981446,2.465409278869629,-1.581594705581665,-9.358989715576172
1776038962877114000,-1522131.4128859863,2.464059591293335,-2.0956497192382812,-9.257810592651367
1776038962887215600,-1522131.402784424,2.4655699729919434,-2.2397544384002686,-9.223603248596191
1776038962897256000,-1522131.3927441407,2.4659178256988525,-2.3276283740997314,-9.201726913452148
1776038962907357200,-1522131.3826428223,2.4669313430786133,-2.390911102294922,-9.185215950012207
1776038962917428000,-1522131.3725720216,2.4705910682678223,-2.452420711517334,-9.167998313903809
1776038962927498800,-1522131.3625012208,2.4774739742279053,-2.499168872833252,-9.153505325317383
1776038962937569500,-1522131.35243042,2.4796102046966553,-2.5251574516296387,-9.145791053771973
1776038962947640300,-1522131.3423596192,2.484314441680908,-2.5343387126922607,-9.141974449157715
1776038962977883400,-1522131.3121166993,2.5020437240600586,-2.524277687072754,-9.139923095703125
1776038962998055400,-1522131.2919445802,2.524508476257324,-2.502424478530884,-9.139755249023438
1776038963008156700,-1522131.2818432618,2.5270402431488037,-2.5050063133239746,-9.138348579406738
1776038963018227500,-1522131.271772461,2.528024435043335,-2.513418436050415,-9.13576602935791
1776038963028328700,-1522131.2616713867,2.515902042388916,-2.5403106212615967,-9.131671905517578
1776038963038399700,-1522131.2516003419,2.5126187801361084,-2.5593998432159424,-9.127245903015137
1776038963048470500,-1522131.241529541,2.502833843231201,-2.6135005950927734,-9.114594459533691
1776038963078683000,-1522131.2113171387,2.45534610748291,-2.8103058338165283,-9.068840026855469
1776038963088723200,-1522131.2012768555,2.4276440143585205,-2.899822473526001,-9.048090934753418
1776038963098763500,-1522131.1912365723,2.3983185291290283,-3.0012295246124268,-9.022809028625488
1776038963108834300,-1522131.1811657716,2.3694050312042236,-3.115445137023926,-8.991680145263672
1776038963118905000,-1522131.1710949708,2.34226393699646,-3.241272211074829,-8.954235076904297
1776038963129006300,-1522131.1609936524,2.3026771545410156,-3.4563589096069336,-8.883785247802734
1776038963139046700,-1522131.1509533692,2.2753841876983643,-3.614790916442871,-8.827588081359863
1776038963149117400,-1522131.1408825684,2.2473926544189453,-3.7874021530151367,-8.76214599609375
1776038963159188200,-1522131.1308117677,2.218191623687744,-3.9744791984558105,-8.686399459838867
1776038963209420000,-1522131.080580078,2.0243208408355713,-4.952884197235107,-8.218360900878906
1776038963219460400,-1522131.0705395509,1.9787083864212036,-5.189969539642334,-8.082036018371582
1776038963229561900,-1522131.0604382325,1.9438556432724,-5.430442810058594,-7.931086540222168
1776038963239632600,-1522131.0503674317,1.924658179283142,-5.78763484954834,-7.679152488708496
1776038963249703400,-1522131.040296631,1.92529296875,-6.0226054191589355,-7.49612283706665
1776038963259743700,-1522131.0302563477,1.92622971534729,-6.135112762451172,-7.404083728790283
1776038963269814500,-1522131.020185547,1.9472750425338745,-6.485138416290283,-7.093764781951904
1776038963299996400,-1522130.9900036622,1.9786961078643799,-7.036416530609131,-6.5378875732421875
1776038963320107500,-1522130.9698925782,1.9962445497512817,-7.445785999298096,-6.061820983886719
1776038963330178300,-1522130.9598217774,1.9869974851608276,-7.738668918609619,-5.686408519744873
1776038963340218400,-1522130.9497817382,1.9463587999343872,-7.91327428817749,-5.455470085144043
1776038963350319900,-1522130.9396801759,1.8600059747695923,-8.062884330749512,-5.263141632080078
1776038963360360200,-1522130.9296398927,1.7692776918411255,-8.091477394104004,-5.250528812408447
1776038963370461400,-1522130.9195385743,1.6356890201568604,-8.352548599243164,-4.8713274002075195
1776038963410683600,-1522130.8793164063,1.3139104843139648,-8.89505672454834,-3.9143316745758057
1776038963430794800,-1522130.8592053223,1.186109185218811,-9.135441780090332,-3.3626296520233154
1776038963440834800,-1522130.8491652831,1.1423174142837524,-9.235493659973145,-3.09372878074646
1776038963450905900,-1522130.8390942384,1.112218976020813,-9.322834014892578,-2.8316285610198975
1776038963460976600,-1522130.8290234376,1.0965216159820557,-9.39787483215332,-2.5783724784851074
1776038963471047400,-1522130.8189526368,1.0931336879730225,-9.462066650390625,-2.333406686782837
1776038963481118200,-1522130.808881836,1.0987968444824219,-9.51590633392334,-2.100132465362549
1776038963511300000,-1522130.7786999512,1.145557165145874,-9.639873504638672,-1.3895751237869263
1776038963521371000,-1522130.7686291505,1.1578078269958496,-9.650729179382324,-1.3012726306915283
1776038963531441700,-1522130.7585583497,1.1908206939697266,-9.667020797729492,-1.1406316757202148
1776038963541512400,-1522130.748487549,1.2278540134429932,-9.678427696228027,-0.9953882098197937
1776038963551613700,-1522130.7383862305,1.2657508850097656,-9.691222190856934,-0.8052820563316345
1776038963561684500,-1522130.7283154298,1.2733139991760254,-9.69484806060791,-0.7476555109024048
1776038963571755300,-1522130.718244629,1.272363543510437,-9.701997756958008,-0.6501762866973877
1776038963581826000,-1522130.7081740722,1.2590055465698242,-9.708511352539062,-0.5745561122894287
1776038963601937200,-1522130.6880627442,1.2146306037902832,-9.718563079833984,-0.49458152055740356
1776038963622078700,-1522130.6679213867,1.1645303964614868,-9.723188400268555,-0.5233142971992493
1776038963632149500,-1522130.6578505859,1.1419020891189575,-9.722002029418945,-0.5908619165420532
1776038963642189800,-1522130.6478100587,1.1266355514526367,-9.711627006530762,-0.7651137113571167
1776038963652260600,-1522130.637739502,1.1033531427383423,-9.702160835266113,-0.9061273336410522
1776038963662331400,-1522130.627668701,1.0743407011032104,-9.689631462097168,-1.0617012977600098
1776038963672402400,-1522130.6175976563,1.0379396677017212,-9.672322273254395,-1.2406588792800903
1776038963682473200,-1522130.6075268555,0.9937298893928528,-9.634600639343262,-1.5353745222091675
1776038963702614800,-1522130.587385254,0.950057327747345,-9.56662368774414,-1.9358482360839844
1776038963722756400,-1522130.5672436524,0.9149571061134338,-9.431638717651367,-2.525359630584717
1776038963732827100,-1522130.5571728516,0.9033695459365845,-9.338594436645508,-2.8539366722106934
1776038963742928400,-1522130.5470715333,0.9012056589126587,-9.226593971252441,-3.198155164718628
1776038963752999200,-1522130.5370007325,0.9305726289749146,-9.02325439453125,-3.726306915283203
1776038963763039500,-1522130.5269604493,0.9685487151145935,-8.859847068786621,-4.090895652770996
1776038963773110300,-1522130.5168896485,1.0232783555984497,-8.675575256347656,-4.456193447113037
1776038963783211500,-1522130.5067885742,1.094860315322876,-8.470537185668945,-4.818886756896973
1776038963793313000,-1522130.4966870118,1.1355571746826172,-8.357879638671875,-5.002674102783203
1776038963803383800,-1522130.486616211,1.2332417964935303,-8.123689651489258,-5.353055000305176
1776038963823525400,-1522130.4664746094,1.4845789670944214,-7.594178676605225,-6.024522304534912
1776038963833596200,-1522130.4564038087,1.63332200050354,-7.29949426651001,-6.341928958892822
1776038963843636500,-1522130.4463635255,1.7882474660873413,-6.987405300140381,-6.6444525718688965
1776038963853737700,-1522130.436262207,2.0141923427581787,-6.4942708015441895,-7.066673278808594
1776038963863839000,-1522130.4261611328,2.1467666625976562,-6.152336597442627,-7.328747749328613
1776038963873940500,-1522130.4160595704,2.258864402770996,-5.807238578796387,-7.57257604598999
1776038963883980800,-1522130.4060192872,2.347165107727051,-5.464783668518066,-7.797265529632568
1776038963893990400,-1522130.3960095216,2.412141799926758,-5.127779006958008,-8.003615379333496
1776038963924233500,-1522130.3657666016,2.4754858016967773,-4.322733402252197,-8.447266578674316
1776038963944405500,-1522130.3455944825,2.4389808177948,-3.7603445053100586,-8.7224760055542
1776038963954476300,-1522130.3355236817,2.3999722003936768,-3.515002965927124,-8.834888458251953
1776038963964516600,-1522130.3254833985,2.3328018188476562,-3.1830506324768066,-8.97756290435791
1776038963974557000,-1522130.3154431153,2.28281569480896,-3.005333662033081,-9.051361083984375
1776038963984627700,-1522130.3053723145,2.2304859161376953,-2.857973098754883,-9.111932754516602
1776038963994729000,-1522130.2952709962,2.1776883602142334,-2.7355992794036865,-9.162125587463379
1776038964024941300,-1522130.2650585938,2.041234016418457,-2.4675846099853516,-9.269021987915039
1776038964045083000,-1522130.2449172363,1.9519834518432617,-2.2649130821228027,-9.339716911315918
1776038964055153700,-1522130.2348464355,1.921038269996643,-2.1873438358306885,-9.364588737487793
1776038964065255200,-1522130.2247448731,1.9015285968780518,-2.121375799179077,-9.383727073669434
1776038964075356400,-1522130.2146435548,1.891054630279541,-2.0634472370147705,-9.398749351501465
1776038964085396700,-1522130.2046032716,1.8798516988754272,-2.007906436920166,-9.413016319274902
1776038964095437000,-1522130.1945629884,1.8472645282745361,-1.9131500720977783,-9.439167022705078
1776038964105507800,-1522130.1844921876,1.8312550783157349,-1.8664442300796509,-9.451627731323242
1776038964145699300,-1522130.1443007812,1.8239105939865112,-1.7703357934951782,-9.471517562866211
1776038964165841200,-1522130.1241589356,1.8233827352523804,-1.7343363761901855,-9.478276252746582
1776038964175912000,-1522130.1140881348,1.8252432346343994,-1.7227734327316284,-9.480027198791504
1776038964185952000,-1522130.1040480956,1.8310511112213135,-1.7294914722442627,-9.47768497467041
1776038964196023000,-1522130.0939770509,1.8412609100341797,-1.737703800201416,-9.474204063415527
1776038964206093800,-1522130.08390625,1.8534505367279053,-1.7512093782424927,-9.469338417053223
1776038964236245000,-1522130.053755127,1.9013912677764893,-1.8275814056396484,-9.4453706741333
1776038964246285300,-1522130.0437145997,1.9095927476882935,-1.8656716346740723,-9.436266899108887
1776038964266427000,-1522130.0235729981,1.9312329292297363,-1.9685015678405762,-9.410937309265137
1776038964276528400,-1522130.0134716798,1.9731513261795044,-2.080660104751587,-9.378055572509766
1776038964286599200,-1522130.003400879,2.0136640071868896,-2.1738576889038086,-9.348257064819336
1776038964296670000,-1522129.9933300782,2.0632483959198,-2.28430438041687,-9.311034202575684
1776038964316750300,-1522129.9732497558,2.149024486541748,-2.486393451690674,-9.239584922790527
1776038964357033700,-1522129.9329663087,2.33594012260437,-3.3161890506744385,-8.928418159484863
1776038964377175300,-1522129.912824707,2.3870933055877686,-3.85300350189209,-8.696353912353516
1776038964387215600,-1522129.902784424,2.412480354309082,-4.136727809906006,-8.55790901184082
1776038964397256000,-1522129.8927441407,2.437582015991211,-4.4301838874816895,-8.40250301361084
1776038964407326700,-1522129.88267334,2.459174871444702,-4.732335567474365,-8.229693412780762
1776038964417397500,-1522129.8726025391,2.4755477905273438,-5.041738510131836,-8.038838386535645
1776038964427468300,-1522129.8625317384,2.4870290756225586,-5.353226184844971,-7.831222057342529
1776038964447579400,-1522129.8424206544,2.4961299896240234,-5.968799114227295,-7.369745254516602
1776038964457650200,-1522129.8323498536,2.486363172531128,-6.420275688171387,-6.98344087600708
1776038964467721000,-1522129.8222790528,2.474334716796875,-6.5607099533081055,-6.856029033660889
1776038964477791700,-1522129.812208252,2.441804885864258,-6.843958854675293,-6.585453987121582
1776038964487832000,-1522129.8021679688,2.359262704849243,-7.254923343658447,-6.162008762359619
1776038964497902800,-1522129.792097168,2.303846836090088,-7.373791694641113,-6.040683746337891
1776038964507943200,-1522129.7820568848,2.1981072425842285,-7.607788562774658,-5.784485816955566
1776038964518014000,-1522129.771986084,2.066955089569092,-7.806422233581543,-5.563979625701904
1776038964528084700,-1522129.7619152833,1.9160338640213013,-7.967435836791992,-5.38694429397583
1776038964558297000,-1522129.731702881,1.656883716583252,-8.517806053161621,-4.568600654602051
1776038964568367900,-1522129.7216320802,1.578457236289978,-8.681012153625488,-4.280061721801758
1776038964578438700,-1522129.7115612794,1.4987454414367676,-8.8342924118042,-3.9849002361297607
1776038964588509400,-1522129.7014904786,1.4174290895462036,-8.976069450378418,-3.686663866043091
1776038964598610700,-1522129.6913894042,1.3359349966049194,-9.10522747039795,-3.388288736343384
1776038964608681700,-1522129.6813183594,1.2207316160202026,-9.271801948547363,-2.9519259929656982
1776038964618783000,-1522129.671217041,1.1479194164276123,-9.366128921508789,-2.669886827468872
1776038964628853800,-1522129.6611462403,1.1124480962753296,-9.408599853515625,-2.532015323638916
1776038964659096600,-1522129.6309033204,0.9705842733383179,-9.596487998962402,-1.7708128690719604
1776038964669137000,-1522129.6208630372,0.9610989689826965,-9.635995864868164,-1.547343134880066
1776038964679177200,-1522129.610822754,0.9717842936515808,-9.66517448425293,-1.345531702041626
1776038964689248000,-1522129.6007519532,0.998884916305542,-9.685616493225098,-1.1668146848678589
1776038964699288300,-1522129.59071167,1.0569438934326172,-9.703214645385742,-0.9491621255874634
1776038964709359000,-1522129.5806408692,1.1001663208007812,-9.70877742767334,-0.836463987827301
1776038964719460400,-1522129.5705395509,1.1224346160888672,-9.710338592529297,-0.787308931350708
1776038964729531100,-1522129.56046875,1.1871548891067505,-9.70898151397705,-0.7047972083091736
1776038964759804700,-1522129.5301953126,1.292396903038025,-9.6907377243042,-0.767916202545166
1776038964779946200,-1522129.510053711,1.3286384344100952,-9.672143936157227,-0.9245391488075256
1776038964790017000,-1522129.4999829102,1.358948826789856,-9.639904022216797,-1.1814842224121094
1776038964800087800,-1522129.4899121094,1.3781051635742188,-9.617058753967285,-1.3354533910751343
1776038964810158600,-1522129.4798413087,1.4172148704528809,-9.559183120727539,-1.6685177087783813
1776038964820260000,-1522129.4697399903,1.467739224433899,-9.493762969970703,-1.9709362983703613
1776038964830300200,-1522129.459699951,1.5765914916992188,-9.360103607177734,-2.4643936157226562
1776038964840371000,-1522129.4496291503,1.6578797101974487,-9.240406036376953,-2.834914207458496
1776038964880654300,-1522129.4093457032,1.8989670276641846,-8.593504905700684,-4.326199054718018
1776038964890694700,-1522129.39930542,1.9458286762237549,-8.337563514709473,-4.782173156738281
1776038964900765400,-1522129.3892346192,1.9826345443725586,-8.047672271728516,-5.2416157722473145
1776038964910836200,-1522129.3791638184,2.028264045715332,-7.557250499725342,-5.911386966705322
1776038964920876500,-1522129.3691235352,2.0426652431488037,-7.379361152648926,-6.127228736877441
1776038964930947300,-1522129.3590527344,2.0928430557250977,-6.813380241394043,-6.735595703125
1776038964941018000,-1522129.3489819337,2.125168561935425,-6.413527011871338,-7.107793807983398
1776038964951089000,-1522129.338911133,2.151991605758667,-6.0063276290893555,-7.4473724365234375
1776038964991402500,-1522129.2985974122,2.213534116744995,-4.616523742675781,-8.364112854003906
1776038965001504000,-1522129.2884960938,2.2408249378204346,-4.083792686462402,-8.629701614379883
1776038965011544000,-1522129.2784560546,2.247925043106079,-3.9147965908050537,-8.705838203430176
1776038965021645600,-1522129.2683544923,2.2579450607299805,-3.6006081104278564,-8.837854385375977
1776038965031716400,-1522129.2582836915,2.257205009460449,-3.318185329437256,-8.947908401489258
1776038965041787100,-1522129.2482128907,2.2441654205322266,-3.069347381591797,-9.03953742980957
1776038965051796700,-1522129.238203369,2.222317695617676,-2.857367515563965,-9.114116668701172
1776038965092080000,-1522129.197919922,2.0897598266601562,-2.398874521255493,-9.276244163513184
1776038965102151000,-1522129.1878491212,2.052147150039673,-2.3373801708221436,-9.300308227539062
1776038965112221700,-1522129.1777783204,1.9885751008987427,-2.255401611328125,-9.334298133850098
1776038965122323000,-1522129.167677002,1.9673283100128174,-2.2422244548797607,-9.341971397399902
1776038965132332800,-1522129.1576672364,1.921497106552124,-2.2115426063537598,-9.358809471130371
1776038965142434000,-1522129.147565918,1.8735902309417725,-2.1917076110839844,-9.373178482055664
1776038965152444000,-1522129.1375561524,1.8241373300552368,-2.1826024055480957,-9.385050773620605
1776038965182686700,-1522129.1073132325,1.6526579856872559,-2.210245132446289,-9.410308837890625
1776038965192757500,-1522129.0972424317,1.6411106586456299,-2.2496860027313232,-9.402981758117676
1776038965202858800,-1522129.0871413574,1.6123790740966797,-2.2976367473602295,-9.396355628967285
1776038965212899000,-1522129.0771008302,1.5878777503967285,-2.3426787853240967,-9.389403343200684
1776038965222939400,-1522129.067060547,1.5633032321929932,-2.37359881401062,-9.385759353637695
1776038965232979700,-1522129.0570202637,1.540810227394104,-2.390183925628662,-9.385271072387695
1776038965243050500,-1522129.046949463,1.5231956243515015,-2.3965775966644287,-9.386516571044922
1776038965253121300,-1522129.0368786622,1.5129600763320923,-2.402557611465454,-9.386642456054688
1776038965263192000,-1522129.0268078614,1.510690450668335,-2.4157114028930664,-9.38363265991211
1776038965293313000,-1522128.9966870118,1.5636446475982666,-2.559849739074707,-9.336625099182129
1776038965313424100,-1522128.9765759278,1.579567551612854,-2.578397512435913,-9.328838348388672
1776038965333535200,-1522128.9564648438,1.601414680480957,-2.585901975631714,-9.32303524017334
1776038965343606000,-1522128.946394043,1.6129642724990845,-2.594621181488037,-9.318619728088379
1776038965353676800,-1522128.9363232423,1.6208547353744507,-2.6131367683410645,-9.3120756149292
1776038965363747600,-1522128.9262524415,1.6265467405319214,-2.641730308532715,-9.303009033203125
1776038965373788000,-1522128.9162121583,1.6322137117385864,-2.6807453632354736,-9.290848731994629
1776038965393960000,-1522128.8960400391,1.6359586715698242,-2.800079345703125,-9.254921913146973
1776038965404030700,-1522128.8859692384,1.6304607391357422,-2.8840603828430176,-9.230069160461426
1776038965414040600,-1522128.8759594727,1.6106401681900024,-3.0368571281433105,-9.184429168701172
1776038965424111400,-1522128.865888672,1.6028350591659546,-3.0937747955322266,-9.166781425476074
1776038965434151700,-1522128.8558483887,1.5775614976882935,-3.281599521636963,-9.105647087097168
1776038965444253000,-1522128.8457470704,1.563058853149414,-3.4187681674957275,-9.0575532913208
1776038965454293200,-1522128.8357067872,1.5529332160949707,-3.561358690261841,-9.004194259643555
1776038965464394500,-1522128.8256054688,1.5487486124038696,-3.7098255157470703,-8.94477367401123
1776038965474434800,-1522128.8155651856,1.552995204925537,-3.8612377643585205,-8.879721641540527
1776038965514626600,-1522128.7753735352,1.6658897399902344,-4.4347758293151855,-8.586501121520996
1776038965524727800,-1522128.7652722169,1.7461557388305664,-4.727813243865967,-8.412440299987793
1776038965534768000,-1522128.7552319337,1.7702058553695679,-4.829623699188232,-8.34934139251709
1776038965544808400,-1522128.7451916505,1.8073499202728271,-5.052913188934326,-8.208040237426758
1776038965554879200,-1522128.7351208497,1.8291624784469604,-5.293640613555908,-8.049962997436523
1776038965564980500,-1522128.7250195313,1.8451380729675293,-5.683193683624268,-7.776063919067383
1776038965575020800,-1522128.7149792481,1.8467597961425781,-5.811643600463867,-7.680146217346191
1776038965605263600,-1522128.6847363282,1.8801251649856567,-6.593660354614258,-7.011359691619873
1776038965615304000,-1522128.674696045,1.8973089456558228,-6.842054843902588,-6.764383792877197
1776038965655556600,-1522128.6344433594,2.019817352294922,-7.828537940979004,-5.550201416015625
1776038965665657900,-1522128.624342041,2.018101215362549,-7.902071952819824,-5.445631504058838
1776038965675728600,-1522128.6142712403,1.9980536699295044,-8.028397560119629,-5.265265941619873
1776038965685799400,-1522128.6042006835,2.0036933422088623,-8.177129745483398,-5.028931617736816
1776038965705880000,-1522128.5841198731,2.036166191101074,-8.488753318786621,-4.468276500701904
1776038965715950800,-1522128.5740490723,2.0426533222198486,-8.633737564086914,-4.178102493286133
1776038965726052000,-1522128.563947998,2.039080858230591,-8.767806053161621,-3.890773057937622
1776038965736123100,-1522128.5538769532,2.0264453887939453,-8.889778137207031,-3.6105093955993652
1776038965746194000,-1522128.5438061524,2.0038363933563232,-9.001215934753418,-3.336635112762451
1776038965756234000,-1522128.5337661132,1.9515753984451294,-9.151702880859375,-2.933957815170288
1776038965766305000,-1522128.5236950684,1.9298326969146729,-9.197394371032715,-2.802513599395752
1776038965776345000,-1522128.5136550292,1.8871073722839355,-9.28048324584961,-2.5459482669830322
1776038965786415900,-1522128.5035842285,1.8467168807983398,-9.35246753692627,-2.300299644470215
1776038965806527000,-1522128.4834731445,1.7533100843429565,-9.4893217086792,-1.7461557388305664
1776038965826607600,-1522128.463392334,1.7012287378311157,-9.547562599182129,-1.456116795539856
1776038965836678400,-1522128.4533215333,1.6793076992034912,-9.575960159301758,-1.2850375175476074
1776038965846749200,-1522128.4432507325,1.6734150648117065,-9.596097946166992,-1.133574366569519
1776038965856789500,-1522128.4332104493,1.683718204498291,-9.608846664428711,-1.0027797222137451
1776038965866890800,-1522128.423109131,1.7073826789855957,-9.615410804748535,-0.8939315676689148
1776038965876961500,-1522128.4130385742,1.7393940687179565,-9.617237091064453,-0.8084972500801086
1776038965887063000,-1522128.4029370118,1.7752914428710938,-9.615638732910156,-0.7471426129341125
1776038965897103400,-1522128.3928967286,1.8283549547195435,-9.608720779418945,-0.7071066498756409
1776038965917245000,-1522128.372755127,1.8944144248962402,-9.592828750610352,-0.7478320598602295
1776038965937386500,-1522128.3526135255,1.937363624572754,-9.575169563293457,-0.8562477231025696
1776038965947457300,-1522128.3425427247,1.9580698013305664,-9.559654235839844,-0.9743649959564209
1776038965957528000,-1522128.332471924,1.971868872642517,-9.539559364318848,-1.1308960914611816
1776038965967568400,-1522128.3224316407,1.9880306720733643,-9.494372367858887,-1.4404852390289307
1776038965977639200,-1522128.31236084,1.9758458137512207,-9.437723159790039,-1.7876814603805542
1776038965987710000,-1522128.3022900391,1.9800413846969604,-9.407448768615723,-1.9364193677902222
1776038965997780700,-1522128.2922192384,2.031158447265625,-9.30621337890625,-2.332205295562744
1776038966017922300,-1522128.2720776368,2.1151535511016846,-9.113945007324219,-2.938114643096924
1776038966038063900,-1522128.2519360352,2.1677000522613525,-8.922056198120117,-3.445051908493042
1776038966048134700,-1522128.2418652344,2.185763359069824,-8.77250862121582,-3.7994630336761475
1776038966058205400,-1522128.2317946777,2.1670937538146973,-8.50558090209961,-4.373693466186523
1776038966068307000,-1522128.2216931153,2.146127462387085,-8.401872634887695,-4.57963752746582
1776038966078377700,-1522128.2116223145,2.0848641395568848,-8.065047264099121,-5.174816608428955
1776038966088448500,-1522128.2015515137,2.0607032775878906,-7.939887523651123,-5.374207019805908
1776038966098488800,-1522128.1915112305,2.012535810470581,-7.6711039543151855,-5.7683820724487305
1776038966118630400,-1522128.171369629,1.9210485219955444,-6.913329124450684,-6.684746742248535
1776038966138741500,-1522128.151258545,1.8873151540756226,-6.419998645782471,-7.168825626373291
1776038966148842800,-1522128.1411572266,1.8785618543624878,-6.083459377288818,-7.458750247955322
1776038966158883000,-1522128.1311169434,1.883206844329834,-5.751209735870361,-7.716704845428467
1776038966168953900,-1522128.1210461427,1.8996648788452148,-5.423632621765137,-7.946438789367676
1776038966178994200,-1522128.1110058594,1.9242089986801147,-5.108275413513184,-8.146985054016113
1776038966189065000,-1522128.1009350587,1.9532512426376343,-4.803573131561279,-8.32351303100586
1776038966199135700,-1522128.090864258,1.9818141460418701,-4.516446590423584,-8.476116180419922
1776038966209237000,-1522128.0807629395,2.006253719329834,-4.248092174530029,-8.608081817626953
1776038966219277300,-1522128.0707226563,2.022341728210449,-4.004106044769287,-8.720532417297363
1776038966239419000,-1522128.0505810548,2.0305471420288086,-3.5996932983398438,-8.893226623535156
1776038966249489700,-1522128.040510254,2.0283243656158447,-3.4688241481781006,-8.945589065551758
1776038966259530000,-1522128.0304699708,2.016242265701294,-3.3423912525177,-8.996310234069824
1776038966279641000,-1522128.0103588868,1.957332968711853,-3.1360886096954346,-9.083181381225586
1776038966289711900,-1522128.000288086,1.9140222072601318,-3.060762882232666,-9.118040084838867
1776038966299752200,-1522127.9902478028,1.8642572164535522,-3.0003902912139893,-9.148365020751953
1776038966309823000,-1522127.980177002,1.8114362955093384,-2.9540045261383057,-9.174036026000977
1776038966329995000,-1522127.960004883,1.6698943376541138,-2.88079571723938,-9.224037170410156
1776038966350136600,-1522127.9398635253,1.5823265314102173,-2.8659605979919434,-9.244074821472168
1776038966360207600,-1522127.9297924805,1.5237947702407837,-2.861748456954956,-9.255207061767578
1776038966370278400,-1522127.9197216798,1.46756911277771,-2.863644599914551,-9.263703346252441
1776038966380318500,-1522127.9096816406,1.4130566120147705,-2.869425058364868,-9.2703857421875
1776038966390389500,-1522127.8996105958,1.3601199388504028,-2.878767967224121,-9.275405883789062
1776038966400429600,-1522127.8895703126,1.3101041316986084,-2.891716957092285,-9.278576850891113
1776038966410531000,-1522127.8794689942,1.2652099132537842,-2.9030003547668457,-9.28128433227539
1776038966440804400,-1522127.8491955567,1.1725597381591797,-2.909641981124878,-9.291366577148438
1776038966450905900,-1522127.8390942384,1.142486572265625,-2.904261589050293,-9.296794891357422
1776038966460946000,-1522127.8290541992,1.1562141180038452,-2.9439709186553955,-9.282596588134766
1776038966471047400,-1522127.8189526368,1.1889508962631226,-3.0185043811798096,-9.254481315612793
1776038966481118200,-1522127.808881836,1.285339117050171,-3.182382345199585,-9.186443328857422
1776038966491189000,-1522127.7988110352,1.3210227489471436,-3.226933717727661,-9.165816307067871
1776038966501229300,-1522127.788770752,1.3349436521530151,-3.2205445766448975,-9.166048049926758
1776038966511300000,-1522127.7786999512,1.3454296588897705,-3.2041022777557373,-9.170275688171387
1776038966561654000,-1522127.7283459473,1.4447534084320068,-3.117680549621582,-9.184942245483398
1776038966571694300,-1522127.7183056641,1.4651286602020264,-3.1107981204986572,-9.184048652648926
1776038966581734700,-1522127.708265381,1.4779168367385864,-3.111628293991089,-9.181716918945312
1776038966591805400,-1522127.6981945802,1.4828993082046509,-3.123615264892578,-9.176841735839844
1776038966601845800,-1522127.688154297,1.472236156463623,-3.1602165699005127,-9.166022300720215
1776038966611947000,-1522127.6780529786,1.4662445783615112,-3.1767380237579346,-9.161269187927246
1776038966622017800,-1522127.6679821778,1.4482853412628174,-3.218635320663452,-9.149494171142578
1776038966642189800,-1522127.6478100587,1.4182575941085815,-3.3382985591888428,-9.11124038696289
1776038966672371700,-1522127.617628174,1.4615452289581299,-3.609968900680542,-9.000133514404297
1776038966682412000,-1522127.6075878907,1.508910894393921,-3.7314395904541016,-8.94259262084961
1776038966692452400,-1522127.5975476075,1.5647330284118652,-3.8757057189941406,-8.871354103088379
1776038966702523100,-1522127.5874768067,1.6190110445022583,-4.046154022216797,-8.785091400146484
1776038966712594000,-1522127.577406006,1.6627202033996582,-4.245852947235107,-8.68207836151123
1776038966722664700,-1522127.5673352052,1.6988290548324585,-4.598522663116455,-8.49340534210205
1776038966732735500,-1522127.5572644044,1.7104030847549438,-4.856531620025635,-8.346198081970215
1776038966752877000,-1522127.5371230468,1.7414354085922241,-5.399943828582764,-7.998650074005127
1776038966773019000,-1522127.5169812012,1.8150205612182617,-5.93877649307251,-7.589931488037109
1776038966783120100,-1522127.506879883,1.8636317253112793,-6.200016975402832,-7.365938186645508
1776038966793191000,-1522127.496809082,1.8862147331237793,-6.323429107666016,-7.254434585571289
1776038966803231200,-1522127.486768799,1.9383485317230225,-6.5707292556762695,-7.01702880859375
1776038966813302000,-1522127.4766979981,1.9941641092300415,-6.809004783630371,-6.769873142242432
1776038966823403300,-1522127.4665966798,2.0895915031433105,-7.1508378982543945,-6.377265930175781
1776038966833474000,-1522127.456525879,2.1550185680389404,-7.359208106994629,-6.112966060638428
1776038966843514400,-1522127.4464855958,2.1823008060455322,-7.4488677978515625,-5.993524074554443
1776038966873726700,-1522127.4162731934,2.316248893737793,-7.911449432373047,-5.311716556549072
1776038966883767000,-1522127.4062329102,2.2749433517456055,-7.96143102645874,-5.254582405090332
1776038966893837800,-1522127.3961621094,2.289949655532837,-8.098947525024414,-5.033244609832764
1776038966903908600,-1522127.3860913087,2.3123836517333984,-8.325958251953125,-4.636990070343018
1776038966914010000,-1522127.3759899903,2.3065764904022217,-8.391484260559082,-4.520297050476074
1776038966924050200,-1522127.365949707,2.298877716064453,-8.534636497497559,-4.248001575469971
1776038966934060000,-1522127.3559399415,2.277137517929077,-8.671229362487793,-3.9742672443389893
1776038966954201600,-1522127.33579834,2.196260929107666,-8.919707298278809,-3.4330286979675293
1776038966964272400,-1522127.3257275391,2.1449368000030518,-9.029804229736328,-3.1673765182495117
1776038966974343200,-1522127.3156567384,2.091747283935547,-9.129398345947266,-2.906728982925415
1776038966984444700,-1522127.30555542,2.039794683456421,-9.217534065246582,-2.6545634269714355
1776038966994515500,-1522127.2954846192,1.9906316995620728,-9.29438304901123,-2.4129278659820557
1776038967004586200,-1522127.2854138184,1.9450050592422485,-9.36056137084961,-2.183399200439453
1776038967014657000,-1522127.2753430177,1.9027215242385864,-9.417059898376465,-1.9669792652130127
1776038967024758300,-1522127.2652416993,1.8641613721847534,-9.464319229125977,-1.7669117450714111
1776038967034859500,-1522127.255140381,1.829493522644043,-9.503387451171875,-1.5839672088623047
1776038967054940200,-1522127.2350598145,1.7640907764434814,-9.569286346435547,-1.2194846868515015
1776038967075143000,-1522127.2148571778,1.733513355255127,-9.593584060668945,-1.0623103380203247
1776038967085183000,-1522127.2048171386,1.69548761844635,-9.61070728302002,-0.9643617868423462
1776038967095223300,-1522127.1947766114,1.6813081502914429,-9.615572929382324,-0.9404191374778748
1776038967105324800,-1522127.184675293,1.6340683698654175,-9.625961303710938,-0.9170935153961182
1776038967115364900,-1522127.1746352538,1.6028220653533936,-9.629798889160156,-0.9318379163742065
1776038967125435600,-1522127.164564453,1.5720674991607666,-9.630775451660156,-0.9732321500778198
1776038967135506700,-1522127.1544934083,1.539015531539917,-9.629054069519043,-1.0407376289367676
1776038967165719000,-1522127.124281006,1.4069525003433228,-9.604874610900879,-1.391863226890564
1776038967185860600,-1522127.1041394044,1.3331913948059082,-9.57530689239502,-1.6451398134231567
1776038967195901000,-1522127.0940991212,1.2858333587646484,-9.545822143554688,-1.842358112335205
1776038967205971700,-1522127.0840283204,1.2150543928146362,-9.485419273376465,-2.172755479812622
1776038967216042500,-1522127.0739575196,1.1711170673370361,-9.430268287658691,-2.4225869178771973
1776038967226113300,-1522127.0638867188,1.134534478187561,-9.357000350952148,-2.707352876663208
1776038967236214500,-1522127.0537854005,1.1129193305969238,-9.25101089477539,-3.0578696727752686
1776038967256325600,-1522127.0336743165,1.1149694919586182,-9.017796516418457,-3.688706398010254
1776038967266366000,-1522127.0236340333,1.148454189300537,-8.873345375061035,-4.014374732971191
1776038967276436700,-1522127.0135632325,1.2056670188903809,-8.71057415008545,-4.340814113616943
1776038967286477000,-1522127.0035229493,1.2828668355941772,-8.527484893798828,-4.669759273529053
1776038967296547800,-1522126.9934521485,1.4248722791671753,-8.207664489746094,-5.174396991729736
1776038967306618600,-1522126.9833813477,1.4724746942520142,-8.087303161621094,-5.347686767578125
1776038967316719900,-1522126.9732800294,1.5621087551116943,-7.8295722007751465,-5.694559574127197
1776038967326760200,-1522126.9632397462,1.6405760049819946,-7.550527572631836,-6.038909912109375
1776038967336800500,-1522126.953199463,1.69858717918396,-7.248629570007324,-6.38299036026001
1776038967346871300,-1522126.9431286622,1.7309973239898682,-6.928319931030273,-6.721042633056641
1776038967367043300,-1522126.922956787,1.7364494800567627,-6.247769832611084,-7.356664657592773
1776038967387154400,-1522126.902845459,1.7110822200775146,-5.543414115905762,-7.906525611877441
1776038967397225200,-1522126.8927749023,1.7019940614700317,-5.0286102294921875,-8.245405197143555
1776038967407296000,-1522126.8827041015,1.702539086341858,-4.859894752502441,-8.34584903717041
1776038967417367000,-1522126.8726330567,1.7202339172363281,-4.397086143493652,-8.595163345336914
1776038967427407000,-1522126.8625930175,1.7381960153579712,-4.1198835372924805,-8.727866172790527
1776038967437508600,-1522126.8524914552,1.7554386854171753,-3.87076735496521,-8.837759971618652
1776038967467659800,-1522126.822340332,1.7751667499542236,-3.383634090423584,-9.031620979309082
1776038967487801600,-1522126.8021984864,1.7845066785812378,-3.0549869537353516,-9.146201133728027
1776038967497872400,-1522126.7921276856,1.7832833528518677,-2.999720573425293,-9.164712905883789
1776038967507912400,-1522126.7820876464,1.7861722707748413,-2.9029314517974854,-9.195268630981445
1776038967518014000,-1522126.771986084,1.797358751296997,-2.79371976852417,-9.226863861083984
1776038967528054300,-1522126.7619458009,1.7971651554107666,-2.7540833950042725,-9.238809585571289
1776038967538125000,-1522126.751875,1.7896209955215454,-2.739757537841797,-9.244531631469727
1776038967548165400,-1522126.7418347169,1.7660493850708008,-2.770751953125,-9.239826202392578
1776038967568337400,-1522126.7216625977,1.6255661249160767,-2.998049020767212,-9.19454288482666
1776038967578438700,-1522126.7115612794,1.585047721862793,-3.0635874271392822,-9.180002212524414
1776038967588479000,-1522126.7015209962,1.5532668828964233,-3.1174349784851074,-9.16729736328125
1776038967598549800,-1522126.6914501954,1.5346330404281616,-3.1466894149780273,-9.160438537597656
1776038967608590000,-1522126.6814099122,1.5206693410873413,-3.1721136569976807,-9.153997421264648
1776038967618660900,-1522126.6713391114,1.512715220451355,-3.189094305038452,-9.1494140625
1776038967628731600,-1522126.6612683106,1.5096198320388794,-3.2027041912078857,-9.145171165466309
1776038967638833000,-1522126.6511669923,1.5110129117965698,-3.215498924255371,-9.140447616577148
1776038967648903700,-1522126.6410964355,1.5150877237319946,-3.228867769241333,-9.135059356689453
1776038967679146800,-1522126.6108532716,1.5273855924606323,-3.3056538105010986,-9.105500221252441
1776038967689187000,-1522126.6008129884,1.5242034196853638,-3.327561378479004,-9.098050117492676
1776038967699227400,-1522126.5907727052,1.5192832946777344,-3.3663926124572754,-9.084579467773438
1776038967709298200,-1522126.5807019044,1.5063536167144775,-3.4285085201263428,-9.063478469848633
1776038967719369000,-1522126.5706311036,1.495094656944275,-3.457735300064087,-9.05423355102539
1776038967729409300,-1522126.5605908204,1.4714771509170532,-3.510890483856201,-9.037631034851074
1776038967739480000,-1522126.5505200196,1.4225716590881348,-3.5922834873199463,-9.013442993164062
1776038967749520100,-1522126.5404799804,1.3786821365356445,-3.651670455932617,-8.996384620666504
1776038967799904800,-1522126.490095215,1.0401182174682617,-3.935539484024048,-8.921886444091797
1776038967830025700,-1522126.4599743653,0.9294171929359436,-4.121730804443359,-8.849740028381348
1776038967840096500,-1522126.4499035645,0.9144052863121033,-4.221970081329346,-8.80393123626709
1776038967850167300,-1522126.4398327637,0.9139862060546875,-4.252166271209717,-8.789432525634766
1776038967860238000,-1522126.429761963,0.8629776239395142,-4.259335041046143,-8.791115760803223
1776038967870308900,-1522126.4196911622,0.8087301254272461,-4.2504777908325195,-8.800557136535645
1776038967880410000,-1522126.4095898438,0.7513050436973572,-4.2267279624938965,-8.817070007324219
1776038967900521200,-1522126.3894787598,0.6344348192214966,-4.145938873291016,-8.864484786987305
1776038967910592000,-1522126.379407959,0.5735596418380737,-4.0916666984558105,-8.893800735473633
1776038967920632300,-1522126.3693676759,0.50833660364151,-4.031406879425049,-8.925232887268066
1776038967930703000,-1522126.359296875,0.43915438652038574,-3.965973377227783,-8.95815658569336
1776038967940774000,-1522126.3492260743,0.32236137986183167,-3.8550426959991455,-9.011387825012207
1776038967950814200,-1522126.339185791,0.24596987664699554,-3.7775795459747314,-9.046533584594727
1776038968001137700,-1522126.2888623048,-0.11009904742240906,-3.3653368949890137,-9.210471153259277
1776038968011208400,-1522126.278791504,-0.13470526039600372,-3.3294448852539062,-9.22317886352539
1776038968021279200,-1522126.2687207032,-0.1815747618675232,-3.2425413131713867,-9.253290176391602
1776038968031350000,-1522126.2586499024,-0.1868160367012024,-3.2231361865997314,-9.259963035583496
1776038968041451300,-1522126.248548828,-0.18773922324180603,-3.202735662460327,-9.267019271850586
1776038968051491600,-1522126.2385083009,-0.17508992552757263,-3.225257396697998,-9.259451866149902
1776038968061593000,-1522126.2284069825,-0.16515706479549408,-3.245418071746826,-9.252589225769043
1776038968081765000,-1522126.2082348634,-0.12468816339969635,-3.4698896408081055,-9.171406745910645
1776038968091836000,-1522126.1981640626,-0.1132005900144577,-3.5322489738464355,-9.147721290588379
1776038968101906700,-1522126.1880932618,-0.07886369526386261,-3.7659006118774414,-9.054400444030762
1776038968111977500,-1522126.178022461,-0.06235729902982712,-3.850742816925049,-9.01877498626709
1776038968122078700,-1522126.1679213867,-0.009325342252850533,-4.142857074737549,-8.888591766357422
1776038968132119000,-1522126.1578808594,0.012068402953445911,-4.244022369384766,-8.840731620788574
1776038968142220500,-1522126.147779541,0.07386162877082825,-4.5721435546875,-8.675278663635254
1776038968152260600,-1522126.137739502,0.09732615947723389,-4.681955814361572,-8.616276741027832
1776038968162362000,-1522126.1276379395,0.14401960372924805,-4.9131574630737305,-8.485902786254883
1776038968202614800,-1522126.087385254,0.3407488167285919,-5.98431921005249,-7.761585235595703
1776038968222756400,-1522126.0672436524,0.39483168721199036,-6.451308727264404,-7.375303268432617
1776038968232827100,-1522126.0571728516,0.40688738226890564,-6.556637287139893,-7.281164646148682
1776038968242898000,-1522126.0471020509,0.41722387075424194,-6.781375408172607,-7.071722984313965
1776038968252968700,-1522126.03703125,0.41202861070632935,-7.114958763122559,-6.736320972442627
1776038968263039500,-1522126.0269604493,0.41979530453681946,-7.207889556884766,-6.6362996101379395
1776038968273110300,-1522126.0168896485,0.43020859360694885,-7.400547504425049,-6.420063495635986
1776038968303383800,-1522125.986616211,0.6844768524169922,-7.757153511047363,-5.96057653427124
1776038968313454600,-1522125.9765454102,0.8270345330238342,-7.793728351593018,-5.894420623779297
1776038968323525400,-1522125.9664746094,0.9235266447067261,-7.876404762268066,-5.768860340118408
1776038968333504500,-1522125.9564956054,1.0102685689926147,-8.063526153564453,-5.489011287689209
1776038968343575300,-1522125.9464248046,1.05370032787323,-8.18765926361084,-5.293613910675049
1776038968353615600,-1522125.9363842774,1.0867677927017212,-8.313745498657227,-5.08635139465332
1776038968363656000,-1522125.9263439942,1.1116701364517212,-8.435388565063477,-4.876348972320557
1776038968373665800,-1522125.9163342286,1.1215792894363403,-8.492125511169434,-4.774543285369873
1776038968403878100,-1522125.8861218262,1.135560393333435,-8.80234146118164,-4.171295166015625
1776038968423989200,-1522125.8660107423,1.1374365091323853,-8.956064224243164,-3.8295600414276123
1776038968434060000,-1522125.8559399415,1.1487817764282227,-9.015562057495117,-3.683795213699341
1776038968444130800,-1522125.8458691407,1.1664488315582275,-9.06440544128418,-3.556173324584961
1776038968454110200,-1522125.8358898927,1.1889315843582153,-9.103535652160645,-3.447094678878784
1776038968464211500,-1522125.8257885743,1.226361870765686,-9.144502639770508,-3.3233301639556885
1776038968474282200,-1522125.8157177735,1.238124966621399,-9.155678749084473,-3.288008213043213
1776038968484383500,-1522125.8056164552,1.25590181350708,-9.17176628112793,-3.236018419265747
1776038968514565400,-1522125.7754345704,1.326539397239685,-9.16415786743164,-3.229381561279297
1776038968524666600,-1522125.765333496,1.365596890449524,-9.140244483947754,-3.280466079711914
1776038968534707000,-1522125.7552929688,1.4091063737869263,-9.105196952819824,-3.3585991859436035
1776038968544777700,-1522125.745222168,1.4536937475204468,-9.059015274047852,-3.4628608226776123
1776038968554848500,-1522125.7351513673,1.49945068359375,-9.000040054321289,-3.5946249961853027
1776038968574959600,-1522125.7150402833,1.6011360883712769,-8.819411277770996,-3.9780333042144775
1776038968585061000,-1522125.704938965,1.655877709388733,-8.706246376037598,-4.198780536651611
1776038968605233200,-1522125.6847668458,1.7969515323638916,-8.42710018157959,-4.6824517250061035
1776038968625374700,-1522125.6646252442,1.9717903137207031,-8.055052757263184,-5.234363079071045
1776038968635445500,-1522125.6545544434,2.049314260482788,-7.840987682342529,-5.52174186706543
1776038968645546800,-1522125.644453369,2.1167800426483154,-7.608582496643066,-5.813701152801514
1776038968655587000,-1522125.6344128419,2.16983962059021,-7.363272666931152,-6.102819919586182
1776038968665657900,-1522125.624342041,2.2095701694488525,-7.108929634094238,-6.383674621582031
1776038968675698200,-1522125.614301758,2.2425670623779297,-6.846779823303223,-6.6530351638793945
1776038968685769000,-1522125.604230957,2.2690837383270264,-6.579154014587402,-6.909151554107666
1776038968695809300,-1522125.594190674,2.2908473014831543,-6.309841632843018,-7.1490092277526855
1776038968705880000,-1522125.5841198731,2.312690019607544,-6.043199062347412,-7.368961811065674
1776038968715950800,-1522125.5740490723,2.347443103790283,-5.659689426422119,-7.656881332397461
1776038968736062000,-1522125.5539379884,2.381831407546997,-5.299243450164795,-7.90033483505249
1776038968766305000,-1522125.5236950684,2.4545276165008545,-4.700284957885742,-8.249424934387207
1776038968776375800,-1522125.5136242677,2.481660842895508,-4.536893367767334,-8.332367897033691
1776038968786415900,-1522125.5035842285,2.506870746612549,-4.391441345214844,-8.40245532989502
1776038968796487000,-1522125.4935131837,2.5264415740966797,-4.265151500701904,-8.461441040039062
1776038968816597800,-1522125.4734023437,2.5330257415771484,-4.037664890289307,-8.570382118225098
1776038968826668800,-1522125.463331299,2.4425320625305176,-4.014001369476318,-8.607683181762695
1776038968836708900,-1522125.4532910157,2.408379316329956,-3.967790365219116,-8.638675689697266
1776038968846749200,-1522125.4432507325,2.3770108222961426,-3.9357385635375977,-8.661993980407715
1776038968856820000,-1522125.4331799317,2.3271522521972656,-3.9065475463867188,-8.68870735168457
1776038968866860300,-1522125.4231396485,2.2820818424224854,-3.9008095264434814,-8.703227996826172
1776038968876900600,-1522125.4130993653,2.2289657592773438,-3.8997881412506104,-8.717440605163574
1776038968886971400,-1522125.4030285645,2.1710734367370605,-3.8995838165283203,-8.732129096984863
1776038968897042200,-1522125.3929577637,2.1395044326782227,-3.904370069503784,-8.737781524658203
1776038968907113000,-1522125.382886963,2.087580442428589,-3.899118423461914,-8.752671241760254
1776038968947426800,-1522125.3425732423,1.9332611560821533,-3.780778169631958,-8.839605331420898
1776038968957467100,-1522125.332532959,1.8932853937149048,-3.6835134029388428,-8.889183044433594
1776038968967538000,-1522125.3224621583,1.880614995956421,-3.6543772220611572,-8.903888702392578
1776038968977608700,-1522125.3123913575,1.8583976030349731,-3.5754666328430176,-8.940513610839844
1776038968987710000,-1522125.3022900391,1.8384358882904053,-3.4876320362091064,-8.979252815246582
1776038968997750300,-1522125.292249756,1.8196593523025513,-3.3904576301574707,-9.020200729370117
1776038969007821000,-1522125.2821789552,1.8058810234069824,-3.3023478984832764,-9.05558967590332
1776038969038003000,-1522125.2519970704,1.8037410974502563,-3.0461537837982178,-9.145373344421387
1776038969058144500,-1522125.2318554688,1.8006656169891357,-2.913956642150879,-9.188953399658203
1776038969068215300,-1522125.221784668,1.7934160232543945,-2.802091598510742,-9.225092887878418
1776038969078255600,-1522125.2117443848,1.7853137254714966,-2.681342124938965,-9.262476921081543
1776038969088356900,-1522125.2016430665,1.7603797912597656,-2.483093500137329,-9.322321891784668
1776038969098397200,-1522125.1916027833,1.7398239374160767,-2.358292818069458,-9.358516693115234
1776038969108468000,-1522125.1815319825,1.710880994796753,-2.232118844985962,-9.394729614257812
1776038969148659700,-1522125.141340332,1.569905400276184,-1.8257356882095337,-9.506443977355957
1776038969168831700,-1522125.121168213,1.4620330333709717,-1.6007591485977173,-9.564017295837402
1776038969178902500,-1522125.1110974122,1.4234774112701416,-1.5381474494934082,-9.580094337463379
1776038969189003800,-1522125.1009963378,1.4056469202041626,-1.5114116668701172,-9.586979866027832
1776038969199044000,-1522125.0909558106,1.3470982313156128,-1.4610116481781006,-9.603184700012207
1776038969209115000,-1522125.0808850098,1.3071446418762207,-1.448629379272461,-9.610579490661621
1776038969219124700,-1522125.0708752442,1.287977695465088,-1.4474574327468872,-9.613343238830566
1776038969269417700,-1522125.0205822755,1.116222858428955,-1.6690070629119873,-9.598897933959961
1776038969279488500,-1522125.0105114747,1.1161348819732666,-1.8226395845413208,-9.57092571258545
1776038969289559300,-1522125.000440674,1.1275626420974731,-1.955325722694397,-9.543357849121094
1776038969299630000,-1522124.9903698731,1.135648250579834,-2.031493902206421,-9.526474952697754
1776038969309700900,-1522124.9802990723,1.147305965423584,-2.2029597759246826,-9.48688793182373
1776038969319771600,-1522124.9702282716,1.1546043157577515,-2.398757219314575,-9.43839168548584
1776038969350045200,-1522124.939954834,1.175419807434082,-3.120659589767456,-9.222270965576172
1776038969360116000,-1522124.9298840333,1.2099275588989258,-3.5359442234039307,-9.066619873046875
1776038969370217200,-1522124.919782715,1.2240800857543945,-3.67891263961792,-9.007643699645996
1776038969380257500,-1522124.9097424317,1.258859634399414,-3.971048355102539,-8.877861976623535
1776038969390297900,-1522124.8997021485,1.2978730201721191,-4.2703351974487305,-8.732133865356445
1776038969400338200,-1522124.8896618653,1.3386696577072144,-4.571706771850586,-8.571922302246094
1776038969410409000,-1522124.8795910645,1.4026403427124023,-5.0306806564331055,-8.300314903259277
1776038969420479700,-1522124.8695202637,1.4205670356750488,-5.177632808685303,-8.20637035369873
1776038969430581000,-1522124.8594189454,1.4794278144836426,-5.625230312347412,-7.895473003387451
1776038969480965600,-1522124.809034424,1.5727993249893188,-6.769250392913818,-6.919100284576416
1776038969491067000,-1522124.7989331055,1.5252134799957275,-6.890208721160889,-6.809488296508789
1776038969501107200,-1522124.7888928223,1.5476012229919434,-7.087508678436279,-6.598679065704346
1776038969511178000,-1522124.7788220216,1.5952117443084717,-7.294712543487549,-6.357113838195801
1776038969521218300,-1522124.7687817384,1.6609680652618408,-7.49564266204834,-6.101385593414307
1776038969531319600,-1522124.75868042,1.7992980480194092,-7.772948265075684,-5.702123165130615
1776038969561532000,-1522124.7284680177,2.10978102684021,-8.138269424438477,-5.048543930053711
1776038969571602700,-1522124.7183972169,2.334630250930786,-8.304604530334473,-4.66405725479126
1776038969581643000,-1522124.7083569337,2.483823537826538,-8.396845817565918,-4.415197372436523
1776038969591683300,-1522124.6983166505,2.5576233863830566,-8.438494682312012,-4.291939735412598
1776038969601723600,-1522124.6882763673,2.6931607723236084,-8.514209747314453,-4.052838325500488
1776038969611825000,-1522124.678175049,2.814875602722168,-8.58168888092041,-3.8211896419525146
1776038969621895700,-1522124.6681042481,2.9224486351013184,-8.641336441040039,-3.5995819568634033
1776038969631966500,-1522124.6580334473,3.056748390197754,-8.716679573059082,-3.2933545112609863
1776038969662148400,-1522124.6278515626,3.2099971771240234,-8.811738014221191,-2.8669800758361816
1776038969672249900,-1522124.6177502442,3.2614340782165527,-8.850613594055176,-2.6832993030548096
1776038969682320600,-1522124.6076794434,3.275660753250122,-8.860891342163086,-2.6315481662750244
1776038969702523100,-1522124.5874768067,3.326927423477173,-8.875630378723145,-2.514979124069214
1776038969712594000,-1522124.577406006,3.3367836475372314,-8.871532440185547,-2.5163817405700684
1776038969722664700,-1522124.5673352052,3.355733871459961,-8.852943420410156,-2.5563342571258545
1776038969732735500,-1522124.5572644044,3.371638536453247,-8.819602966308594,-2.6489760875701904
1776038969742806300,-1522124.5471938476,3.379490613937378,-8.753952980041504,-2.8491673469543457
1776038969773019000,-1522124.5169812012,3.385833740234375,-8.497848510742188,-3.5345547199249268
1776038969783089700,-1522124.5069104005,3.3760149478912354,-8.383338928222656,-3.80690598487854
1776038969793191000,-1522124.496809082,3.354281187057495,-8.249640464782715,-4.106413841247559
1776038969803261700,-1522124.4867382813,3.317845582962036,-8.095948219299316,-4.429213047027588
1776038969813240800,-1522124.4767592773,3.2359583377838135,-7.820618152618408,-4.953471660614014
1776038969823311600,-1522124.4666884765,3.1636874675750732,-7.60029935836792,-5.328876972198486
1776038969833382700,-1522124.4566174317,3.1235365867614746,-7.479008674621582,-5.520720958709717
1776038969843453400,-1522124.446546631,2.9970145225524902,-7.0683417320251465,-6.101380825042725
1776038969863595000,-1522124.4264050294,2.8373031616210938,-6.410172462463379,-6.8578290939331055
1776038969893807400,-1522124.396192627,2.6650516986846924,-5.242962837219238,-7.847243785858154
1776038969903878100,-1522124.3861218262,2.631272077560425,-4.825901985168457,-8.121420860290527
1776038969914010000,-1522124.3759899903,2.6115894317626953,-4.4021315574646,-8.36488151550293
1776038969924050200,-1522124.365949707,2.604402780532837,-4.191637992858887,-8.474530220031738
1776038969934090500,-1522124.355909424,2.6020548343658447,-3.7763819694519043,-8.668254852294922
1776038969944191700,-1522124.3458083495,2.6061837673187256,-3.182619333267212,-8.902198791503906
1776038969984475100,-1522124.3055249024,2.5319039821624756,-1.85499107837677,-9.29079532623291
1776038969994546000,-1522124.2954541016,2.504911422729492,-1.7391712665557861,-9.320466995239258
1776038970004616700,-1522124.2853833009,2.442720413208008,-1.5450681447982788,-9.371033668518066
1776038970014657000,-1522124.2753430177,2.352088689804077,-1.283963680267334,-9.43342399597168
1776038970024758300,-1522124.2652416993,2.2898266315460205,-1.1465572118759155,-9.466386795043945
1776038970034829000,-1522124.2551708985,2.257389783859253,-1.099151372909546,-9.479789733886719
1776038970044869400,-1522124.2451306153,2.1966590881347656,-1.0065964460372925,-9.504305839538574
1776038970054940200,-1522124.2350598145,2.113415002822876,-0.8951064348220825,-9.53428840637207
1776038970115395600,-1522124.1746044923,1.8653753995895386,-0.8407368659973145,-9.590825080871582
1776038970125435600,-1522124.164564453,1.813001036643982,-0.9586880803108215,-9.589804649353027
1776038970135506700,-1522124.1544934083,1.7609680891036987,-1.0595897436141968,-9.58888053894043
1776038970145546800,-1522124.144453369,1.7173703908920288,-1.0953569412231445,-9.592769622802734
1776038970155617500,-1522124.1343825683,1.6793904304504395,-1.081919550895691,-9.601015090942383
1776038970165657900,-1522124.124342041,1.64524507522583,-1.0437549352645874,-9.611146926879883
1776038970185799400,-1522124.1042006835,1.5750608444213867,-0.8962472677230835,-9.637754440307617
1776038970195901000,-1522124.0940991212,1.5664374828338623,-0.8866517543792725,-9.640047073364258
1776038970205941200,-1522124.084058838,1.5351760387420654,-0.7765383720397949,-9.654563903808594
1776038970216012000,-1522124.0739880372,1.5297353267669678,-0.756899893283844,-9.656988143920898
1776038970226052000,-1522124.063947998,1.5127947330474854,-0.6910622715950012,-9.664589881896973
1776038970236123100,-1522124.0538769532,1.4963860511779785,-0.6344782114028931,-9.671021461486816
1776038970246194000,-1522124.0438061524,1.4802367687225342,-0.5893529653549194,-9.676361083984375
1776038970256264700,-1522124.0337353516,1.4638339281082153,-0.5549902319908142,-9.680886268615723
1776038970266305000,-1522124.0236950684,1.4463837146759033,-0.5289736390113831,-9.684966087341309
1776038970286446600,-1522124.0035534669,1.4074299335479736,-0.5279043912887573,-9.690762519836426
1776038970316689400,-1522123.973310547,1.3600363731384277,-0.6238349676132202,-9.691828727722168
1776038970326760200,-1522123.9632397462,1.3322341442108154,-0.6863768696784973,-9.691461563110352
1776038970336861400,-1522123.9531386718,1.3039432764053345,-0.763340175151825,-9.689553260803223
1776038970346901800,-1522123.9430981446,1.278684377670288,-0.856282651424408,-9.685150146484375
1776038970356972500,-1522123.9330273438,1.2590653896331787,-0.9686410427093506,-9.677132606506348
1776038970367043300,-1522123.922956787,1.2488070726394653,-1.1005115509033203,-9.66435432434082
1776038970377144800,-1522123.9128552247,1.2515666484832764,-1.2529257535934448,-9.645421028137207
1776038970407326700,-1522123.88267334,1.3662866353988647,-1.9615566730499268,-9.510832786560059
1776038970437539000,-1522123.8524609376,1.4647867679595947,-2.7785022258758545,-9.290032386779785
1776038970447579400,-1522123.8424206544,1.4802240133285522,-2.9238669872283936,-9.242852210998535
1776038970457650200,-1522123.8323498536,1.5163462162017822,-3.2240469455718994,-9.136554718017578
1776038970467721000,-1522123.8222790528,1.5625492334365845,-3.5308539867401123,-9.01453971862793
1776038970477791700,-1522123.812208252,1.6462737321853638,-4.000213623046875,-8.80104923248291
1776038970497963800,-1522123.792036133,1.7790298461914062,-4.622673034667969,-8.463825225830078
1776038970508004000,-1522123.7819958497,1.8534342050552368,-4.925141334533691,-8.275152206420898
1776038970518105300,-1522123.7718947753,1.892407774925232,-5.073304653167725,-8.17623233795166
1776038970528176000,-1522123.7618239745,1.9744243621826172,-5.365475177764893,-7.967667579650879
1776038970538247200,-1522123.7517529298,2.0599703788757324,-5.6504082679748535,-7.745954990386963
1776038970548318000,-1522123.741682129,2.1465959548950195,-5.927597522735596,-7.511732578277588
1776038970558419200,-1522123.7315808106,2.231672525405884,-6.19350528717041,-7.268462181091309
1776038970568459500,-1522123.7215405274,2.3159167766571045,-6.444235801696777,-7.019880771636963
1776038970578530300,-1522123.7114697266,2.3935680389404297,-6.679290771484375,-6.769659042358398
1776038970598672000,-1522123.691328125,2.502699375152588,-7.057108402252197,-6.332779407501221
1776038970608742700,-1522123.6812573243,2.582859754562378,-7.353109359741211,-5.952394962310791
1776038970618844000,-1522123.671156006,2.602269172668457,-7.4424848556518555,-5.831640720367432
1776038970628914700,-1522123.6610852052,2.64150071144104,-7.640803813934326,-5.5507659912109375
1776038970638985500,-1522123.6510146484,2.6722609996795654,-7.831048011779785,-5.26347017288208
1776038970649056300,-1522123.6409438476,2.6951510906219482,-8.01203727722168,-4.971299171447754
1776038970659127300,-1522123.6308728028,2.7098844051361084,-8.182134628295898,-4.67756462097168
1776038970669198000,-1522123.620802002,2.715708017349243,-8.340737342834473,-4.384908676147461
1776038970679268900,-1522123.6107312012,2.712217330932617,-8.487967491149902,-4.094959259033203
1776038970689339600,-1522123.6006604005,2.689117431640625,-8.686236381530762,-3.672649621963501
1776038970699441000,-1522123.590559082,2.677431106567383,-8.746644020080566,-3.5352509021759033
1776038970719552000,-1522123.5704479981,2.610679864883423,-8.956289291381836,-3.023181200027466
1776038970729622800,-1522123.5603771973,2.570517063140869,-9.042057991027832,-2.7935643196105957
1776038970739724000,-1522123.550275879,2.5297818183898926,-9.11520004272461,-2.5852890014648438
1776038970749794800,-1522123.5402050782,2.480710029602051,-9.199734687805176,-2.319772958755493
1776038970759896300,-1522123.5301037598,2.466827630996704,-9.223264694213867,-2.2397620677948
1776038970769936400,-1522123.5200637206,2.4518229961395264,-9.257911682128906,-2.109509229660034
1776038970780038000,-1522123.5099621583,2.4465444087982178,-9.281831741333008,-2.008094072341919
1776038970810219800,-1522123.4797802735,2.4549124240875244,-9.303812980651855,-1.8928414583206177
1776038970830331000,-1522123.4596691895,2.433506488800049,-9.289995193481445,-1.98606276512146
1776038970840401700,-1522123.4495983887,2.401715040206909,-9.274582862854004,-2.093862771987915
1776038970850472400,-1522123.439527588,2.3531875610351562,-9.24456787109375,-2.273953676223755
1776038970860573700,-1522123.4294262696,2.2853405475616455,-9.205676078796387,-2.490614414215088
1776038970870614000,-1522123.4193859864,2.2036638259887695,-9.168027877807617,-2.6947224140167236
1776038970880684800,-1522123.4093151856,2.1146202087402344,-9.121527671813965,-2.9148736000061035
1776038970890755600,-1522123.3992443848,2.021167039871216,-9.062498092651367,-3.1553776264190674
1776038970900856800,-1522123.3891430665,1.9273686408996582,-8.988696098327637,-3.4145286083221436
1776038970910897200,-1522123.3791027833,1.8414409160614014,-8.896496772766113,-3.6921322345733643
1776038970920968000,-1522123.3690319825,1.7683634757995605,-8.782328605651855,-3.98923397064209
1776038970951149800,-1522123.3388500977,1.7687609195709229,-8.164538383483887,-5.136358737945557
1776038970961220600,-1522123.328779297,1.8017127513885498,-8.045456886291504,-5.3098835945129395
1776038970971291400,-1522123.3187084962,1.901475429534912,-7.7821831703186035,-5.656181812286377
1776038970981362200,-1522123.3086379394,2.0922977924346924,-7.332418441772461,-6.166711330413818
1776038970991433000,-1522123.2985671386,2.226761817932129,-7.000272750854492,-6.496776103973389
1776038971001473300,-1522123.2885266114,2.3560001850128174,-6.647974014282227,-6.813522815704346
1776038971021614800,-1522123.2683852538,2.5237720012664795,-6.087710857391357,-7.262281894683838
1776038971031686000,-1522123.258314209,2.607377529144287,-5.7043843269348145,-7.538698196411133
1776038971051858000,-1522123.23814209,2.692206859588623,-4.9450554847717285,-8.029250144958496
1776038971061928700,-1522123.2280712891,2.692448139190674,-4.585058689117432,-8.240046501159668
1776038971071999500,-1522123.2180004884,2.669826030731201,-4.245421886444092,-8.427265167236328
1776038971082070300,-1522123.2079296876,2.6049206256866455,-3.7851407527923584,-8.663572311401367
1776038971092110600,-1522123.1978894044,2.5810704231262207,-3.6403701305389404,-8.732479095458984
1776038971122292500,-1522123.1677075196,2.417081594467163,-2.8589327335357666,-9.063919067382812
1776038971142373000,-1522123.1476269532,2.3599627017974854,-2.644333839416504,-9.143766403198242
1776038971152444000,-1522123.1375561524,2.306692361831665,-2.5183825492858887,-9.19278621673584
1776038971162545200,-1522123.127454834,2.2538323402404785,-2.4108400344848633,-9.234634399414062
1776038971172616000,-1522123.1173840333,2.2057278156280518,-2.322742462158203,-9.26876449584961
1776038971182717200,-1522123.107282715,2.1628053188323975,-2.249825954437256,-9.29682445526123
1776038971192757500,-1522123.0972424317,2.1257145404815674,-2.18926739692688,-9.319808006286621
1776038971212868600,-1522123.0771313477,2.0577380657196045,-2.0823564529418945,-9.359481811523438
1776038971232949200,-1522123.0570507813,2.0286026000976562,-2.0484776496887207,-9.373308181762695
1776038971243020000,-1522123.0469799805,2.0079805850982666,-2.031862497329712,-9.38136100769043
1776038971253029600,-1522123.036970459,2.002487897872925,-2.0333616733551025,-9.382211685180664
1776038971263100700,-1522123.0268994141,1.9953584671020508,-2.0355143547058105,-9.383262634277344
1776038971273140700,-1522123.016859375,1.9915509223937988,-2.043390989303589,-9.382360458374023
1776038971283211500,-1522123.0067885742,1.9883915185928345,-2.057534694671631,-9.379937171936035
1776038971293191000,-1522122.996809082,1.9856051206588745,-2.0775022506713867,-9.376126289367676
1776038971323464400,-1522122.9665356446,1.9989538192749023,-2.236175537109375,-9.33670711517334
1776038971333443600,-1522122.9565563966,2.014500856399536,-2.3490848541259766,-9.30558967590332
1776038971343514400,-1522122.9464855958,2.020482301712036,-2.406609058380127,-9.289578437805176
1776038971353554700,-1522122.9364453126,2.0233144760131836,-2.4404900074005127,-9.280117988586426
1776038971363625500,-1522122.9263745118,2.0250000953674316,-2.462907552719116,-9.273826599121094
1776038971373665800,-1522122.9163342286,2.0268704891204834,-2.4773011207580566,-9.269583702087402
1776038971383767000,-1522122.9062329102,2.029656410217285,-2.4865310192108154,-9.266501426696777
1776038971393837800,-1522122.8961621094,2.03436017036438,-2.497145414352417,-9.262616157531738
1776038971403908600,-1522122.8860913087,2.0381436347961426,-2.5062434673309326,-9.259325981140137
1776038971434060000,-1522122.8559399415,2.0302953720092773,-2.5423645973205566,-9.251197814941406
1776038971444130800,-1522122.8458691407,2.0164947509765625,-2.5665979385375977,-9.247526168823242
1776038971454140700,-1522122.835859375,1.998031497001648,-2.597647190093994,-9.242862701416016
1776038971464211500,-1522122.8257885743,1.9752672910690308,-2.638617753982544,-9.236145973205566
1776038971474251800,-1522122.815748291,1.94761061668396,-2.6896579265594482,-9.227293014526367
1776038971484353000,-1522122.8056469727,1.9146143198013306,-2.7476460933685303,-9.217109680175781
1776038971494393300,-1522122.7956066895,1.856829047203064,-2.8564677238464355,-9.19582462310791
1776038971504494600,-1522122.7855053712,1.8378175497055054,-2.8997302055358887,-9.186097145080566
1776038971514535000,-1522122.775465088,1.7965168952941895,-3.0069310665130615,-9.159765243530273
1776038971534615600,-1522122.7553845216,1.7122867107391357,-3.2811496257781982,-9.081438064575195
1776038971544686300,-1522122.7453137208,1.6819897890090942,-3.440471887588501,-9.02798080444336
1776038971554757000,-1522122.73524292,1.6635452508926392,-3.613346815109253,-8.963635444641113
1776038971564858400,-1522122.7251416016,1.6515567302703857,-3.9074740409851074,-8.841629028320312
1776038971574898700,-1522122.7151013184,1.6458243131637573,-4.124732494354248,-8.743468284606934
1776038971584969500,-1522122.7050305177,1.6346640586853027,-4.361955165863037,-8.629692077636719
1776038971595040300,-1522122.6949597169,1.6160978078842163,-4.617722034454346,-8.499134063720703
1776038971605111000,-1522122.684888916,1.5906577110290527,-4.888250350952148,-8.351359367370605
1776038971615151400,-1522122.674848633,1.5605273246765137,-5.166670799255371,-8.187836647033691
1776038971645394200,-1522122.644605713,1.476822018623352,-5.866586685180664,-7.718323707580566
1776038971655465000,-1522122.6345351562,1.4477906227111816,-6.141106128692627,-7.507403373718262
1776038971675576000,-1522122.6144238282,1.4031909704208374,-6.671383380889893,-7.049402713775635
1776038971685646800,-1522122.6043532714,1.3926362991333008,-6.921676158905029,-6.805978775024414
1776038971695717600,-1522122.5942824706,1.4030425548553467,-7.278646945953369,-6.420527458190918
1776038971705788700,-1522122.5842114259,1.4101035594940186,-7.388456344604492,-6.2922749519348145
1776038971715828700,-1522122.5741711427,1.4396803379058838,-7.6018266677856445,-6.02577543258667
1776038971725899500,-1522122.5641005859,1.4827579259872437,-7.80112886428833,-5.754495143890381
1776038971776162000,-1522122.5138378907,1.6537983417510986,-8.547802925109863,-4.513360023498535
1776038971786232800,-1522122.50376709,1.6747981309890747,-8.688140869140625,-4.2286696434021
1776038971796334000,-1522122.4936660156,1.6841717958450317,-8.818703651428223,-3.945175886154175
1776038971806405000,-1522122.4835949708,1.6835142374038696,-8.938679695129395,-3.665539264678955
1776038971816476000,-1522122.47352417,1.6738015413284302,-9.047157287597656,-3.393779993057251
1776038971826546700,-1522122.4634533692,1.6568951606750488,-9.144336700439453,-3.131486177444458
1776038971836617500,-1522122.4533825684,1.6249445676803589,-9.268427848815918,-2.761557102203369
1776038971856759000,-1522122.4332409669,1.590031623840332,-9.395940780639648,-2.3148417472839355
1776038971866860300,-1522122.4231396485,1.584542989730835,-9.42202091217041,-2.210235595703125
1776038971876931000,-1522122.4130688477,1.5849577188491821,-9.46489143371582,-2.0184504985809326
1776038971887001900,-1522122.402998047,1.5955989360809326,-9.498751640319824,-1.843410849571228
1776038971897103400,-1522122.3928967286,1.6147257089614868,-9.524641990661621,-1.686484456062317
1776038971907174100,-1522122.3828259278,1.6408426761627197,-9.543410301208496,-1.5496265888214111
1776038971917245000,-1522122.372755127,1.672806978225708,-9.555706024169922,-1.4354747533798218
1776038971927315700,-1522122.3626843262,1.7099857330322266,-9.562324523925781,-1.3447318077087402
1776038971937356000,-1522122.352644043,1.7760645151138306,-9.562061309814453,-1.2581597566604614
1776038971947396000,-1522122.3426040038,1.825454592704773,-9.556147575378418,-1.2321280241012573
1776038971977608700,-1522122.3123913575,1.951354742050171,-9.52420425415039,-1.2853554487228394
1776038971987710000,-1522122.3022900391,1.9981051683425903,-9.505020141601562,-1.3537191152572632
1776038971997750300,-1522122.292249756,2.042289972305298,-9.481382369995117,-1.4501125812530518
1776038972007821000,-1522122.2821789552,2.0912258625030518,-9.43678092956543,-1.656599998474121
1776038972017891800,-1522122.2721081544,2.095769166946411,-9.416071891784668,-1.7651430368423462
1776038972027993000,-1522122.262006836,2.0962352752685547,-9.374143600463867,-1.9752482175827026
1776038972038063900,-1522122.2519360352,2.0890722274780273,-9.32567024230957,-2.1995584964752197
1776038972048134700,-1522122.2418652344,2.0706825256347656,-9.268568992614746,-2.4446473121643066
1776038972058175000,-1522122.2318249512,2.0540173053741455,-9.20549488067627,-2.685197114944458
1776038972088479000,-1522122.2015209962,1.9855583906173706,-8.93260669708252,-3.526543617248535
1776038972098519300,-1522122.191480713,1.9581878185272217,-8.815074920654297,-3.8249640464782715
1776038972108620500,-1522122.1813793946,1.931369423866272,-8.671148300170898,-4.153477668762207
1776038972118660900,-1522122.1713391114,1.9046061038970947,-8.517459869384766,-4.471662521362305
1776038972128731600,-1522122.1612683106,1.879887580871582,-8.340115547180176,-4.804048538208008
1776038972138772000,-1522122.1512280274,1.857151746749878,-8.140873908996582,-5.14271879196167
1776038972148842800,-1522122.1411572266,1.8360040187835693,-7.9163360595703125,-5.489179611206055
1776038972179085600,-1522122.1109145507,1.8281524181365967,-6.964818000793457,-6.657291889190674
1776038972199227400,-1522122.0907727052,1.896958827972412,-6.342576026916504,-7.234893321990967
1776038972219338200,-1522122.0706618652,1.971976399421692,-5.867373466491699,-7.606288433074951
1776038972239510500,-1522122.050489502,2.0987305641174316,-5.257143974304199,-8.008008003234863
1776038972249581300,-1522122.0404187012,2.1682746410369873,-4.971385478973389,-8.170330047607422
1776038972259652000,-1522122.0303479005,2.2659084796905518,-4.579367637634277,-8.37051010131836
1776038972279793700,-1522122.010206299,2.343895435333252,-4.227870941162109,-8.532389640808105
1776038972289864400,-1522122.0001354981,2.3801381587982178,-4.026993274688721,-8.619088172912598
1776038972299935200,-1522121.9900646973,2.4098236560821533,-3.7815966606140137,-8.721390724182129
1776038972310036500,-1522121.979963623,2.414891481399536,-3.717437744140625,-8.747533798217773
1776038972320107500,-1522121.9698925782,2.4153947830200195,-3.601158857345581,-8.795904159545898
1776038972330178300,-1522121.9598217774,2.3913984298706055,-3.478032350540161,-8.851829528808594
1776038972340188000,-1522121.9498120118,2.362544536590576,-3.4262607097625732,-8.879724502563477
1776038972350258700,-1522121.939741211,2.323784828186035,-3.395552396774292,-8.901721000671387
1776038972360329500,-1522121.9296704102,2.276752471923828,-3.3821206092834473,-8.91897201538086
1776038972400643300,-1522121.8893566895,2.06913685798645,-3.410961866378784,-8.958481788635254
1776038972410744600,-1522121.8792553712,2.0089433193206787,-3.4256584644317627,-8.966571807861328
1776038972420785000,-1522121.869215088,1.951845407485962,-3.438951015472412,-8.974091529846191
1776038972430855700,-1522121.8591442872,1.8984347581863403,-3.44937801361084,-8.98154354095459
1776038972440926500,-1522121.8490734864,1.8488386869430542,-3.4550013542175293,-8.989725112915039
1776038972451027700,-1522121.838972168,1.8028888702392578,-3.4557547569274902,-8.998762130737305
1776038972461098500,-1522121.8289016113,1.7613608837127686,-3.4522225856781006,-9.00833797454834
1776038972471200000,-1522121.818800049,1.7079625129699707,-3.428840160369873,-9.027530670166016
1776038972491341600,-1522121.7986584473,1.6858055591583252,-3.411635160446167,-9.0382080078125
1776038972501382000,-1522121.7886181641,1.6944407224655151,-3.3897950649261475,-9.044807434082031
1776038972511483100,-1522121.7785168458,1.7276800870895386,-3.332890748977661,-9.05965518951416
1776038972521554000,-1522121.768446045,1.832154631614685,-3.4026899337768555,-9.01306438446045
1776038972531624700,-1522121.7583752442,1.9056676626205444,-3.3401567935943604,-9.021206855773926
1776038972541695500,-1522121.7483044434,1.9463988542556763,-3.2781693935394287,-9.035239219665527
1776038972551766300,-1522121.7382336427,1.9686458110809326,-3.248197078704834,-9.041241645812988
1776038972561837000,-1522121.7281628419,1.9922078847885132,-3.1609692573547363,-9.066961288452148
1776038972571907800,-1522121.718092041,2.0120553970336914,-3.0231659412384033,-9.10947322845459
1776038972612191200,-1522121.677808838,2.002772569656372,-2.764835834503174,-9.19320297241211
1776038972622262000,-1522121.6677380372,1.9846347570419312,-2.6969799995422363,-9.21726131439209
1776038972632332800,-1522121.6576672364,1.980063796043396,-2.6800363063812256,-9.223186492919922
1776038972642403600,-1522121.6475964356,1.9529361724853516,-2.6461732387542725,-9.238734245300293
1776038972652474400,-1522121.6375256348,1.9283605813980103,-2.6386215686798096,-9.246052742004395
1776038972662545200,-1522121.627454834,1.915574073791504,-2.6383719444274902,-9.24878215789795
1776038972672585500,-1522121.6174145509,1.89285147190094,-2.648418426513672,-9.250590324401855
1776038972682656300,-1522121.60734375,1.874216914176941,-2.6915433406829834,-9.241930961608887
1776038972712899000,-1522121.5771008302,1.90865159034729,-2.8812003135681152,-9.17747974395752
1776038972722969900,-1522121.5670300294,1.9248685836791992,-2.9275057315826416,-9.15942096710205
1776038972733010200,-1522121.5569897462,1.9669488668441772,-3.046203136444092,-9.111647605895996
1776038972753182500,-1522121.536817627,2.0452818870544434,-3.383007049560547,-8.974547386169434
1776038972763253200,-1522121.5267468262,2.06571102142334,-3.6022000312805176,-8.884108543395996
1776038972773262800,-1522121.5167370606,2.0712637901306152,-3.848968029022217,-8.778706550598145
1776038972783333600,-1522121.5066662598,2.0675435066223145,-4.115700721740723,-8.657751083374023
1776038972813515500,-1522121.476484375,2.0261943340301514,-4.999316215515137,-8.18973445892334
1776038972823586300,-1522121.4664135743,2.0042011737823486,-5.304274559020996,-8.001140594482422
1776038972833687800,-1522121.456312256,1.9793957471847534,-5.6087493896484375,-7.79707145690918
1776038972853799000,-1522121.436201172,1.9109636545181274,-6.341828346252441,-7.231861591339111
1776038972863900200,-1522121.4260998536,1.8875068426132202,-6.478672027587891,-7.115793704986572
1776038972873971000,-1522121.4160290528,1.8474867343902588,-6.746117115020752,-6.873652935028076
1776038972884011300,-1522121.4059887696,1.8020561933517456,-6.99294900894165,-6.634882926940918
1776038972904122400,-1522121.3858776856,1.6818393468856812,-7.4107866287231445,-6.198550701141357
1776038972924233500,-1522121.3657666016,1.6214187145233154,-7.834858417510986,-5.670660972595215
1776038972934304300,-1522121.3556958009,1.5684823989868164,-8.036044120788574,-5.397431373596191
1776038972944405500,-1522121.3455944825,1.5023671388626099,-8.225906372070312,-5.123258590698242
1776038972954445800,-1522121.3355541993,1.4053739309310913,-8.481512069702148,-4.717972278594971
1776038972964516600,-1522121.3254833985,1.3436335325241089,-8.632871627807617,-4.454052925109863
1776038972974557000,-1522121.3154431153,1.2828075885772705,-8.77082633972168,-4.194927215576172
1776038972984627700,-1522121.3053723145,1.2225576639175415,-8.897472381591797,-3.9383676052093506
1776038973024910800,-1522121.2650891114,1.087049961090088,-9.274605751037598,-2.995063066482544
1776038973045052400,-1522121.2449475098,1.096059799194336,-9.364944458007812,-2.6957144737243652
1776038973065194000,-1522121.2248059083,1.1503955125808716,-9.447916030883789,-2.3630170822143555
1776038973075295500,-1522121.21470459,1.1890403032302856,-9.476343154907227,-2.226090908050537
1776038973085335600,-1522121.2046645507,1.2575995922088623,-9.504532814025879,-2.0622055530548096
1776038973095406600,-1522121.194593506,1.30825674533844,-9.51517105102539,-1.9799904823303223
1776038973125649400,-1522121.164350586,1.4460022449493408,-9.513943672180176,-1.8879507780075073
1776038973135750700,-1522121.1542492677,1.4454606771469116,-9.513813972473145,-1.8890105485916138
1776038973145821400,-1522121.1441784669,1.477200984954834,-9.494733810424805,-1.9591610431671143
1776038973155892200,-1522121.134107666,1.4764565229415894,-9.488225936889648,-1.9909882545471191
1776038973165963000,-1522121.1240371093,1.472259283065796,-9.470407485961914,-2.0770719051361084
1776038973176003300,-1522121.113996582,1.4729260206222534,-9.445014953613281,-2.1891982555389404
1776038973186074000,-1522121.1039257813,1.4824755191802979,-9.390253067016602,-2.4074461460113525
1776038973196175600,-1522121.093824463,1.4753566980361938,-9.341733932495117,-2.5933969020843506
1776038973236458800,-1522121.0535412598,1.3170626163482666,-9.026598930358887,-3.599480628967285
1776038973246529500,-1522121.043470459,1.3119781017303467,-8.923545837402344,-3.849605083465576
1776038973256600300,-1522121.0333996583,1.2912638187408447,-8.80885124206543,-4.111834526062012
1776038973266640600,-1522121.023359375,1.24489426612854,-8.679106712341309,-4.3924641609191895
1776038973276711400,-1522121.0132885743,1.1743834018707275,-8.529814720153809,-4.6939826011657715
1776038973286782200,-1522121.0032177735,1.0864914655685425,-8.363886833190918,-5.003533840179443
1776038973296853000,-1522120.9931469727,0.9959356188774109,-8.180554389953613,-5.315734386444092
1776038973306893300,-1522120.9831066895,0.8811320066452026,-7.861329078674316,-5.795991897583008
1776038973316994600,-1522120.9730053712,0.8479194641113281,-7.7422966957092285,-5.958882808685303
1776038973347146000,-1522120.942854004,0.7786287665367126,-6.890462398529053,-6.934382438659668
1776038973357216800,-1522120.9327832032,0.8113839030265808,-6.3921966552734375,-7.392689228057861
1776038973367257000,-1522120.92274292,0.8265846967697144,-6.2209367752075195,-7.5357208251953125
1776038973377327900,-1522120.9126721192,0.8615028858184814,-5.8765130043029785,-7.803511619567871
1776038973387398700,-1522120.9026013184,0.9044225811958313,-5.530419826507568,-8.047786712646484
1776038973397469400,-1522120.8925305177,0.9633990526199341,-5.17955207824707,-8.271305084228516
1776038973407509800,-1522120.8824902344,1.0378139019012451,-4.833446025848389,-8.469423294067383
1776038973427681800,-1522120.8623181153,1.2190414667129517,-4.175454616546631,-8.789193153381348
1776038973447793000,-1522120.8422070313,1.403828740119934,-3.5756688117980957,-9.02298355102539
1776038973457863700,-1522120.8321362305,1.511677622795105,-3.177746534347534,-9.153532028198242
1776038973467934500,-1522120.8220654298,1.55474054813385,-3.069295883178711,-9.183279037475586
1776038973478005200,-1522120.811994873,1.6415952444076538,-2.9100918769836426,-9.219919204711914
1776038973488076000,-1522120.8019240722,1.6809347867965698,-2.654257297515869,-9.28976821899414
1776038973498116400,-1522120.791883545,1.6962335109710693,-2.600125551223755,-9.302286148071289
1776038973508187100,-1522120.7818127442,1.694167137145996,-2.4911818504333496,-9.332426071166992
1776038973548439800,-1522120.7415603027,1.5073119401931763,-2.2295849323272705,-9.430131912231445
1776038973558480100,-1522120.7315197755,1.4811924695968628,-2.217437744140625,-9.43713092803955
1776038973568551000,-1522120.7214489747,1.4214228391647339,-2.1946680545806885,-9.45163345336914
1776038973578591200,-1522120.7114086915,1.3602280616760254,-2.1810152530670166,-9.463791847229004
1776038973588662000,-1522120.7013378907,1.3007407188415527,-2.177299737930298,-9.473005294799805
1776038973598732800,-1522120.69126709,1.243615984916687,-2.1807234287261963,-9.479886054992676
1776038973608773000,-1522120.6812268067,1.1905021667480469,-2.1898717880249023,-9.48459529876709
1776038973618844000,-1522120.671156006,1.1419920921325684,-2.20062255859375,-9.48807144165039
1776038973649056300,-1522120.6409438476,1.0180226564407349,-2.236389636993408,-9.493818283081055
1776038973659157800,-1522120.6308422852,0.9955489039421082,-2.2621936798095703,-9.49008560180664
1776038973669228500,-1522120.6207714844,0.9741156697273254,-2.314122438430786,-9.479785919189453
1776038973679299300,-1522120.6107006837,1.0120704174041748,-2.407067060470581,-9.452627182006836
1776038973689339600,-1522120.6006604005,1.1716285943984985,-2.642576217651367,-9.370935440063477
1776038973699410400,-1522120.5905895997,1.2400315999984741,-2.741201400756836,-9.333731651306152
1776038973709450800,-1522120.5805493165,1.2629338502883911,-2.800349712371826,-9.313077926635742
1776038973719552000,-1522120.5704479981,1.2903648614883423,-2.85935378074646,-9.291363716125488
1776038973749734000,-1522120.5402661134,1.358977198600769,-2.976590633392334,-9.244647979736328
1776038973759804700,-1522120.5301953126,1.3735376596450806,-2.99733304977417,-9.23578929901123
1776038973769875500,-1522120.5201245118,1.3941619396209717,-3.0322213172912598,-9.221299171447754
1776038973779946200,-1522120.510053711,1.413724660873413,-3.077003240585327,-9.203468322753906
1776038973790017000,-1522120.4999829102,1.4371862411499023,-3.1289234161376953,-9.182304382324219
1776038973800118300,-1522120.4898818359,1.4719663858413696,-3.2059173583984375,-9.15018081665039
1776038973810189000,-1522120.479811035,1.4854308366775513,-3.235743999481201,-9.137497901916504
1776038973820260000,-1522120.4697399903,1.5066109895706177,-3.295215129852295,-9.11274242401123
1776038973830331000,-1522120.4596691895,1.5250035524368286,-3.3586323261260986,-9.086493492126465
1776038973870583600,-1522120.419416504,1.5891811847686768,-3.618771553039551,-8.974932670593262
1776038973880654300,-1522120.4093457032,1.6164023876190186,-3.683504343032837,-8.943681716918945
1776038973890725000,-1522120.3992749024,1.6516175270080566,-3.75168776512146,-8.908838272094727
1776038973900796000,-1522120.3892041016,1.6986148357391357,-3.8256871700286865,-8.868440628051758
1776038973910836200,-1522120.3791638184,1.7627941370010376,-3.9066083431243896,-8.820508003234863
1776038973920876500,-1522120.3691235352,1.8992151021957397,-4.0505900382995605,-8.72674560546875
1776038973930916600,-1522120.359083496,2.0027427673339844,-4.165679454803467,-8.649076461791992
1776038973971200000,-1522120.318800049,2.281540870666504,-4.723544120788574,-8.28571605682373
1776038973981301200,-1522120.3086987305,2.3343610763549805,-4.9245924949646,-8.152886390686035
1776038973991372000,-1522120.2986279298,2.4111530780792236,-5.242316246032715,-7.929365634918213
1776038974001412400,-1522120.2885876466,2.4286718368530273,-5.3445234298706055,-7.855443954467773
1776038974011452700,-1522120.2785473634,2.5005643367767334,-5.66408109664917,-7.604982852935791
1776038974021554000,-1522120.268446045,2.542153835296631,-5.875079154968262,-7.429082870483398
1776038974031594200,-1522120.2584057618,2.580800771713257,-6.0857343673706055,-7.243873119354248
1776038974041695500,-1522120.2483044434,2.617297887802124,-6.297537326812744,-7.047068119049072
1776038974082009300,-1522120.2079907227,2.6682636737823486,-6.975452899932861,-6.355612277984619
1776038974092019000,-1522120.197980957,2.544565200805664,-7.0702338218688965,-6.301379680633545
1776038974102089700,-1522120.1879101563,2.5297765731811523,-7.243821144104004,-6.107182025909424
1776038974122262000,-1522120.1677380372,2.521857738494873,-7.596933364868164,-5.665442943572998
1776038974132302300,-1522120.157697754,2.5079362392425537,-7.84367036819458,-5.325173377990723
1776038974142403600,-1522120.1475964356,2.488370180130005,-7.996376991271973,-5.102585315704346
1776038974172616000,-1522120.1173840333,2.4172489643096924,-8.337385177612305,-4.562380313873291
1776038974182686700,-1522120.1073132325,2.372537612915039,-8.510594367980957,-4.255728244781494
1776038974192757500,-1522120.0972424317,2.357128381729126,-8.563868522644043,-4.1562628746032715
1776038974202858800,-1522120.0871413574,2.334481954574585,-8.661140441894531,-3.9629836082458496
1776038974212899000,-1522120.0771008302,2.3244149684906006,-8.78046703338623,-3.6974172592163086
1776038974223000600,-1522120.0669995118,2.3268930912017822,-8.846346855163574,-3.535262107849121
1776038974233071400,-1522120.056928711,2.333726406097412,-8.902381896972656,-3.3869922161102295
1776038974243142100,-1522120.0468579102,2.344069004058838,-8.94911003112793,-3.2540979385375977
1776038974283394800,-1522120.0066052247,2.4081263542175293,-9.045890808105469,-2.9228708744049072
1776038974293404400,-1522119.996595703,2.443471670150757,-9.054068565368652,-2.8676998615264893
1776038974313515500,-1522119.976484375,2.569373607635498,-9.037062644958496,-2.810737371444702
1776038974323617000,-1522119.9663830567,2.5970256328582764,-9.028554916381836,-2.812664031982422
1776038974333596200,-1522119.9564038087,2.6503241062164307,-9.006648063659668,-2.8331029415130615
1776038974343697400,-1522119.9463024903,2.710779905319214,-8.968563079833984,-2.8960206508636475
1776038974373879300,-1522119.9161206055,2.74804425239563,-8.865696907043457,-3.165130853652954
1776038974383980800,-1522119.9060192872,2.737738609313965,-8.815469741821289,-3.310992479324341
1776038974394051600,-1522119.8959484864,2.7034032344818115,-8.768420219421387,-3.460752010345459
1776038974404152800,-1522119.885847168,2.6384851932525635,-8.662250518798828,-3.764864683151245
1776038974414193200,-1522119.8758068848,2.6124937534332275,-8.569891929626465,-3.9877614974975586
1776038974424264000,-1522119.865736084,2.600754737854004,-8.473190307617188,-4.196608066558838
1776038974434304300,-1522119.8556958009,2.597400426864624,-8.364887237548828,-4.410505771636963
1776038974444375000,-1522119.845625,2.6043009757995605,-8.166167259216309,-4.76462984085083
1776038974454384600,-1522119.8356154785,2.6058249473571777,-8.089883804321289,-4.892221450805664
1776038974474526500,-1522119.815473633,2.647038221359253,-7.594008445739746,-5.6120076179504395
1776038974484566500,-1522119.8054335937,2.655003309249878,-7.4733052253723145,-5.768108367919922
1776038974494606800,-1522119.7953930665,2.6746482849121094,-7.058871269226074,-6.260109901428223
1776038974504677600,-1522119.7853222657,2.678412437438965,-6.744399070739746,-6.59617805480957
1776038974514748400,-1522119.775251465,2.6757688522338867,-6.401235580444336,-6.930718898773193
1776038974524819200,-1522119.7651809081,2.6723055839538574,-6.220407962799072,-7.094766616821289
1776038974534829000,-1522119.7551708985,2.6634573936462402,-5.649219512939453,-7.560603141784668
1776038974544930300,-1522119.7450695802,2.6587226390838623,-5.25006103515625,-7.844644069671631
1776038974555001000,-1522119.7349990234,2.6559059619903564,-4.848683834075928,-8.099804878234863
1776038974595223300,-1522119.6947766114,2.639641761779785,-3.527395009994507,-8.761286735534668
1776038974605324800,-1522119.684675293,2.6305830478668213,-3.0380654335021973,-8.94542407989502
1776038974615334400,-1522119.6746655274,2.628802537918091,-2.8844285011291504,-8.996659278869629
1776038974625405200,-1522119.6645947266,2.6389083862304688,-2.4737937450408936,-9.115202903747559
1776038974635476000,-1522119.6545239259,2.6502685546875,-2.235311269760132,-9.173322677612305
1776038974645546800,-1522119.644453369,2.6689579486846924,-2.0274558067321777,-9.21609878540039
1776038974655617500,-1522119.6343825683,2.678983688354492,-1.9415674209594727,-9.231672286987305
1776038974685799400,-1522119.6042006835,2.7538251876831055,-1.4104743003845215,-9.305770874023438
1776038974695870200,-1522119.5941298828,2.7611727714538574,-1.2990481853485107,-9.319806098937988
1776038974705941200,-1522119.584058838,2.760228157043457,-1.2226932048797607,-9.330410957336426
1776038974715981300,-1522119.5740187988,2.7601282596588135,-1.1938438415527344,-9.334175109863281
1776038974726082800,-1522119.5639172364,2.7542994022369385,-1.1609477996826172,-9.340044975280762
1776038974736092400,-1522119.5539074708,2.744969129562378,-1.1446980237960815,-9.344795227050781
1776038974746194000,-1522119.5438061524,2.7192180156707764,-1.1441575288772583,-9.352387428283691
1776038974756234000,-1522119.5337661132,2.7074832916259766,-1.1469868421554565,-9.355445861816406
1776038974766305000,-1522119.5236950684,2.6661581993103027,-1.1616768836975098,-9.365494728088379
1776038974786446600,-1522119.5035534669,2.558817148208618,-1.2218551635742188,-9.3877534866333
1776038974796487000,-1522119.4935131837,2.485062599182129,-1.2740792036056519,-9.400615692138672
1776038974806557700,-1522119.483442383,2.4684295654296875,-1.2980678081512451,-9.401717185974121
1776038974816597800,-1522119.4734023437,2.4291794300079346,-1.3226627111434937,-9.408509254455566
1776038974826668800,-1522119.463331299,2.3796803951263428,-1.3234202861785889,-9.421043395996094
1776038974836739600,-1522119.4532604981,2.3624837398529053,-1.3286045789718628,-9.424641609191895
1776038974846810400,-1522119.4431896973,2.3935108184814453,-1.3691049814224243,-9.411005973815918
1776038974856881200,-1522119.4331188966,2.3952438831329346,-1.3783199787139893,-9.409221649169922
1776038974866921500,-1522119.4230786134,2.4114761352539062,-1.386916160583496,-9.40381145477295
1776038974917275400,-1522119.3727246094,2.3999924659729004,-1.2498100996017456,-9.425942420959473
1776038974927376600,-1522119.362623291,2.4004526138305664,-1.2174216508865356,-9.430063247680664
1776038974937417000,-1522119.352583008,2.396947145462036,-1.1908023357391357,-9.434353828430176
1776038974947487700,-1522119.342512207,2.3833203315734863,-1.168939471244812,-9.44053840637207
1776038974957558500,-1522119.3324414063,2.3617606163024902,-1.1571457386016846,-9.447405815124512
1776038974977700000,-1522119.3122998048,2.440134048461914,-1.1946403980255127,-9.422789573669434
1776038974987771000,-1522119.302229004,2.507341146469116,-1.2190834283828735,-9.401992797851562
1776038975038094300,-1522119.2519057617,2.6532793045043945,-1.4814815521240234,-9.323931694030762
1776038975048134700,-1522119.2418652344,2.6697752475738525,-1.5851713418960571,-9.302145957946777
1776038975058205400,-1522119.2317946777,2.6819565296173096,-1.697535753250122,-9.278785705566406
1776038975068307000,-1522119.2216931153,2.69496750831604,-1.8130449056625366,-9.253130912780762
1776038975078347300,-1522119.211652832,2.71026611328125,-1.923917531967163,-9.22623348236084
1776038975088418000,-1522119.2015820313,2.7246651649475098,-2.027707815170288,-9.199728012084961
1776038975098458000,-1522119.1915419921,2.7419137954711914,-2.126220941543579,-9.172321319580078
1776038975118600000,-1522119.1714001466,2.7792110443115234,-2.3236260414123535,-9.113019943237305
1776038975128670700,-1522119.1613293458,2.818087100982666,-2.41605806350708,-9.076973915100098
1776038975138710800,-1522119.1512893066,2.8550772666931152,-2.5081536769866943,-9.040359497070312
1776038975148781800,-1522119.1412182618,2.9034926891326904,-2.5873680114746094,-9.002534866333008
1776038975158852600,-1522119.131147461,2.9621284008026123,-2.649507761001587,-8.965283393859863
1776038975168923400,-1522119.1210766602,3.0339179039001465,-2.701356887817383,-8.925715446472168
1776038975178963700,-1522119.111036377,3.1216392517089844,-2.7524847984313965,-8.879729270935059
1776038975189065000,-1522119.1009350587,3.2259719371795654,-2.8077449798583984,-8.824967384338379
1776038975209176000,-1522119.0808239747,3.4908876419067383,-2.9165103435516357,-8.687810897827148
1776038975239388400,-1522119.0506115723,3.990194797515869,-3.10040283203125,-8.404536247253418
1776038975249459200,-1522119.0405407716,4.170383930206299,-3.1985397338867188,-8.279348373413086
1776038975259530000,-1522119.0304699708,4.434511184692383,-3.395906925201416,-8.060602188110352
1776038975269600800,-1522119.02039917,4.5146284103393555,-3.4613773822784424,-7.987951755523682
1776038975279671600,-1522119.0103283692,4.662740707397461,-3.6286003589630127,-7.827035903930664
1776038975289742300,-1522119.0002575684,4.786553859710693,-3.827186346054077,-7.655843257904053
1776038975309853400,-1522118.9801464844,4.938776969909668,-4.511468410491943,-7.171159744262695
1776038975340035300,-1522118.9499645997,4.859424114227295,-5.3596062660217285,-6.620499610900879
1776038975350106000,-1522118.939893799,4.787817478179932,-5.697140693664551,-6.386687278747559
1776038975360146400,-1522118.9298535157,4.710241794586182,-6.005670070648193,-6.157592296600342
1776038975370217200,-1522118.919782715,4.625827312469482,-6.280794620513916,-5.94337797164917
1776038975380227000,-1522118.9097729493,4.5364885330200195,-6.5303120613098145,-5.739834308624268
1776038975390267400,-1522118.899732666,4.443175315856934,-6.773950576782227,-5.526496887207031
1776038975400307700,-1522118.889692383,4.334678649902344,-7.012566089630127,-5.310826778411865
1776038975420449300,-1522118.8695507813,4.080021858215332,-7.440487384796143,-4.915581226348877
1776038975440621300,-1522118.8493786622,3.846599578857422,-7.843980312347412,-4.454891204833984
1776038975450722600,-1522118.8392773438,3.815941095352173,-7.913144111633301,-4.357882022857666
1776038975460763000,-1522118.8292370606,3.773491621017456,-8.109691619873047,-4.020456314086914
1776038975470833700,-1522118.8191662598,3.7609026432037354,-8.166021347045898,-3.9168970584869385
1776038975480874000,-1522118.8091259766,3.7411117553710938,-8.275857925415039,-3.699276924133301
1776038975490944800,-1522118.7990551759,3.7180542945861816,-8.37801456451416,-3.486448049545288
1776038975511086300,-1522118.7789135743,3.6486997604370117,-8.564172744750977,-3.084207773208618
1776038975531258600,-1522118.7587414552,3.5488455295562744,-8.725975036621094,-2.726433753967285
1776038975541298700,-1522118.748701416,3.4871113300323486,-8.798799514770508,-2.5674080848693848
1776038975551369700,-1522118.7386303712,3.41804575920105,-8.866461753845215,-2.423471689224243
1776038975561440500,-1522118.7285595704,3.343763589859009,-8.928773880004883,-2.294917106628418
1776038975571480600,-1522118.7185195312,3.2685706615448,-8.984362602233887,-2.1835944652557373
1776038975581551400,-1522118.7084487304,3.195540189743042,-9.03292465209961,-2.0893032550811768
1776038975591652900,-1522118.698347168,3.1272459030151367,-9.07396411895752,-2.0134308338165283
1776038975621895700,-1522118.6681042481,2.946564197540283,-9.15703010559082,-1.907085657119751
1776038975631966500,-1522118.6580334473,2.92789363861084,-9.162403106689453,-1.9100285768508911
1776038975642006800,-1522118.6479931641,2.898448944091797,-9.166274070739746,-1.9361850023269653
1776038975652077600,-1522118.6379223634,2.8759331703186035,-9.163056373596191,-1.9843881130218506
1776038975662148400,-1522118.6278515626,2.858792781829834,-9.152862548828125,-2.054946184158325
1776038975672249900,-1522118.6177502442,2.8457024097442627,-9.135595321655273,-2.147852659225464
1776038975682290000,-1522118.607709961,2.8359453678131104,-9.111056327819824,-2.261963367462158
1776038975692360700,-1522118.5976394042,2.8300888538360596,-9.077771186828613,-2.3989715576171875
1776038975722573300,-1522118.567426758,2.852609395980835,-8.906563758850098,-2.9506163597106934
1776038975742715000,-1522118.5472851563,2.894313335418701,-8.704785346984863,-3.466996192932129
1776038975752816000,-1522118.537183838,2.9110186100006104,-8.532532691955566,-3.859048366546631
1776038975762887000,-1522118.5271130372,2.908818244934082,-8.357325553894043,-4.226617336273193
1776038975772927200,-1522118.517072754,2.8867549896240234,-8.179750442504883,-4.574790000915527
1776038975782998000,-1522118.5070019532,2.847560167312622,-7.985555171966553,-4.928762435913086
1776038975793068800,-1522118.4969311524,2.7896947860717773,-7.766312599182129,-5.298339366912842
1776038975803139600,-1522118.4868603516,2.7159512042999268,-7.522453308105469,-5.675096035003662
1776038975823250700,-1522118.4667492677,2.4849984645843506,-6.797646522521973,-6.6171875
1776038975843392300,-1522118.446607666,2.274303674697876,-6.09134578704834,-7.341214179992676
1776038975863473000,-1522118.4265270997,2.1254098415374756,-5.50094747543335,-7.835344314575195
1776038975873543700,-1522118.416456299,2.050434112548828,-5.081727504730225,-8.132783889770508
1776038975883584000,-1522118.4064160157,2.0010719299316406,-4.430333614349365,-8.516937255859375
1776038975893624300,-1522118.3963757325,1.9988150596618652,-3.9939281940460205,-8.73061752319336
