time,seconds_elapsed,z,y,x
1776038959374196200,-1522134.915803711,0.29999998211860657,35.57999801635742,-9.239999771118164
1776038959384228000,-1522134.9057719726,-12.719999313354492,10.679999351501465,1.6200000047683716
1776038959394099000,-1522134.895901123,-20.459999084472656,-1.6799999475479126,6.420000076293945
1776038959403969800,-1522134.8860302735,-28.19999885559082,-12.719999313354492,12.479999542236328
1776038959414009900,-1522134.8759902343,-27.059999465942383,-12.420000076293945,13.319999694824219
1776038959424111400,-1522134.865888672,-26.579999923706055,-12.59999942779541,12.420000076293945
1776038959434151700,-1522134.8558483887,-26.579999923706055,-12.539999961853027,12.59999942779541
1776038959444253000,-1522134.8457470704,-27.479999542236328,-13.019999504089355,12.119999885559082
1776038959464364000,-1522134.8256359864,-28.799999237060547,-12.119999885559082,12.059999465942383
1776038959474404400,-1522134.8155957032,-28.85999870300293,-11.75999927520752,12.65999984741211
1776038959484475100,-1522134.8055249024,-28.85999870300293,-11.579999923706055,12.719999313354492
1776038959514595800,-1522134.7754040528,-30.119998931884766,-12.960000038146973,11.9399995803833
1776038959524697300,-1522134.7653027344,-30.299999237060547,-13.139999389648438,11.75999927520752
1776038959534707000,-1522134.7552929688,-29.219999313354492,-12.359999656677246,12.59999942779541
1776038959554818000,-1522134.7351818848,-27.18000030517578,-12.300000190734863,13.139999389648438
1776038959564888800,-1522134.725111084,-27.059999465942383,-12.179999351501465,13.319999694824219
1776038959574898700,-1522134.7151013184,-26.81999969482422,-12.899999618530273,11.9399995803833
1776038959584969500,-1522134.7050305177,-26.639999389648438,-12.65999984741211,11.579999923706055
1776038959595040300,-1522134.6949597169,-26.099998474121094,-11.75999927520752,12.479999542236328
1776038959615121000,-1522134.6748791505,-25.619998931884766,-11.460000038146973,13.319999694824219
1776038959625252600,-1522134.6647473145,-26.15999984741211,-11.219999313354492,13.979999542236328
1776038959635323400,-1522134.6546765137,-25.85999870300293,-11.279999732971191,13.559999465942383
1776038959645394200,-1522134.644605713,-25.619998931884766,-11.09999942779541,14.09999942779541
1776038959655434500,-1522134.6345654298,-25.3799991607666,-10.920000076293945,14.639999389648438
1776038959665535700,-1522134.6244643554,-25.31999969482422,-11.15999984741211,14.15999984741211
1776038959675576000,-1522134.6144238282,-25.799999237060547,-10.920000076293945,14.699999809265137
1776038959685677600,-1522134.6043225098,-26.639999389648438,-11.219999313354492,15.059999465942383
1776038959715859500,-1522134.574140625,-26.459999084472656,-11.639999389648438,13.739999771118164
1776038959725930200,-1522134.5640698243,-26.03999900817871,-11.399999618530273,13.319999694824219
1776038959735970600,-1522134.554029541,-25.739999771118164,-11.34000015258789,13.139999389648438
1776038959746071800,-1522134.5439282227,-25.799999237060547,-10.4399995803833,13.5
1776038959756142600,-1522134.533857422,-26.399999618530273,-10.979999542236328,13.019999504089355
1776038959766183000,-1522134.5238171387,-26.939998626708984,-10.920000076293945,12.300000190734863
1776038959776223200,-1522134.5137768555,-27.53999900817871,-10.199999809265137,13.079999923706055
1776038959786294000,-1522134.5037060548,-28.01999855041504,-9.420000076293945,13.920000076293945
1776038959826516000,-1522134.4634841308,-28.19999885559082,-6.659999847412109,12.359999656677246
1776038959836587000,-1522134.453413086,-28.68000030517578,-6.359999656677246,11.579999923706055
1776038959846657800,-1522134.4433422852,-29.099998474121094,-5.460000038146973,11.15999984741211
1776038959866769000,-1522134.4232312012,-28.979999542236328,-3.8999998569488525,9.779999732971191
1776038959876809000,-1522134.413190918,-29.099998474121094,-2.5799999237060547,9.84000015258789
1776038959886879700,-1522134.4031203613,-29.279998779296875,-1.559999942779541,9.359999656677246
1776038959896950800,-1522134.3930493165,-29.219999313354492,-0.5999999642372131,9.059999465942383
1776038959906990800,-1522134.3830090333,-29.399999618530273,0.41999998688697815,8.819999694824219
1776038959937234000,-1522134.3527661134,-30.239999771118164,6,9.899999618530273
1776038959947304700,-1522134.3426953126,-29.939998626708984,7.37999963760376,9.359999656677246
1776038959957345000,-1522134.3326550294,-29.579999923706055,8.460000038146973,9.179999351501465
1776038959967415800,-1522134.3225842286,-28.559999465942383,8.220000267028809,7.799999713897705
1776038959977456000,-1522134.3125439454,-27.239999771118164,8.639999389648438,6.659999847412109
1776038959987618300,-1522134.3023815919,-26.69999885559082,9.59999942779541,6.899999618530273
1776038959997658600,-1522134.2923413087,-27.119998931884766,10.260000228881836,6.779999732971191
1776038960027901700,-1522134.2620983887,-28.799999237060547,14.09999942779541,6.359999656677246
1776038960037941800,-1522134.2520583495,-28.739999771118164,15.59999942779541,6.299999713897705
1776038960048012500,-1522134.2419875488,-27.119998931884766,15.779999732971191,6.480000019073486
1776038960058083600,-1522134.231916504,-26.15999984741211,16.799999237060547,7.919999599456787
1776038960068184800,-1522134.2218151856,-24.779998779296875,17.8799991607666,8.220000267028809
1776038960078255600,-1522134.2117443848,-22.799999237060547,18.18000030517578,8.15999984741211
1776038960088356900,-1522134.2016430665,-22.799999237060547,19.260000228881836,9
1776038960098397200,-1522134.1916027833,-23.100000381469727,19.5,8.09999942779541
1776038960108468000,-1522134.1815319825,-23.81999969482422,20.219999313354492,7.559999942779541
1776038960128640000,-1522134.1613601074,-23.81999969482422,22.68000030517578,7.679999828338623
1776038960138710800,-1522134.1512893066,-22.799999237060547,24.18000030517578,8.34000015258789
1776038960148812300,-1522134.1411877442,-20.279998779296875,25.19999885559082,9.179999351501465
1776038960158883000,-1522134.1311169434,-17.940000534057617,25.619998931884766,9.479999542236328
1776038960168953900,-1522134.1210461427,-15.960000038146973,26.579999923706055,10.139999389648438
1776038960179024600,-1522134.1109753419,-14.880000114440918,26.51999855041504,9.420000076293945
1776038960189126000,-1522134.1008740235,-15.059999465942383,27.239999771118164,10.319999694824219
1776038960199166200,-1522134.0908337403,-16.68000030517578,27.599998474121094,10.619999885559082
1776038960209237000,-1522134.0807629395,-17.8799991607666,27.479999542236328,10.559999465942383
1776038960239449300,-1522134.0505505372,-16.979999542236328,27.18000030517578,12.119999885559082
1776038960259591000,-1522134.0304091796,-15,27.899999618530273,14.579999923706055
1776038960279732700,-1522134.010267334,-12.059999465942383,26.579999923706055,15.960000038146973
1776038960289803500,-1522134.0001965333,-10.679999351501465,26.219999313354492,16.979999542236328
1776038960299843800,-1522133.99015625,-10.739999771118164,24.600000381469727,16.079999923706055
1776038960330056200,-1522133.9599438477,-13.199999809265137,23.69999885559082,17.8799991607666
1776038960340127000,-1522133.949873047,-13.799999237060547,23.579999923706055,19.439998626708984
1776038960390511400,-1522133.8994885255,-18.059999465942383,17.219999313354492,24.299999237060547
1776038960420662800,-1522133.8693371583,-17.459999084472656,11.639999389648438,25.559999465942383
1776038960511269600,-1522133.7787304688,-12.899999618530273,0.11999999731779099,28.619998931884766
1776038960561562400,-1522133.728437744,-10.920000076293945,-4.259999752044678,27.719999313354492
1776038960581734700,-1522133.708265381,-11.219999313354492,-6.539999961853027,26.81999969482422
1776038960601876200,-1522133.6881237794,-10.5,-7.319999694824219,26.760000228881836
1776038960642098400,-1522133.6479016114,-8.09999942779541,-8.34000015258789,28.31999969482422
1776038960652199700,-1522133.637800293,-9.539999961853027,-8.579999923706055,28.139999389648438
1776038960662240000,-1522133.6277600098,-10.559999465942383,-8.039999961853027,28.079999923706055
1776038960682381600,-1522133.6076184083,-10.619999885559082,-7.319999694824219,27.53999900817871
1776038960692482800,-1522133.59751709,-10.380000114440918,-6.539999961853027,27.84000015258789
1776038960702553600,-1522133.5874462891,-9.960000038146973,-5.759999752044678,28.31999969482422
1776038960712655000,-1522133.5773449708,-9.300000190734863,-5.87999963760376,28.799999237060547
1776038960722695200,-1522133.5673049316,-7.37999963760376,-5.87999963760376,29.459999084472656
1776038960732766200,-1522133.5572338868,-6.119999885559082,-6,29.219999313354492
1776038960742806300,-1522133.5471938476,-5.339999675750732,-6.119999885559082,29.279998779296875
1776038960752877000,-1522133.5371230468,-5.87999963760376,-5.519999980926514,29.15999984741211
1776038960762948000,-1522133.527052002,-6.960000038146973,-4.859999656677246,28.85999870300293
1776038960813363000,-1522133.476636963,-9.359999656677246,-2.6399998664855957,30.239999771118164
1776038960823433700,-1522133.4665661622,-8.639999389648438,-2.2200000286102295,30.420000076293945
1776038960833535200,-1522133.4564648438,-7.440000057220459,-1.5,31.079999923706055
1776038960843606000,-1522133.446394043,-7.440000057220459,-1.5,31.079999923706055
1776038960853676800,-1522133.4363232423,-7.37999963760376,-1.6799999475479126,29.8799991607666
1776038960863747600,-1522133.4262524415,-8.15999984741211,-0.6599999666213989,29.51999855041504
1776038960893929500,-1522133.3960705567,-8.220000267028809,3.8399999141693115,29.69999885559082
1776038960904000300,-1522133.385999756,-7.859999656677246,5.579999923706055,29.51999855041504
1776038960914101500,-1522133.3758984376,-7.259999752044678,6.839999675750732,28.920000076293945
1776038960934212600,-1522133.3557873536,-7.859999656677246,9.239999771118164,27
1776038960944313900,-1522133.3456860352,-7.739999771118164,10.380000114440918,26.34000015258789
1776038960954384600,-1522133.3356154785,-8.34000015258789,11.579999923706055,26.279998779296875
1776038960964455400,-1522133.3255446777,-8.639999389648438,13.019999504089355,26.399999618530273
1776038960974495700,-1522133.3155041505,-8.460000038146973,13.859999656677246,25.85999870300293
1776038961004738800,-1522133.2852612305,-11.819999694824219,16.739999771118164,23.579999923706055
1776038961014748400,-1522133.275251465,-13.139999389648438,18,22.799999237060547
1776038961024850000,-1522133.2651501466,-11.9399995803833,19.079999923706055,22.079999923706055
1776038961034951200,-1522133.2550488282,-10.079999923706055,19.979999542236328,21.53999900817871
1776038961045022000,-1522133.2449780274,-9.65999984741211,21,21.299999237060547
1776038961055092700,-1522133.2349072266,-9.65999984741211,21.779998779296875,20.939998626708984
1776038961065194000,-1522133.2248059083,-10.619999885559082,22.3799991607666,20.100000381469727
1776038961075264800,-1522133.2147353515,-11.75999927520752,23.219999313354492,19.079999923706055
1776038961095406600,-1522133.194593506,-12.300000190734863,24.600000381469727,17.399999618530273
1776038961115517400,-1522133.174482666,-11.399999618530273,25.979999542236328,16.85999870300293
1776038961125588500,-1522133.1644116212,-10.139999389648438,26.15999984741211,15.420000076293945
1776038961135598000,-1522133.1544018555,-8.460000038146973,26.69999885559082,15.359999656677246
1776038961145699300,-1522133.1443007812,-8.15999984741211,26.399999618530273,15.299999237060547
1776038961155770000,-1522133.1342299804,-8.9399995803833,26.579999923706055,13.979999542236328
1776038961165841200,-1522133.1241589356,-10.5,26.279998779296875,13.5
1776038961175881200,-1522133.1141188964,-12.59999942779541,26.639999389648438,13.25999927520752
1776038961206063000,-1522133.0839370117,-13.979999542236328,27.779998779296875,11.699999809265137
1776038961216134000,-1522133.0738662109,-12.59999942779541,28.139999389648438,11.880000114440918
1776038961226205000,-1522133.063795166,-10.859999656677246,27.779998779296875,11.460000038146973
1776038961236275700,-1522133.0537243653,-10.019999504089355,26.8799991607666,11.519999504089355
1776038961246346500,-1522133.0436535645,-9,26.8799991607666,12.300000190734863
1776038961256417300,-1522133.0335827637,-10.079999923706055,25.979999542236328,11.460000038146973
1776038961266488000,-1522133.023511963,-12,25.739999771118164,11.699999809265137
1776038961276558800,-1522133.0134411622,-13.079999923706055,26.279998779296875,12.179999351501465
1776038961306710300,-1522132.983289795,-15.59999942779541,25.85999870300293,13.619999885559082
1776038961326851800,-1522132.9631481934,-14.09999942779541,25.619998931884766,15.059999465942383
1776038961336892200,-1522132.9531079102,-13.019999504089355,24.719999313354492,15.479999542236328
1776038961346932200,-1522132.943067871,-11.279999732971191,24.18000030517578,16.619998931884766
1776038961357033700,-1522132.9329663087,-10.920000076293945,22.799999237060547,17.15999984741211
1776038961367104500,-1522132.922895508,-12,22.020000457763672,18.239999771118164
1776038961377205800,-1522132.9127941895,-13.739999771118164,21.299999237060547,18.65999984741211
1776038961387246000,-1522132.9027539063,-15.239999771118164,20.03999900817871,19.020000457763672
1776038961417428000,-1522132.8725720216,-16.5,16.920000076293945,22.079999923706055
1776038961427498800,-1522132.8625012208,-17.03999900817871,16.139999389648438,22.979999542236328
1776038961437569500,-1522132.85243042,-17.100000381469727,15.059999465942383,23.51999855041504
1776038961447640300,-1522132.8423596192,-15.899999618530273,13.859999656677246,24.119998931884766
1776038961457711000,-1522132.8322888184,-14.579999923706055,12.300000190734863,24.84000015258789
1776038961467782000,-1522132.8222180177,-14.34000015258789,10.619999885559082,25.31999969482422
1776038961477883400,-1522132.8121166993,-15.59999942779541,9,25.439998626708984
1776038961487923500,-1522132.80207666,-16.979999542236328,7.799999713897705,25.739999771118164
1776038961497994200,-1522132.7920058593,-17.219999313354492,7.5,26.81999969482422
1776038961528206800,-1522132.761793213,-16.979999542236328,5.519999980926514,27.84000015258789
1776038961538247200,-1522132.7517529298,-16.559999465942383,5.339999675750732,27.53999900817871
1776038961548318000,-1522132.741682129,-15.479999542236328,4.199999809265137,28.079999923706055
1776038961558388700,-1522132.7316113282,-14.039999961853027,3.059999942779541,28.5
1776038961568459500,-1522132.7215405274,-12.300000190734863,1.1999999284744263,28.68000030517578
1776038961578560800,-1522132.711439209,-12.119999885559082,-0.8399999737739563,29.099998474121094
1776038961588631600,-1522132.7013684083,-12.779999732971191,-1.5,29.34000015258789
1776038961598702300,-1522132.6912976075,-14.639999389648438,-2.5799999237060547,29.8799991607666
1776038961618844000,-1522132.671156006,-16.920000076293945,-3.299999952316284,29.939998626708984
1776038961628914700,-1522132.6610852052,-16.5,-3.6599998474121094,29.760000228881836
1776038961639016200,-1522132.6509838868,-14.699999809265137,-3.179999828338623,29.69999885559082
1776038961649087000,-1522132.640913086,-13.739999771118164,-4.139999866485596,29.939998626708984
1776038961659157800,-1522132.6308422852,-12.479999542236328,-4.619999885559082,30.479999542236328
1776038961669198000,-1522132.620802002,-11.399999618530273,-5.460000038146973,30.119998931884766
1776038961679268900,-1522132.6107312012,-12,-6.420000076293945,29.81999969482422
1776038961689309200,-1522132.600690918,-12.719999313354492,-6.839999675750732,28.739999771118164
1776038961699380000,-1522132.5906201173,-13.739999771118164,-7.319999694824219,28.19999885559082
1776038961709450800,-1522132.5805493165,-14.880000114440918,-7.679999828338623,28.559999465942383
1776038961739693600,-1522132.5503063966,-14.699999809265137,-8.220000267028809,28.85999870300293
1776038961749734000,-1522132.5402661134,-14.039999961853027,-7.799999713897705,28.739999771118164
1776038961759804700,-1522132.5301953126,-12.960000038146973,-7.980000019073486,29.219999313354492
1776038961769845000,-1522132.5201550294,-11.219999313354492,-7.919999599456787,28.85999870300293
1776038961779885300,-1522132.5101147462,-10.019999504089355,-7.919999599456787,29.459999084472656
1776038961789956000,-1522132.5000439454,-10.260000228881836,-8.34000015258789,29.15999984741211
1776038961800057300,-1522132.489942627,-10.199999809265137,-7.559999942779541,29.399999618530273
1776038961810128100,-1522132.4798718262,-11.039999961853027,-7.739999771118164,29.34000015258789
1776038961820260000,-1522132.4697399903,-12.59999942779541,-8.039999961853027,28.260000228881836
1776038961860482000,-1522132.4295180663,-13.979999542236328,-6.71999979019165,29.099998474121094
1776038961870552800,-1522132.4194472656,-12.179999351501465,-6.179999828338623,29.69999885559082
1776038961880623900,-1522132.4093762208,-10.679999351501465,-5.819999694824219,29.760000228881836
1776038961890664000,-1522132.3993361816,-9.479999542236328,-5.87999963760376,29.459999084472656
1776038961900734700,-1522132.3892653808,-9.59999942779541,-6.179999828338623,29.579999923706055
1776038961910805800,-1522132.379194336,-11.279999732971191,-5.699999809265137,29.34000015258789
1776038961920876500,-1522132.3691235352,-12.960000038146973,-5.21999979019165,29.099998474121094
1776038961941018000,-1522132.3489819337,-15.239999771118164,-3.9599997997283936,28.619998931884766
1776038961951089000,-1522132.338911133,-14.819999694824219,-2.6399998664855957,27.899999618530273
1776038961961159700,-1522132.328840332,-12.719999313354492,-1.5,28.31999969482422
1776038961971230500,-1522132.3187695313,-11.519999504089355,-0.6599999666213989,28.559999465942383
1776038961981270800,-1522132.3087292481,-10.4399995803833,0.29999998211860657,28.559999465942383
1776038961991311000,-1522132.298688965,-9.719999313354492,0.9599999785423279,29.51999855041504
1776038962001382000,-1522132.2886181641,-9.779999732971191,2.5199999809265137,30.239999771118164
1776038962011452700,-1522132.2785473634,-9.84000015258789,3.299999952316284,30.299999237060547
1776038962021554000,-1522132.268446045,-11.15999984741211,4.380000114440918,29.81999969482422
1776038962051735800,-1522132.2382641602,-14.039999961853027,8.9399995803833,27.719999313354492
1776038962061837000,-1522132.2281628419,-13.380000114440918,10.139999389648438,27.420000076293945
1776038962071877400,-1522132.2181225587,-13.079999923706055,11.460000038146973,27.420000076293945
1776038962081948200,-1522132.208051758,-13.019999504089355,11.819999694824219,27.35999870300293
1776038962092019000,-1522132.197980957,-12.179999351501465,12.84000015258789,26.81999969482422
1776038962102120400,-1522132.1878796387,-11.09999942779541,13.319999694824219,27.059999465942383
1776038962112160500,-1522132.1778395995,-9.719999313354492,13.799999237060547,26.760000228881836
1776038962122231300,-1522132.1677687988,-7.980000019073486,14.219999313354492,26.15999984741211
1776038962142434000,-1522132.147565918,-8.699999809265137,15.179999351501465,25.19999885559082
1776038962152504800,-1522132.1374951173,-10.260000228881836,15.59999942779541,24.18000030517578
1776038962172646400,-1522132.1173535157,-10.319999694824219,18.35999870300293,23.399999618530273
1776038962182717200,-1522132.107282715,-9.239999771118164,19.139999389648438,22.85999870300293
1776038962192788000,-1522132.0972119141,-8.639999389648438,19.559999465942383,22.439998626708984
1776038962202889500,-1522132.0871105958,-9.960000038146973,20.279998779296875,21.84000015258789
1776038962212899000,-1522132.0771008302,-11.639999389648438,20.219999313354492,20.34000015258789
1776038962223000600,-1522132.0669995118,-13.5,21.299999237060547,19.619998931884766
1776038962233040600,-1522132.0569594726,-14.219999313354492,22.559999465942383,19.31999969482422
1776038962263253200,-1522132.0267468262,-14.880000114440918,23.279998779296875,17.03999900817871
1776038962273324000,-1522132.0166760255,-13.739999771118164,24.239999771118164,17.279998779296875
1776038962283394800,-1522132.0066052247,-12.59999942779541,24.479999542236328,17.279998779296875
1776038962293435100,-1522131.9965649415,-10.260000228881836,24.65999984741211,16.68000030517578
1776038962303536400,-1522131.9864636231,-9.359999656677246,24.959999084472656,16.920000076293945
1776038962313576700,-1522131.97642334,-10.260000228881836,24.119998931884766,15.299999237060547
1776038962323617000,-1522131.9663830567,-12.420000076293945,24.119998931884766,15
1776038962333687800,-1522131.956312256,-14.9399995803833,24,15
1776038962353829400,-1522131.9361706544,-16.440000534057617,23.81999969482422,14.519999504089355
1776038962363930600,-1522131.926069336,-15.59999942779541,24.600000381469727,14.34000015258789
1776038962373909800,-1522131.916090332,-14.75999927520752,25.079999923706055,14.279999732971191
1776038962383980800,-1522131.9060192872,-13.859999656677246,24.779998779296875,14.279999732971191
1776038962394051600,-1522131.8959484864,-13.199999809265137,24.299999237060547,14.039999961853027
1776038962404122400,-1522131.8858776856,-12.539999961853027,23.939998626708984,14.34000015258789
1776038962414132000,-1522131.87586792,-12.359999656677246,23.15999984741211,14.75999927520752
1776038962424233500,-1522131.8657666016,-13.5,23.279998779296875,14.880000114440918
1776038962434273500,-1522131.8557265624,-14.09999942779541,23.8799991607666,15.359999656677246
1776038962464486100,-1522131.825513916,-15.59999942779541,23.51999855041504,15.59999942779541
1776038962484597200,-1522131.805402832,-15.59999942779541,23.03999900817871,17.69999885559082
1776038962494576400,-1522131.795423584,-14.75999927520752,22.020000457763672,18.18000030517578
1776038962504677600,-1522131.7853222657,-14.579999923706055,21.35999870300293,19.139999389648438
1776038962514748400,-1522131.775251465,-14.460000038146973,20.520000457763672,19.739999771118164
1776038962524819200,-1522131.7651809081,-14.279999732971191,18.959999084472656,19.619998931884766
1776038962534859500,-1522131.755140381,-14.039999961853027,18.84000015258789,20.579999923706055
1776038962555031800,-1522131.7349682618,-12.239999771118164,17.760000228881836,22.260000228881836
1776038962565133000,-1522131.7248669434,-11.75999927520752,16.979999542236328,22.979999542236328
1776038962595345400,-1522131.694654541,-12.239999771118164,13.139999389648438,24.719999313354492
1776038962605416200,-1522131.6845837403,-11.880000114440918,12.179999351501465,26.219999313354492
1776038962615456500,-1522131.674543457,-11.880000114440918,11.15999984741211,26.69999885559082
1776038962625557800,-1522131.6644421387,-11.639999389648438,9.960000038146973,27
1776038962635598000,-1522131.6544018555,-11.9399995803833,8.579999923706055,28.19999885559082
1776038962645668900,-1522131.6443310548,-11.639999389648438,7.259999752044678,28.079999923706055
1776038962665780000,-1522131.6242199708,-11.9399995803833,5.579999923706055,28.619998931884766
1776038962675820300,-1522131.6141796876,-11.699999809265137,4.380000114440918,27.959999084472656
1776038962685891000,-1522131.6041088868,-12.539999961853027,3.419999837875366,27.959999084472656
1776038962695931400,-1522131.5940686036,-12.300000190734863,2.819999933242798,27.420000076293945
1776038962706032600,-1522131.5839672852,-11.460000038146973,2.0999999046325684,27.599998474121094
1776038962716073000,-1522131.573927002,-11.639999389648438,1.2599999904632568,28.559999465942383
1776038962726174200,-1522131.5638256837,-11.579999923706055,0.35999998450279236,28.619998931884766
1776038962736184000,-1522131.553815918,-12.420000076293945,-0.9599999785423279,29.34000015258789
1776038962746285300,-1522131.5437145997,-13.380000114440918,-2.5199999809265137,29.81999969482422
1776038962776467200,-1522131.513532715,-13.799999237060547,-4.619999885559082,30
1776038962786538000,-1522131.5034619141,-13.619999885559082,-4.920000076293945,29.51999855041504
1776038962796608800,-1522131.4933911134,-13.4399995803833,-5.87999963760376,29.099998474121094
1776038962806710300,-1522131.483289795,-12.719999313354492,-6.059999942779541,29.03999900817871
1776038962816750300,-1522131.4732497558,-12.119999885559082,-6.599999904632568,28.979999542236328
1776038962826790700,-1522131.4632092286,-11.75999927520752,-6.599999904632568,29.219999313354492
1776038962836831000,-1522131.4531689454,-11.34000015258789,-6.420000076293945,29.51999855041504
1776038962846901800,-1522131.4430981446,-12.779999732971191,-6.239999771118164,28.85999870300293
1776038962877114000,-1522131.4128859863,-17.34000015258789,-5.940000057220459,28.5
1776038962887215600,-1522131.402784424,-16.619998931884766,-5.519999980926514,28.68000030517578
1776038962897256000,-1522131.3927441407,-15.479999542236328,-5.400000095367432,28.139999389648438
1776038962907357200,-1522131.3826428223,-13.799999237060547,-5.579999923706055,28.079999923706055
1776038962917428000,-1522131.3725720216,-14.34000015258789,-6.239999771118164,28.19999885559082
1776038962927498800,-1522131.3625012208,-14.699999809265137,-6.960000038146973,28.079999923706055
1776038962937569500,-1522131.35243042,-15,-7.139999866485596,28.19999885559082
1776038962947640300,-1522131.3423596192,-16.020000457763672,-6.71999979019165,28.31999969482422
1776038962977883400,-1522131.3121166993,-17.940000534057617,-5.159999847412109,28.3799991607666
1776038962998055400,-1522131.2919445802,-17.03999900817871,-6.059999942779541,28.559999465942383
1776038963008156700,-1522131.2818432618,-15.65999984741211,-6,29.34000015258789
1776038963018227500,-1522131.271772461,-15.059999465942383,-6.299999713897705,29.459999084472656
1776038963028328700,-1522131.2616713867,-13.4399995803833,-6.71999979019165,29.219999313354492
1776038963038399700,-1522131.2516003419,-13.25999927520752,-5.759999752044678,29.760000228881836
1776038963048470500,-1522131.241529541,-13.079999923706055,-5.819999694824219,29.099998474121094
1776038963088723200,-1522131.2012768555,-17.399999618530273,-5.519999980926514,27.059999465942383
1776038963098763500,-1522131.1912365723,-16.68000030517578,-3.9599997997283936,28.439998626708984
1776038963108834300,-1522131.1811657716,-15.839999198913574,-4.019999980926514,28.260000228881836
1776038963118905000,-1522131.1710949708,-14.219999313354492,-3.8399999141693115,29.03999900817871
1776038963129006300,-1522131.1609936524,-13.920000076293945,-3.7200000286102295,29.219999313354492
1776038963139046700,-1522131.1509533692,-14.579999923706055,-4.019999980926514,28.85999870300293
1776038963149117400,-1522131.1408825684,-15.59999942779541,-2.879999876022339,29.099998474121094
1776038963159188200,-1522131.1308117677,-17.100000381469727,-2.6399998664855957,28.260000228881836
1776038963209420000,-1522131.080580078,-16.920000076293945,1.9199999570846558,30.059999465942383
1776038963219460400,-1522131.0705395509,-15.239999771118164,2.759999990463257,30.719999313354492
1776038963229561900,-1522131.0604382325,-13.4399995803833,3.419999837875366,29.939998626708984
1776038963239632600,-1522131.0503674317,-12.300000190734863,4.019999980926514,29.760000228881836
1776038963249703400,-1522131.040296631,-11.279999732971191,4.5,29.51999855041504
1776038963259743700,-1522131.0302563477,-10.619999885559082,4.920000076293945,28.68000030517578
1776038963269814500,-1522131.020185547,-11.460000038146973,6.059999942779541,28.619998931884766
1776038963299996400,-1522130.9900036622,-15.179999351501465,7.559999942779541,28.079999923706055
1776038963310036500,-1522130.979963623,-14.75999927520752,8.460000038146973,27.239999771118164
1776038963320107500,-1522130.9698925782,-12.779999732971191,9.179999351501465,27.599998474121094
1776038963330178300,-1522130.9598217774,-11.039999961853027,9.899999618530273,27.299999237060547
1776038963340218400,-1522130.9497817382,-10.800000190734863,10.199999809265137,26.939998626708984
1776038963350319900,-1522130.9396801759,-11.219999313354492,10.619999885559082,27.059999465942383
1776038963360360200,-1522130.9296398927,-12.779999732971191,11.15999984741211,26.03999900817871
1776038963370461400,-1522130.9195385743,-14.34000015258789,12.300000190734863,25.799999237060547
1776038963410683600,-1522130.8793164063,-14.460000038146973,17.34000015258789,24.84000015258789
1776038963430794800,-1522130.8592053223,-12,18.719999313354492,23.639999389648438
1776038963440834800,-1522130.8491652831,-10.4399995803833,19.260000228881836,22.979999542236328
1776038963450905900,-1522130.8390942384,-8.819999694824219,19.31999969482422,22.3799991607666
1776038963460976600,-1522130.8290234376,-8.09999942779541,18.959999084472656,20.939998626708984
1776038963471047400,-1522130.8189526368,-8.880000114440918,19.439998626708984,20.459999084472656
1776038963481118200,-1522130.808881836,-10.079999923706055,19.68000030517578,19.920000076293945
1776038963511300000,-1522130.7786999512,-11.34000015258789,22.5,19.5
1776038963521371000,-1522130.7686291505,-9.960000038146973,23.51999855041504,19.5
1776038963531441700,-1522130.7585583497,-8.819999694824219,23.639999389648438,19.68000030517578
1776038963541512400,-1522130.748487549,-7.5,23.69999885559082,19.260000228881836
1776038963551613700,-1522130.7383862305,-6.960000038146973,23.399999618530273,18.65999984741211
1776038963561684500,-1522130.7283154298,-8.519999504089355,22.439998626708984,18.18000030517578
1776038963571755300,-1522130.718244629,-9.479999542236328,23.51999855041504,17.81999969482422
1776038963581826000,-1522130.7081740722,-10.979999542236328,24.18000030517578,18
1776038963601937200,-1522130.6880627442,-11.399999618530273,25.260000228881836,18.059999465942383
1776038963622078700,-1522130.6679213867,-9.420000076293945,23.81999969482422,17.639999389648438
1776038963632149500,-1522130.6578505859,-8.279999732971191,23.8799991607666,18.420000076293945
1776038963642189800,-1522130.6478100587,-6.71999979019165,23.8799991607666,18.84000015258789
1776038963652260600,-1522130.637739502,-6.059999942779541,23.81999969482422,19.19999885559082
1776038963662331400,-1522130.627668701,-7.319999694824219,23.939998626708984,19.079999923706055
1776038963672402400,-1522130.6175976563,-9.479999542236328,23.279998779296875,19.19999885559082
1776038963682473200,-1522130.6075268555,-10.920000076293945,23.03999900817871,19.260000228881836
1776038963702614800,-1522130.587385254,-12.119999885559082,22.85999870300293,20.760000228881836
1776038963722756400,-1522130.5672436524,-11.09999942779541,22.619998931884766,22.139999389648438
1776038963732827100,-1522130.5571728516,-10.199999809265137,21.35999870300293,22.739999771118164
1776038963742928400,-1522130.5470715333,-9.539999961853027,20.579999923706055,23.8799991607666
1776038963752999200,-1522130.5370007325,-7.799999713897705,19.85999870300293,24.479999542236328
1776038963773110300,-1522130.5168896485,-10.4399995803833,18.239999771118164,25.559999465942383
1776038963783211500,-1522130.5067885742,-11.519999504089355,17.459999084472656,25.5
1776038963803383800,-1522130.486616211,-13.619999885559082,15.299999237060547,26.34000015258789
1776038963823525400,-1522130.4664746094,-12,11.75999927520752,26.69999885559082
1776038963833596200,-1522130.4564038087,-10.859999656677246,10.139999389648438,27.779998779296875
1776038963843636500,-1522130.4463635255,-9.960000038146973,8.15999984741211,27.239999771118164
1776038963853737700,-1522130.436262207,-9.119999885559082,6.71999979019165,28.19999885559082
1776038963863839000,-1522130.4261611328,-11.34000015258789,5.400000095367432,28.260000228881836
1776038963873940500,-1522130.4160595704,-12.960000038146973,3.8399999141693115,28.01999855041504
1776038963883980800,-1522130.4060192872,-14.880000114440918,2.5199999809265137,28.31999969482422
1776038963893990400,-1522130.3960095216,-16.139999389648438,1.1399999856948853,27.84000015258789
1776038963924233500,-1522130.3657666016,-16.31999969482422,-1.6200000047683716,28.01999855041504
1776038963944405500,-1522130.3455944825,-15.779999732971191,-4.199999809265137,29.279998779296875
1776038963954476300,-1522130.3355236817,-15,-5.579999923706055,30
1776038963974557000,-1522130.3154431153,-13.380000114440918,-8.279999732971191,29.8799991607666
1776038963984627700,-1522130.3053723145,-14.279999732971191,-9.420000076293945,29.399999618530273
1776038963994729000,-1522130.2952709962,-15.119999885559082,-10.019999504089355,29.099998474121094
1776038964024941300,-1522130.2650585938,-16.559999465942383,-10.5,29.399999618530273
1776038964045083000,-1522130.2449172363,-14.15999984741211,-10.260000228881836,29.279998779296875
1776038964055153700,-1522130.2348464355,-13.380000114440918,-10.679999351501465,28.31999969482422
1776038964065255200,-1522130.2247448731,-11.039999961853027,-10.979999542236328,28.920000076293945
1776038964075356400,-1522130.2146435548,-10.260000228881836,-11.9399995803833,29.15999984741211
1776038964085396700,-1522130.2046032716,-11.579999923706055,-12.59999942779541,28.559999465942383
1776038964095437000,-1522130.1945629884,-12.59999942779541,-12.779999732971191,29.15999984741211
1776038964105507800,-1522130.1844921876,-14.15999984741211,-13.019999504089355,28.5
1776038964145699300,-1522130.1443007812,-15.119999885559082,-13.619999885559082,27.599998474121094
1776038964165841200,-1522130.1241589356,-12.65999984741211,-13.619999885559082,27.65999984741211
1776038964185952000,-1522130.1040480956,-10.319999694824219,-13.5,28.139999389648438
1776038964196023000,-1522130.0939770509,-9.479999542236328,-14.09999942779541,27.959999084472656
1776038964206093800,-1522130.08390625,-9.899999618530273,-13.799999237060547,28.260000228881836
1776038964236245000,-1522130.053755127,-10.739999771118164,-13.859999656677246,26.69999885559082
1776038964246285300,-1522130.0437145997,-11.15999984741211,-14.039999961853027,26.15999984741211
1776038964266427000,-1522130.0235729981,-10.199999809265137,-13.619999885559082,26.939998626708984
1776038964276528400,-1522130.0134716798,-10.4399995803833,-13.859999656677246,27.65999984741211
1776038964286599200,-1522130.003400879,-9.899999618530273,-13.739999771118164,28.079999923706055
1776038964296670000,-1522129.9933300782,-9.899999618530273,-13.619999885559082,28.559999465942383
1776038964316750300,-1522129.9732497558,-10.4399995803833,-12.420000076293945,28.5
1776038964357033700,-1522129.9329663087,-15.539999961853027,-11.639999389648438,28.559999465942383
1776038964377175300,-1522129.912824707,-14.699999809265137,-9.479999542236328,29.51999855041504
1776038964387215600,-1522129.902784424,-13.920000076293945,-8.09999942779541,30
1776038964397256000,-1522129.8927441407,-12.65999984741211,-6.960000038146973,30.299999237060547
1776038964407326700,-1522129.88267334,-11.699999809265137,-6.299999713897705,30.239999771118164
1776038964417397500,-1522129.8726025391,-11.880000114440918,-5.099999904632568,29.69999885559082
1776038964427468300,-1522129.8625317384,-11.519999504089355,-3.8399999141693115,29.399999618530273
1776038964437539000,-1522129.8524609376,-12.719999313354492,-2.5199999809265137,29.459999084472656
1776038964447579400,-1522129.8424206544,-14.15999984741211,-0.8399999737739563,29.219999313354492
1776038964467721000,-1522129.8222790528,-15.299999237060547,2.4600000381469727,30.35999870300293
1776038964477791700,-1522129.812208252,-14.219999313354492,3.4800000190734863,30.84000015258789
1776038964487832000,-1522129.8021679688,-12.779999732971191,4.440000057220459,31.260000228881836
1776038964497902800,-1522129.792097168,-12.119999885559082,5.21999979019165,30.959999084472656
1776038964507943200,-1522129.7820568848,-11.460000038146973,5.819999694824219,30.53999900817871
1776038964518014000,-1522129.771986084,-11.639999389648438,7.199999809265137,29.939998626708984
1776038964528084700,-1522129.7619152833,-12.420000076293945,8.039999961853027,29.279998779296875
1776038964548226300,-1522129.7417736817,-14.460000038146973,10.319999694824219,27.65999984741211
1776038964568367900,-1522129.7216320802,-15.239999771118164,12.59999942779541,26.459999084472656
1776038964578438700,-1522129.7115612794,-13.979999542236328,14.699999809265137,26.34000015258789
1776038964588509400,-1522129.7014904786,-12.119999885559082,15.960000038146973,26.34000015258789
1776038964598610700,-1522129.6913894042,-10.619999885559082,17.15999984741211,25.799999237060547
1776038964608681700,-1522129.6813183594,-9.65999984741211,18.479999542236328,25.439998626708984
1776038964618783000,-1522129.671217041,-10.859999656677246,18.899999618530273,24.959999084472656
1776038964628853800,-1522129.6611462403,-12.479999542236328,19.619998931884766,24.65999984741211
1776038964659096600,-1522129.6309033204,-13.979999542236328,21.600000381469727,22.920000076293945
1776038964669137000,-1522129.6208630372,-13.739999771118164,22.920000076293945,22.920000076293945
1776038964679177200,-1522129.610822754,-12.779999732971191,22.619998931884766,21.84000015258789
1776038964689248000,-1522129.6007519532,-11.75999927520752,23.03999900817871,21.779998779296875
1776038964699288300,-1522129.59071167,-11.039999961853027,23.579999923706055,22.68000030517578
1776038964709359000,-1522129.5806408692,-11.15999984741211,23.15999984741211,21.779998779296875
1776038964719460400,-1522129.5705395509,-11.880000114440918,23.69999885559082,21.420000076293945
1776038964729531100,-1522129.56046875,-13.25999927520752,23.279998779296875,20.8799991607666
1776038964759804700,-1522129.5301953126,-15.239999771118164,23.279998779296875,22.260000228881836
1776038964779946200,-1522129.510053711,-13.380000114440918,23.399999618530273,22.920000076293945
1776038964790017000,-1522129.4999829102,-12.420000076293945,23.399999618530273,23.81999969482422
1776038964800087800,-1522129.4899121094,-10.4399995803833,23.219999313354492,24
1776038964810158600,-1522129.4798413087,-10.559999465942383,22.020000457763672,23.939998626708984
1776038964820260000,-1522129.4697399903,-12.179999351501465,21.119998931884766,24.779998779296875
1776038964830300200,-1522129.459699951,-13.619999885559082,19.85999870300293,25.01999855041504
1776038964840371000,-1522129.4496291503,-15.479999542236328,18.420000076293945,25.3799991607666
1776038964870583600,-1522129.419416504,-15.239999771118164,14.9399995803833,27.35999870300293
1776038964880654300,-1522129.4093457032,-15.119999885559082,13.380000114440918,28.799999237060547
1776038964890694700,-1522129.39930542,-14.15999984741211,11.880000114440918,29.51999855041504
1776038964900765400,-1522129.3892346192,-12.899999618530273,10.079999923706055,29.81999969482422
1776038964910836200,-1522129.3791638184,-11.75999927520752,8.039999961853027,30.65999984741211
1776038964920876500,-1522129.3691235352,-10.800000190734863,6.059999942779541,30.779998779296875
1776038964930947300,-1522129.3590527344,-12.420000076293945,3.7799999713897705,30.65999984741211
1776038964941018000,-1522129.3489819337,-14.399999618530273,2.2200000286102295,31.67999839782715
1776038964951089000,-1522129.338911133,-15.960000038146973,0.6599999666213989,31.67999839782715
1776038964991402500,-1522129.2985974122,-12.84000015258789,-5.159999847412109,30.65999984741211
1776038965001504000,-1522129.2884960938,-10.800000190734863,-6.659999847412109,30.17999839782715
1776038965011544000,-1522129.2784560546,-9.300000190734863,-7.619999885559082,30.239999771118164
1776038965021645600,-1522129.2683544923,-8.639999389648438,-9.779999732971191,30.17999839782715
1776038965031716400,-1522129.2582836915,-10.139999389648438,-11.039999961853027,29.639999389648438
1776038965041787100,-1522129.2482128907,-12.059999465942383,-11.699999809265137,30.059999465942383
1776038965051796700,-1522129.238203369,-14.09999942779541,-13.019999504089355,30.299999237060547
1776038965092080000,-1522129.197919922,-12.119999885559082,-14.399999618530273,30.059999465942383
1776038965102151000,-1522129.1878491212,-10.4399995803833,-15.299999237060547,30.17999839782715
1776038965112221700,-1522129.1777783204,-9.59999942779541,-15.299999237060547,30.119998931884766
1776038965122323000,-1522129.167677002,-8.819999694824219,-15.839999198913574,29.760000228881836
1776038965132332800,-1522129.1576672364,-10.559999465942383,-15.539999961853027,29.399999618530273
1776038965142434000,-1522129.147565918,-12.960000038146973,-14.880000114440918,29.8799991607666
1776038965152444000,-1522129.1375561524,-14.460000038146973,-14.880000114440918,29.34000015258789
1776038965182686700,-1522129.1073132325,-15.179999351501465,-14.09999942779541,28.68000030517578
1776038965202858800,-1522129.0871413574,-13.979999542236328,-13.679999351501465,29.099998474121094
1776038965212899000,-1522129.0771008302,-13.079999923706055,-13.920000076293945,29.51999855041504
1776038965222939400,-1522129.067060547,-12.300000190734863,-14.039999961853027,29.81999969482422
1776038965232979700,-1522129.0570202637,-11.460000038146973,-13.799999237060547,30.17999839782715
1776038965243050500,-1522129.046949463,-11.09999942779541,-13.25999927520752,29.69999885559082
1776038965253121300,-1522129.0368786622,-11.699999809265137,-13.4399995803833,29.219999313354492
1776038965263192000,-1522129.0268078614,-11.699999809265137,-13.25999927520752,29.51999855041504
1776038965293313000,-1522128.9966870118,-15.239999771118164,-13.979999542236328,29.639999389648438
1776038965303383800,-1522128.986616211,-16.020000457763672,-13.979999542236328,28.739999771118164
1776038965333535200,-1522128.9564648438,-12.420000076293945,-13.559999465942383,29.399999618530273
1776038965343606000,-1522128.946394043,-11.699999809265137,-14.34000015258789,29.459999084472656
1776038965353676800,-1522128.9363232423,-12.359999656677246,-14.579999923706055,29.579999923706055
1776038965363747600,-1522128.9262524415,-13.199999809265137,-15.299999237060547,28.439998626708984
1776038965373788000,-1522128.9162121583,-14.219999313354492,-15.539999961853027,28.31999969482422
1776038965393960000,-1522128.8960400391,-15.239999771118164,-14.09999942779541,28.31999969482422
1776038965404030700,-1522128.8859692384,-14.9399995803833,-13.380000114440918,28.920000076293945
1776038965414040600,-1522128.8759594727,-13.380000114440918,-13.559999465942383,28.85999870300293
1776038965424111400,-1522128.865888672,-11.219999313354492,-13.319999694824219,29.639999389648438
1776038965434151700,-1522128.8558483887,-10.260000228881836,-13.619999885559082,29.639999389648438
1776038965444253000,-1522128.8457470704,-10.260000228881836,-13.559999465942383,30.299999237060547
1776038965454293200,-1522128.8357067872,-12,-13.019999504089355,30.479999542236328
1776038965464394500,-1522128.8256054688,-14.219999313354492,-12.300000190734863,30.899999618530273
1776038965474434800,-1522128.8155651856,-15.479999542236328,-11.519999504089355,31.559999465942383
1776038965514626600,-1522128.7753735352,-14.880000114440918,-9.059999465942383,32.63999938964844
1776038965524727800,-1522128.7652722169,-14.519999504089355,-7.619999885559082,33.84000015258789
1776038965534768000,-1522128.7552319337,-12.65999984741211,-6.599999904632568,34.07999801635742
1776038965544808400,-1522128.7451916505,-11.579999923706055,-5.21999979019165,34.31999969482422
1776038965554879200,-1522128.7351208497,-10.859999656677246,-4.139999866485596,34.439998626708984
1776038965564980500,-1522128.7250195313,-10.619999885559082,-2.93999981880188,33.779998779296875
1776038965575020800,-1522128.7149792481,-10.559999465942383,-1.3799999952316284,33.41999816894531
1776038965605263600,-1522128.6847363282,-12.479999542236328,2.4600000381469727,32.21999740600586
1776038965615304000,-1522128.674696045,-12.479999542236328,4.5,32.52000045776367
1776038965655556600,-1522128.6344433594,-9.300000190734863,8.039999961853027,30.17999839782715
1776038965665657900,-1522128.624342041,-10.739999771118164,9.420000076293945,29.639999389648438
1776038965675728600,-1522128.6142712403,-13.139999389648438,10.619999885559082,29.03999900817871
1776038965685799400,-1522128.6042006835,-14.579999923706055,12,28.85999870300293
1776038965705880000,-1522128.5841198731,-15.539999961853027,14.819999694824219,28.799999237060547
1776038965726052000,-1522128.563947998,-14.639999389648438,17.219999313354492,28.079999923706055
1776038965736123100,-1522128.5538769532,-13.139999389648438,18.18000030517578,27.479999542236328
1776038965746194000,-1522128.5438061524,-12.119999885559082,18.35999870300293,26.279998779296875
1776038965756234000,-1522128.5337661132,-11.09999942779541,19.5,25.619998931884766
1776038965766305000,-1522128.5236950684,-12.300000190734863,19.68000030517578,23.51999855041504
1776038965776345000,-1522128.5136550292,-13.859999656677246,20.69999885559082,22.799999237060547
1776038965786415900,-1522128.5035842285,-15.359999656677246,21.779998779296875,22.3799991607666
1776038965806527000,-1522128.4834731445,-15.839999198913574,23.399999618530273,21.420000076293945
1776038965826607600,-1522128.463392334,-13.920000076293945,24.479999542236328,19.739999771118164
1776038965836678400,-1522128.4533215333,-12.59999942779541,24.600000381469727,19.5
1776038965846749200,-1522128.4432507325,-12.300000190734863,24.239999771118164,18.35999870300293
1776038965856789500,-1522128.4332104493,-11.399999618530273,24.420000076293945,18.899999618530273
1776038965866890800,-1522128.423109131,-10.859999656677246,24.119998931884766,17.81999969482422
1776038965876961500,-1522128.4130385742,-11.279999732971191,24.299999237060547,17.100000381469727
1776038965887063000,-1522128.4029370118,-11.279999732971191,24.84000015258789,17.760000228881836
1776038965897103400,-1522128.3928967286,-12.960000038146973,24.600000381469727,17.03999900817871
1776038965917245000,-1522128.372755127,-15.299999237060547,25.3799991607666,17.69999885559082
1776038965937386500,-1522128.3526135255,-15.119999885559082,25.5,17.34000015258789
1776038965947457300,-1522128.3425427247,-14.219999313354492,25.01999855041504,17.639999389648438
1776038965957528000,-1522128.332471924,-13.380000114440918,24.899999618530273,18.299999237060547
1776038965967568400,-1522128.3224316407,-12.539999961853027,24.239999771118164,18.600000381469727
1776038965977639200,-1522128.31236084,-14.09999942779541,24.18000030517578,19.799999237060547
1776038965987710000,-1522128.3022900391,-15.420000076293945,23.939998626708984,19.920000076293945
1776038965997780700,-1522128.2922192384,-16.85999870300293,23.03999900817871,20.15999984741211
1776038966017922300,-1522128.2720776368,-17.639999389648438,21.600000381469727,21.420000076293945
1776038966038063900,-1522128.2519360352,-15.420000076293945,20.219999313354492,22.920000076293945
1776038966058205400,-1522128.2317946777,-12.960000038146973,18.35999870300293,24.84000015258789
1776038966068307000,-1522128.2216931153,-14.15999984741211,17.15999984741211,26.579999923706055
1776038966078377700,-1522128.2116223145,-15.059999465942383,15.960000038146973,27.239999771118164
1776038966088448500,-1522128.2015515137,-16.739999771118164,14.219999313354492,28.079999923706055
1776038966098488800,-1522128.1915112305,-18.420000076293945,13.380000114440918,28.85999870300293
1776038966118630400,-1522128.171369629,-17.81999969482422,11.09999942779541,30.35999870300293
1776038966138741500,-1522128.151258545,-15.119999885559082,8.399999618530273,30.420000076293945
1776038966148842800,-1522128.1411572266,-13.739999771118164,6.420000076293945,30.479999542236328
1776038966158883000,-1522128.1311169434,-12.59999942779541,4.739999771118164,30.53999900817871
1776038966168953900,-1522128.1210461427,-11.15999984741211,3.359999895095825,31.19999885559082
1776038966178994200,-1522128.1110058594,-12.059999465942383,2.0999999046325684,31.619998931884766
1776038966189065000,-1522128.1009350587,-13.319999694824219,0.9599999785423279,31.3799991607666
1776038966199135700,-1522128.090864258,-14.819999694824219,-0.17999999225139618,31.31999969482422
1776038966219277300,-1522128.0707226563,-16.979999542236328,-1.9199999570846558,31.5
1776038966239419000,-1522128.0505810548,-16.079999923706055,-3.299999952316284,32.040000915527344
1776038966249489700,-1522128.040510254,-15.119999885559082,-4.799999713897705,32.279998779296875
1776038966259530000,-1522128.0304699708,-13.679999351501465,-6.480000019073486,31.799999237060547
1776038966279641000,-1522128.0103588868,-12,-8.639999389648438,32.52000045776367
1776038966289711900,-1522128.000288086,-13.380000114440918,-8.9399995803833,32.939998626708984
1776038966299752200,-1522127.9902478028,-14.15999984741211,-8.579999923706055,32.880001068115234
1776038966309823000,-1522127.980177002,-15.65999984741211,-8.579999923706055,33.36000061035156
1776038966319893800,-1522127.9701062012,-16.920000076293945,-8.399999618530273,32.040000915527344
1776038966340065800,-1522127.949934326,-16.3799991607666,-8.519999504089355,31.19999885559082
1776038966350136600,-1522127.9398635253,-15.839999198913574,-7.980000019073486,31.079999923706055
1776038966360207600,-1522127.9297924805,-15.479999542236328,-7.739999771118164,31.439998626708984
1776038966370278400,-1522127.9197216798,-16.020000457763672,-7.679999828338623,31.01999855041504
1776038966380318500,-1522127.9096816406,-16.559999465942383,-7.799999713897705,30.899999618530273
1776038966390389500,-1522127.8996105958,-16.979999542236328,-7.619999885559082,30.779998779296875
1776038966400429600,-1522127.8895703126,-17.100000381469727,-7.619999885559082,30.299999237060547
1776038966410531000,-1522127.8794689942,-15.960000038146973,-6.599999904632568,30.779998779296875
1776038966430733600,-1522127.8592663575,-16.079999923706055,-5.87999963760376,31.01999855041504
1776038966450905900,-1522127.8390942384,-14.9399995803833,-7.139999866485596,30.599998474121094
1776038966460946000,-1522127.8290541992,-14.519999504089355,-7.5,30.059999465942383
1776038966471047400,-1522127.8189526368,-14.399999618530273,-7.859999656677246,30
1776038966481118200,-1522127.808881836,-14.279999732971191,-7.5,29.939998626708984
1776038966491189000,-1522127.7988110352,-13.25999927520752,-7.019999980926514,30.599998474121094
1776038966501229300,-1522127.788770752,-12.119999885559082,-7.559999942779541,30.779998779296875
1776038966511300000,-1522127.7786999512,-11.039999961853027,-7.679999828338623,30.779998779296875
1776038966561654000,-1522127.7283459473,-8.9399995803833,-7.619999885559082,30.959999084472656
1776038966571694300,-1522127.7183056641,-9.059999465942383,-8.039999961853027,29.939998626708984
1776038966581734700,-1522127.708265381,-8.760000228881836,-8.399999618530273,30.059999465942383
1776038966591805400,-1522127.6981945802,-9.300000190734863,-8.760000228881836,30.17999839782715
1776038966601845800,-1522127.688154297,-10.019999504089355,-8.760000228881836,30.239999771118164
1776038966611947000,-1522127.6780529786,-9.479999542236328,-8.15999984741211,31.619998931884766
1776038966622017800,-1522127.6679821778,-10.5,-8.09999942779541,31.67999839782715
1776038966642189800,-1522127.6478100587,-11.699999809265137,-6.839999675750732,32.040000915527344
1776038966662270500,-1522127.6277294923,-12.239999771118164,-5.279999732971191,32.459999084472656
1776038966672371700,-1522127.617628174,-10.800000190734863,-5.159999847412109,32.040000915527344
1776038966682412000,-1522127.6075878907,-8.9399995803833,-5.039999961853027,31.799999237060547
1776038966692452400,-1522127.5975476075,-8.279999732971191,-5.099999904632568,31.979999542236328
1776038966702523100,-1522127.5874768067,-7.619999885559082,-4.019999980926514,32.099998474121094
1776038966712594000,-1522127.577406006,-9.119999885559082,-3.179999828338623,32.63999938964844
1776038966722664700,-1522127.5673352052,-11.34000015258789,-1.6200000047683716,32.939998626708984
1776038966732735500,-1522127.5572644044,-12.65999984741211,0.05999999865889549,32.880001068115234
1776038966752877000,-1522127.5371230468,-15.239999771118164,3.7799999713897705,32.81999969482422
1776038966773019000,-1522127.5169812012,-15.119999885559082,7.799999713897705,32.52000045776367
1776038966783120100,-1522127.506879883,-14.639999389648438,9.65999984741211,32.040000915527344
1776038966793191000,-1522127.496809082,-13.859999656677246,11.09999942779541,30.959999084472656
1776038966803231200,-1522127.486768799,-12.059999465942383,12.179999351501465,30.65999984741211
1776038966813302000,-1522127.4766979981,-11.399999618530273,12.479999542236328,29.81999969482422
1776038966823403300,-1522127.4665966798,-9.779999732971191,13.019999504089355,29.34000015258789
1776038966833474000,-1522127.456525879,-9.59999942779541,13.619999885559082,28.979999542236328
1776038966863656000,-1522127.4263439942,-13.920000076293945,16.619998931884766,25.799999237060547
1776038966873726700,-1522127.4162731934,-14.519999504089355,18.479999542236328,26.34000015258789
1776038966883767000,-1522127.4062329102,-17.15999984741211,21.18000030517578,22.3799991607666
1776038966893837800,-1522127.3961621094,-16.079999923706055,21.600000381469727,21.600000381469727
1776038966903908600,-1522127.3860913087,-15.539999961853027,21.65999984741211,20.219999313354492
1776038966914010000,-1522127.3759899903,-16.799999237060547,21.53999900817871,17.940000534057617
1776038966924050200,-1522127.365949707,-18.059999465942383,22.31999969482422,16.739999771118164
1776038966934060000,-1522127.3559399415,-20.03999900817871,23.760000228881836,16.020000457763672
1776038966954201600,-1522127.33579834,-21.119998931884766,26.69999885559082,14.460000038146973
1776038966964272400,-1522127.3257275391,-20.579999923706055,27.84000015258789,13.920000076293945
1776038966974343200,-1522127.3156567384,-19.079999923706055,28.079999923706055,12.84000015258789
1776038966984444700,-1522127.30555542,-18.239999771118164,28.19999885559082,12.420000076293945
1776038966994515500,-1522127.2954846192,-16.020000457763672,28.3799991607666,11.399999618530273
1776038967004586200,-1522127.2854138184,-15.539999961853027,28.68000030517578,11.279999732971191
1776038967014657000,-1522127.2753430177,-15.479999542236328,29.219999313354492,10.199999809265137
1776038967024758300,-1522127.2652416993,-16.619998931884766,29.579999923706055,9.119999885559082
1776038967034859500,-1522127.255140381,-18.119998931884766,30.53999900817871,8.519999504089355
1776038967054940200,-1522127.2350598145,-19.559999465942383,31.19999885559082,6.839999675750732
1776038967075143000,-1522127.2148571778,-18.65999984741211,32.459999084472656,7.37999963760376
1776038967085183000,-1522127.2048171386,-17.399999618530273,33,7.199999809265137
1776038967095223300,-1522127.1947766114,-16.5,32.81999969482422,7.139999866485596
1776038967105324800,-1522127.184675293,-14.639999389648438,33.23999786376953,7.139999866485596
1776038967115364900,-1522127.1746352538,-13.920000076293945,32.279998779296875,5.639999866485596
1776038967125435600,-1522127.164564453,-13.199999809265137,32.63999938964844,5.759999752044678
1776038967135506700,-1522127.1544934083,-13.139999389648438,32.880001068115234,5.519999980926514
1776038967165719000,-1522127.124281006,-16.559999465942383,34.13999938964844,7.259999752044678
1776038967185860600,-1522127.1041394044,-15.420000076293945,34.5,8.639999389648438
1776038967195901000,-1522127.0940991212,-13.679999351501465,33.84000015258789,9.119999885559082
1776038967205971700,-1522127.0840283204,-12.119999885559082,33.23999786376953,9.479999542236328
1776038967216042500,-1522127.0739575196,-10.920000076293945,32.70000076293945,10.079999923706055
1776038967226113300,-1522127.0638867188,-11.75999927520752,31.920000076293945,10.199999809265137
1776038967236214500,-1522127.0537854005,-13.319999694824219,31.260000228881836,10.739999771118164
1776038967256325600,-1522127.0336743165,-16.3799991607666,30.35999870300293,12.539999961853027
1776038967266366000,-1522127.0236340333,-16.619998931884766,29.760000228881836,13.4399995803833
1776038967276436700,-1522127.0135632325,-16.260000228881836,29.279998779296875,14.75999927520752
1776038967286477000,-1522127.0035229493,-15.179999351501465,28.3799991607666,15.839999198913574
1776038967296547800,-1522126.9934521485,-14.399999618530273,27.299999237060547,16.739999771118164
1776038967306618600,-1522126.9833813477,-15.179999351501465,25.85999870300293,17.520000457763672
1776038967316719900,-1522126.9732800294,-16.440000534057617,24.84000015258789,18.719999313354492
1776038967326760200,-1522126.9632397462,-18.53999900817871,24.18000030517578,19.3799991607666
1776038967336800500,-1522126.953199463,-20.15999984741211,23.100000381469727,20.34000015258789
1776038967367043300,-1522126.922956787,-19.139999389648438,20.219999313354492,21.779998779296875
1776038967377114000,-1522126.9128859863,-18.35999870300293,19.139999389648438,22.260000228881836
1776038967387154400,-1522126.902845459,-17.34000015258789,17.8799991607666,22.920000076293945
1776038967397225200,-1522126.8927749023,-15.359999656677246,17.03999900817871,23.69999885559082
1776038967407296000,-1522126.8827041015,-14.34000015258789,15.539999961853027,24
1776038967417367000,-1522126.8726330567,-14.639999389648438,14.819999694824219,24.299999237060547
1776038967427407000,-1522126.8625930175,-14.699999809265137,14.460000038146973,25.01999855041504
1776038967437508600,-1522126.8524914552,-16.739999771118164,14.219999313354492,25.739999771118164
1776038967457619700,-1522126.8323803712,-18.779998779296875,12.960000038146973,25.920000076293945
1776038967467659800,-1522126.822340332,-19.920000076293945,12.359999656677246,25.979999542236328
1776038967487801600,-1522126.8021984864,-18.53999900817871,11.9399995803833,26.81999969482422
1776038967497872400,-1522126.7921276856,-17.639999389648438,11.399999618530273,27.65999984741211
1776038967507912400,-1522126.7820876464,-16.619998931884766,10.920000076293945,27.84000015258789
1776038967518014000,-1522126.771986084,-17.100000381469727,10.5,28.619998931884766
1776038967528054300,-1522126.7619458009,-18.65999984741211,10.619999885559082,28.19999885559082
1776038967538125000,-1522126.751875,-19.559999465942383,10.5,27.35999870300293
1776038967548165400,-1522126.7418347169,-20.939998626708984,10.619999885559082,26.34000015258789
1776038967578438700,-1522126.7115612794,-20.100000381469727,11.34000015258789,25.920000076293945
1776038967588479000,-1522126.7015209962,-18.35999870300293,11.579999923706055,26.69999885559082
1776038967598549800,-1522126.6914501954,-16.19999885559082,12.059999465942383,27.479999542236328
1776038967608590000,-1522126.6814099122,-14.519999504089355,12.84000015258789,27.65999984741211
1776038967618660900,-1522126.6713391114,-14.34000015258789,12.779999732971191,28.01999855041504
1776038967628731600,-1522126.6612683106,-15.539999961853027,13.559999465942383,27.84000015258789
1776038967638833000,-1522126.6511669923,-17.579999923706055,13.4399995803833,26.51999855041504
1776038967648903700,-1522126.6410964355,-19.31999969482422,13.199999809265137,25.979999542236328
1776038967679146800,-1522126.6108532716,-19.920000076293945,15.179999351501465,25.920000076293945
1776038967689187000,-1522126.6008129884,-19.85999870300293,15.899999618530273,26.03999900817871
1776038967699227400,-1522126.5907727052,-17.639999389648438,15.719999313354492,25.3799991607666
1776038967709298200,-1522126.5807019044,-16.079999923706055,16.260000228881836,25.68000030517578
1776038967719369000,-1522126.5706311036,-14.880000114440918,16.440000534057617,25.559999465942383
1776038967729409300,-1522126.5605908204,-14.09999942779541,16.020000457763672,25.31999969482422
1776038967739480000,-1522126.5505200196,-15.539999961853027,16.5,25.68000030517578
1776038967749520100,-1522126.5404799804,-16.85999870300293,16.68000030517578,25.079999923706055
1776038967759621600,-1522126.530378418,-17.69999885559082,16.920000076293945,24.779998779296875
1776038967799904800,-1522126.490095215,-16.920000076293945,19.85999870300293,24.35999870300293
1776038967809945000,-1522126.4800549317,-15.899999618530273,20.579999923706055,24.239999771118164
1776038967830025700,-1522126.4599743653,-11.75999927520752,21.65999984741211,24.959999084472656
1776038967840096500,-1522126.4499035645,-10.619999885559082,21.119998931884766,24.899999618530273
1776038967850167300,-1522126.4398327637,-9.899999618530273,20.34000015258789,24.899999618530273
1776038967870308900,-1522126.4196911622,-10.979999542236328,20.939998626708984,25.5
1776038967880410000,-1522126.4095898438,-11.399999618530273,21.18000030517578,25.68000030517578
1776038967900521200,-1522126.3894787598,-10.319999694824219,20.639999389648438,25.739999771118164
1776038967910592000,-1522126.379407959,-9.059999465942383,19.439998626708984,25.439998626708984
1776038967920632300,-1522126.3693676759,-8.699999809265137,19.020000457763672,25.619998931884766
1776038967930703000,-1522126.359296875,-8.9399995803833,18.719999313354492,26.099998474121094
1776038967940774000,-1522126.3492260743,-10.380000114440918,18.84000015258789,25.68000030517578
1776038967950814200,-1522126.339185791,-11.819999694824219,18.600000381469727,26.15999984741211
1776038968001137700,-1522126.2888623048,-9.420000076293945,18.239999771118164,27.599998474121094
1776038968011208400,-1522126.278791504,-8.09999942779541,18.479999542236328,28.559999465942383
1776038968021279200,-1522126.2687207032,-7.139999866485596,18.119998931884766,28.439998626708984
1776038968031350000,-1522126.2586499024,-5.099999904632568,17.8799991607666,28.739999771118164
1776038968051491600,-1522126.2385083009,-3.299999952316284,16.619998931884766,27.84000015258789
1776038968061593000,-1522126.2284069825,-2.700000047683716,16.440000534057617,28.260000228881836
1776038968091836000,-1522126.1981640626,-4.259999752044678,16.979999542236328,27.420000076293945
1776038968101906700,-1522126.1880932618,-4.799999713897705,18.059999465942383,26.399999618530273
1776038968111977500,-1522126.178022461,-4.679999828338623,18.600000381469727,25.619998931884766
1776038968122078700,-1522126.1679213867,-4.619999885559082,19.439998626708984,25.139999389648438
1776038968132119000,-1522126.1578808594,-4.5,19.739999771118164,25.19999885559082
1776038968142220500,-1522126.147779541,-4.199999809265137,20.219999313354492,24.959999084472656
1776038968152260600,-1522126.137739502,-4.739999771118164,21,24.059999465942383
1776038968162362000,-1522126.1276379395,-5.099999904632568,21.959999084472656,23.34000015258789
1776038968202614800,-1522126.087385254,-9.239999771118164,27.719999313354492,19.19999885559082
1776038968222756400,-1522126.0672436524,-8.460000038146973,29.8799991607666,18.119998931884766
1776038968232827100,-1522126.0571728516,-7.37999963760376,30.53999900817871,17.219999313354492
1776038968242898000,-1522126.0471020509,-6.71999979019165,30.65999984741211,16.260000228881836
1776038968252968700,-1522126.03703125,-6.179999828338623,31.139999389648438,15.479999542236328
1776038968263039500,-1522126.0269604493,-5.639999866485596,31.979999542236328,14.09999942779541
1776038968303383800,-1522125.986616211,-8.760000228881836,34.2599983215332,9
1776038968313454600,-1522125.9765454102,-9,35.39999771118164,8.579999923706055
1776038968323525400,-1522125.9664746094,-9.119999885559082,35.63999938964844,7.619999885559082
1776038968333504500,-1522125.9564956054,-8.519999504089355,35.459999084472656,6.179999828338623
1776038968343575300,-1522125.9464248046,-9,35.040000915527344,5.039999961853027
1776038968353615600,-1522125.9363842774,-10.739999771118164,34.439998626708984,3.7799999713897705
1776038968363656000,-1522125.9263439942,-12.539999961853027,34.5,2.2799999713897705
1776038968373665800,-1522125.9163342286,-14.639999389648438,35.040000915527344,1.1399999856948853
1776038968403878100,-1522125.8861218262,-14.579999923706055,36.65999984741211,-1.8600000143051147
1776038968423989200,-1522125.8660107423,-11.460000038146973,37.55999755859375,-3.119999885559082
1776038968434060000,-1522125.8559399415,-10.019999504089355,37.20000076293945,-3.7200000286102295
1776038968444130800,-1522125.8458691407,-9.239999771118164,36.71999740600586,-4.559999942779541
1776038968454110200,-1522125.8358898927,-8.279999732971191,36.119998931884766,-5.400000095367432
1776038968464211500,-1522125.8257885743,-9.420000076293945,36.540000915527344,-6.239999771118164
1776038968474282200,-1522125.8157177735,-10.559999465942383,36.599998474121094,-7.079999923706055
1776038968484383500,-1522125.8056164552,-12.059999465942383,37.02000045776367,-7.37999963760376
1776038968514565400,-1522125.7754345704,-13.979999542236328,37.13999938964844,-8.880000114440918
1776038968524666600,-1522125.765333496,-13.920000076293945,36.84000015258789,-9.420000076293945
1776038968534707000,-1522125.7552929688,-12.179999351501465,36.84000015258789,-9.84000015258789
1776038968544777700,-1522125.745222168,-12.479999542236328,36.65999984741211,-9.960000038146973
1776038968554848500,-1522125.7351513673,-11.819999694824219,37.07999801635742,-8.9399995803833
1776038968574959600,-1522125.7150402833,-11.279999732971191,36.540000915527344,-8.880000114440918
1776038968585061000,-1522125.704938965,-11.34000015258789,36.36000061035156,-8.279999732971191
1776038968605233200,-1522125.6847668458,-13.4399995803833,36.65999984741211,-7.619999885559082
1776038968625374700,-1522125.6646252442,-13.019999504089355,37.13999938964844,-6.059999942779541
1776038968635445500,-1522125.6545544434,-11.819999694824219,37.2599983215332,-5.21999979019165
1776038968645546800,-1522125.644453369,-11.039999961853027,37.13999938964844,-3.9599997997283936
1776038968655587000,-1522125.6344128419,-12.239999771118164,36.89999771118164,-3.059999942779541
1776038968665657900,-1522125.624342041,-13.380000114440918,37.13999938964844,-2.0999999046325684
1776038968675698200,-1522125.614301758,-14.880000114440918,37.31999969482422,-1.3199999332427979
1776038968685769000,-1522125.604230957,-16.079999923706055,37.91999816894531,-0.5999999642372131
1776038968695809300,-1522125.594190674,-15.65999984741211,37.86000061035156,0.23999999463558197
1776038968705880000,-1522125.5841198731,-16.19999885559082,38.040000915527344,0.9599999785423279
1776038968715950800,-1522125.5740490723,-16.139999389648438,38.099998474121094,2.0999999046325684
1776038968726052000,-1522125.563947998,-15.960000038146973,37.5,2.2799999713897705
1776038968756234000,-1522125.5337661132,-9.779999732971191,37.86000061035156,4.559999942779541
1776038968766305000,-1522125.5236950684,-7.619999885559082,38.21999740600586,5.759999752044678
1776038968776375800,-1522125.5136242677,-8.519999504089355,38.459999084472656,6.179999828338623
1776038968786415900,-1522125.5035842285,-9.179999351501465,39.18000030517578,6.659999847412109
1776038968796487000,-1522125.4935131837,-10.979999542236328,39.41999816894531,7.019999980926514
1776038968816597800,-1522125.4734023437,-12.179999351501465,40.91999816894531,7.980000019073486
1776038968836708900,-1522125.4532910157,-9.479999542236328,42.119998931884766,9.719999313354492
1776038968846749200,-1522125.4432507325,-7.440000057220459,41.7599983215332,10.199999809265137
1776038968856820000,-1522125.4331799317,-5.460000038146973,41.52000045776367,11.09999942779541
1776038968866860300,-1522125.4231396485,-3.8999998569488525,41.15999984741211,11.34000015258789
1776038968876900600,-1522125.4130993653,-4.019999980926514,40.439998626708984,11.579999923706055
1776038968886971400,-1522125.4030285645,-4.319999694824219,40.439998626708984,11.699999809265137
1776038968897042200,-1522125.3929577637,-4.619999885559082,40.86000061035156,12.119999885559082
1776038968907113000,-1522125.382886963,-3.299999952316284,40.619998931884766,11.75999927520752
1776038968937325300,-1522125.3526748046,0.7199999690055847,41.459999084472656,12.899999618530273
1776038968947426800,-1522125.3425732423,1.6200000047683716,41.279998779296875,12.960000038146973
1776038968957467100,-1522125.332532959,3.059999942779541,41.52000045776367,13.139999389648438
1776038968967538000,-1522125.3224621583,4.679999828338623,41.040000915527344,13.859999656677246
1776038968977608700,-1522125.3123913575,6.71999979019165,40.86000061035156,14.399999618530273
1776038968987710000,-1522125.3022900391,8.34000015258789,40.55999755859375,15
1776038968997750300,-1522125.292249756,9.059999465942383,39.41999816894531,15.779999732971191
1776038969007821000,-1522125.2821789552,8.819999694824219,39.41999816894531,16.31999969482422
1776038969038003000,-1522125.2519970704,6.059999942779541,39.119998931884766,17.520000457763672
1776038969058144500,-1522125.2318554688,5.099999904632568,39.119998931884766,18.53999900817871
1776038969068215300,-1522125.221784668,5.639999866485596,38.040000915527344,19.020000457763672
1776038969078255600,-1522125.2117443848,6.239999771118164,38.040000915527344,19.079999923706055
1776038969088356900,-1522125.2016430665,5.639999866485596,37.55999755859375,19.5
1776038969098397200,-1522125.1916027833,3.5399999618530273,36.779998779296875,19.3799991607666
1776038969108468000,-1522125.1815319825,1.6200000047683716,37.13999938964844,19.799999237060547
1776038969148659700,-1522125.141340332,-3.5399999618530273,34.86000061035156,20.279998779296875
1776038969168831700,-1522125.121168213,-2.3399999141693115,34.68000030517578,21.600000381469727
1776038969178902500,-1522125.1110974122,-1.3199999332427979,34.380001068115234,21.779998779296875
1776038969189003800,-1522125.1009963378,-1.559999942779541,34.380001068115234,22.139999389648438
1776038969199044000,-1522125.0909558106,-3.5399999618530273,33.119998931884766,21.059999465942383
1776038969209115000,-1522125.0808850098,-5.940000057220459,32.21999740600586,20.279998779296875
1776038969219124700,-1522125.0708752442,-7.919999599456787,32.279998779296875,20.219999313354492
1776038969269417700,-1522125.0205822755,-9.300000190734863,31.139999389648438,20.03999900817871
1776038969279488500,-1522125.0105114747,-8.15999984741211,31.920000076293945,19.68000030517578
1776038969289559300,-1522125.000440674,-6.779999732971191,31.920000076293945,19.5
1776038969299630000,-1522124.9903698731,-5.099999904632568,32.459999084472656,19.739999771118164
1776038969309700900,-1522124.9802990723,-4.139999866485596,32.70000076293945,19.19999885559082
1776038969319771600,-1522124.9702282716,-5.400000095367432,31.920000076293945,18.600000381469727
1776038969350045200,-1522124.939954834,-8.9399995803833,32.459999084472656,15.539999961853027
1776038969360116000,-1522124.9298840333,-8.639999389648438,33.18000030517578,14.699999809265137
1776038969370217200,-1522124.919782715,-7.679999828338623,34.55999755859375,14.460000038146973
1776038969380257500,-1522124.9097424317,-6.480000019073486,35.15999984741211,12.65999984741211
1776038969390297900,-1522124.8997021485,-6.659999847412109,36.29999923706055,11.699999809265137
1776038969400338200,-1522124.8896618653,-6.779999732971191,37.02000045776367,9.65999984741211
1776038969410409000,-1522124.8795910645,-7.319999694824219,37.68000030517578,7.919999599456787
1776038969420479700,-1522124.8695202637,-8.220000267028809,38.81999969482422,6.420000076293945
1776038969430581000,-1522124.8594189454,-8.34000015258789,39,4.319999694824219
1776038969470925300,-1522124.819074707,-8.09999942779541,38.7599983215332,-2.2799999713897705
1776038969480965600,-1522124.809034424,-7.859999656677246,39.36000061035156,-3.8399999141693115
1776038969491067000,-1522124.7989331055,-5.87999963760376,39.84000015258789,-5.21999979019165
1776038969501107200,-1522124.7888928223,-4.980000019073486,39.89999771118164,-6.359999656677246
1776038969511178000,-1522124.7788220216,-3.179999828338623,39.959999084472656,-7.739999771118164
1776038969521218300,-1522124.7687817384,-2.3999998569488525,39.71999740600586,-9.179999351501465
1776038969531319600,-1522124.75868042,-3.9599997997283936,39.119998931884766,-10.739999771118164
1776038969561532000,-1522124.7284680177,-9,39.540000915527344,-15.359999656677246
1776038969571602700,-1522124.7183972169,-9.179999351501465,39.89999771118164,-15.839999198913574
1776038969581643000,-1522124.7083569337,-8.760000228881836,39.18000030517578,-17.579999923706055
1776038969591683300,-1522124.6983166505,-8.039999961853027,38.39999771118164,-19.139999389648438
1776038969601723600,-1522124.6882763673,-8.460000038146973,37.619998931884766,-19.19999885559082
1776038969611825000,-1522124.678175049,-9.779999732971191,36.84000015258789,-21.600000381469727
1776038969621895700,-1522124.6681042481,-11.639999389648438,36.959999084472656,-22.439998626708984
1776038969631966500,-1522124.6580334473,-12.84000015258789,36.65999984741211,-23.51999855041504
1776038969642006800,-1522124.6479931641,-13.5,37.07999801635742,-25.3799991607666
1776038969672249900,-1522124.6177502442,-13.380000114440918,36.41999816894531,-27.599998474121094
1776038969702523100,-1522124.5874768067,-11.219999313354492,36.29999923706055,-27.899999618530273
1776038969712594000,-1522124.577406006,-10.260000228881836,36.23999786376953,-27.719999313354492
1776038969722664700,-1522124.5673352052,-10.019999504089355,36.41999816894531,-27.119998931884766
1776038969732735500,-1522124.5572644044,-8.880000114440918,36.89999771118164,-26.099998474121094
1776038969773019000,-1522124.5169812012,-10.079999923706055,36.540000915527344,-25.68000030517578
1776038969783089700,-1522124.5069104005,-11.09999942779541,38.21999740600586,-23.69999885559082
1776038969793191000,-1522124.496809082,-10.979999542236328,39,-22.68000030517578
1776038969803261700,-1522124.4867382813,-9.899999618530273,39.599998474121094,-20.81999969482422
1776038969813240800,-1522124.4767592773,-8.639999389648438,40.439998626708984,-18.719999313354492
1776038969823311600,-1522124.4666884765,-7.319999694824219,40.55999755859375,-16.979999542236328
1776038969833382700,-1522124.4566174317,-7.259999752044678,41.279998779296875,-14.399999618530273
1776038969843453400,-1522124.446546631,-6.960000038146973,42.23999786376953,-12.539999961853027
1776038969863595000,-1522124.4264050294,-5.579999923706055,43.20000076293945,-8.039999961853027
1776038969893807400,-1522124.396192627,-5.279999732971191,43.31999969482422,-1.0199999809265137
1776038969903878100,-1522124.3861218262,-6.480000019073486,43.5,0.8999999761581421
1776038969914010000,-1522124.3759899903,-6.299999713897705,42.36000061035156,2.2200000286102295
1776038969924050200,-1522124.365949707,-6.839999675750732,42.23999786376953,4.799999713897705
1776038969934090500,-1522124.355909424,-6.299999713897705,42.119998931884766,7.559999942779541
1776038969944191700,-1522124.3458083495,-5.819999694824219,41.459999084472656,9.779999732971191
1776038969984475100,-1522124.3055249024,-7.37999963760376,39,15
1776038969994546000,-1522124.2954541016,-7.559999942779541,38.63999938964844,16.5
1776038970004616700,-1522124.2853833009,-8.279999732971191,37.73999786376953,17.760000228881836
1776038970014657000,-1522124.2753430177,-9,36.959999084472656,18.959999084472656
1776038970024758300,-1522124.2652416993,-9.539999961853027,36.41999816894531,20.15999984741211
1776038970034829000,-1522124.2551708985,-9.719999313354492,35.34000015258789,20.69999885559082
1776038970044869400,-1522124.2451306153,-9.359999656677246,34.5,21.119998931884766
1776038970054940200,-1522124.2350598145,-8.220000267028809,34.02000045776367,21.719999313354492
1776038970115395600,-1522124.1746044923,2.5199999809265137,35.040000915527344,24.899999618530273
1776038970125435600,-1522124.164564453,3.240000009536743,34.2599983215332,25.619998931884766
1776038970135506700,-1522124.1544934083,4.440000057220459,34.07999801635742,25.3799991607666
1776038970145546800,-1522124.144453369,4.319999694824219,33.05999755859375,25.559999465942383
1776038970155617500,-1522124.1343825683,5.460000038146973,32.63999938964844,26.099998474121094
1776038970165657900,-1522124.124342041,5.819999694824219,32.63999938964844,26.399999618530273
1776038970185799400,-1522124.1042006835,6.899999618530273,31.85999870300293,27.059999465942383
1776038970195901000,-1522124.0940991212,7.37999963760376,31.19999885559082,27.239999771118164
1776038970205941200,-1522124.084058838,7.859999656677246,30.65999984741211,27
1776038970216012000,-1522124.0739880372,7.679999828338623,30.299999237060547,27.84000015258789
1776038970226052000,-1522124.063947998,8.279999732971191,29.81999969482422,27.599998474121094
1776038970236123100,-1522124.0538769532,7.980000019073486,29.34000015258789,27.779998779296875
1776038970246194000,-1522124.0438061524,8.220000267028809,28.799999237060547,27.84000015258789
1776038970256264700,-1522124.0337353516,8.760000228881836,28.619998931884766,27.959999084472656
1776038970266305000,-1522124.0236950684,8.279999732971191,29.279998779296875,29.34000015258789
1776038970286446600,-1522124.0035534669,9.539999961853027,29.8799991607666,29.219999313354492
1776038970316689400,-1522123.973310547,10.380000114440918,29.760000228881836,28.920000076293945
1776038970326760200,-1522123.9632397462,10.139999389648438,30.059999465942383,28.68000030517578
1776038970336861400,-1522123.9531386718,10.139999389648438,30.119998931884766,28.079999923706055
1776038970346901800,-1522123.9430981446,10.319999694824219,30.84000015258789,28.139999389648438
1776038970356972500,-1522123.9330273438,10.4399995803833,31.439998626708984,28.01999855041504
1776038970367043300,-1522123.922956787,10.979999542236328,31.920000076293945,27.899999618530273
1776038970397256000,-1522123.8927441407,12.059999465942383,34.02000045776367,25.920000076293945
1776038970437539000,-1522123.8524609376,11.15999984741211,37.68000030517578,23.34000015258789
1776038970447579400,-1522123.8424206544,10.859999656677246,37.91999816894531,22.3799991607666
1776038970457650200,-1522123.8323498536,10.199999809265137,38.939998626708984,21.299999237060547
1776038970467721000,-1522123.8222790528,9.59999942779541,40.86000061035156,20.279998779296875
1776038970477791700,-1522123.812208252,9.779999732971191,42.119998931884766,18.65999984741211
1776038970497963800,-1522123.792036133,10.019999504089355,45.41999816894531,15.420000076293945
1776038970508004000,-1522123.7819958497,10.559999465942383,46.13999938964844,12.779999732971191
1776038970518105300,-1522123.7718947753,10.979999542236328,46.55999755859375,10.679999351501465
1776038970528176000,-1522123.7618239745,10.800000190734863,46.439998626708984,9.300000190734863
1776038970538247200,-1522123.7517529298,10.380000114440918,45.959999084472656,8.15999984741211
1776038970548318000,-1522123.741682129,10.079999923706055,45.779998779296875,7.259999752044678
1776038970558419200,-1522123.7315808106,10.019999504089355,45.89999771118164,6.059999942779541
1776038970568459500,-1522123.7215405274,10.019999504089355,45.599998474121094,3.7200000286102295
1776038970578530300,-1522123.7114697266,10.199999809265137,45.71999740600586,1.7400000095367432
1776038970598672000,-1522123.691328125,9.84000015258789,45.71999740600586,-1.6799999475479126
1776038970618844000,-1522123.671156006,11.219999313354492,46.13999938964844,-4.199999809265137
1776038970628914700,-1522123.6610852052,11.15999984741211,45.599998474121094,-5.639999866485596
1776038970638985500,-1522123.6510146484,11.880000114440918,45.89999771118164,-7.559999942779541
1776038970649056300,-1522123.6409438476,11.34000015258789,45.119998931884766,-9.179999351501465
1776038970669198000,-1522123.620802002,12.239999771118164,45.65999984741211,-12
1776038970679268900,-1522123.6107312012,12.479999542236328,45.84000015258789,-12.059999465942383
1776038970689339600,-1522123.6006604005,12.779999732971191,45.65999984741211,-13.559999465942383
1776038970699441000,-1522123.590559082,11.880000114440918,44.70000076293945,-15.359999656677246
1776038970719552000,-1522123.5704479981,10.739999771118164,44.099998474121094,-17.639999389648438
1776038970729622800,-1522123.5603771973,11.880000114440918,44.15999984741211,-18
1776038970739724000,-1522123.550275879,13.5,44.099998474121094,-18
1776038970749794800,-1522123.5402050782,14.75999927520752,43.439998626708984,-18.420000076293945
1776038970759896300,-1522123.5301037598,14.9399995803833,41.52000045776367,-20.399999618530273
1776038970769936400,-1522123.5200637206,13.4399995803833,41.57999801635742,-20.760000228881836
1776038970780038000,-1522123.5099621583,11.639999389648438,41.63999938964844,-21.420000076293945
1776038970810219800,-1522123.4797802735,10.019999504089355,42.36000061035156,-22.139999389648438
1776038970830331000,-1522123.4596691895,12.59999942779541,42.65999984741211,-22.079999923706055
1776038970850472400,-1522123.439527588,15.179999351501465,42.599998474121094,-20.639999389648438
1776038970860573700,-1522123.4294262696,14.279999732971191,41.70000076293945,-20.399999618530273
1776038970870614000,-1522123.4193859864,13.079999923706055,42.41999816894531,-19.619998931884766
1776038970880684800,-1522123.4093151856,11.639999389648438,42.71999740600586,-19.260000228881836
1776038970900856800,-1522123.3891430665,12.179999351501465,44.15999984741211,-16.31999969482422
1776038970910897200,-1522123.3791027833,12.84000015258789,44.34000015258789,-14.9399995803833
1776038970920968000,-1522123.3690319825,14.09999942779541,44.87999725341797,-13.019999504089355
1776038970951149800,-1522123.3388500977,18.35999870300293,45,-8.399999618530273
1776038970961220600,-1522123.328779297,18.779998779296875,44.7599983215332,-6.899999618530273
1776038970971291400,-1522123.3187084962,17.8799991607666,45.53999710083008,-4.440000057220459
1776038970981362200,-1522123.3086379394,15.59999942779541,45.47999954223633,-2.759999990463257
1776038970991433000,-1522123.2985671386,13.4399995803833,45.84000015258789,-0.7199999690055847
1776038971001473300,-1522123.2885266114,10.800000190734863,46.439998626708984,1.5
1776038971021614800,-1522123.2683852538,8.039999961853027,47.34000015258789,5.87999963760376
1776038971051858000,-1522123.23814209,9.300000190734863,46.5,11.579999923706055
1776038971061928700,-1522123.2280712891,9.479999542236328,45.47999954223633,13.019999504089355
1776038971071999500,-1522123.2180004884,7.440000057220459,45,14.039999961853027
1776038971082070300,-1522123.2079296876,6.119999885559082,44.52000045776367,14.699999809265137
1776038971092110600,-1522123.1978894044,4.019999980926514,44.63999938964844,16.139999389648438
1776038971112221700,-1522123.1777783204,1.8600000143051147,44.15999984741211,18.299999237060547
1776038971122292500,-1522123.1677075196,1.1999999284744263,43.86000061035156,19.85999870300293
1776038971142373000,-1522123.1476269532,2.879999876022339,42.41999816894531,22.799999237060547
1776038971152444000,-1522123.1375561524,4.920000076293945,42.119998931884766,23.760000228881836
1776038971162545200,-1522123.127454834,6.539999961853027,40.619998931884766,24.479999542236328
1776038971172616000,-1522123.1173840333,7.139999866485596,39.65999984741211,24.959999084472656
1776038971182717200,-1522123.107282715,6.659999847412109,39,25.079999923706055
1776038971192757500,-1522123.0972424317,5.819999694824219,38.040000915527344,25.31999969482422
1776038971212868600,-1522123.0771313477,6.059999942779541,37.91999816894531,26.639999389648438
1776038971232949200,-1522123.0570507813,9.59999942779541,36.71999740600586,27.479999542236328
1776038971243020000,-1522123.0469799805,12.179999351501465,35.939998626708984,27.420000076293945
1776038971253029600,-1522123.036970459,13.920000076293945,35.34000015258789,28.439998626708984
1776038971263100700,-1522123.0268994141,16.260000228881836,34.73999786376953,29.34000015258789
1776038971273140700,-1522123.016859375,16.139999389648438,33.89999771118164,29.579999923706055
1776038971283211500,-1522123.0067885742,15.179999351501465,33.599998474121094,29.639999389648438
1776038971293191000,-1522122.996809082,14.880000114440918,32.70000076293945,28.5
1776038971323464400,-1522122.9665356446,15.239999771118164,31.67999839782715,28.559999465942383
1776038971333443600,-1522122.9565563966,17.100000381469727,31.559999465942383,29.459999084472656
1776038971343514400,-1522122.9464855958,18.18000030517578,30.899999618530273,29.579999923706055
1776038971353554700,-1522122.9364453126,19.739999771118164,30.059999465942383,29.760000228881836
1776038971363625500,-1522122.9263745118,21.65999984741211,29.8799991607666,30.35999870300293
1776038971373665800,-1522122.9163342286,20.81999969482422,29.34000015258789,30.299999237060547
1776038971383767000,-1522122.9062329102,20.459999084472656,29.15999984741211,30.719999313354492
1776038971393837800,-1522122.8961621094,19.260000228881836,29.279998779296875,30.779998779296875
1776038971403908600,-1522122.8860913087,18.18000030517578,29.15999984741211,30.479999542236328
1776038971434060000,-1522122.8559399415,17.81999969482422,29.099998474121094,29.51999855041504
1776038971444130800,-1522122.8458691407,17.81999969482422,28.979999542236328,29.219999313354492
1776038971454140700,-1522122.835859375,18.600000381469727,30.239999771118164,29.399999618530273
1776038971464211500,-1522122.8257885743,19.3799991607666,30.719999313354492,28.979999542236328
1776038971474251800,-1522122.815748291,21.059999465942383,31.5,29.099998474121094
1776038971484353000,-1522122.8056469727,22.139999389648438,32.279998779296875,29.15999984741211
1776038971494393300,-1522122.7956066895,23.69999885559082,32.57999801635742,28.799999237060547
1776038971504494600,-1522122.7855053712,22.3799991607666,32.21999740600586,27.719999313354492
1776038971514535000,-1522122.775465088,20.399999618530273,32.63999938964844,26.81999969482422
1776038971534615600,-1522122.7553845216,17.03999900817871,33.36000061035156,24.899999618530273
1776038971544686300,-1522122.7453137208,17.579999923706055,34.55999755859375,24.779998779296875
1776038971554757000,-1522122.73524292,18,34.79999923706055,24.35999870300293
1776038971564858400,-1522122.7251416016,18.600000381469727,35.099998474121094,23.8799991607666
1776038971574898700,-1522122.7151013184,19.439998626708984,35.15999984741211,22.85999870300293
1776038971584969500,-1522122.7050305177,19.439998626708984,34.97999954223633,21.53999900817871
1776038971595040300,-1522122.6949597169,19.85999870300293,35.57999801635742,20.219999313354492
1776038971605111000,-1522122.684888916,19.31999969482422,36.29999923706055,18.959999084472656
1776038971615151400,-1522122.674848633,18.18000030517578,37.5,17.760000228881836
1776038971645394200,-1522122.644605713,16.739999771118164,41.52000045776367,14.09999942779541
1776038971655465000,-1522122.6345351562,17.34000015258789,42,12
1776038971675576000,-1522122.6144238282,18.779998779296875,42,7.5
1776038971685646800,-1522122.6043532714,19.979999542236328,42.23999786376953,6.239999771118164
1776038971695717600,-1522122.5942824706,20.639999389648438,42.05999755859375,5.159999847412109
1776038971705788700,-1522122.5842114259,21.059999465942383,41.81999969482422,4.440000057220459
1776038971715828700,-1522122.5741711427,19.739999771118164,41.459999084472656,3.4800000190734863
1776038971725899500,-1522122.5641005859,18.84000015258789,41.63999938964844,1.8600000143051147
1776038971776162000,-1522122.5138378907,13.380000114440918,42.71999740600586,-7.199999809265137
1776038971786232800,-1522122.50376709,13.619999885559082,43.07999801635742,-8.399999618530273
1776038971796334000,-1522122.4936660156,15.059999465942383,43.55999755859375,-9.119999885559082
1776038971806405000,-1522122.4835949708,16.440000534057617,43.73999786376953,-9.84000015258789
1776038971816476000,-1522122.47352417,17.760000228881836,43.31999969482422,-10.800000190734863
1776038971826546700,-1522122.4634533692,17.760000228881836,42.29999923706055,-12.179999351501465
1776038971836617500,-1522122.4533825684,17.459999084472656,41.939998626708984,-13.5
1776038971856759000,-1522122.4332409669,16.139999389648438,41.15999984741211,-15.899999618530273
1776038971866860300,-1522122.4231396485,16.31999969482422,41.81999969482422,-16.68000030517578
1776038971876931000,-1522122.4130688477,16.31999969482422,40.86000061035156,-18.119998931884766
1776038971887001900,-1522122.402998047,16.31999969482422,40.68000030517578,-18.600000381469727
1776038971897103400,-1522122.3928967286,17.15999984741211,40.439998626708984,-18.779998779296875
1776038971907174100,-1522122.3828259278,18.18000030517578,40.20000076293945,-19.19999885559082
1776038971917245000,-1522122.372755127,17.940000534057617,40.31999969482422,-19.020000457763672
1776038971927315700,-1522122.3626843262,17.639999389648438,39.779998779296875,-20.100000381469727
1776038971937356000,-1522122.352644043,17.03999900817871,39.41999816894531,-20.399999618530273
1776038971977608700,-1522122.3123913575,13.380000114440918,41.7599983215332,-19.3799991607666
1776038971987710000,-1522122.3022900391,14.039999961853027,41.099998474121094,-19.5
1776038971997750300,-1522122.292249756,15.059999465942383,41.279998779296875,-19.139999389648438
1776038972007821000,-1522122.2821789552,15.899999618530273,40.439998626708984,-18.719999313354492
1776038972017891800,-1522122.2721081544,16.68000030517578,39.84000015258789,-18.779998779296875
1776038972027993000,-1522122.262006836,16.68000030517578,40.13999938964844,-17.69999885559082
1776038972038063900,-1522122.2519360352,16.260000228881836,40.07999801635742,-16.68000030517578
1776038972048134700,-1522122.2418652344,16.260000228881836,40.86000061035156,-15.420000076293945
1776038972058175000,-1522122.2318249512,15.479999542236328,41.040000915527344,-15.179999351501465
1776038972088479000,-1522122.2015209962,14.039999961853027,42.779998779296875,-11.279999732971191
1776038972098519300,-1522122.191480713,14.15999984741211,42.540000915527344,-9.359999656677246
1776038972108620500,-1522122.1813793946,15.179999351501465,42.23999786376953,-7.859999656677246
1776038972118660900,-1522122.1713391114,15.420000076293945,42.119998931884766,-5.639999866485596
1776038972128731600,-1522122.1612683106,13.739999771118164,42.29999923706055,-4.5
1776038972138772000,-1522122.1512280274,12.539999961853027,42.89999771118164,-2.4600000381469727
1776038972148842800,-1522122.1411572266,11.579999923706055,43.37999725341797,-0.7799999713897705
1776038972169014800,-1522122.1209851075,12.179999351501465,43.5,1.3199999332427979
1776038972189156400,-1522122.10084375,13.019999504089355,42.47999954223633,3.8399999141693115
1776038972209298200,-1522122.0807019044,12,42.36000061035156,8.039999961853027
1776038972229439700,-1522122.0605603028,13.199999809265137,42.84000015258789,12.479999542236328
1776038972239510500,-1522122.050489502,14.09999942779541,42.29999923706055,13.380000114440918
1776038972249581300,-1522122.0404187012,14.819999694824219,41.63999938964844,13.859999656677246
1776038972259652000,-1522122.0303479005,14.279999732971191,41.099998474121094,13.679999351501465
1776038972279793700,-1522122.010206299,11.819999694824219,40.86000061035156,14.639999389648438
1776038972289864400,-1522122.0001354981,9.779999732971191,41.39999771118164,15.719999313354492
1776038972299935200,-1522121.9900646973,8.699999809265137,41.279998779296875,16.619998931884766
1776038972310036500,-1522121.979963623,7.799999713897705,41.21999740600586,17.459999084472656
1776038972320107500,-1522121.9698925782,6.539999961853027,40.73999786376953,18.899999618530273
1776038972330178300,-1522121.9598217774,5.759999752044678,40.20000076293945,20.279998779296875
1776038972340188000,-1522121.9498120118,4.440000057220459,39.779998779296875,21
1776038972350258700,-1522121.939741211,4.079999923706055,39.05999755859375,21.35999870300293
1776038972360329500,-1522121.9296704102,4.679999828338623,38.87999725341797,22.079999923706055
1776038972400643300,-1522121.8893566895,10.260000228881836,36.540000915527344,22.559999465942383
1776038972410744600,-1522121.8792553712,12.59999942779541,36.119998931884766,23.03999900817871
1776038972420785000,-1522121.869215088,15.539999961853027,35.63999938964844,23.459999084472656
1776038972430855700,-1522121.8591442872,18.18000030517578,35.099998474121094,23.15999984741211
1776038972440926500,-1522121.8490734864,20.15999984741211,34.68000030517578,23.51999855041504
1776038972451027700,-1522121.838972168,19.85999870300293,33.540000915527344,22.920000076293945
1776038972461098500,-1522121.8289016113,19.3799991607666,33.29999923706055,23.03999900817871
1776038972491341600,-1522121.7986584473,16.619998931884766,32.39999771118164,24.059999465942383
1776038972501382000,-1522121.7886181641,17.03999900817871,32.099998474121094,23.81999969482422
1776038972511483100,-1522121.7785168458,19.139999389648438,32.040000915527344,24.84000015258789
1776038972521554000,-1522121.768446045,20.939998626708984,31.920000076293945,25.01999855041504
1776038972531624700,-1522121.7583752442,21.719999313354492,31.3799991607666,25.739999771118164
1776038972541695500,-1522121.7483044434,21.420000076293945,31.3799991607666,26.760000228881836
1776038972551766300,-1522121.7382336427,20.34000015258789,31.979999542236328,27.299999237060547
1776038972561837000,-1522121.7281628419,20.03999900817871,31.559999465942383,27.53999900817871
1776038972571907800,-1522121.718092041,20.15999984741211,31.5,27.84000015258789
1776038972612191200,-1522121.677808838,17.940000534057617,31.19999885559082,26.51999855041504
1776038972622262000,-1522121.6677380372,17.639999389648438,31.3799991607666,26.15999984741211
1776038972632332800,-1522121.6576672364,18.779998779296875,31.3799991607666,26.399999618530273
1776038972642403600,-1522121.6475964356,19.739999771118164,30.84000015258789,25.85999870300293
1776038972652474400,-1522121.6375256348,20.579999923706055,30.899999618530273,26.15999984741211
1776038972662545200,-1522121.627454834,20.219999313354492,30.059999465942383,25.920000076293945
1776038972672585500,-1522121.6174145509,18.899999618530273,30.059999465942383,25.5
1776038972682656300,-1522121.60734375,16.739999771118164,30.899999618530273,25.979999542236328
1776038972712899000,-1522121.5771008302,13.019999504089355,31.979999542236328,23.69999885559082
1776038972722969900,-1522121.5670300294,13.25999927520752,32.459999084472656,23.459999084472656
1776038972733010200,-1522121.5569897462,14.699999809265137,32.52000045776367,23.34000015258789
1776038972753182500,-1522121.536817627,15.899999618530273,32.81999969482422,23.51999855041504
1776038972763253200,-1522121.5267468262,16.19999885559082,32.70000076293945,22.68000030517578
1776038972773262800,-1522121.5167370606,14.519999504089355,33.65999984741211,21.899999618530273
1776038972783333600,-1522121.5066662598,13.619999885559082,34.79999923706055,20.639999389648438
1776038972813515500,-1522121.476484375,14.34000015258789,39,16.440000534057617
1776038972823586300,-1522121.4664135743,15.239999771118164,39.05999755859375,14.75999927520752
1776038972843758600,-1522121.4462414552,19.020000457763672,40.79999923706055,12.84000015258789
1776038972853799000,-1522121.436201172,20.8799991607666,40.37999725341797,12.300000190734863
1776038972863900200,-1522121.4260998536,21.18000030517578,40.31999969482422,11.399999618530273
1776038972873971000,-1522121.4160290528,20.100000381469727,39.65999984741211,9.539999961853027
1776038972884011300,-1522121.4059887696,18.84000015258789,38.81999969482422,8.039999961853027
1776038972904122400,-1522121.3858776856,17.100000381469727,39.65999984741211,4.5
1776038972924233500,-1522121.3657666016,18.479999542236328,41.34000015258789,2.819999933242798
1776038972934304300,-1522121.3556958009,19.979999542236328,40.79999923706055,1.9199999570846558
1776038972944405500,-1522121.3455944825,21.899999618530273,40.5,1.2599999904632568
1776038972954445800,-1522121.3355541993,22.5,39.84000015258789,0.29999998211860657
1776038972964516600,-1522121.3254833985,22.19999885559082,38.63999938964844,-1.0199999809265137
1776038972974557000,-1522121.3154431153,21.479999542236328,38.57999801635742,-2.5199999809265137
1776038972984627700,-1522121.3053723145,20.81999969482422,39.23999786376953,-3.8999998569488525
1776038973024910800,-1522121.2650891114,21.299999237060547,38.87999725341797,-8.220000267028809
1776038973045052400,-1522121.2449475098,24.119998931884766,39.119998931884766,-10.979999542236328
1776038973065194000,-1522121.2248059083,26.579999923706055,38.939998626708984,-11.579999923706055
1776038973075295500,-1522121.21470459,26.399999618530273,38.34000015258789,-11.880000114440918
1776038973085335600,-1522121.2046645507,24.420000076293945,37.439998626708984,-12.719999313354492
1776038973095406600,-1522121.194593506,22.739999771118164,37.55999755859375,-13.739999771118164
1776038973125649400,-1522121.164350586,19.68000030517578,38.21999740600586,-13.739999771118164
1776038973135750700,-1522121.1542492677,20.219999313354492,38.87999725341797,-12.960000038146973
1776038973145821400,-1522121.1441784669,21.18000030517578,39.119998931884766,-12.420000076293945
1776038973155892200,-1522121.134107666,22.079999923706055,38.81999969482422,-12.119999885559082
1776038973165963000,-1522121.1240371093,23.15999984741211,38.39999771118164,-12.539999961853027
1776038973176003300,-1522121.113996582,22.19999885559082,38.21999740600586,-11.880000114440918
1776038973186074000,-1522121.1039257813,20.8799991607666,38.459999084472656,-11.579999923706055
1776038973196175600,-1522121.093824463,20.34000015258789,38.63999938964844,-11.219999313354492
1776038973236458800,-1522121.0535412598,19.260000228881836,39.84000015258789,-7.079999923706055
1776038973246529500,-1522121.043470459,19.68000030517578,39.29999923706055,-5.940000057220459
1776038973256600300,-1522121.0333996583,21.65999984741211,39.29999923706055,-4.920000076293945
1776038973266640600,-1522121.023359375,23.69999885559082,39.119998931884766,-4.139999866485596
1776038973276711400,-1522121.0132885743,24.53999900817871,38.040000915527344,-2.93999981880188
1776038973286782200,-1522121.0032177735,25.85999870300293,38.040000915527344,-1.0799999237060547
1776038973296853000,-1522120.9931469727,24.84000015258789,36.959999084472656,0
1776038973306893300,-1522120.9831066895,23.69999885559082,36.779998779296875,1.8600000143051147
1776038973347146000,-1522120.942854004,22.31999969482422,35.7599983215332,7.919999599456787
1776038973367257000,-1522120.92274292,25.139999389648438,34.79999923706055,11.399999618530273
1776038973377327900,-1522120.9126721192,27.119998931884766,34.31999969482422,13.019999504089355
1776038973387398700,-1522120.9026013184,27.899999618530273,33,14.09999942779541
1776038973397469400,-1522120.8925305177,27.719999313354492,31.3799991607666,15.119999885559082
1776038973407509800,-1522120.8824902344,26.34000015258789,31.01999855041504,15.899999618530273
1776038973427681800,-1522120.8623181153,22.020000457763672,30.779998779296875,17.69999885559082
1776038973447793000,-1522120.8422070313,21.299999237060547,32.34000015258789,20.69999885559082
1776038973457863700,-1522120.8321362305,21.299999237060547,32.099998474121094,21.479999542236328
1776038973467934500,-1522120.8220654298,20.459999084472656,32.34000015258789,22.85999870300293
1776038973478005200,-1522120.811994873,18.600000381469727,32.279998779296875,23.459999084472656
1776038973488076000,-1522120.8019240722,17.579999923706055,31.799999237060547,23.939998626708984
1776038973498116400,-1522120.791883545,16.139999389648438,31.5,24.35999870300293
1776038973508187100,-1522120.7818127442,15.899999618530273,31.260000228881836,25.3799991607666
1776038973548439800,-1522120.7415603027,18.479999542236328,31.139999389648438,26.579999923706055
1776038973558480100,-1522120.7315197755,19.619998931884766,31.19999885559082,27.35999870300293
1776038973568551000,-1522120.7214489747,19.739999771118164,30.479999542236328,28.01999855041504
1776038973578591200,-1522120.7114086915,20.520000457763672,29.8799991607666,27.779998779296875
1776038973588662000,-1522120.7013378907,20.81999969482422,28.979999542236328,27.420000076293945
1776038973598732800,-1522120.69126709,20.8799991607666,28.3799991607666,27.420000076293945
1776038973608773000,-1522120.6812268067,22.260000228881836,28.01999855041504,26.939998626708984
1776038973618844000,-1522120.671156006,22.799999237060547,27.18000030517578,27.119998931884766
1776038973649056300,-1522120.6409438476,25.31999969482422,27.299999237060547,27.84000015258789
1776038973659157800,-1522120.6308422852,25.85999870300293,26.8799991607666,27.420000076293945
1776038973669228500,-1522120.6207714844,26.81999969482422,26.51999855041504,27.479999542236328
1776038973679299300,-1522120.6107006837,27.239999771118164,25.979999542236328,26.760000228881836
1776038973689339600,-1522120.6006604005,28.619998931884766,26.15999984741211,27.420000076293945
1776038973699410400,-1522120.5905895997,30.35999870300293,26.279998779296875,27.53999900817871
1776038973709450800,-1522120.5805493165,31.3799991607666,26.279998779296875,27.420000076293945
1776038973719552000,-1522120.5704479981,31.260000228881836,26.099998474121094,27.719999313354492
1776038973749734000,-1522120.5402661134,31.260000228881836,25.85999870300293,27.119998931884766
1776038973759804700,-1522120.5301953126,31.85999870300293,25.979999542236328,26.81999969482422
1776038973769875500,-1522120.5201245118,31.85999870300293,26.399999618530273,27.299999237060547
1776038973779946200,-1522120.510053711,31.739999771118164,26.579999923706055,27.119998931884766
1776038973790017000,-1522120.4999829102,31.139999389648438,26.939998626708984,26.639999389648438
1776038973810189000,-1522120.479811035,30.899999618530273,27.18000030517578,26.399999618530273
1776038973820260000,-1522120.4697399903,29.939998626708984,26.399999618530273,25.68000030517578
1776038973830331000,-1522120.4596691895,29.939998626708984,26.34000015258789,25.19999885559082
1776038973870583600,-1522120.419416504,31.5,27.959999084472656,23.639999389648438
1776038973880654300,-1522120.4093457032,30.959999084472656,28.559999465942383,23.579999923706055
1776038973890725000,-1522120.3992749024,30.17999839782715,28.979999542236328,23.399999618530273
1776038973900796000,-1522120.3892041016,29.459999084472656,29.03999900817871,22.799999237060547
1776038973910836200,-1522120.3791638184,28.979999542236328,29.219999313354492,22.619998931884766
1776038973920876500,-1522120.3691235352,27.420000076293945,29.099998474121094,22.68000030517578
1776038973930916600,-1522120.359083496,26.03999900817871,29.219999313354492,22.85999870300293
1776038973961129200,-1522120.3288708497,21.65999984741211,30.899999618530273,22.079999923706055
1776038973971200000,-1522120.318800049,21.479999542236328,32.81999969482422,21.239999771118164
1776038973981301200,-1522120.3086987305,21.84000015258789,34.07999801635742,20.100000381469727
1776038973991372000,-1522120.2986279298,23.15999984741211,34.97999954223633,19.31999969482422
1776038974001412400,-1522120.2885876466,24.84000015258789,35.81999969482422,18.479999542236328
1776038974011452700,-1522120.2785473634,25.5,36.05999755859375,17.940000534057617
1776038974021554000,-1522120.268446045,24.18000030517578,37.07999801635742,17.459999084472656
1776038974031594200,-1522120.2584057618,22.920000076293945,37.380001068115234,15.65999984741211
1776038974041695500,-1522120.2483044434,20.69999885559082,38.040000915527344,14.15999984741211
1776038974082009300,-1522120.2079907227,18.779998779296875,40.73999786376953,13.019999504089355
1776038974092019000,-1522120.197980957,19.3799991607666,42.119998931884766,11.639999389648438
1776038974102089700,-1522120.1879101563,20.939998626708984,42.36000061035156,10.800000190734863
1776038974122262000,-1522120.1677380372,24.18000030517578,43.13999938964844,7.919999599456787
1776038974132302300,-1522120.157697754,23.15999984741211,42.89999771118164,7.139999866485596
1776038974142403600,-1522120.1475964356,21.779998779296875,43.20000076293945,5.639999866485596
1776038974172616000,-1522120.1173840333,20.15999984741211,45.18000030517578,4.380000114440918
1776038974182686700,-1522120.1073132325,21.719999313354492,45.18000030517578,2.93999981880188
1776038974192757500,-1522120.0972424317,22.439998626708984,45.05999755859375,1.9199999570846558
1776038974202858800,-1522120.0871413574,23.69999885559082,45.05999755859375,0.7199999690055847
1776038974212899000,-1522120.0771008302,23.69999885559082,45.05999755859375,-0.29999998211860657
1776038974223000600,-1522120.0669995118,21.84000015258789,45.05999755859375,-1.0799999237060547
1776038974233071400,-1522120.056928711,20.399999618530273,45.119998931884766,-2.3999998569488525
1776038974243142100,-1522120.0468579102,18.719999313354492,45.29999923706055,-3.179999828338623
1776038974273324000,-1522120.0166760255,17.520000457763672,46.2599983215332,-4.259999752044678
1776038974283394800,-1522120.0066052247,17.279998779296875,46.55999755859375,-4.559999942779541
1776038974293404400,-1522119.996595703,17.579999923706055,47.21999740600586,-4.799999713897705
1776038974313515500,-1522119.976484375,19.85999870300293,46.97999954223633,-5.759999752044678
1776038974323617000,-1522119.9663830567,21,46.91999816894531,-5.940000057220459
1776038974333596200,-1522119.9564038087,20.69999885559082,46.97999954223633,-5.460000038146973
1776038974343697400,-1522119.9463024903,18.959999084472656,47.03999710083008,-5.400000095367432
1776038974373879300,-1522119.9161206055,14.460000038146973,47.21999740600586,-4.5
1776038974383980800,-1522119.9060192872,14.579999923706055,47.34000015258789,-3.8399999141693115
1776038974394051600,-1522119.8959484864,15.719999313354492,47.15999984741211,-3.059999942779541
1776038974404152800,-1522119.885847168,17.69999885559082,46.86000061035156,-2.2799999713897705
1776038974414193200,-1522119.8758068848,18.899999618530273,46.439998626708984,-1.1999999284744263
1776038974424264000,-1522119.865736084,18.600000381469727,46.02000045776367,-0.41999998688697815
1776038974434304300,-1522119.8556958009,16.5,45.71999740600586,0.47999998927116394
1776038974444375000,-1522119.845625,14.639999389648438,45.36000061035156,1.0199999809265137
1776038974454384600,-1522119.8356154785,12.899999618530273,45.05999755859375,1.6200000047683716
1776038974474526500,-1522119.815473633,13.559999465942383,45.53999710083008,4.859999656677246
1776038974494606800,-1522119.7953930665,15.359999656677246,45.65999984741211,8.279999732971191
1776038974504677600,-1522119.7853222657,15.839999198913574,45,10.679999351501465
1776038974514748400,-1522119.775251465,16.559999465942383,43.79999923706055,11.699999809265137
1776038974524819200,-1522119.7651809081,17.03999900817871,42.18000030517578,13.139999389648438
1776038974534829000,-1522119.7551708985,15.119999885559082,41.099998474121094,15.359999656677246
1776038974544930300,-1522119.7450695802,14.039999961853027,40.73999786376953,16.979999542236328
1776038974555001000,-1522119.7349990234,12.899999618530273,40.13999938964844,18.779998779296875
1776038974595223300,-1522119.6947766114,11.880000114440918,38.939998626708984,24.059999465942383
1776038974605324800,-1522119.684675293,13.319999694824219,39.119998931884766,25.85999870300293
1776038974615334400,-1522119.6746655274,13.679999351501465,38.52000045776367,26.51999855041504
1776038974625405200,-1522119.6645947266,13.799999237060547,38.57999801635742,28.01999855041504
1776038974635476000,-1522119.6545239259,13.25999927520752,37.619998931884766,28.619998931884766
1776038974645546800,-1522119.644453369,11.880000114440918,36.47999954223633,28.139999389648438
1776038974655617500,-1522119.6343825683,10.859999656677246,36.84000015258789,28.920000076293945
1776038974685799400,-1522119.6042006835,4.739999771118164,37.97999954223633,31.5
1776038974695870200,-1522119.5941298828,2.819999933242798,38.15999984741211,32.040000915527344
1776038974705941200,-1522119.584058838,3.7200000286102295,38.63999938964844,32.279998779296875
1776038974715981300,-1522119.5740187988,4.259999752044678,38.939998626708984,32.880001068115234
1776038974726082800,-1522119.5639172364,4.440000057220459,38.39999771118164,32.880001068115234
1776038974736092400,-1522119.5539074708,5.819999694824219,38.099998474121094,32.279998779296875
1776038974746194000,-1522119.5438061524,5.519999980926514,37.5,32.15999984741211
1776038974756234000,-1522119.5337661132,4.679999828338623,37.79999923706055,32.15999984741211
1776038974786446600,-1522119.5035534669,5.039999961853027,38.7599983215332,33
1776038974796487000,-1522119.4935131837,7.259999752044678,38.7599983215332,33.36000061035156
1776038974806557700,-1522119.483442383,9.300000190734863,38.52000045776367,33.41999816894531
1776038974816597800,-1522119.4734023437,11.75999927520752,38.39999771118164,34.2599983215332
1776038974826668800,-1522119.463331299,14.09999942779541,37.91999816894531,34.68000030517578
1776038974836739600,-1522119.4532604981,15.299999237060547,37.02000045776367,35.459999084472656
1776038974846810400,-1522119.4431896973,16.3799991607666,36.05999755859375,36.29999923706055
1776038974856881200,-1522119.4331188966,16.68000030517578,34.91999816894531,36.05999755859375
1776038974866921500,-1522119.4230786134,17.34000015258789,34.07999801635742,36.18000030517578
1776038974917275400,-1522119.3727246094,18,33.47999954223633,35.939998626708984
1776038974927376600,-1522119.362623291,17.219999313354492,33.47999954223633,35.459999084472656
1776038974937417000,-1522119.352583008,17.639999389648438,33.29999923706055,34.68000030517578
1776038974947487700,-1522119.342512207,18.719999313354492,33.599998474121094,35.52000045776367
1776038974957558500,-1522119.3324414063,20.100000381469727,33.119998931884766,35.39999771118164
1776038974977700000,-1522119.3122998048,20.34000015258789,32.7599983215332,35.63999938964844
1776038975038094300,-1522119.2519057617,21.53999900817871,34.31999969482422,35.459999084472656
1776038975048134700,-1522119.2418652344,22.619998931884766,34.91999816894531,35.57999801635742
1776038975058205400,-1522119.2317946777,23.219999313354492,34.31999969482422,34.79999923706055
1776038975068307000,-1522119.2216931153,22.68000030517578,34.31999969482422,34.07999801635742
1776038975078347300,-1522119.211652832,21.479999542236328,34.07999801635742,33
1776038975098458000,-1522119.1915419921,18.959999084472656,34.13999938964844,31.559999465942383
1776038975118600000,-1522119.1714001466,20.8799991607666,34.68000030517578,31.920000076293945
1776038975128670700,-1522119.1613293458,21.779998779296875,34.2599983215332,31.739999771118164
1776038975138710800,-1522119.1512893066,22.85999870300293,33.89999771118164,32.099998474121094
1776038975148781800,-1522119.1412182618,22.799999237060547,33.89999771118164,32.279998779296875
1776038975158852600,-1522119.131147461,20.939998626708984,33.36000061035156,31.739999771118164
1776038975168923400,-1522119.1210766602,19.979999542236328,33.84000015258789,31.619998931884766
1776038975178963700,-1522119.111036377,17.81999969482422,34.20000076293945,31.260000228881836
1776038975189065000,-1522119.1009350587,16.68000030517578,34.31999969482422,30.779998779296875
1776038975199135700,-1522119.090864258,15.539999961853027,35.21999740600586,31.01999855041504
1776038975229317600,-1522119.0606823731,12.899999618530273,35.63999938964844,31.439998626708984
1776038975239388400,-1522119.0506115723,13.380000114440918,35.57999801635742,31.739999771118164
1776038975249459200,-1522119.0405407716,13.739999771118164,36,32.099998474121094
1776038975259530000,-1522119.0304699708,13.199999809265137,36.119998931884766,31.439998626708984
1776038975269600800,-1522119.02039917,12.719999313354492,36.36000061035156,31.079999923706055
1776038975279671600,-1522119.0103283692,11.579999923706055,37.380001068115234,30.299999237060547
1776038975289742300,-1522119.0002575684,10.380000114440918,37.86000061035156,28.260000228881836
1776038975309853400,-1522118.9801464844,8.519999504089355,40.02000045776367,26.279998779296875
1776038975329964500,-1522118.9600354005,9.899999618530273,41.57999801635742,23.459999084472656
1776038975350106000,-1522118.939893799,13.920000076293945,41.7599983215332,20.81999969482422
1776038975360146400,-1522118.9298535157,14.75999927520752,42.41999816894531,20.520000457763672
1776038975370217200,-1522118.919782715,13.979999542236328,42.71999740600586,19.979999542236328
1776038975380227000,-1522118.9097729493,13.319999694824219,42.599998474121094,18.779998779296875
1776038975390267400,-1522118.899732666,12.119999885559082,43.13999938964844,18.420000076293945
1776038975400307700,-1522118.889692383,12.179999351501465,42.779998779296875,17.279998779296875
1776038975410409000,-1522118.8795910645,12.719999313354492,42.779998779296875,16.559999465942383
1776038975440621300,-1522118.8493786622,16.68000030517578,43.619998931884766,15.179999351501465
1776038975450722600,-1522118.8392773438,18.059999465942383,43.2599983215332,14.15999984741211
1776038975460763000,-1522118.8292370606,18.959999084472656,43.37999725341797,14.15999984741211
1776038975470833700,-1522118.8191662598,17.81999969482422,42.599998474121094,13.25999927520752
1776038975480874000,-1522118.8091259766,16.139999389648438,42.47999954223633,12.059999465942383
1776038975490944800,-1522118.7990551759,14.819999694824219,43.07999801635742,11.880000114440918
1776038975511086300,-1522118.7789135743,14.519999504089355,43.73999786376953,10.619999885559082
1776038975531258600,-1522118.7587414552,16.559999465942383,43.5,10.4399995803833
1776038975541298700,-1522118.748701416,17.459999084472656,43.31999969482422,9.960000038146973
1776038975551369700,-1522118.7386303712,18.65999984741211,43.20000076293945,10.4399995803833
1776038975561440500,-1522118.7285595704,19.3799991607666,42.71999740600586,10.380000114440918
1776038975571480600,-1522118.7185195312,18.299999237060547,42.779998779296875,9.719999313354492
1776038975581551400,-1522118.7084487304,16.619998931884766,42.599998474121094,10.079999923706055
1776038975591652900,-1522118.698347168,15.59999942779541,42.119998931884766,9.059999465942383
1776038975611825000,-1522118.678175049,15.299999237060547,41.34000015258789,8.699999809265137
1776038975621895700,-1522118.6681042481,15.960000038146973,41.15999984741211,8.639999389648438
1776038975631966500,-1522118.6580334473,17.279998779296875,41.70000076293945,10.199999809265137
1776038975642006800,-1522118.6479931641,18.35999870300293,41.15999984741211,10.4399995803833
1776038975652077600,-1522118.6379223634,19.439998626708984,40.97999954223633,10.800000190734863
1776038975662148400,-1522118.6278515626,20.03999900817871,40.91999816894531,11.579999923706055
1776038975672249900,-1522118.6177502442,20.03999900817871,39.47999954223633,10.559999465942383
1776038975682290000,-1522118.607709961,20.34000015258789,39.29999923706055,10.559999465942383
1776038975692360700,-1522118.5976394042,19.5,38.87999725341797,10.619999885559082
1776038975722573300,-1522118.567426758,17.34000015258789,39,12.179999351501465
1776038975742715000,-1522118.5472851563,17.579999923706055,38.040000915527344,14.519999504089355
1776038975752816000,-1522118.537183838,17.81999969482422,36.959999084472656,15.899999618530273
1776038975762887000,-1522118.5271130372,18,36,17.520000457763672
1776038975772927200,-1522118.517072754,18.420000076293945,34.91999816894531,18.84000015258789
1776038975782998000,-1522118.5070019532,18.299999237060547,33.959999084472656,19.739999771118164
1776038975793068800,-1522118.4969311524,17.579999923706055,32.63999938964844,20.03999900817871
1776038975803139600,-1522118.4868603516,16.920000076293945,31.739999771118164,20.579999923706055
1776038975823250700,-1522118.4667492677,17.940000534057617,29.219999313354492,22.85999870300293
1776038975843392300,-1522118.446607666,21.119998931884766,26.69999885559082,25.559999465942383
1776038975863473000,-1522118.4265270997,22.19999885559082,23.51999855041504,27.53999900817871
1776038975873543700,-1522118.416456299,22.439998626708984,21,27.420000076293945
1776038975883584000,-1522118.4064160157,23.219999313354492,18.719999313354492,27.899999618530273
1776038975893624300,-1522118.3963757325,23.03999900817871,16.559999465942383,27.959999084472656
1776038975903725600,-1522118.3862744141,23.219999313354492,15.299999237060547,27.959999084472656
1776038975913796400,-1522118.3762036134,21.84000015258789,14.639999389648438,29.639999389648438
1776038975943947800,-1522118.3460522462,18.84000015258789,12.179999351501465,31.139999389648438
1776038975954018600,-1522118.3359814454,19.739999771118164,11.34000015258789,30.959999084472656
1776038975964059000,-1522118.3259411622,22.739999771118164,10.979999542236328,31.139999389648438
1776038975974099200,-1522118.315900879,24.959999084472656,10.319999694824219,31.19999885559082
1776038975984200400,-1522118.3057995606,26.579999923706055,9.65999984741211,32.39999771118164
1776038975994240800,-1522118.2957592774,28.559999465942383,8.639999389648438,32.57999801635742
1776038976004311600,-1522118.2856884766,28.439998626708984,7.619999885559082,32.57999801635742
1776038976014382300,-1522118.2756176759,27.719999313354492,7.019999980926514,32.39999771118164
1776038976024453000,-1522118.265546875,27.059999465942383,6.359999656677246,31.920000076293945
1776038976054665500,-1522118.2353344727,27.299999237060547,1.7400000095367432,30.779998779296875
1776038976074807000,-1522118.2151928712,29.639999389648438,-0.6599999666213989,31.439998626708984
1776038976084847400,-1522118.205152588,30.17999839782715,-2.2200000286102295,31.559999465942383
1776038976094948600,-1522118.1950515136,31.260000228881836,-3.359999895095825,31.85999870300293
1776038976104989000,-1522118.1850109864,31.19999885559082,-4.980000019073486,31.799999237060547
1776038976115059700,-1522118.1749401856,31.19999885559082,-6.059999942779541,31.920000076293945
1776038976125130500,-1522118.1648693848,30.899999618530273,-6.779999732971191,32.57999801635742
1776038976145272000,-1522118.1447280273,30.899999618530273,-7.259999752044678,33.18000030517578
1776038976155312400,-1522118.1346875,29.8799991607666,-7.799999713897705,32.459999084472656
1776038976175423500,-1522118.114576416,29.099998474121094,-7.919999599456787,30.959999084472656
1776038976185494300,-1522118.1045056153,29.219999313354492,-8.699999809265137,30.35999870300293
1776038976195565000,-1522118.0944350585,30.479999542236328,-8.220000267028809,30.299999237060547
1776038976205605400,-1522118.0843945313,30.959999084472656,-8.760000228881836,30.239999771118164
1776038976215645700,-1522118.0743542481,30.779998779296875,-8.519999504089355,30.779998779296875
1776038976225716500,-1522118.0642834473,31.01999855041504,-8.09999942779541,30.479999542236328
1776038976255990000,-1522118.0340100098,28.739999771118164,-5.460000038146973,30.53999900817871
1776038976266060800,-1522118.023939209,27.53999900817871,-4.619999885559082,30.719999313354492
1776038976276131600,-1522118.0138684083,26.69999885559082,-4.859999656677246,29.639999389648438
1776038976286202400,-1522118.0037976075,26.579999923706055,-4.5,28.979999542236328
1776038976296273200,-1522117.9937268067,27.65999984741211,-4.5,28.68000030517578
1776038976306313500,-1522117.9836865235,28.739999771118164,-4.019999980926514,28.439998626708984
1776038976316353800,-1522117.9736462403,29.399999618530273,-3.7799999713897705,28.619998931884766
1776038976326394000,-1522117.963605957,28.979999542236328,-3.240000009536743,28.5
1776038976336495400,-1522117.9535046387,27.18000030517578,-2.1599998474121094,28.68000030517578
1776038976366707700,-1522117.9232922364,22.5,-0.6599999666213989,27.599998474121094
1776038976376778500,-1522117.9132214356,22.260000228881836,-0.23999999463558197,27
1776038976386849300,-1522117.9031506348,23.69999885559082,0.5399999618530273,27.779998779296875
1776038976396950800,-1522117.8930493165,24.35999870300293,1.1399999856948853,28.01999855041504
1776038976407021600,-1522117.8829785157,24.719999313354492,1.1999999284744263,28.139999389648438
1776038976417061600,-1522117.8729384765,25.739999771118164,0.7799999713897705,28.31999969482422
1776038976427132400,-1522117.8628676757,24.600000381469727,0.6599999666213989,28.139999389648438
1776038976437203500,-1522117.852796631,23.279998779296875,0.9599999785423279,28.260000228881836
1776038976477456100,-1522117.8125439454,18.84000015258789,2.819999933242798,28.19999885559082
1776038976487496200,-1522117.8025039062,18.18000030517578,2.879999876022339,28.31999969482422
1776038976517647600,-1522117.772352295,13.799999237060547,4.559999942779541,29.81999969482422
1776038976527718400,-1522117.7622814942,13.079999923706055,5.819999694824219,30.599998474121094
1776038976537789200,-1522117.7522109374,13.019999504089355,5.940000057220459,30.719999313354492
1776038976547860000,-1522117.7421401367,13.739999771118164,6.839999675750732,30.84000015258789
1776038976568001800,-1522117.721998291,11.819999694824219,8.039999961853027,28.3799991607666
1776038976608254500,-1522117.6817456055,6.420000076293945,11.579999923706055,28.559999465942383
1776038976628396000,-1522117.661604004,6,12.300000190734863,27.119998931884766
