time,seconds_elapsed,z,y,x
1774790030242609000,0.12360888671875,-0.15286891162395477,0.02932151034474373,0.005803215317428112
1774790030270396700,0.151396728515625,-0.07773254066705704,-0.04886918142437935,0.06444623321294785
1774790030288921900,0.169921875,-0.07101303339004517,-0.050090912729501724,-0.019242240116000175
1774790030316709600,0.197709716796875,-0.03497200831770897,-0.01588248461484909,-0.019853105768561363
1774790030335234800,0.21623486328125,-0.052687086164951324,-0.0616973415017128,-0.015577051788568497
1774790030353760000,0.234760009765625,-0.08628465235233307,-0.05864302068948746,-0.008246674202382565
1774790030372285200,0.25328515625,-0.0948367565870285,-0.023212861269712448,-0.000305432389723137
1774790030390810400,0.271810302734375,-0.06368265300989151,-0.0409279391169548,-0.02718348242342472
1774790030409335800,0.290335693359375,-0.028863361105322838,-0.020769402384757996,-0.025350889191031456
1774790030427861000,0.308861083984375,-0.04657844081521034,-0.04520399495959282,-0.02412915788590908
1774790030446386200,0.32738623046875,-0.13271036744117737,-0.14782927930355072,-0.03390299528837204
1774790030464911400,0.345911376953125,-0.24144430458545685,-0.30604326725006104,0.011911863461136818
1774790030483436500,0.3644365234375,-0.2860374450683594,-0.3695732057094574,0.0772743970155716
1774790030501961700,0.382961669921875,-0.2848156988620758,-0.3610210716724396,0.09804379940032959
1774790030520487000,0.40148681640625,-0.2591593861579895,-0.287106454372406,0.09193515032529831
1774790030539012000,0.42001220703125,-0.17424917221069336,-0.2767217457294464,0.08277218043804169
1774790030557537300,0.438537353515625,-0.09972367435693741,-0.2467893660068512,0.10170898586511612
1774790030576062500,0.4570625,-0.10888664424419403,-0.1288924664258957,0.1029307171702385
1774790030594587600,0.475587646484375,-0.1101083755493164,-0.12705987691879272,0.03451386094093323
1774790030613113000,0.494113037109375,-0.10644318908452988,-0.1496618688106537,-0.05711585655808449
1774790030631638300,0.51263818359375,-0.1357647031545639,-0.1484401375055313,-0.09926552325487137
1774790030650163500,0.53116357421875,-0.10705405473709106,-0.10079269111156464,-0.03756818547844887
1774790030668688600,0.549688720703125,-0.06795870512723923,-0.13255766034126282,0.07483093440532684
1774790030696476400,0.577476318359375,0.0102319847792387,-0.0360410213470459,0.1230892539024353
1774790030715001600,0.596001708984375,-0.012980876490473747,0.08918625861406326,-0.0565049909055233
1774790030733526800,0.61452685546875,-0.01359174121171236,0.3995055556297302,-0.30146175622940063
1774790030752052000,0.633052001953125,0.08597921580076218,0.8448259830474854,-0.5201513767242432
1774790030770577200,0.6515771484375,0.053603384643793106,0.4269944727420807,-0.49571678042411804
1774790030789102600,0.6701025390625,0.04016435891389847,0.19120067358016968,-0.23732095956802368
1774790030807627800,0.688627685546875,0.0798705667257309,0.3952295184135437,-0.04367683082818985
1774790030826153000,0.707153076171875,0.028557928279042244,0.6811142563819885,0.0772743970155716
1774790030844678100,0.72567822265625,-0.07406735420227051,0.554665207862854,0.37843072414398193
1774790030863203300,0.744203369140625,-0.11377356201410294,0.6114756464958191,0.5561923980712891
1774790030881728500,0.762728515625,-0.17547090351581573,0.8350521326065063,0.528092622756958
1774790030900253700,0.781253662109375,-0.19013166427612305,0.7666352987289429,0.29413139820098877
1774790030918779100,0.799779052734375,-0.15958842635154724,0.730594277381897,0.0021380267571657896
1774790030937304300,0.81830419921875,-0.21517711877822876,0.627968966960907,-0.019853105768561363
1774790030955829500,0.83682958984375,-0.16386447846889496,0.2657261788845062,0.22266021370887756
1774790030974354700,0.855354736328125,-0.11438442766666412,-0.13927717506885529,0.38759371638298035
1774790030992879900,0.8738798828125,-0.0642935186624527,0.025045456364750862,0.3344484567642212
1774790031011405000,0.892405029296875,-0.05085449293255806,0.3090975880622864,0.17195843160152435
1774790031029930500,0.910930419921875,0.05177079141139984,0.8839213252067566,0.06750056147575378
1774790031048455700,0.92945556640625,0.06154462695121765,0.9743293523788452,0.1285870373249054
1774790031076243500,0.957243408203125,0.2441931962966919,0.5076286196708679,0.21166464686393738
1774790031094768600,0.9757685546875,0.24785839021205902,0.2315177470445633,0.24709481000900269
1774790031113293800,0.9942939453125,0.05849030241370201,-0.24740023910999298,0.03634645417332649
1774790031131819000,1.012819091796875,0.024281874299049377,-0.16004657745361328,-0.29901832342147827
1774790031150344400,1.031344482421875,-0.1571449637413025,0.03909534588456154,-0.36743515729904175
1774790031168869600,1.04986962890625,-0.28237223625183105,0.21380266547203064,-0.20861032605171204
1774790031187394800,1.068394775390625,-0.458301305770874,-0.08307760953903198,-0.22510367631912231
1774790031205920000,1.086919921875,-0.6611084342002869,-0.6224712133407593,-0.2660316228866577
1774790031233707800,1.114707763671875,-0.09666935354471207,-0.7757982611656189,0.20861032605171204
1774790031252233200,1.133233154296875,0.17333288490772247,-0.3543015718460083,0.11759147047996521
1774790031270758400,1.15175830078125,0.0591011680662632,-0.15638138353824615,-0.3026835024356842
1774790031289283600,1.17028369140625,-0.19929464161396027,-0.40927940607070923,-0.6282744407653809
1774790031307809000,1.18880908203125,-0.27137666940689087,0.01282816007733345,-0.6478220820426941
1774790031326334200,1.207334228515625,-0.1418733447790146,0.1692095398902893,-0.0925460159778595
1774790031344859400,1.225859375,-0.07712167501449585,-0.2816086709499359,0.36682429909706116
1774790031363384600,1.244384521484375,-0.023976443335413933,-0.5687150955200195,0.43829548358917236
1774790031381909800,1.26290966796875,-0.09666935354471207,-0.48930269479751587,0.2922987937927246
1774790031400435000,1.28143505859375,-0.2029598206281662,-0.20463970303535461,0.14508038759231567
1774790031418960400,1.29996044921875,-0.3043633699417114,0.0409279391169548,0.08521563559770584
1774790031437485600,1.318485595703125,-0.39538222551345825,0.05253437161445618,0.1798996776342392
1774790031456010800,1.3370107421875,-0.3367392122745514,-0.17165300250053406,0.4175260663032532
1774790031474536200,1.3555361328125,-0.2188423126935959,-0.4318813979625702,0.5494728684425354
1774790031493061400,1.374061279296875,-0.16508620977401733,-0.5021308660507202,0.4938841760158539
1774790031511586600,1.392586669921875,-0.09666935354471207,-0.5400044918060303,0.14691297709941864
1774790031530111700,1.41111181640625,-0.0013744457392022014,-0.7153226733207703,-0.22204934060573578
1774790031548637000,1.429636962890625,0.12385283410549164,-0.5784889459609985,-0.3228420317173004
1774790031567162400,1.448162353515625,0.2087630331516266,-0.25534147024154663,-0.18723005056381226
1774790031585687600,1.4666875,0.10613775253295898,-0.1081230640411377,-0.0766635313630104
1774790031604213000,1.485212890625,-0.1204930767416954,-0.04581485688686371,0.04428769648075104
1774790031622738200,1.50373828125,-0.13820815086364746,-0.03176496922969818,0.3845393657684326
1774790031641263400,1.522263427734375,-0.07589995115995407,-0.10934479534626007,0.6233875155448914
1774790031659788500,1.54078857421875,0.021838415414094925,-0.004276053514331579,0.6655371785163879
1774790031678313700,1.559313720703125,0.0487164668738842,0.28527384996414185,0.7052434086799622
1774790031696839200,1.577839111328125,-0.0691804364323616,0.45326167345046997,0.8671225309371948
1774790031715364400,1.5963642578125,-0.19501857459545135,0.1441640853881836,1.0180062055587769
1774790031733889500,1.6148896484375,-0.16447533667087555,-0.01893680728971958,1.0375537872314453
1774790031752415000,1.6334150390625,0.019394956529140472,0.1484401375055313,0.9673043489456177
1774790031770940200,1.651940185546875,-0.04718930274248123,0.0769689604640007,0.7852666974067688
1774790031789465600,1.670465576171875,-0.16264274716377258,-0.11362084746360779,0.5232056975364685
1774790031807990800,1.68899072265625,-0.22617268562316895,-0.08063415437936783,0.2666424810886383
1774790031826516000,1.707515869140625,-0.18585561215877533,0.3958403766155243,0.1340848207473755
1774790031845041400,1.72604150390625,-0.030085090547800064,0.4105011224746704,0.06383536756038666
1774790031863566600,1.744566650390625,-0.008704823441803455,0.08979712426662445,0.022907428443431854
1774790031882091800,1.763091796875,-0.09300415962934494,-0.25900667905807495,0.04367683082818985
1774790031900617000,1.781616943359375,-0.11927134543657303,-0.5021308660507202,0.17562362551689148
1774790031919142400,1.800142333984375,-0.18402300775051117,-0.48930269479751587,0.2971857190132141
1774790031937667600,1.81866748046875,-0.19501857459545135,-0.318871408700943,0.3197877109050751
1774790031956192800,1.83719287109375,-0.20357069373130798,-0.10018182545900345,0.32039856910705566
1774790031974718200,1.85571826171875,-0.1724165827035904,-0.0818558782339096,0.3271180987358093
1774790031993243400,1.874243408203125,-0.10949750989675522,-0.45448338985443115,0.19394956529140472
1774790032011768800,1.892768798828125,-0.05024362727999687,-0.4410443603992462,-0.051618073135614395
1774790032030294000,1.9112939453125,0.04566214233636856,0.01954767294228077,-0.1744018942117691
1774790032048819500,1.9298193359375,0.12751802802085876,0.48930269479751587,-0.1328630894422531
1774790032067344600,1.9483447265625,0.06887500733137131,0.4520399272441864,-0.04428769648075104
1774790032085870000,1.9668701171875,-0.11621702462434769,-0.04886918142437935,0.1029307171702385
1774790032104395300,1.985395263671875,-0.07223475724458694,-0.5277871489524841,0.3484983444213867
1774790032122920400,2.00392041015625,0.064598947763443,-0.4471530318260193,0.6362156867980957
1774790032141446000,2.02244580078125,0.15378521382808685,-0.23884813487529755,0.78648841381073
1774790032159971000,2.04097119140625,0.05299251899123192,0.0256563201546669,0.7168498039245605
1774790032178496500,2.05949658203125,-0.06062832847237587,0.2620609998703003,0.547029435634613
1774790032197021700,2.078021728515625,-0.11133010685443878,0.16798780858516693,0.40958482027053833
1774790032215547100,2.096547119140625,-0.0948367565870285,-0.037262752652168274,0.34116798639297485
1774790032234072300,2.115072265625,-0.020922118797898293,-0.14721840620040894,0.33567020297050476
1774790032252597800,2.13359765625,0.047494735568761826,-0.16249002516269684,0.2971857190132141
1774790032271123000,2.152123046875,0.017562363296747208,-0.05192350596189499,0.20861032605171204
1774790032289648400,2.1706484375,-0.0435241162776947,0.07086031138896942,0.08949168771505356
1774790032308173600,2.189173583984375,-0.07712167501449585,0.13133592903614044,0.03329212963581085
1774790032326699000,2.207698974609375,-0.17547090351581573,0.004886918235570192,0.09376774728298187
1774790032345224200,2.22622412109375,-0.15470150113105774,-0.20463970303535461,0.0821613147854805
1774790032363749600,2.24474951171875,-0.06001746281981468,-0.18142683804035187,-0.0027488914784044027
1774790032382274800,2.26327490234375,-0.05757400393486023,0,-0.05589412897825241
1774790032400800300,2.28180029296875,-0.07834340631961823,0.13011419773101807,-0.1279761642217636
1774790032419325700,2.30032568359375,-0.16386447846889496,0.1649334877729416,-0.2006690800189972
1774790032437851000,2.318850830078125,-0.21395538747310638,0.06536252796649933,-0.2837466895580292
1774790032456376300,2.337376220703125,-0.1510363221168518,-0.0873536616563797,-0.26358816027641296
1774790032474901500,2.355901611328125,-0.07101303339004517,-0.13194678723812103,-0.038789913058280945
1774790032493427000,2.374427001953125,-0.05146535858511925,-0.07024945318698883,0.12614357471466064
1774790032511952400,2.392952392578125,-0.09178243577480316,0.0616973415017128,0.06750056147575378
1774790032530477600,2.4114775390625,-0.22434009611606598,0.17226386070251465,-0.02779434807598591
1774790032549003000,2.4300029296875,-0.22128576040267944,0.046425722539424896,-0.1444695144891739
1774790032567528200,2.448528076171875,-0.011148282326757908,-0.10567960888147354,-0.08277218043804169
1774790032586053600,2.4670537109375,0.09269873052835464,-0.09285144507884979,0.09132428467273712
1774790032604579000,2.4855791015625,0.11163553595542908,0.049480047076940536,0.12125665694475174
1774790032623104300,2.504104248046875,0.047494735568761826,-0.07330377399921417,0.03329212963581085
1774790032641629700,2.522629638671875,0.04321868345141411,-0.09712749719619751,-0.05833758786320686
1774790032660155100,2.541155029296875,0.12018764764070511,-0.0922405794262886,-0.08032871782779694
1774790032678680300,2.559680419921875,0.10247256606817245,0.06108647957444191,0.01802051067352295
1774790032697205800,2.578205810546875,-0.028863361105322838,0.25411975383758545,0.0565049909055233
1774790032715731200,2.596731201171875,-0.12293653935194016,0.18692462146282196,-0.01435532234609127
1774790032734256600,2.615256591796875,-0.14920371770858765,-0.03848448023200035,-0.1389717310667038
1774790032752781800,2.63378173828125,-0.03802633285522461,-0.1545487940311432,-0.210442915558815
1774790032771307300,2.652307373046875,0.027947064489126205,-0.021991131827235222,-0.23487751185894012
1774790032789832700,2.670832763671875,-0.006872228812426329,0.16310089826583862,-0.24526220560073853
1774790032808358100,2.689358154296875,-0.05940660089254379,0.2003636509180069,-0.22937972843647003
1774790032826883300,2.70788330078125,-0.06795870512723923,0.1539379209280014,-0.10170898586511612
1774790032845408800,2.72640869140625,0.005955931730568409,-0.004276053514331579,0.10109812021255493
1774790032863934200,2.744934326171875,0.1305723488330841,-0.020769402384757996,0.250149130821228
1774790032882459600,2.763459716796875,0.1672242283821106,0.06291907280683517,0.20189081132411957
1774790032900985000,2.781985107421875,0.1721111536026001,0.2883281707763672,0.07422006875276566
1774790032919510300,2.80051025390625,0.10980294644832611,0.2864955961704254,0.0308486707508564
1774790032938035700,2.81903564453125,-0.008093958720564842,0.18387030065059662,0.12492185086011887
1774790032956561200,2.83756103515625,-0.006872228812426329,0.046425722539424896,0.14019346237182617
1774790032975086600,2.856086669921875,0.041386090219020844,0.0824667438864708,0.08338304609060287
1774790032993612000,2.874612060546875,0.00045814859913662076,0.1899789422750473,0.048563748598098755
1774790033012137500,2.893137451171875,-0.08750637620687485,0.2364046722650528,0.05528326332569122
1774790033030663000,2.911662841796875,-0.15347976982593536,0.2419024556875229,0.09132428467273712
1774790033049188400,2.930188232421875,-0.1406516134738922,0.13622283935546875,0.018631376326084137
1774790033067713800,2.9487138671875,-0.036804601550102234,-0.02626718580722809,-0.14263692498207092
1774790033086239200,2.9672392578125,0.040775224566459656,-0.12644900381565094,-0.22999058663845062
1774790033104764700,2.9857646484375,0.07681624591350555,0.13011419773101807,-0.06750056147575378
1774790033123290000,3.0042900390625,0.10735948383808136,0.3549124300479889,0.23793183267116547
1774790033141815600,3.022815673828125,0.10430516302585602,0.3090975880622864,0.39675667881965637
1774790033160341000,3.041341064453125,0.06154462695121765,0.11606431007385254,0.3686569035053253
1774790033178866400,3.059866455078125,0.051159925758838654,0.028099779039621353,0.3020726442337036
1774790033197392000,3.078391845703125,0.024892739951610565,0.26939135789871216,0.2971857190132141
1774790033215917300,3.096917236328125,0.0102319847792387,0.2467893660068512,0.38881543278694153
1774790033234442800,3.11544287109375,0.037720900028944016,0.3860665261745453,0.4205803871154785
1774790033252968200,3.13396826171875,0.04993819445371628,0.11423171311616898,0.35705047845840454
1774790033271493600,3.15249365234375,0.15928299725055695,-0.06047561392188072,0.1750127524137497
1774790033290019000,3.17101904296875,0.13790272176265717,-0.07452550530433655,0.14569124579429626
1774790033308544500,3.18954443359375,0.12324196845293045,-0.07941242307424545,0.19333870708942413
1774790033327070000,3.208070068359375,0.0902552679181099,-0.15577052533626556,0.1493564397096634
1774790033345595400,3.226595458984375,0.03894263133406639,-0.046425722539424896,0.11881320178508759
1774790033364121000,3.24512109375,0.001679878099821508,0.05864302068948746,0.15241076052188873
1774790033382646500,3.263646484375,0.002290742937475443,0.000610864779446274,0.24526220560073853
1774790033401172000,3.282171875,-0.008704823441803455,0.10873392969369888,0.35277441143989563
1774790033419697400,3.300697509765625,0.02977965772151947,0.06230820715427399,0.30573782324790955
1774790033438223000,3.31922314453125,0.04566214233636856,0.017715077847242355,0.10965022444725037
1774790033456748300,3.337748291015625,-0.08078686892986298,0.004276053514331579,0.021685699000954628
1774790033475274000,3.35627392578125,-0.13820815086364746,-0.001832594396546483,0.010079269297420979
1774790033493799400,3.37479931640625,-0.16569706797599792,0.01893680728971958,0.2153298407793045
1774790033512324900,3.393324951171875,-0.11988221108913422,0.1533270627260208,0.4419606626033783
1774790033530850600,3.4118505859375,-0.009926552884280682,0.0720820426940918,0.3857611119747162
1774790033549376000,3.4303759765625,0.027947064489126205,0.16126830875873566,0.14691297709941864
1774790033567901400,3.4489013671875,0.1305723488330841,-0.19303326308727264,-0.5287034511566162
1774790033586427100,3.46742724609375,0.06154462695121765,-0.3182605504989624,-0.2922987937927246
1774790033604952600,3.48595263671875,-0.007483093533664942,-0.24923282861709595,0.13775001466274261
1774790033623478000,3.50447802734375,-0.06673697382211685,-0.1185077652335167,0.015577051788568497
1774790033642003700,3.523003662109375,-0.09178243577480316,-0.3029889166355133,-0.6166679859161377
1774790033660529200,3.541529052734375,0.004734201822429895,-0.35674503445625305,-1.2354739904403687
1774790033679054600,3.5600546875,0.0694858655333519,-0.4825831651687622,-1.4541635513305664
1774790033697580300,3.578580322265625,-0.0025961752980947495,-0.5320632457733154,-1.3112212419509888
1774790033716105700,3.597105712890625,-0.02458730712532997,-0.5400044918060303,-1.1133010387420654
1774790033734631400,3.61563134765625,0.01511890348047018,-0.5412262082099915,-0.9880737662315369
1774790033753156900,3.634156982421875,0.0694858655333519,-0.34147340059280396,-0.8915571570396423
1774790033771682600,3.6526826171875,0.04260781779885292,-0.28527384996414185,-0.814588189125061
1774790033790208000,3.6712080078125,0.02306014485657215,-0.2938259541988373,-0.7076868414878845
1774790033817996300,3.698996337890625,0.04932733252644539,-0.2718348205089569,-0.6246092319488525
1774790033836522000,3.71752197265625,0.060933761298656464,-0.2309068888425827,-0.5525271892547607
1774790033855047700,3.736047607421875,-0.0001527161948615685,-0.2260199636220932,-0.5134318470954895
1774790033873573000,3.754572998046875,0.0102319847792387,-0.17592905461788177,-0.4834994673728943
1774790033892098800,3.773098876953125,0.005345067009329796,-0.22296564280986786,-0.4114174246788025
1774790033910624300,3.791624267578125,-0.06062832847237587,-0.22724169492721558,-0.3191768527030945
1774790033929150000,3.81014990234375,-0.15592323243618011,-0.10873392969369888,-0.24465134739875793
1774790033947675400,3.82867529296875,-0.16936226189136505,0.13988803327083588,-0.11698060482740402
1774790033966201000,3.847201171875,0.0010690133785828948,0.2724456787109375,0.0717766135931015
1774790033984726800,3.865726806640625,0.2484692484140396,0.040317077189683914,0.2721402645111084
1774790034003252200,3.884252197265625,0.2802342176437378,-0.13011419773101807,0.3081812858581543
1774790034021778000,3.90277783203125,0.03711003437638283,-0.1484401375055313,0.17256930470466614
1774790034040303600,3.9213037109375,-0.1302669197320938,-0.22968515753746033,-0.02718348242342472
1774790034058829000,3.9398291015625,-0.10827577859163284,-0.31520622968673706,-0.16279546916484833
1774790034077354800,3.958354736328125,0.02916879393160343,-0.2510654330253601,-0.17073670029640198
1774790034095880400,3.97688037109375,0.0847574844956398,0.0665842592716217,-0.11942406743764877
1774790034114406000,3.995406005859375,-0.0013744457392022014,0.16798780858516693,-0.0974329337477684
1774790034132931600,4.013931640625,-0.15347976982593536,-0.001832594396546483,-0.07116574794054031
1774790034151457300,4.032457275390625,-0.23228132724761963,-0.33047783374786377,-0.02107483521103859
1774790034169983000,4.05098291015625,-0.18280129134655,-0.5815432667732239,0.061391908675432205
1774790034188508700,4.0695087890625,-0.10705405473709106,-0.5717694163322449,0.1536324918270111
1774790034207034000,4.0880341796875,-0.07834340631961823,-0.35796675086021423,0.20250166952610016
1774790034225560000,4.10656005859375,-0.21090106666088104,-0.17226386070251465,0.07238747924566269
1774790034244085500,4.12508544921875,-0.378888875246048,-0.05497783049941063,-0.10903936624526978
1774790034262611200,4.143611083984375,-0.45280352234840393,-0.11178825795650482,-0.2098320573568344
1774790034281137000,4.162136962890625,-0.42959064245224,-0.2608392536640167,-0.25381430983543396
1774790034299662600,4.18066259765625,-0.38072147965431213,-0.31154105067253113,-0.25992295145988464
1774790034318188300,4.199188232421875,-0.3379609286785126,-0.3066541254520416,-0.28924447298049927
1774790034336714000,4.2177138671875,-0.25243985652923584,-0.15210533142089844,-0.32100942730903625
1774790034355239700,4.23623974609375,-0.17974695563316345,-0.000610864779446274,-0.2977965772151947
1774790034373765400,4.254765380859375,-0.08017600327730179,0.010995565913617611,-0.1945604383945465
1774790034392291000,4.273291015625,0.03283398225903511,-0.01954767294228077,-0.06750056147575378
1774790034410816800,4.291816650390625,0.007177661173045635,-0.08307760953903198,-0.08826996386051178
1774790034429342500,4.310342529296875,-0.10094540566205978,-0.07269290834665298,-0.22693626582622528
1774790034447868200,4.3288681640625,-0.15347976982593536,-0.11972949653863907,-0.3698786199092865
1774790034466393900,4.347393798828125,-0.14981459081172943,-0.10384701192378998,-0.37659814953804016
1774790034484919600,4.36591943359375,-0.11316270381212234,-0.027488915249705315,-0.2672533392906189
1774790034503445200,4.3844453125,-0.09911280870437622,0.056199558079242706,-0.09193515032529831
1774790034521971000,4.402970947265625,-0.14309507608413696,0.06597339361906052,0.011300998739898205
1774790034540496600,4.42149658203125,-0.12110394239425659,0.05803215503692627,-0.051618073135614395
1774790034559022600,4.440022705078125,-0.10949750989675522,0.07391463965177536,-0.21166464686393738
1774790034577548300,4.45854833984375,-0.11866047978401184,0.13072505593299866,-0.24953825771808624
1774790034596073700,4.47707373046875,-0.07345648854970932,0.07574722915887833,-0.18356487154960632
1774790034614599700,4.495599609375,0.031612250953912735,0.07757982611656189,-0.08521563559770584
1774790034633125400,4.51412548828125,0.07009673118591309,0.09285144507884979,0.07910698652267456
1774790034651651000,4.532651123046875,0.04810560122132301,0.07757982611656189,0.18661919236183167
1774790034670177000,4.551177001953125,0.06643154472112656,0.12461641430854797,0.19272783398628235
1774790034688702700,4.56970263671875,0.08109229803085327,0.3084867000579834,0.1493564397096634
1774790034707228400,4.588228515625,0.07498364895582199,0.526565432548523,0.1383608728647232
1774790034725754000,4.606754150390625,0.1104138121008873,0.5180133581161499,0.13469567894935608
1774790034744280000,4.625280029296875,0.16966769099235535,0.2052505612373352,0.01435532234609127
1774790034762805800,4.6438056640625,0.15989385545253754,-0.1533270627260208,-0.1438586562871933
1774790034781331500,4.66233154296875,-0.023976443335413933,-0.2412915825843811,-0.3594939112663269
1774790034799857200,4.680857177734375,-0.14859285950660706,0.10629047453403473,-0.416304349899292
1774790034818383000,4.699383056640625,-0.06490438431501389,0.4404335021972656,-0.20250166952610016
1774790034836908800,4.71790869140625,0.300392746925354,0.5479456782341003,0.1444695144891739
1774790034855434800,4.736434814453125,0.523969292640686,0.5540543794631958,0.3808741867542267
1774790034873960400,4.75496044921875,0.45738500356674194,0.45998117327690125,0.44440412521362305
1774790034892486100,4.773486083984375,0.33337944746017456,0.2706131041049957,0.39309149980545044
1774790034911012000,4.79201220703125,0.30283620953559875,-0.04214967042207718,0.22266021370887756
1774790034929537800,4.810537841796875,0.41706791520118713,-0.14477495849132538,0.01740964688360691
1774790034948063500,4.8290634765625,0.5441278219223022,-0.1185077652335167,-0.08765909820795059
1774790034966589400,4.84758935546875,0.6046034097671509,-0.11972949653863907,-0.06994401663541794
1774790034985115400,4.866115478515625,0.49831295013427734,-0.20158538222312927,-0.11636973917484283
1774790035003641000,4.88464111328125,0.3523162603378296,-0.2364046722650528,-0.2776380479335785
1774790035022167000,4.9031669921875,0.2747364342212677,-0.1337793916463852,-0.37659814953804016
1774790035040692700,4.921692626953125,0.24602578580379486,-0.003665188793092966,-0.36254823207855225
1774790035059218700,4.94021875,0.249690979719162,0.08368847519159317,-0.2886336147785187
1774790035077744400,4.958744384765625,0.27840161323547363,0.1282816082239151,-0.19150610268115997
1774790035096270300,4.977270263671875,0.23136503994464874,0.09285144507884979,-0.1945604383945465
1774790035114796000,4.995796142578125,0.21670427918434143,0.21685700118541718,-0.17256930470466614
1774790035133322000,5.014322021484375,0.1818849891424179,0.2205221801996231,-0.08155044913291931
1774790035151847700,5.03284765625,0.16600249707698822,0.027488915249705315,-0.01802051067352295
1774790035170373600,5.05137353515625,0.17027856409549713,-0.05192350596189499,0.0668896958231926
1774790035188899600,5.069899658203125,0.08597921580076218,-0.08674279600381851,0.054672397673130035
1774790035207425300,5.08842529296875,0.003512472379952669,-0.056810423731803894,-0.13591741025447845
1774790035225951200,5.106951171875,-0.012980876490473747,0.15027274191379547,-0.2623664140701294
1774790035244477000,5.125476806640625,-0.04535670951008797,0.18081597983837128,-0.25809037685394287
1774790035263003000,5.1440029296875,-0.09117157012224197,-0.0873536616563797,-0.24709481000900269
1774790035281528800,5.16252880859375,-0.08872810751199722,-0.3029889166355133,-0.2617555558681488
1774790035300054800,5.1810546875,-0.09789107739925385,-0.3530798554420471,-0.25992295145988464
1774790035318580500,5.19958056640625,-0.16936226189136505,-0.2370155304670334,-0.21349723637104034
1774790035346369500,5.22736962890625,-0.2646571695804596,-0.12461641430854797,-0.1591302752494812
1774790035364895200,5.245895263671875,-0.22983787953853607,-0.14477495849132538,-0.13225223124027252
1774790035383421200,5.264421142578125,-0.11499529331922531,-0.17531819641590118,-0.014966187067329884
1774790035401947100,5.282947021484375,-0.030085090547800064,-0.14660754799842834,0.14508038759231567
1774790035420473000,5.30147314453125,-0.012980876490473747,-0.17226386070251465,0.17195843160152435
1774790035438999000,5.3199990234375,-0.05757400393486023,-0.3017672002315521,-0.03451386094093323
1774790035457524700,5.338524658203125,-0.16447533667087555,-0.27855435013771057,-0.29596397280693054
1774790035476050700,5.35705078125,-0.3092502951622009,-0.20280711352825165,-0.47555822134017944
1774790035494576600,5.37557666015625,-0.36911505460739136,-0.1740964651107788,-0.3546070158481598
1774790035513102600,5.3941025390625,-0.2390008419752121,-0.1496618688106537,-0.0565049909055233
1774790035531628500,5.412628662109375,-0.16081015765666962,-0.17837251722812653,0.16768237948417664
1774790035550154200,5.431154296875,-0.19074252247810364,-0.29443681240081787,0.11698060482740402
1774790035568680200,5.44968017578125,-0.24327689409255981,-0.2669478952884674,-0.09071341902017593
1774790035587206100,5.4682060546875,-0.2994764447212219,-0.20830489695072174,-0.20311254262924194
1774790035605732000,5.486732177734375,-0.27687445282936096,-0.1747073233127594,-0.1328630894422531
1774790035624258000,5.505258056640625,-0.24144430458545685,-0.09651663154363632,-0.011300998739898205
1774790035642784000,5.523783935546875,-0.29214608669281006,0,0.08399390429258347
1774790035661310000,5.54231005859375,-0.3422369956970215,0.037262752652168274,0.07360920310020447
1774790035679836000,5.5608359375,-0.2903134822845459,0.11239911615848541,0.04001164436340332
1774790035698361900,5.57936181640625,-0.22067490220069885,0.15149445831775665,-0.018631376326084137
1774790035716887800,5.5978876953125,-0.1003345400094986,0.16798780858516693,-0.06994401663541794
1774790035735413800,5.616413818359375,0.00045814859913662076,0.11911863088607788,-0.12064579129219055
1774790035753939700,5.634939697265625,0.03711003437638283,0.1288924664258957,-0.10476330667734146
1774790035772465700,5.653465576171875,0.05604684352874756,0.1594357043504715,-0.016187917441129684
1774790035790991600,5.67199169921875,0.07498364895582199,0.09957095980644226,-0.05528326332569122
1774790035809517600,5.690517578125,0.08292489498853683,0.19730933010578156,-0.12736530601978302
1774790035828043500,5.70904345703125,0.02916879393160343,0.28466299176216125,-0.18234314024448395
1774790035846569500,5.727569580078125,0.06215549260377884,0.27855435013771057,-0.19211697578430176
1774790035865095700,5.746095703125,0.15012001991271973,0.3237583339214325,-0.11759147047996521
1774790035883621600,5.76462158203125,0.20448698103427887,0.3292561173439026,0.005192350596189499
1774790035902147600,5.783147705078125,0.23991714417934418,0.20219624042510986,0.09987638890743256
1774790035920673500,5.801673583984375,0.2900080680847168,0.08368847519159317,0.14263692498207092
1774790035939199500,5.820199462890625,0.300392746925354,-0.05558869615197182,0.10965022444725037
1774790035957725400,5.838725341796875,0.25763222575187683,-0.040317077189683914,0.07422006875276566
1774790035976251600,5.857251708984375,0.1464548259973526,0.1490510106086731,0.041844237595796585
1774790035994777300,5.87577734375,0.12263110280036926,0.21441353857517242,0.08826996386051178
1774790036013303600,5.894303466796875,0.1922696828842163,0.23396120965480804,0.2507599890232086
1774790036031829500,5.91282958984375,0.2331976294517517,0.31642794609069824,0.4309650957584381
1774790036050355500,5.93135546875,0.2649625837802887,0.4984656572341919,0.49632763862609863
1774790036068881400,5.94988134765625,0.27840161323547363,0.46547895669937134,0.27947062253952026
1774790036087407600,5.96840771484375,0.2124282270669937,0.1130099818110466,-0.1542433500289917
1774790036105933600,5.98693359375,0.016340631991624832,-0.25961753726005554,-0.5946768522262573
1774790036124459500,6.00545947265625,-0.06673697382211685,-0.2101374864578247,-0.5745183229446411
1774790036142985500,6.0239853515625,0.02672533318400383,0.21441353857517242,-0.18356487154960632
1774790036161511700,6.04251171875,0.31444263458251953,0.6432406306266785,0.35155269503593445
1774790036180037600,6.06103759765625,0.5056433081626892,0.6536253094673157,0.5561923980712891
1774790036198563800,6.079563720703125,0.6638572812080383,0.37140578031539917,0.4205803871154785
1774790036217089500,6.098089599609375,0.8526145219802856,0.1081230640411377,0.2666424810886383
1774790036235615700,6.11661572265625,0.8923207521438599,-0.04276053607463837,0.25320345163345337
1774790036254141700,6.1351416015625,0.7927497625350952,-0.17348559200763702,0.3136790692806244
1774790036272668000,6.15366796875,0.660802960395813,-0.27550002932548523,0.3277289569377899
1774790036291193900,6.17219384765625,0.5300779342651367,-0.1997527778148651,0.23793183267116547
1774790036309719800,6.1907197265625,0.383470356464386,0.07941242307424545,0.11881320178508759
1774790036328246000,6.20924609375,0.20387612283229828,0.3133736252784729,-0.00946840364485979
1774790036346772000,6.22777197265625,0.0591011680662632,0.389120876789093,-0.11759147047996521
1774790036365298200,6.246298095703125,-0.01847865991294384,0.28405213356018066,-0.1646280586719513
1774790036383824100,6.26482421875,-0.01908952370285988,0.08491020649671555,-0.17073670029640198
1774790036402350000,6.28335009765625,0.03222311660647392,-0.1026252806186676,-0.14569124579429626
1774790036420876300,6.301876220703125,0.08048143237829208,-0.07819069176912308,-0.07422006875276566
1774790036439402200,6.32040234375,0.03588830679655075,-0.000610864779446274,-0.09987638890743256
1774790036457928400,6.338928466796875,0.017562363296747208,0.0360410213470459,-0.13103049993515015
1774790036476454400,6.357454345703125,-0.02825249545276165,0.0360410213470459,-0.13103049993515015
1774790036494980600,6.375980712890625,-0.09789107739925385,-0.1380554437637329,-0.19639302790164948
1774790036513506600,6.394506591796875,-0.18463388085365295,-0.3029889166355133,-0.2684750556945801
1774790036532032800,6.41303271484375,-0.3061959743499756,-0.2254091054201126,-0.2715294063091278
1774790036550558700,6.431558837890625,-0.3764454126358032,-0.14233149588108063,-0.2886336147785187
1774790036569084700,6.450084716796875,-0.2756527364253998,-0.10140355676412582,-0.2721402645111084
1774790036587611000,6.46861083984375,-0.13820815086364746,-0.07452550530433655,-0.24037529528141022
1774790036606136800,6.48713671875,-0.12782345712184906,-0.22907429933547974,-0.23976442217826843
1774790036624663000,6.5056630859375,-0.22495095431804657,-0.2412915825843811,-0.13530655205249786
1774790036643189200,6.524189208984375,-0.32330018281936646,-0.1905898153781891,0.041844237595796585
1774790036661715200,6.542715087890625,-0.24327689409255981,-0.08307760953903198,0.21227550506591797
1774790036680241400,6.561241455078125,-0.13698641955852509,-0.09651663154363632,0.21655155718326569
1774790036698767400,6.579767333984375,-0.20051635801792145,-0.40805765986442566,-0.03023780696094036
1774790036717293600,6.59829345703125,-0.4173733592033386,-0.6267472505569458,-0.3552178740501404
1774790036735819800,6.61681982421875,-0.6323977708816528,-0.472198486328125,-0.40225446224212646
1774790036754345700,6.635345703125,-0.6659952998161316,-0.17592905461788177,-0.08093958348035812
1774790036772872000,6.653871826171875,-0.40026915073394775,0.009162971749901772,0.3943132162094116
1774790036791398000,6.67239794921875,-0.08750637620687485,-0.043371398001909256,0.6899717450141907
1774790036809924000,6.690924072265625,0.012675444595515728,-0.33536475896835327,0.630107045173645
1774790036828450000,6.709449951171875,-0.08384118974208832,-0.5687150955200195,0.36254823207855225
1774790036846976300,6.727976318359375,-0.28664830327033997,-0.4923570156097412,0.11698060482740402
1774790036865502500,6.74650244140625,-0.47357290983200073,-0.2761108875274658,-0.02412915788590908
1774790036884028400,6.7650283203125,-0.4961749315261841,-0.11362084746360779,-0.015577051788568497
1774790036902554600,6.7835546875,-0.3984365463256836,-0.10323614627122879,0.07360920310020447
1774790036921080600,6.80208056640625,-0.35506516695022583,-0.20952661335468292,0.08032871782779694
1774790036939606800,6.820606689453125,-0.3776671588420868,-0.18325942754745483,-0.04062250629067421
1774790036958133000,6.839133056640625,-0.4277580678462982,-0.007330377586185932,-0.20372340083122253
1774790036976659000,6.857658935546875,-0.39965829253196716,0.11545344442129135,-0.3277289569377899
1774790036995185200,6.87618505859375,-0.2023489624261856,0.12950333952903748,-0.3631591200828552
1774790037013711400,6.89471142578125,0.0010690133785828948,0.017715077847242355,-0.3094030022621155
1774790037032237600,6.913237548828125,0.060322895646095276,-0.1233946830034256,-0.1646280586719513
1774790037050763500,6.931763427734375,-0.052687086164951324,-0.1588248461484909,-0.04306596517562866
1774790037069289700,6.950289794921875,-0.15958842635154724,-0.08124501258134842,-0.03817904740571976
1774790037087815700,6.968815673828125,-0.21639885008335114,0.09162971377372742,-0.15729768574237823
1774790037106342000,6.987341796875,-0.17791436612606049,0.26878049969673157,-0.2605338394641876
1774790037124868000,7.0058681640625,-0.07712167501449585,0.268169641494751,-0.31490078568458557
1774790037143394300,7.024394287109375,0.031001387163996696,0.1802051067352295,-0.2507599890232086
1774790037161920300,7.042920166015625,0.057268574833869934,0.07819069176912308,-0.1230892539024353
1774790037180446500,7.061446533203125,0.0792597085237503,0.04825831577181816,0.0021380267571657896
1774790037198972700,7.07997265625,0.10247256606817245,0.053145237267017365,0.05711585655808449
1774790037217499000,7.098498779296875,0.12263110280036926,0.1441640853881836,0.11026109009981155
1774790037236025000,7.117025146484375,0.11957678198814392,0.11606431007385254,0.1383608728647232
1774790037254551000,7.135551025390625,0.12873975932598114,-0.0054977829568088055,0.13469567894935608
1774790037273077200,7.1540771484375,0.12935061752796173,0.006719512399286032,0.10415244847536087
1774790037291603500,7.172603515625,0.14401137828826904,0.33047783374786377,0.18112140893936157
1774790037310129400,7.19112939453125,0.2032652497291565,0.7348703145980835,0.3039052188396454
1774790037328655600,7.209655517578125,0.23503021895885468,0.7189878225326538,0.23854269087314606
1774790037347181800,7.228181884765625,0.18677189946174622,0.01649334840476513,-0.06933315098285675
1774790037365708000,7.2467080078125,0.11835505068302155,-0.7379246354103088,-0.4834994673728943
1774790037384234200,7.265234130859375,0.07254019379615784,-0.6395754218101501,-0.5427533388137817
1774790037402760200,7.28376025390625,0.014508038759231567,0.12583814561367035,-0.14569124579429626
1774790037421286400,7.302286376953125,0.09392046183347702,0.8246674537658691,0.3032943606376648
1774790037439812600,7.3208125,0.3272708058357239,0.962722897529602,0.4725039005279541
1774790037458338800,7.3393388671875,0.476321816444397,0.6359102129936218,0.34177884459495544
1774790037476865000,7.357864990234375,0.47326749563217163,0.20219624042510986,0.15118902921676636
1774790037495391200,7.37639111328125,0.45799586176872253,-0.053145237267017365,0.08277218043804169
1774790037513917200,7.394917236328125,0.4812087416648865,-0.13500112295150757,0.10842850059270859
1774790037532443400,7.413443359375,0.5074759125709534,-0.09529490768909454,0.1542433500289917
1774790037550969600,7.431969482421875,0.539851725101471,-0.01588248461484909,0.18173226714134216
1774790037569495800,7.450495849609375,0.5606211423873901,0.06780599057674408,0.2360992431640625
1774790037588021800,7.469021728515625,0.49281516671180725,0.14294235408306122,0.30573782324790955
1774790037606548000,7.4875478515625,0.3584249019622803,0.2516762912273407,0.3191768527030945
1774790037625074200,7.50607421875,0.2380845546722412,0.3744601011276245,0.2721402645111084
1774790037643600400,7.524600341796875,0.1409570425748825,0.4013381600379944,0.14996729791164398
1774790037662126600,7.543126708984375,0.10247256606817245,0.31459537148475647,0.005803215317428112
1774790037680652800,7.56165283203125,0.08903354406356812,0.08491020649671555,-0.11392628401517868
1774790037699179000,7.580178955078125,0.08292489498853683,-0.13194678723812103,-0.1591302752494812
1774790037717705000,7.598705078125,0.013897174037992954,-0.19425499439239502,-0.21349723637104034
1774790037736231200,7.617231201171875,-0.06979130208492279,-0.0818558782339096,-0.2556469142436981
1774790037754757400,7.63575732421875,-0.141262486577034,-0.10201441496610641,-0.30634868144989014
1774790037773283600,7.65428369140625,-0.17363831400871277,-0.17226386070251465,-0.33322674036026
1774790037791809800,7.672809814453125,-0.2023489624261856,-0.24312418699264526,-0.3344484567642212
1774790037810336000,7.6913359375,-0.191964253783226,-0.28405213356018066,-0.2568686306476593
1774790037828862200,7.7098623046875,-0.1663079410791397,-0.37751442193984985,-0.20922118425369263
1774790037847388400,7.728388427734375,-0.11743875592947006,-0.27427828311920166,-0.1487455666065216
1774790037865914400,7.746914306640625,-0.1724165827035904,-0.09896009415388107,-0.12370011955499649
1774790037884440600,7.765440673828125,-0.3104720115661621,-0.034208428114652634,-0.18661919236183167
1774790037902966800,7.783966796875,-0.4094321131706238,-0.10079269111156464,-0.29474225640296936
1774790037921493000,7.802492919921875,-0.37400195002555847,-0.15821397304534912,-0.34666576981544495
1774790037940019200,7.821019287109375,-0.24205516278743744,-0.13439024984836578,-0.33689191937446594
1774790037958545400,7.83954541015625,-0.2133445292711258,-0.16615521907806396,-0.3136790692806244
1774790037977071600,7.858071533203125,-0.3935496211051941,-0.45448338985443115,-0.39370235800743103
1774790037995597800,7.876597900390625,-0.5963567495346069,-0.7550288438796997,-0.5849030017852783
1774790038014124000,7.8951240234375,-0.5975784659385681,-0.6151408553123474,-0.536644697189331
1774790038032650000,7.91364990234375,-0.37522369623184204,-0.16676609218120575,-0.14263692498207092
1774790038051176400,7.932176513671875,-0.020311253145337105,0.1747073233127594,0.38331764936447144
1774790038069702400,7.950702392578125,0.30222535133361816,0.12705987691879272,0.6753110289573669
1774790038088228600,7.969228515625,0.3712530732154846,-0.16249002516269684,0.536644697189331
1774790038106754800,7.9877548828125,0.08170316368341446,-0.3915643095970154,0.14019346237182617
1774790038125281000,8.006281005859375,-0.3507890999317169,-0.3854556679725647,-0.14691297709941864
1774790038143807200,8.02480712890625,-0.5981893539428711,-0.29504770040512085,-0.15179990231990814
1774790038162333400,8.04333349609375,-0.5456549525260925,-0.14477495849132538,0.035735588520765305
1774790038180859600,8.061859619140625,-0.40637779235839844,0.04886918142437935,0.19150610268115997
1774790038199385900,8.0803857421875,-0.38988444209098816,0.235793799161911,0.18845178186893463
1774790038217912000,8.098912109375,-0.458301305770874,0.33108872175216675,0.02412915788590908
1774790038236438300,8.117438232421875,-0.45707955956459045,0.3787361681461334,-0.1340848207473755
1774790038254964500,8.135964599609375,-0.3422369956970215,0.3023780584335327,-0.16218459606170654
1774790038273490700,8.15449072265625,-0.20112723112106323,0.07574722915887833,-0.09010255336761475
1774790038292017000,8.173016845703126,-0.0746782198548317,-0.10690133273601532,-0.007024944759905338
1774790038310543000,8.191543212890625,-0.02153298258781433,-0.10079269111156464,0.06872228533029556
1774790038329069300,8.2100693359375,-0.0850629210472107,0.04886918142437935,0.10109812021255493
1774790038347595500,8.228595458984374,-0.16264274716377258,0.12217295914888382,0.0027488914784044027
1774790038366121700,8.247121826171876,-0.11499529331922531,0.036651886999607086,-0.13530655205249786
1774790038384648000,8.26564794921875,-0.01908952370285988,-0.10079269111156464,-0.189673513174057
1774790038403174100,8.284174072265625,0.0487164668738842,-0.08674279600381851,-0.06261363625526428
1774790038421700400,8.302700439453124,0.0694858655333519,0.04459312930703163,0.12125665694475174
1774790038440226600,8.3212265625,0.05971203371882439,0.10995566099882126,0.19639302790164948
1774790038458752800,8.339752685546875,0.07681624591350555,0.033597562462091446,0.19639302790164948
1774790038477279000,8.358279052734375,0.09392046183347702,-0.17837251722812653,0.15668681263923645
1774790038495805200,8.37680517578125,0.10919208079576492,-0.20647229254245758,0.11759147047996521
1774790038514331400,8.395331298828125,0.15378521382808685,0.09101885557174683,0.12431098520755768
1774790038532857600,8.413857666015625,0.22525638341903687,0.4379900395870209,0.16218459606170654
1774790038551383800,8.4323837890625,0.2893971800804138,0.758694052696228,0.2055560052394867
1774790038569910000,8.450909912109376,0.2887863218784332,0.7519745230674744,0.12125665694475174
1774790038588436200,8.469436279296875,0.1262962967157364,0.10934479534626007,-0.26358816027641296
1774790038606962400,8.48796240234375,-0.07651081681251526,-0.430659681558609,-0.7333431839942932
1774790038625488600,8.506488525390624,-0.23228132724761963,-0.36285367608070374,-0.9477567076683044
1774790038644014800,8.525014892578126,-0.1565341055393219,0.3231474757194519,-0.7150171995162964
1774790038662541000,8.543541015625,0.12324196845293045,0.9498947262763977,-0.2922987937927246
1774790038681067300,8.5620673828125,0.43661558628082275,1.0024291276931763,-0.048563748598098755
1774790038699593500,8.580593505859374,0.7609847784042358,0.6328558921813965,0.022907428443431854
1774790038718119700,8.59911962890625,0.9619593024253845,0.16615521907806396,0.008246674202382565
1774790038736646000,8.61764599609375,0.9246965646743774,-0.10934479534626007,-0.010079269297420979
1774790038755172000,8.636172119140625,0.7591522336006165,-0.24740023910999298,-0.0021380267571657896
1774790038773698300,8.6546982421875,0.6357575058937073,-0.2571740746498108,0.03756818547844887
1774790038792224800,8.673224853515626,0.5826122760772705,-0.12217295914888382,0.0870482325553894
1774790038810750700,8.691750732421875,0.6003273725509644,0.08979712426662445,0.2000582218170166
1774790038829277000,8.71027685546875,0.5624537467956543,0.2309068888425827,0.31612253189086914
1774790038847803400,8.728803466796874,0.37491825222969055,0.23518294095993042,0.3173442482948303
1774790038866329600,8.74732958984375,0.21731515228748322,0.15760311484336853,0.2715294063091278
1774790038884855800,8.765855712890625,0.14767655730247498,-0.002443459117785096,0.20677772164344788
1774790038903382000,8.784382080078124,0.17333288490772247,-0.04276053607463837,0.20250166952610016
1774790038921908200,8.802908203125,0.30711227655410767,-0.11056652665138245,0.13164135813713074
1774790038940434400,8.821434326171875,0.3455967605113983,-0.28954991698265076,0.0204639695584774
1774790038958960600,8.839960693359375,0.20509785413742065,-0.16554436087608337,-0.018631376326084137
1774790038977486800,8.85848681640625,-0.009315688163042068,-0.04764745384454727,-0.08277218043804169
1774790038996013000,8.877012939453126,-0.1418733447790146,0.01588248461484909,-0.16829325258731842
1774790039014539300,8.895539306640625,-0.17486004531383514,-0.06963858753442764,-0.20250166952610016
1774790039033065500,8.9140654296875,-0.1974620372056961,-0.1905898153781891,-0.18295399844646454
1774790039051592000,8.932592041015624,-0.18341214954853058,-0.287106454372406,-0.10537417232990265
1774790039070118100,8.9511181640625,-0.17424917221069336,-0.2724456787109375,-0.08888082206249237
1774790039088644400,8.969644287109375,-0.19379685819149017,-0.12034036219120026,-0.13530655205249786
1774790039107170600,8.988170654296875,-0.25549420714378357,0.0030543238390237093,-0.18906265497207642
1774790039125696800,9.00669677734375,-0.2909243404865265,-0.043371398001909256,-0.17073670029640198
1774790039144223000,9.025222900390625,-0.24755294620990753,-0.1649334877729416,-0.060781046748161316
1774790039162749200,9.043749267578125,-0.0948367565870285,-0.1233946830034256,0.16279546916484833
1774790039181275400,9.062275390625,-0.02214384824037552,-0.014660755172371864,0.3222311735153198
1774790039199801900,9.0808017578125,-0.21029019355773926,-0.32070401310920715,0.13713914155960083
1774790039218328000,9.099328125,-0.5145008563995361,-0.5564978122711182,-0.2623664140701294
1774790039236854300,9.117854248046875,-0.6678279042243958,-0.37629270553588867,-0.425467312335968
1774790039255380500,9.13638037109375,-0.5682569742202759,0.050090912729501724,-0.168904110789299
1774790039273906700,9.15490673828125,-0.295811265707016,0.2877173125743866,0.2715294063091278
1774790039292433000,9.173432861328125,-0.049632761627435684,0.10079269111156464,0.5232056975364685
1774790039310959400,9.19195947265625,0.02672533318400383,-0.19853104650974274,0.46883872151374817
1774790039329485600,9.210485595703124,-0.13759729266166687,-0.2822195291519165,0.18417572975158691
1774790039348011800,9.22901171875,-0.3556760251522064,-0.17715078592300415,-0.06566796451807022
1774790039366538000,9.2475380859375,-0.37949973344802856,-0.026878049597144127,-0.08826996386051178
1774790039385064200,9.266064208984375,-0.26282456517219543,-0.000610864779446274,0.06933315098285675
1774790039403590400,9.28459033203125,-0.2341139316558838,-0.05925388261675835,0.19639302790164948
1774790039422116900,9.303116943359376,-0.3520108163356781,-0.09101885557174683,0.16279546916484833
1774790039440642800,9.321642822265625,-0.47296205163002014,-0.007330377586185932,-0.02107483521103859
1774790039459169000,9.3401689453125,-0.40515607595443726,0.15699224174022675,-0.16829325258731842
1774790039477695500,9.358695556640624,-0.21212279796600342,0.24923282861709595,-0.2098320573568344
1774790039496221700,9.3772216796875,-0.04474584385752678,0.17531819641590118,-0.1340848207473755
1774790039514748000,9.395747802734375,0.012675444595515728,0.009773836471140385,-0.03634645417332649
1774790039533274000,9.414274169921875,-0.0062613640911877155,-0.12950333952903748,-0.014966187067329884
1774790039551800300,9.43280029296875,-0.06123919412493706,-0.13561198115348816,-0.09621120244264603
1774790039570326500,9.451326416015625,-0.12415826320648193,-0.03176496922969818,-0.2611446976661682
1774790039588853500,9.469853515625,-0.08139773458242416,0.11606431007385254,-0.31673339009284973
1774790039607379200,9.488379150390625,0.01695149764418602,0.2205221801996231,-0.189673513174057
1774790039625905400,9.506905517578126,0.13362666964530945,0.22174391150474548,0.048563748598098755
1774790039644431600,9.525431640625,0.20570871233940125,0.07757982611656189,0.21899501979351044
1774790039662957800,9.543957763671875,0.22159120440483093,0.034208428114652634,0.2886336147785187
1774790039681484000,9.562484130859374,0.18432845175266266,-0.009162971749901772,0.22327107191085815
1774790039700010500,9.581010498046876,0.17455461621284485,-0.011606430634856224,0.1334739476442337
1774790039718536700,9.59953662109375,0.1879936307668686,0.043982263654470444,0.06627883017063141
1774790039737063000,9.61806298828125,0.2124282270669937,0.2260199636220932,0.07605266571044922
1774790039755589000,9.636589111328124,0.2179260104894638,0.44959646463394165,0.1340848207473755
1774790039774115600,9.655115478515626,0.2759581506252289,0.7098248600959778,0.2623664140701294
1774790039792641800,9.673641845703125,0.37919431924819946,0.8460476994514465,0.33017241954803467
1774790039811168000,9.69216796875,0.4030180275440216,0.4147771894931793,0.09315688163042068
1774790039829694200,9.710694091796874,0.2796233594417572,-0.24923282861709595,-0.3442223072052002
1774790039848220400,9.729220458984376,0.14767655730247498,-0.4929678738117218,-0.5934551358222961
1774790039866746600,9.74774658203125,0.16539163887500763,-0.06963858753442764,-0.42913252115249634
1774790039885273000,9.766273193359375,0.38408124446868896,0.6053670048713684,0.003970621153712273
1774790039903799300,9.78479931640625,0.6125446557998657,0.7525854110717773,0.24404047429561615
1774790039922325500,9.803325439453126,0.7854194045066833,0.3292561173439026,0.18234314024448395
1774790039940851700,9.821851806640625,0.8483384847640991,-0.16065743565559387,0.0668896958231926
1774790039959378200,9.840378173828125,0.8513928055763245,-0.287106454372406,0.10537417232990265
1774790039977904400,9.858904296875,0.8611665964126587,-0.22724169492721558,0.20922118425369263
1774790039996430600,9.8774306640625,0.8947641849517822,-0.05925388261675835,0.2788597643375397
1774790040014956800,9.895956787109375,0.8446732759475708,0.12095122784376144,0.23548837006092072
1774790040033483000,9.91448291015625,0.7072287201881409,0.3127627670764923,0.1389717310667038
1774790040052009200,9.93300927734375,0.5312996506690979,0.44348782300949097,0.10842850059270859
1774790040070535700,9.95153564453125,0.34926193952560425,0.4667007029056549,0.12980876863002777
1774790040089062000,9.970061767578125,0.2606865465641022,0.42332929372787476,0.1591302752494812
1774790040107588000,9.988588134765624,0.2753472924232483,0.33658650517463684,0.15485422313213348
1774790040126114600,10.007114501953126,0.2893971800804138,0.1178968995809555,0.04673115536570549
1774790040144640800,10.025640869140625,0.28817546367645264,-0.0360410213470459,-0.03940077871084213
1774790040163167000,10.0441669921875,0.2338084876537323,-0.04214967042207718,-0.09010255336761475
1774790040181693200,10.062693115234374,0.17455461621284485,0.002443459117785096,-0.13469567894935608
1774790040200219400,10.081219482421876,0.09697478264570236,0.014660755172371864,-0.25992295145988464
1774790040218745900,10.099745849609375,-0.023976443335413933,-0.015271619893610477,-0.425467312335968
1774790040237272000,10.11827197265625,-0.10766492038965225,-0.1747073233127594,-0.45417797565460205
1774790040255798300,10.13679833984375,-0.11316270381212234,-0.3139844834804535,-0.3087921440601349
1774790040274324500,10.155324462890626,-0.13209950923919678,-0.25961753726005554,-0.1279761642217636
1774790040292850700,10.1738505859375,-0.22006404399871826,-0.11728604137897491,-0.047952886670827866
1774790040311377200,10.192377197265625,-0.25610506534576416,-0.07147117704153061,-0.02412915788590908
1774790040329903400,10.2109033203125,-0.24510949850082397,-0.053145237267017365,0.005803215317428112
1774790040348429600,10.2294296875,-0.28848087787628174,-0.14172062277793884,-0.008857538923621178
1774790040366955800,10.247955810546875,-0.31230461597442627,-0.22418737411499023,-0.06200277432799339
1774790040385482200,10.266482177734375,-0.31413722038269043,-0.21868959069252014,-0.07116574794054031
1774790040404008400,10.285008544921874,-0.3355174660682678,-0.09040798991918564,0.003359756199643016
1774790040422534700,10.30353466796875,-0.3367392122745514,-0.04886918142437935,0.025350889191031456
1774790040441060900,10.322060791015625,-0.3764454126358032,-0.3066541254520416,-0.14691297709941864
1774790040459587300,10.34058740234375,-0.5267181396484375,-0.526565432548523,-0.47922343015670776
1774790040478113500,10.359113525390624,-0.6452259421348572,-0.4862483739852905,-0.6520981788635254
1774790040496639700,10.3776396484375,-0.605519711971283,-0.3231474757194519,-0.4841103255748749
1774790040515166000,10.396166015625,-0.41187557578086853,-0.13561198115348816,-0.09193515032529831
1774790040533692200,10.414692138671874,-0.1467602699995041,0.009773836471140385,0.35705047845840454
1774790040552218600,10.433218505859376,-0.05940660089254379,-0.08307760953903198,0.5195404887199402
1774790040570744800,10.451744873046875,-0.13515383005142212,-0.3555232882499695,0.33139413595199585
1774790040589271000,10.47027099609375,-0.20479241013526917,-0.4251618981361389,0.1438586562871933
1774790040607797200,10.48879736328125,-0.3000873327255249,-0.31093016266822815,0.11026109009981155
1774790040626323700,10.50732373046875,-0.38927358388900757,-0.13500112295150757,0.16646064817905426
1774790040644850000,10.525849853515625,-0.41065385937690735,0.021991131827235222,0.20616686344146729
1774790040663376100,10.544376220703125,-0.47357290983200073,0.1893680840730667,0.14996729791164398
1774790040681902300,10.56290234375,-0.5658134818077087,0.23029601573944092,0.041844237595796585
1774790040700428500,10.581428466796876,-0.6122392416000366,0.10201441496610641,-0.06200277432799339
1774790040718954800,10.599954833984375,-0.5291616320610046,-0.017715077847242355,-0.09498947113752365
1774790040737481200,10.618481201171875,-0.3568977415561676,-0.0616973415017128,-0.021685699000954628
1774790040756007400,10.63700732421875,-0.16752967238426208,-0.10690133273601532,0.04428769648075104
1774790040774533600,10.65553369140625,-0.08323032408952713,-0.08613193035125732,-0.016798781231045723
1774790040793059800,10.674059814453125,-0.13881902396678925,0.04153880476951599,-0.10659590363502502
1774790040811586300,10.69258642578125,-0.23228132724761963,0.14477495849132538,-0.1127045527100563
1774790040830112500,10.711112548828124,-0.20418155193328857,0.05436696484684944,-0.07849612087011337
1774790040848638700,10.729638671875,-0.0154243353754282,0.03176496922969818,0.013133592903614044
1774790040867165000,10.7481650390625,0.08842267841100693,0.07147117704153061,0.0821613147854805
1774790040885691100,10.766691162109375,0.08109229803085327,0.12950333952903748,0.12247838824987411
1774790040904217300,10.78521728515625,0.09269873052835464,0.14110976457595825,0.1536324918270111
1774790040922743800,10.803743896484375,0.10797034949064255,0.17898337543010712,0.13958260416984558
1774790040941270000,10.82227001953125,0.10063996911048889,0.2522871494293213,0.08765909820795059
1774790040959796200,10.840796142578125,0.13973531126976013,0.22968515753746033,0.0766635313630104
1774790040978322400,10.859322509765626,0.15256348252296448,0.11606431007385254,0.09865466505289078
1774790040996848600,10.8778486328125,0.06887500733137131,0.07086031138896942,0.1078176349401474
1774790041015374800,10.896374755859375,-0.03191768378019333,0.16126830875873566,0.10720676928758621
1774790041033901300,10.9149013671875,-0.039858926087617874,0.3811796307563782,0.13652828335762024
1774790041052427500,10.933427490234376,0.060933761298656464,0.6676751971244812,0.1585194170475006
1774790041070953700,10.95195361328125,0.2643517255783081,0.8075632452964783,0.168904110789299
1774790041089480000,10.97047998046875,0.43172869086265564,0.49602219462394714,0.025961752980947495
1774790041108006100,10.989006103515624,0.34498587250709534,-0.010384701192378998,-0.23915356397628784
1774790041126532400,11.007532470703126,-0.016646064817905426,-0.40255987644195557,-0.49999281764030457
1774790041145058800,11.026058837890625,-0.24083344638347626,-0.1441640853881836,-0.40775224566459656
1774790041163585000,11.0445849609375,-0.16081015765666962,0.4740310609340668,-0.022296564653515816
1774790041182111200,11.063111328125,0.12690715491771698,0.7641918659210205,0.32650721073150635
1774790041200637400,11.081637451171876,0.4744892120361328,0.6554579138755798,0.4883863925933838
1774790041219163600,11.10016357421875,0.7188351154327393,0.3555232882499695,0.4926624298095703
1774790041237689900,11.11868994140625,0.790917158126831,0.046425722539424896,0.4841103255748749
1774790041256216300,11.13721630859375,0.680350661277771,-0.3274235129356384,0.45417797565460205
1774790041274742300,11.1557421875,0.5178605914115906,-0.5180133581161499,0.5109884142875671
1774790041293268700,11.174268798828125,0.3303251266479492,-0.5913171172142029,0.5189296007156372
1774790041311795000,11.192794921875,0.1562286615371704,-0.40805765986442566,0.4572322964668274
1774790041330321200,11.211321044921876,-0.020922118797898293,-0.012217295356094837,0.38331764936447144
1774790041348847400,11.229847412109375,-0.17058399319648743,0.3133736252784729,0.2868010103702545
1774790041367373600,11.24837353515625,-0.20357069373130798,0.4831940531730652,0.2263254076242447
1774790041385899800,11.266899658203124,-0.16997312009334564,0.31520622968673706,0.2006690800189972
1774790041404426000,11.285426025390626,-0.11194097250699997,0.029932374134659767,0.23304490745067596
1774790041422952400,11.303952392578125,-0.12904518842697144,-0.25350889563560486,0.2415970265865326
1774790041441478400,11.322478515625,-0.21395538747310638,-0.33597561717033386,0.20127993822097778
1774790041460004900,11.3410048828125,-0.3312414288520813,-0.30054548382759094,0.11148282140493393
1774790041478531000,11.359531005859376,-0.4497492015361786,-0.22479823231697083,-0.04550942778587341
1774790041497057300,11.378057373046875,-0.5609265565872192,-0.27000224590301514,-0.31001389026641846
1774790041515583500,11.39658349609375,-0.6091849207878113,-0.29993459582328796,-0.5073232054710388
1774790041534109700,11.415109619140624,-0.6501128673553467,-0.2730565667152405,-0.5812378525733948
1774790041552636000,11.433635986328126,-0.6824886798858643,-0.10995566099882126,-0.610559344291687
1774790041571162000,11.452162109375,-0.6360629796981812,0.009773836471140385,-0.5952877402305603
1774790041589688300,11.470688232421875,-0.5926915407180786,0.033597562462091446,-0.5549706816673279
1774790041608214500,11.489214599609374,-0.6134609580039978,0.003665188793092966,-0.4932733178138733
1774790041626741000,11.507740966796876,-0.672104001045227,-0.10995566099882126,-0.40408703684806824
1774790041645267200,11.52626708984375,-0.7130318880081177,-0.23273947834968567,-0.29596397280693054
1774790041663793400,11.54479345703125,-0.6812669634819031,-0.33047783374786377,-0.18234314024448395
1774790041682319600,11.563319580078126,-0.5639809370040894,-0.3390299379825592,0.016187917441129684
1774790041700845800,11.581845703125,-0.43692103028297424,-0.3488037884235382,0.2257145345211029
1774790041719372000,11.6003720703125,-0.41554075479507446,-0.5894845128059387,0.24465134739875793
1774790041737898200,11.618898193359374,-0.5786416530609131,-1.0439679622650146,0.01740964688360691
1774790041756424400,11.637424560546876,-0.7228057384490967,-1.1325433254241943,-0.10598503798246384
1774790041774950700,11.65595068359375,-0.725860059261322,-0.8148936033248901,0.04062250629067421
1774790041793476900,11.674476806640625,-0.5163334608078003,-0.3995055556297302,0.3802633285522461
1774790041812003000,11.693003173828124,-0.1669187992811203,-0.06597339361906052,0.7736602425575256
1774790041830529300,11.711529296875,-0.014813470654189587,-0.05436696484684944,0.9025527238845825
1774790041849055500,11.730055419921875,-0.07101303339004517,-0.3530798554420471,0.7284562587738037
1774790041867581700,11.748581787109375,-0.27687445282936096,-0.6328558921813965,0.4303542375564575
1774790041886108000,11.76710791015625,-0.4845684766769409,-0.6768381595611572,0.1951712965965271
1774790041904634000,11.785634033203126,-0.5841394662857056,-0.5687150955200195,0.10659590363502502
1774790041923160300,11.804160400390625,-0.6934842467308044,-0.4257727563381195,0.025961752980947495
1774790041941686500,11.8226865234375,-0.7881683111190796,-0.2822195291519165,-0.03451386094093323
1774790041960213000,11.841212890625,-0.819322407245636,-0.1533270627260208,-0.028405211865901947
1774790041978739000,11.859739013671875,-0.7582359313964844,-0.020158538594841957,-0.007635809946805239
1774790041997265200,11.87826513671875,-0.5798633694648743,0.12095122784376144,0.012522728182375431
1774790042015791600,11.89679150390625,-0.3764454126358032,0.13500112295150757,0.011300998739898205
1774790042034317600,11.915317626953126,-0.20112723112106323,0.03543015569448471,0.01802051067352295
1774790042052844000,11.933843994140625,-0.08872810751199722,-0.06841685622930527,0.0308486707508564
1774790042071370000,11.952369873046875,-0.09422589093446732,-0.08124501258134842,-0.05589412897825241
1774790042089896400,11.970896484375,-0.13698641955852509,-0.059864748269319534,-0.250149130821228
1774790042108422700,11.989422607421876,-0.09422589093446732,0.02871064469218254,-0.3802633285522461
1774790042126948900,12.007948974609375,-0.02153298258781433,0.006719512399286032,-0.41874781250953674
1774790042145475000,12.02647509765625,0.08720094710588455,0.021991131827235222,-0.34727662801742554
1774790042164001300,12.045001220703124,0.17455461621284485,0.04276053607463837,-0.250149130821228
1774790042182527500,12.063527587890626,0.2331976294517517,0.13194678723812103,-0.14080433547496796
1774790042201053700,12.0820537109375,0.2283107042312622,0.22663083672523499,-0.08155044913291931
1774790042219579600,12.10057958984375,0.19349141418933868,0.2467893660068512,-0.08949168771505356
1774790042238106000,12.119106201171874,0.21426081657409668,0.14049890637397766,-0.08949168771505356
1774790042256632300,12.13763232421875,0.25579962134361267,0.0030543238390237093,-0.047952886670827866
1774790042275158500,12.156158447265625,0.31932955980300903,-0.030543239787220955,0.06383536756038666
1774790042293684700,12.174684814453125,0.41645705699920654,0.08368847519159317,0.2153298407793045
1774790042312210700,12.193210693359376,0.5178605914115906,0.3329212963581085,0.3295615613460541
1774790042330737200,12.211737060546875,0.5948295593261719,0.6322450637817383,0.3246746361255646
1774790042349263000,12.23026318359375,0.6522508859634399,0.8680388331413269,0.25931209325790405
1774790042367789600,12.24878955078125,0.6583595275878906,0.7141009569168091,-0.008857538923621178
1774790042386315800,12.267315673828126,0.4793761372566223,-0.08979712426662445,-0.5439751148223877
1774790042404841700,12.285841796875,0.2631300091743469,-0.7318159937858582,-0.7449495792388916
1774790042423368200,12.3043681640625,0.0383317656815052,-0.4367683231830597,-0.28069236874580383
1774790042441894100,12.32289404296875,-0.0032070400193333626,0.4819723069667816,0.3759872615337372
1774790042460420600,12.341420654296876,0.34193155169487,0.9663881063461304,0.766940712928772
1774790042478946600,12.359946533203125,0.753654420375824,0.7666352987289429,0.6325504779815674
1774790042497472800,12.37847265625,1.0089958906173706,0.27427828311920166,0.26358816027641296
1774790042515999000,12.3969990234375,1.0254892110824585,0.017104214057326317,0.06811141967773438
1774790042534525200,12.415525146484375,0.8813251852989197,0.06352993845939636,0.15546508133411407
1774790042553051400,12.434051513671875,0.7286089658737183,0.14782927930355072,0.3026835024356842
1774790042571577600,12.45257763671875,0.6449204683303833,0.12278381735086441,0.32100942730903625
1774790042590103800,12.471103759765626,0.5251910090446472,0.05864302068948746,0.16218459606170654
1774790042608630000,12.489630126953125,0.33765551447868347,0.06414080411195755,-0.04367683082818985
1774790042627156200,12.50815625,0.17394374310970306,0.17715078592300415,-0.11087195575237274
1774790042645682400,12.526682373046874,0.06765327602624893,0.2657261788845062,-0.06750056147575378
1774790042664208600,12.545208740234376,0.07315105944871902,0.21930044889450073,-0.007635809946805239
1774790042682734800,12.56373486328125,0.12018764764070511,0.05864302068948746,-0.044898562133312225
1774790042701261000,12.582260986328125,0.13973531126976013,-0.0922405794262886,-0.09132428467273712
1774790042719787300,12.600787353515624,0.08353576064109802,-0.08674279600381851,-0.05100720748305321
1774790042738313500,12.6193134765625,-0.0007635809597559273,-0.06841685622930527,-0.013133592903614044
1774790042756839400,12.63783935546875,-0.017867794260382652,-0.12156209349632263,-0.044898562133312225
1774790042775366000,12.656365966796875,-0.007483093533664942,-0.23396120965480804,-0.22510367631912231
1774790042793891800,12.674891845703126,-0.008093958720564842,-0.22907429933547974,-0.4016436040401459
1774790042812418300,12.693418212890625,-0.1156061589717865,-0.21319180727005005,-0.4883863925933838
1774790042830944300,12.7119443359375,-0.27259841561317444,-0.18631376326084137,-0.4462367296218872
1774790042849470500,12.730470458984374,-0.33368489146232605,-0.19792018830776215,-0.2813032269477844
1774790042867996700,12.74899658203125,-0.2897026240825653,-0.21441353857517242,-0.1279761642217636
1774790042886523000,12.76752294921875,-0.2231183648109436,-0.30604326725006104,-0.1536324918270111
1774790042905049000,12.786049072265625,-0.19440771639347076,-0.2620609998703003,-0.28069236874580383
1774790042923575300,12.8045751953125,-0.22678354382514954,-0.164322629570961,-0.34605491161346436
1774790042942101500,12.8231015625,-0.3092502951622009,-0.17043127119541168,-0.28924447298049927
1774790042960627700,12.841627685546875,-0.31780239939689636,-0.25045454502105713,-0.11942406743764877
1774790042979154000,12.86015380859375,-0.1980729103088379,-0.17348559200763702,0.15790854394435883
1774790042997680000,12.87868017578125,-0.13332124054431915,-0.16249002516269684,0.2861901521682739
1774790043016206300,12.897206298828126,-0.20112723112106323,-0.45998117327690125,0.1029307171702385
1774790043034732500,12.915732666015625,-0.388662725687027,-0.8313869833946228,-0.24831652641296387
1774790043053258500,12.934258544921875,-0.550541877746582,-0.813060998916626,-0.34788748621940613
1774790043071784700,12.95278466796875,-0.49189886450767517,-0.3634645342826843,-0.008857538923621178
1774790043090311000,12.971310791015625,-0.23655737936496735,0.18264856934547424,0.4883863925933838
1774790043108837000,12.989837158203125,-0.009926552884280682,0.18203771114349365,0.6997455954551697
1774790043127363300,13.00836328125,0.03894263133406639,-0.16004657745361328,0.5574141144752502
1774790043145889500,13.0268896484375,-0.17547090351581573,-0.4257727563381195,0.281914085149765
1774790043164415700,13.045415771484375,-0.5022835731506348,-0.4172206521034241,0.1127045527100563
1774790043182942000,13.06394189453125,-0.6226239204406738,-0.22846342623233795,0.10109812021255493
1774790043201468200,13.08246826171875,-0.523052990436554,0.02260199747979641,0.14630211889743805
1774790043219994400,13.100994384765626,-0.3764454126358032,0.17165300250053406,0.15057817101478577
1774790043238520600,13.1195205078125,-0.3318522870540619,0.2254091054201126,0.0925460159778595
1774790043257046500,13.138046630859375,-0.3825540542602539,0.20402882993221283,-0.016187917441129684
1774790043275573000,13.156572998046874,-0.40698865056037903,0.21380266547203064,-0.08460476994514465
1774790043294099000,13.175098876953125,-0.3367392122745514,0.09651663154363632,-0.13041962683200836
1774790043312625200,13.193625244140625,-0.14431680738925934,-0.0256563201546669,-0.11026109009981155
1774790043331151400,13.2121513671875,-0.02764163166284561,-0.11178825795650482,-0.05222893878817558
1774790043349677600,13.230677490234376,-0.07895427197217941,-0.11484257876873016,0.006414080038666725
1774790043368203800,13.249203857421875,-0.17852523922920227,-0.023212861269712448,0.010690134018659592
1774790043386730000,13.26772998046875,-0.23167046904563904,0.09957095980644226,-0.07483093440532684
1774790043405256200,13.286256103515624,-0.2603811025619507,0.1905898153781891,-0.1798996776342392
1774790043423782400,13.304782470703126,-0.23228132724761963,0.11606431007385254,-0.2458730787038803
1774790043442308600,13.32330859375,-0.08872810751199722,0.0818558782339096,-0.189673513174057
1774790043460834600,13.34183447265625,0.03588830679655075,0.11178825795650482,-0.048563748598098755
1774790043479361000,13.360361083984374,0.054214250296354294,0.10079269111156464,0.03145953640341759
1774790043497887000,13.378886962890626,0.05238165333867073,0.007941242307424545,0.00946840364485979
1774790043516413200,13.3974130859375,0.08536835014820099,-0.017715077847242355,-0.04062250629067421
1774790043534939400,13.415939453125,0.10797034949064255,0.0256563201546669,-0.0461202897131443
1774790043553465600,13.434465576171876,0.1055268943309784,0.10567960888147354,-0.01435532234609127
1774790043571991800,13.45299169921875,0.1104138121008873,0.23396120965480804,0.03695731982588768
1774790043590518000,13.47151806640625,0.19349141418933868,0.3335321843624115,0.1279761642217636
1774790043609044200,13.490044189453124,0.3168860971927643,0.49602219462394714,0.17562362551689148
1774790043627570400,13.5085703125,0.4042397737503052,0.5436696410179138,0.032681263983249664
1774790043646096600,13.5270966796875,0.2484692484140396,-0.002443459117785096,-0.4364628791809082
1774790043664622600,13.54562255859375,-0.0435241162776947,-0.6621774435043335,-0.8359684348106384
1774790043683148800,13.564148681640624,-0.23594652116298676,-0.583375871181488,-0.6386591196060181
1774790043701675000,13.582675048828126,-0.16752967238426208,0.16310089826583862,0.016798781231045723
1774790043720201200,13.601201171875,0.22220206260681152,0.7623592615127563,0.5806269645690918
1774790043738727400,13.6197275390625,0.688902735710144,0.8210022449493408,0.6826413869857788
1774790043757253600,13.638253662109374,0.9802852272987366,0.5027416944503784,0.4572322964668274
1774790043775779800,13.65677978515625,1.0175479650497437,0.13011419773101807,0.20189081132411957
1774790043794306000,13.67530615234375,0.9008728265762329,-0.004276053514331579,0.12492185086011887
1774790043812832300,13.693832275390625,0.753654420375824,-0.06780599057674408,0.14080433547496796
1774790043831358200,13.712358154296876,0.6320923566818237,-0.164322629570961,0.09193515032529831
1774790043849884700,13.730884765625,0.5086976289749146,-0.20830489695072174,0.01740964688360691
1774790043868410600,13.74941064453125,0.37552911043167114,-0.13988803327083588,-0.035735588520765305
1774790043886936800,13.767936767578124,0.2735147178173065,0.08918625861406326,0.015577051788568497
1774790043905463000,13.786463134765626,0.18310672044754028,0.3237583339214325,0.1078176349401474
1774790043923989200,13.8049892578125,0.14278964698314667,0.3640754222869873,0.12614357471466064
1774790043942515500,13.823515380859375,0.20631958544254303,0.2761108875274658,0.1078176349401474
1774790043961041400,13.84204150390625,0.2637408673763275,0.24923282861709595,0.09682206809520721
1774790043979567600,13.860567626953125,0.25763222575187683,0.27488914132118225,0.08460476994514465
1774790043998093800,13.87909375,0.21914774179458618,0.27488914132118225,0.01740964688360691
1774790044016620000,13.8976201171875,0.19837833940982819,0.18203771114349365,-0.07971785217523575
1774790044035146200,13.916146240234376,0.13301581144332886,-0.05436696484684944,-0.2367101013660431
1774790044053672400,13.93467236328125,0.05238165333867073,-0.20708316564559937,-0.3484983444213867
1774790044072198700,13.95319873046875,-0.02519817277789116,-0.29077163338661194,-0.3692677617073059
1774790044090724900,13.971724853515624,-0.08872810751199722,-0.26939135789871216,-0.30146175622940063
1774790044109251000,13.9902509765625,-0.1773035079240799,-0.20341797173023224,-0.2263254076242447
1774790044127777300,14.00877734375,-0.30314165353775024,-0.17165300250053406,-0.18723005056381226
1774790044146303500,14.027303466796875,-0.43203410506248474,-0.2009745091199875,-0.18417572975158691
1774790044164829400,14.045829345703124,-0.5016726851463318,-0.2889390289783478,-0.19272783398628235
1774790044183355600,14.064355712890626,-0.4454731345176697,-0.3445277214050293,-0.1444695144891739
1774790044201881900,14.0828818359375,-0.2646571695804596,-0.19425499439239502,-0.007024944759905338
1774790044220408000,14.101407958984375,-0.1418733447790146,0.12400554865598679,0.08093958348035812
1774790044238934300,14.119934326171874,-0.2182314395904541,0.1649334877729416,-0.035124726593494415
1774790044257460500,14.13846044921875,-0.41187557578086853,-0.3023780584335327,-0.34116798639297485
1774790044275986700,14.156986572265625,-0.5920807123184204,-0.665842592716217,-0.5598575472831726
1774790044294513000,14.175512939453125,-0.6904299259185791,-0.6524035930633545,-0.47433650493621826
1774790044313038800,14.194038818359376,-0.624456524848938,-0.3848448097705841,-0.07605266571044922
1774790044331565000,14.21256494140625,-0.3874409794807434,-0.02626718580722809,0.36804601550102234
1774790044350091300,14.23109130859375,-0.1516471803188324,0.031154103577136993,0.4871646761894226
1774790044368617500,14.249617431640624,-0.03741546720266342,-0.14477495849132538,0.3191768527030945
1774790044387143700,14.268143798828126,-0.10277800261974335,-0.411722868680954,0.10170898586511612
1774790044405670000,14.286669921875,-0.3006981909275055,-0.5192350745201111,0.03940077871084213
1774790044424196000,14.305196044921875,-0.4589121639728546,-0.5033525824546814,0.07422006875276566
1774790044442722000,14.32372216796875,-0.4497492015361786,-0.318871408700943,0.12553271651268005
1774790044461248300,14.342248291015625,-0.3428478538990021,-0.06352993845939636,0.1334739476442337
1774790044479774500,14.3607744140625,-0.28725916147232056,0.20219624042510986,0.10048725455999374
1774790044498300700,14.37930078125,-0.3923279047012329,0.3384190797805786,-0.021685699000954628
1774790044516827000,14.397826904296876,-0.521831214427948,0.32681265473365784,-0.16340632736682892
1774790044535353000,14.41635302734375,-0.5254964232444763,0.17043127119541168,-0.21471896767616272
1774790044553879300,14.43487939453125,-0.4399753510951996,0.04153880476951599,-0.2006690800189972
1774790044572405500,14.453405517578124,-0.263435423374176,-0.028099779039621353,-0.08888082206249237
1774790044590931700,14.471931640625,-0.11927134543657303,-0.040317077189683914,-0.0461202897131443
1774790044609457700,14.490457763671875,-0.0038179049734026194,0.01282816007733345,-0.09193515032529831
1774790044627984000,14.50898388671875,0.04260781779885292,0.059864748269319534,-0.2159406989812851
1774790044646510000,14.527510009765624,0.04810560122132301,0.09651663154363632,-0.25870123505592346
1774790044665036300,14.546036376953126,0.0206166859716177,0.13988803327083588,-0.16768237948417664
1774790044692825600,14.57382568359375,0.11652245372533798,0.22968515753746033,0.10903936624526978
1774790044711351800,14.592351806640625,0.2234237939119339,0.1893680840730667,0.20250166952610016
1774790044729877800,14.610877685546875,0.2582430839538574,0.2052505612373352,0.1591302752494812
1774790044748404200,14.629404296875,0.23625195026397705,0.26022839546203613,-0.003359756199643016
1774790044766930200,14.64793017578125,0.22953243553638458,0.21441353857517242,-0.09621120244264603
1774790044785456400,14.666456298828125,0.2087630331516266,0.08429934084415436,-0.05711585655808449
1774790044803982600,14.684982666015625,0.17821979522705078,0.09468404203653336,0.04367683082818985
1774790044822508800,14.7035087890625,0.22708898782730103,0.42455101013183594,0.23854269087314606
1774790044841035000,14.722034912109375,0.3199404180049896,0.7458658814430237,0.3197877109050751
1774790044859561200,14.740561279296875,0.42745262384414673,0.6914989352226257,0.19883649051189423
1774790044878087400,14.75908740234375,0.4329504072666168,0.0720820426940918,-0.16035200655460358
1774790044896613600,14.777613525390626,0.2887863218784332,-0.43310311436653137,-0.4926624298095703
1774790044915139600,14.7961396484375,0.1104138121008873,-0.2510654330253601,-0.425467312335968
1774790044933665800,14.814665771484375,0.14217877388000488,0.4453204274177551,0.008857538923621178
1774790044952192000,14.83319189453125,0.40607234835624695,1.0293071269989014,0.41874781250953674
1774790044970718200,14.85171826171875,0.69012451171875,1.0390809774398804,0.4633409380912781
1774790044989244400,14.870244384765625,0.8312342762947083,0.6878337264060974,0.27458372712135315
1774790045007770600,14.8887705078125,0.8263473510742188,0.2565632164478302,0.11392628401517868
1774790045026296800,14.907296875,0.7695369124412537,0.006108647678047419,0.08338304609060287
1774790045044822800,14.92582275390625,0.7499892115592957,-0.028099779039621353,0.0925460159778595
1774790045063349200,14.944349365234375,0.734717607498169,-0.020158538594841957,-0.00946840364485979
1774790045081875200,14.962875244140625,0.6968439817428589,0.05925388261675835,-0.11575887352228165
1774790045100401400,14.9814013671875,0.6253728270530701,0.16249002516269684,-0.07055488228797913
1774790045118927600,14.999927734375,0.4842630624771118,0.13561198115348816,-0.00946840364485979
1774790045137453800,15.018453857421875,0.3578140437602997,0.0824667438864708,0.008857538923621178
1774790045155980000,15.03697998046875,0.25091269612312317,0.06230820715427399,-0.011911863461136818
1774790045174506200,15.05550634765625,0.18616104125976562,0.14538581669330597,0.0565049909055233
1774790045193032400,15.074032470703125,0.16844595968723297,0.08979712426662445,0.1444695144891739
1774790045211558400,15.092558349609375,0.17944152653217316,-0.029932374134659767,0.16279546916484833
1774790045230084900,15.1110849609375,0.18493930995464325,-0.024434590712189674,0.10109812021255493
1774790045248610800,15.12961083984375,0.17821979522705078,0.05436696484684944,0.01740964688360691
1774790045267137000,15.148136962890625,0.1715002804994583,0.06230820715427399,-0.02718348242342472
1774790045285663200,15.166663330078125,0.11774418503046036,-0.10690133273601532,-0.08399390429258347
1774790045304189400,15.185189453125,-0.008704823441803455,-0.22724169492721558,-0.1279761642217636
1774790045322715600,15.203715576171875,-0.12476912885904312,-0.2156352698802948,-0.12125665694475174
1774790045341241900,15.222241943359375,-0.1308777779340744,-0.15760311484336853,-0.05711585655808449
1774790045359768000,15.24076806640625,-0.05818486958742142,-0.12400554865598679,0.016798781231045723
1774790045378294000,15.2592939453125,-0.0019853105768561363,0.043371398001909256,0.12370011955499649
1774790045396820500,15.277820556640625,-0.005650499369949102,0.06597339361906052,0.25992295145988464
1774790045415346400,15.296346435546875,-0.11316270381212234,-0.11911863088607788,0.3191768527030945
1774790045433872600,15.31487255859375,-0.22067490220069885,-0.2559523284435272,0.33078327775001526
1774790045452398800,15.33339892578125,-0.2750418782234192,-0.20341797173023224,0.36743515729904175
1774790045470925000,15.351925048828125,-0.2597702443599701,0.10873392969369888,0.4046979248523712
1774790045489451300,15.370451171875,-0.27626359462738037,0.24006985127925873,0.29474225640296936
1774790045507977500,15.3889775390625,-0.38072147965431213,-0.13744457066059113,-0.01802051067352295
1774790045526503700,15.407503662109375,-0.43753188848495483,-0.43004879355430603,-0.210442915558815
1774790045545029600,15.426029541015625,-0.4839576184749603,-0.35735589265823364,-0.04062250629067421
1774790045563556000,15.44455615234375,-0.5114465355873108,-0.10323614627122879,0.33567020297050476
1774790045591345200,15.47234521484375,-0.33490660786628723,0.370184063911438,0.8481857180595398
1774790045609871400,15.490871337890624,-0.2744309902191162,0.3194822669029236,0.9343177080154419
1774790045628397600,15.5093974609375,-0.2842048406600952,-0.0720820426940918,0.8323032855987549
1774790045646923800,15.527923828125,-0.295811265707016,-0.5180133581161499,0.6618719696998596
1774790045665450000,15.546449951171875,-0.32879796624183655,-0.6835576891899109,0.508544921875
1774790045683976200,15.56497607421875,-0.40698865056037903,-0.48013970255851746,0.4413498044013977
1774790045702502400,15.58350244140625,-0.4754055142402649,-0.10323614627122879,0.46395179629325867
1774790045721028600,15.602028564453125,-0.5352702736854553,0.09529490768909454,0.5018253922462463
1774790045739554600,15.620554443359374,-0.541378915309906,0.09957095980644226,0.5152644515037537
1774790045758081000,15.6390810546875,-0.5621483325958252,-0.05192350596189499,0.4108065664768219
1774790045776607000,15.65760693359375,-0.4967857897281647,-0.13500112295150757,0.23365578055381775
1774790045795133200,15.67613330078125,-0.2909243404865265,-0.043982263654470444,0.029626941308379173
1774790045813659400,15.694659423828124,-0.12354740500450134,0.10445787757635117,-0.1493564397096634
1774790045832185600,15.713185546875,-0.025809036567807198,0.25411975383758545,-0.11514800786972046
1774790045850711800,15.7317119140625,-0.036193739622831345,0.23396120965480804,0.0925460159778595
1774790045869238000,15.750238037109375,-0.10644318908452988,-0.033597562462091446,0.2568686306476593
1774790045887764200,15.76876416015625,-0.16325360536575317,-0.2724456787109375,0.2049451321363449
1774790045906290400,15.78729052734375,-0.2084576040506363,-0.18753549456596375,-0.0461202897131443
1774790045924816600,15.805816650390625,-0.21212279796600342,0.05864302068948746,-0.30634868144989014
1774790045943342600,15.824342529296874,-0.1510363221168518,0.24373504519462585,-0.3949240744113922
1774790045961868800,15.842868896484376,-0.049021899700164795,0.3072649836540222,-0.23915356397628784
1774790045980395000,15.86139501953125,0.0334448479115963,0.1747073233127594,-0.004581485874950886
1774790045998921200,15.879921142578125,0.07315105944871902,0.014049889519810677,0.12675444781780243
1774790046017447400,15.898447509765624,0.08353576064109802,-0.07086031138896942,0.057726722210645676
1774790046035973600,15.9169736328125,0.07620538026094437,0.008552107028663158,-0.12492185086011887
1774790046054499800,15.935499755859375,0.13423752784729004,0.2565632164478302,-0.18356487154960632
1774790046073026000,15.954026123046875,0.20448698103427887,0.3842339515686035,-0.06383536756038666
1774790046091552300,15.97255224609375,0.2759581506252289,0.4153880476951599,0.14813470840454102
1774790046110078200,15.991078125,0.3303251266479492,0.4422661066055298,0.2415970265865326
1774790046128604700,16.009604736328125,0.25763222575187683,0.19608759880065918,0.060781046748161316
1774790046147130600,16.028130615234375,0.1824958473443985,-0.1026252806186676,-0.4053087830543518
1774790046165656800,16.04665673828125,0.06520981341600418,-0.2577849328517914,-0.8536835312843323
1774790046184183000,16.06518310546875,0.046883873641490936,0.07880155742168427,-0.897665798664093
1774790046202709200,16.083709228515627,0.228921577334404,0.7055488228797913,-0.5164861679077148
1774790046221235500,16.1022353515625,0.5374082922935486,0.9773836731910706,0.022296564653515816
1774790046239761700,16.12076171875,0.7487674951553345,0.7257073521614075,0.32100942730903625
1774790046258287900,16.139287841796875,0.8355103135108948,0.27000224590301514,0.2672533392906189
1774790046276814000,16.15781396484375,0.8568905591964722,-0.06597339361906052,0.06444623321294785
1774790046295340300,16.17634033203125,0.8086322546005249,-0.1795942485332489,-0.10170898586511612
1774790046313866200,16.1948662109375,0.7884737253189087,-0.12461641430854797,-0.18234314024448395
1774790046332392400,16.213392333984373,0.7677043080329895,-0.08552107214927673,-0.23976442217826843
1774790046350918700,16.231918701171875,0.6638572812080383,-0.027488915249705315,-0.29046618938446045
1774790046369444900,16.25044482421875,0.5172497630119324,0.10751219838857651,-0.2886336147785187
1774790046387971000,16.26897119140625,0.36453354358673096,0.258395791053772,-0.2263254076242447
1774790046406497300,16.287497314453127,0.23564109206199646,0.3494146466255188,-0.1285870373249054
1774790046425023500,16.3060234375,0.1611155867576599,0.28405213356018066,-0.047952886670827866
1774790046443549700,16.3245498046875,0.14706569910049438,0.1282816082239151,-0.029626941308379173
1774790046462076000,16.343075927734375,0.13362666964530945,-0.05253437161445618,-0.07605266571044922
1774790046480602000,16.36160205078125,0.1464548259973526,-0.05192350596189499,-0.08277218043804169
1774790046499128300,16.38012841796875,0.1104138121008873,0.033597562462091446,-0.025961752980947495
1774790046517654300,16.398654296875,0.024281874299049377,0.0720820426940918,-0.003970621153712273
1774790046536180500,16.417180419921873,-0.042913250625133514,-0.006719512399286032,-0.09621120244264603
1774790046554706700,16.435706787109375,-0.06979130208492279,-0.14660754799842834,-0.22388194501399994
1774790046573233000,16.45423291015625,-0.1363755613565445,-0.22235478460788727,-0.2666424810886383
1774790046591759000,16.472759033203126,-0.21151192486286163,-0.21502439677715302,-0.2678641974925995
1774790046610285300,16.491285400390623,-0.2231183648109436,-0.12644900381565094,-0.27091851830482483
1774790046628811500,16.5098115234375,-0.23655737936496735,-0.059864748269319534,-0.24526220560073853
1774790046647337700,16.528337646484374,-0.2603811025619507,-0.08613193035125732,-0.22754712402820587
1774790046665864000,16.546864013671875,-0.2328922003507614,-0.11423171311616898,-0.2098320573568344
1774790046684390000,16.565389892578125,-0.22189663350582123,-0.1441640853881836,-0.2055560052394867
1774790046702916000,16.583916015625,-0.18890993297100067,-0.14599667489528656,-0.2257145345211029
1774790046721442300,16.6024423828125,-0.13942988216876984,-0.09468404203653336,-0.19944734871387482
1774790046739968500,16.620968505859373,-0.17119485139846802,-0.050090912729501724,-0.15790854394435883
1774790046758494700,16.63949462890625,-0.26710063219070435,-0.3335321843624115,-0.22693626582622528
1774790046777021000,16.65802099609375,-0.42164942622184753,-0.8179479241371155,-0.4877755343914032
1774790046795547100,16.676547119140626,-0.5248855352401733,-0.8454368710517883,-0.6453786492347717
1774790046814073300,16.6950732421875,-0.5151117444038391,-0.36712974309921265,-0.40897396206855774
1774790046832599600,16.713599609375,-0.32757624983787537,0.23457208275794983,0.12492185086011887
1774790046851125800,16.732125732421874,-0.12782345712184906,0.4062250852584839,0.5439751148223877
1774790046869652000,16.75065185546875,-0.005650499369949102,0.06475166976451874,0.6130027770996094
1774790046888178000,16.769177978515625,-0.08384118974208832,-0.4159989058971405,0.35094180703163147
1774790046906704100,16.7877041015625,-0.31902414560317993,-0.583375871181488,-0.03634645417332649
1774790046925230300,16.806230224609376,-0.5963567495346069,-0.4685332775115967,-0.3246746361255646
1774790046943756500,16.824756591796874,-0.6904299259185791,-0.19792018830776215,-0.33689191937446594
1774790046962282800,16.84328271484375,-0.6079631447792053,0.020158538594841957,-0.1640172004699707
1774790046980809000,16.86180908203125,-0.502894401550293,0.10629047453403473,0.04917461425065994
1774790046999335200,16.880335205078126,-0.5016726851463318,0.10690133273601532,0.14813470840454102
1774790047017861400,16.898861328125,-0.49984011054039,0.09957095980644226,0.12247838824987411
1774790047036387600,16.9173876953125,-0.42959064245224,0.1288924664258957,0.0461202897131443
1774790047054913500,16.93591357421875,-0.3000873327255249,0.19669845700263977,0.007635809946805239
1774790047073439700,16.954439697265624,-0.09850194305181503,0.15149445831775665,0.05100720748305321
1774790047091966000,16.972966064453125,0.07192932814359665,-0.01649334840476513,0.08765909820795059
1774790047110492200,16.9914921875,0.10797034949064255,-0.07391463965177536,0.08765909820795059
1774790047129018400,17.010018310546876,0.0334448479115963,0.013439024798572063,0.06200277432799339
1774790047147544600,17.028544677734374,-0.011759147047996521,0.007941242307424545,-0.028405211865901947
1774790047166070800,17.04707080078125,0.04810560122132301,0.02871064469218254,-0.10415244847536087
1774790047184597000,17.065596923828124,0.08353576064109802,0.04764745384454727,-0.11514800786972046
1774790047203123200,17.084123291015626,0.09453132748603821,0.10384701192378998,-0.04978547990322113
1774790047221649200,17.102649169921875,0.1409570425748825,0.1948658674955368,0.07910698652267456
1774790047240175400,17.12117529296875,0.16478078067302704,0.13988803327083588,0.1444695144891739
1774790047258701600,17.13970166015625,0.20021092891693115,0.053145237267017365,0.10598503798246384
1774790047277227800,17.158227783203124,0.23136503994464874,0.007330377586185932,0.06811141967773438
1774790047295754000,17.17675390625,0.1922696828842163,0.07269290834665298,0.09865466505289078
1774790047314280200,17.1952802734375,0.15012001991271973,0.20341797173023224,0.14691297709941864
1774790047332806400,17.213806396484376,0.187382772564888,0.4098902642726898,0.2110537886619568
1774790047351332600,17.23233251953125,0.2845102846622467,0.6175842881202698,0.25870123505592346
1774790047369858800,17.25085888671875,0.3510945439338684,0.5919279456138611,0.12247838824987411
1774790047388384800,17.269384765625,0.2747364342212677,0.11972949653863907,-0.2519817352294922
1774790047406911200,17.2879111328125,0.11163553595542908,-0.2571740746498108,-0.6239983439445496
1774790047425437200,17.306437255859375,0.0743727833032608,-0.2571740746498108,-0.6630937457084656
1774790047443963400,17.32496337890625,0.291229784488678,0.2877173125743866,-0.2574795186519623
1774790047462489600,17.343489501953126,0.5569559335708618,0.7055488228797913,0.2672533392906189
1774790047481015800,17.362015869140624,0.6864593029022217,0.6597339510917664,0.5158752799034119
1774790047499542000,17.3805419921875,0.6919570565223694,0.20830489695072174,0.3692677617073059
1774790047518068000,17.39906787109375,0.7060069441795349,-0.2309068888425827,0.11759147047996521
1774790047536594400,17.417594482421876,0.7090612649917603,-0.3640754222869873,0.04917461425065994
1774790047555120400,17.436120361328125,0.6327031850814819,-0.27366742491722107,0.10354158282279968
1774790047573646600,17.454646484375,0.5856665968894958,-0.14477495849132538,0.11881320178508759
1774790047592172800,17.4731728515625,0.6155989766120911,-0.1178968995809555,0.021685699000954628
1774790047610699000,17.491698974609374,0.606436014175415,-0.06719512492418289,-0.07544180005788803
1774790047629225200,17.51022509765625,0.4799869954586029,0.034208428114652634,-0.09132428467273712
1774790047647751400,17.52875146484375,0.383470356464386,0.17837251722812653,0.0009162971982732415
1774790047666277600,17.547277587890626,0.34315329790115356,0.23945899307727814,0.12247838824987411
1774790047684803800,17.565803955078124,0.30711227655410767,0.2516762912273407,0.16218459606170654
1774790047703330000,17.584330078125,0.2539670467376709,0.24862197041511536,0.11209368705749512
1774790047721856000,17.60285595703125,0.20448698103427887,0.18142683804035187,0.019242240116000175
1774790047740382200,17.62138232421875,0.1721111536026001,0.043371398001909256,-0.05528326332569122
1774790047758908400,17.639908447265626,0.10186170041561127,-0.06475166976451874,-0.12980876863002777
1774790047777434600,17.6584345703125,0.01511890348047018,-0.056810423731803894,-0.14508038759231567
1774790047795960800,17.6769609375,-0.09056070446968079,-0.056199558079242706,-0.07544180005788803
1774790047814487000,17.695487060546874,-0.16752967238426208,-0.11484257876873016,-0.024740023538470268
1774790047833013200,17.71401318359375,-0.15042544901371002,-0.14233149588108063,-0.08338304609060287
1774790047851539500,17.73253955078125,-0.08384118974208832,-0.07757982611656189,-0.20799945294857025
1774790047870065400,17.7510654296875,0.025503603741526604,-0.06475166976451874,-0.2525925934314728
1774790047888591600,17.769591552734376,0.07131846249103546,-0.2412915825843811,-0.2562577724456787
1774790047907117800,17.788117919921874,0.05299251899123192,-0.3854556679725647,-0.19089524447917938
1774790047925644000,17.80664404296875,0.0010690133785828948,-0.3127627670764923,0.05345066636800766
1774790047944170200,17.825170166015624,-0.020922118797898293,-0.15577052533626556,0.3637699782848358
1774790047962696400,17.843696533203126,0.10797034949064255,0.02932151034474373,0.5861247777938843
1774790047981222700,17.86222265625,0.2185368686914444,0.20769402384757996,0.6252201199531555
1774790047999748600,17.88074853515625,0.09269873052835464,-0.010995565913617611,0.43829548358917236
1774790048018275000,17.899275146484374,-0.18646647036075592,-0.4679224193096161,0.10659590363502502
1774790048036801000,17.917801025390624,-0.32452189922332764,-0.4972439408302307,-0.06994401663541794
1774790048055327200,17.9363271484375,-0.30253079533576965,-0.12767073512077332,0.09132428467273712
1774790048073853400,17.954853515625,-0.11927134543657303,0.23518294095993042,0.48960810899734497
1774790048092379600,17.973379638671876,0.07070759683847427,0.3689623177051544,0.8628464937210083
1774790048110905900,17.99190576171875,0.14278964698314667,0.15515965223312378,0.9874629378318787
1774790048129432000,18.01043212890625,0.07681624591350555,-0.2657261788845062,0.8103121519088745
1774790048147958300,18.028958251953124,-0.11988221108913422,-0.6084213256835938,0.383928507566452
1774790048166484200,18.047484130859374,-0.35811948776245117,-0.5131264328956604,-0.09987638890743256
1774790048194273500,18.0752734375,-0.5065596103668213,-0.03481929376721382,-0.4883863925933838
1774790048212799700,18.0937998046875,-0.46257734298706055,0.14172062277793884,-0.4401280879974365
1774790048231326000,18.112325927734375,-0.3837758004665375,0.07757982611656189,-0.27947062253952026
1774790048249852200,18.13085205078125,-0.3813323378562927,-0.02260199747979641,-0.16829325258731842
1774790048268378400,18.14937841796875,-0.37522369623184204,0.10445787757635117,-0.1328630894422531
1774790048286904300,18.167904296875,-0.3361283540725708,0.05192350596189499,-0.17745621502399445
1774790048305430500,18.186430419921876,-0.16325360536575317,0.05497783049941063,-0.16646064817905426
1774790048323956700,18.204956787109374,0.003512472379952669,-0.0030543238390237093,-0.11698060482740402
1774790048342483000,18.22348291015625,0.04627300798892975,-0.07513637095689774,-0.05406153202056885
1774790048361009200,18.242009033203125,-0.023365577682852745,-0.08124501258134842,-0.014966187067329884
1774790048379535400,18.260535400390626,-0.12660172581672668,-0.06536252796649933,-0.060781046748161316
1774790048398061600,18.2790615234375,-0.20967933535575867,0.037262752652168274,-0.18600831925868988
1774790048416587800,18.297587890625,-0.2176205813884735,0.11484257876873016,-0.28496840596199036
1774790048435113700,18.31611376953125,-0.10766492038965225,0.17348559200763702,-0.24037529528141022
1774790048453640200,18.33464013671875,0.03955349326133728,0.17165300250053406,-0.0668896958231926
1774790048472166100,18.353166259765626,0.08903354406356812,0.185092031955719,0.16035200655460358
1774790048490692400,18.3716923828125,0.019394956529140472,0.20769402384757996,0.2733619809150696
1774790048509218600,18.390218505859377,-0.022754713892936707,0.1899789422750473,0.19639302790164948
1774790048527744800,18.408744873046874,-0.019700389355421066,0.13683371245861053,0.03940077871084213
1774790048546271000,18.42727099609375,0.03649916872382164,0.07330377399921417,-0.057726722210645676
1774790048564797000,18.445796875,0.13851359486579895,0.08613193035125732,-0.032681263983249664
1774790048583323100,18.4643232421875,0.20998476445674896,0.2571740746498108,0.10659590363502502
1774790048601849300,18.482849365234376,0.24174973368644714,0.5729911923408508,0.2813032269477844
1774790048620375600,18.50137548828125,0.21487168967723846,0.8429933786392212,0.31123560667037964
1774790048638901800,18.51990185546875,0.10430516302585602,0.5790998339653015,0.05833758786320686
1774790048657428000,18.538427978515625,-0.02153298258781433,0.009773836471140385,-0.3704894781112671
1774790048675954200,18.5569541015625,-0.11866047978401184,-0.3133736252784729,-0.7009673118591309
1774790048694480400,18.57548046875,-0.08200860023498535,-0.11606431007385254,-0.6759218573570251
1774790048713006300,18.59400634765625,0.1000291109085083,0.4422661066055298,-0.3185659945011139
1774790048731532500,18.612532470703126,0.25091269612312317,0.8680388331413269,0.14752385020256042
1774790048750058800,18.631058837890624,0.28695371747016907,0.7849612236022949,0.4101957082748413
1774790048768585000,18.6495849609375,0.3370446562767029,0.2712239623069763,0.37843072414398193
1774790048787111200,18.668111083984375,0.4812087416648865,-0.16004657745361328,0.20311254262924194
1774790048805637400,18.686637451171876,0.6155989766120911,-0.23762640357017517,0.06505709886550903
1774790048824163600,18.70516357421875,0.6577486395835876,-0.14721840620040894,0.010690134018659592
1774790048842689500,18.723689453125,0.6430879235267639,-0.01649334840476513,-0.018631376326084137
1774790048861215700,18.7422158203125,0.5453495383262634,-0.001832594396546483,-0.15057817101478577
1774790048879742000,18.760741943359374,0.40485063195228577,-0.06108647957444191,-0.30573782324790955
1774790048898268200,18.77926806640625,0.2490801066160202,-0.01588248461484909,-0.3246746361255646
1774790048916794400,18.79779443359375,0.12812888622283936,0.11545344442129135,-0.19272783398628235
1774790048935320600,18.816320556640626,0.07254019379615784,0.16554436087608337,-0.035735588520765305
1774790048953846500,18.834846435546876,0.07254019379615784,0.04214967042207718,0.003970621153712273
1774790048972373000,18.853373046875,0.12935061752796173,-0.10934479534626007,0.004581485874950886
1774790048990899000,18.87189892578125,0.16355904936790466,-0.12278381735086441,0.032070402055978775
1774790049009425200,18.890425048828124,0.1104138121008873,-0.03481929376721382,0.05100720748305321
1774790049027951400,18.908951416015626,-0.02153298258781433,-0.001832594396546483,-0.0308486707508564
1774790049046477600,18.9274775390625,-0.15958842635154724,-0.11362084746360779,-0.23243404924869537
1774790049065003800,18.946003662109376,-0.17424917221069336,-0.1954767256975174,-0.36804601550102234
1774790049083530000,18.964530029296874,-0.13271036744117737,-0.2260199636220932,-0.3069595396518707
1774790049102056000,18.983055908203124,-0.12354740500450134,-0.21380266547203064,-0.16829325258731842
1774790049120582100,19.00158203125,-0.17791436612606049,-0.20830489695072174,-0.07788526266813278
1774790049139108400,19.0201083984375,-0.2750418782234192,-0.2926042377948761,-0.13103049993515015
1774790049157634600,19.038634521484376,-0.3202458620071411,-0.3597993552684784,-0.25809037685394287
1774790049176160800,19.057160888671874,-0.3019199073314667,-0.3903425931930542,-0.314289927482605
1774790049194686700,19.075686767578127,-0.2487746775150299,-0.3799578845500946,-0.2513708472251892
1774790049213213200,19.094213134765624,-0.16936226189136505,-0.3017672002315521,-0.14569124579429626
1774790049231739100,19.1127392578125,-0.09605848789215088,-0.06414080411195755,0.026572618633508682
1774790049250265300,19.131265380859375,-0.21578797698020935,-0.05925388261675835,0.038789913058280945
1774790049268791600,19.14979150390625,-0.4802924394607544,-0.5100721120834351,-0.32589635252952576
1774790049287317800,19.16831787109375,-0.5896372199058533,-0.6676751971244812,-0.6539307236671448
1774790049305844000,19.186843994140624,-0.5120574235916138,-0.3707949221134186,-0.5592467188835144
1774790049324370200,19.2053701171875,-0.3422369956970215,-0.01649334840476513,-0.11881320178508759
1774790049342896000,19.223896240234374,-0.1565341055393219,0.19914191961288452,0.44990190863609314
1774790049361422300,19.24242236328125,-0.1461493968963623,0.07452550530433655,0.7571669220924377
1774790049379948500,19.260948486328125,-0.264046311378479,-0.32070401310920715,0.6637045741081238
1774790049398474800,19.279474853515627,-0.39599308371543884,-0.6096430420875549,0.2837466895580292
1774790049417001000,19.2980009765625,-0.49800750613212585,-0.5387827157974243,-0.08155044913291931
1774790049435527200,19.316527099609374,-0.5682569742202759,-0.2968802750110626,-0.25931209325790405
1774790049454053400,19.335053466796875,-0.5517635941505432,-0.09101885557174683,-0.2055560052394867
1774790049472579300,19.353579345703125,-0.5175551772117615,-0.006719512399286032,-0.035124726593494415
1774790049491105500,19.37210546875,-0.5090031027793884,-0.07757982611656189,0.07422006875276566
1774790049509631700,19.3906318359375,-0.49800750613212585,-0.1484401375055313,0.032681263983249664
1774790049528158000,19.409157958984373,-0.4503600597381592,-0.08613193035125732,-0.1078176349401474
1774790049546684200,19.42768408203125,-0.34834563732147217,-0.014049889519810677,-0.19333870708942413
1774790049565210400,19.44621044921875,-0.1815795600414276,-0.0409279391169548,-0.14569124579429626
1774790049583736300,19.464736328125,-0.0435241162776947,-0.08429934084415436,-0.01740964688360691
1774790049602262500,19.483262451171875,-0.014813470654189587,-0.1282816082239151,0.022907428443431854
1774790049620788700,19.501788818359376,-0.07162389904260635,-0.11606431007385254,-0.047952886670827866
1774790049639315000,19.52031494140625,-0.23105959594249725,-0.06475166976451874,-0.1701258420944214
1774790049657841200,19.538841064453123,-0.38499751687049866,0.021380268037319183,-0.24037529528141022
1774790049676367400,19.557367431640625,-0.3721693754196167,0.10018182545900345,-0.19944734871387482
1774790049694893300,19.575893310546874,-0.23961171507835388,0.15515965223312378,-0.11698060482740402
1774790049713419500,19.59441943359375,-0.12843431532382965,0.1545487940311432,-0.0412333719432354
1774790049731945700,19.61294580078125,-0.09178243577480316,0.15699224174022675,0.010690134018659592
1774790049750472000,19.631471923828126,-0.09361502528190613,0.1747073233127594,0.04001164436340332
1774790049768998100,19.649998046875,-0.10216713696718216,0.14049890637397766,0.02412915788590908
1774790049787524400,19.6685244140625,-0.052687086164951324,0.08429934084415436,-0.007024944759905338
1774790049806050300,19.68705029296875,0.09086613357067108,0.10567960888147354,0.0015271619195118546
1774790049824576500,19.705576416015624,0.19104796648025513,0.14477495849132538,0.022296564653515816
1774790049843102700,19.724102783203126,0.2386954128742218,0.3390299379825592,0.1585194170475006
1774790049861629000,19.74262890625,0.20937390625476837,0.4685332775115967,0.2782489061355591
1774790049880155100,19.761155029296877,0.10797034949064255,0.16737695038318634,0.14691297709941864
1774790049898681000,19.77968115234375,-0.061850059777498245,-0.2663370370864868,-0.24037529528141022
1774790049917207300,19.798207275390624,-0.21945317089557648,-0.4050033390522003,-0.5702422857284546
1774790049935733500,19.8167333984375,-0.23961171507835388,-0.12034036219120026,-0.4920515716075897
1774790049954259700,19.835259765625,-0.09239330142736435,0.2718348205089569,-0.09682206809520721
1774790049972786000,19.853785888671876,0.2863428592681885,0.4929678738117218,0.35094180703163147
1774790049991312100,19.87231201171875,0.660802960395813,0.5699368119239807,0.6227766275405884
1774790050009838000,19.890838134765627,0.7255546450614929,0.4257727563381195,0.6313287615776062
1774790050028364300,19.9093642578125,0.5862774848937988,0.04886918142437935,0.4584540128707886
1774790050046890500,19.927890380859374,0.5648971796035767,-0.21197007596492767,0.30024003982543945
1774790050065416700,19.946416748046875,0.6223185062408447,-0.18387030065059662,0.26480987668037415
1774790050083943000,19.96494287109375,0.5820014476776123,-0.07513637095689774,0.2837466895580292
1774790050102469000,19.98346923828125,0.47143489122390747,-0.023212861269712448,0.24770566821098328
1774790050120995000,20.0019951171875,0.3205513060092926,0.006719512399286032,0.11392628401517868
1774790050139521300,20.020521240234373,0.15500694513320923,0.036651886999607086,-0.0870482325553894
1774790050158047500,20.039047607421875,0.08414662629365921,0.14721840620040894,-0.18906265497207642
1774790050176573700,20.05757373046875,0.08842267841100693,0.21197007596492767,-0.1493564397096634
1774790050195100000,20.076099853515625,0.15928299725055695,0.20158538222312927,0.0015271619195118546
1774790050213626000,20.094626220703127,0.23564109206199646,0.1178968995809555,0.1389717310667038
1774790050232152000,20.113152099609376,0.20693044364452362,0.11606431007385254,0.13958260416984558
1774790050250678300,20.13167822265625,0.1153007298707962,0.1740964651107788,0.029626941308379173
1774790050269204500,20.15020458984375,0.031612250953912735,0.08552107214927673,-0.14080433547496796
1774790050287730700,20.168730712890625,0.0010690133785828948,-0.06475166976451874,-0.29474225640296936
1774790050306256600,20.187256591796874,0.03283398225903511,-0.12705987691879272,-0.34666576981544495
1774790050324783000,20.205783203125,0.060322895646095276,-0.20158538222312927,-0.31184646487236023
1774790050343309000,20.22430908203125,0.0798705667257309,-0.2467893660068512,-0.1853974610567093
1774790050361835300,20.242835205078126,0.005955931730568409,-0.23518294095993042,-0.11392628401517868
1774790050380361500,20.261361572265624,-0.09361502528190613,-0.18692462146282196,-0.15546508133411407
1774790050398887700,20.2798876953125,-0.1766926348209381,-0.09590577334165573,-0.250149130821228
1774790050417413600,20.29841357421875,-0.20112723112106323,-0.043371398001909256,-0.31001389026641846
1774790050435939800,20.31693994140625,-0.13759729266166687,-0.14233149588108063,-0.31184646487236023
1774790050454466000,20.335466064453126,-0.07284562289714813,-0.26939135789871216,-0.2159406989812851
1774790050472992300,20.3539921875,-0.09056070446968079,-0.2877173125743866,0.013744457624852657
1774790050491518500,20.3725185546875,-0.19501857459545135,-0.31031930446624756,0.14202606678009033
1774790050510044700,20.391044677734374,-0.2548833191394806,-0.2419024556875229,0.07910698652267456
1774790050528570600,20.409570556640624,-0.305585116147995,-0.37201663851737976,-0.16829325258731842
1774790050547096800,20.428096923828125,-0.3770562708377838,-0.656679630279541,-0.476779967546463
1774790050565623000,20.446623046875,-0.37949973344802856,-0.6108647584915161,-0.5213730931282043
1774790050584149200,20.465149169921876,-0.3422369956970215,-0.28954991698265076,-0.21349723637104034
1774790050602675200,20.48367529296875,-0.30741769075393677,0.024434590712189674,0.23793183267116547
1774790050621201400,20.502201416015627,-0.2835939824581146,0.13744457066059113,0.582459568977356
1774790050639727600,20.5207275390625,-0.3116937577724457,-0.037262752652168274,0.5891790986061096
1774790050658253800,20.53925390625,-0.32879796624183655,-0.39217519760131836,0.27947062253952026
1774790050676779800,20.55777978515625,-0.31352636218070984,-0.5345066785812378,-0.07360920310020447
1774790050695306000,20.576305908203125,-0.388662725687027,-0.46608981490135193,-0.27030766010284424
1774790050713832200,20.594832275390626,-0.4503600597381592,-0.16737695038318634,-0.22388194501399994
1774790050732358400,20.6133583984375,-0.4699077308177948,0.09162971377372742,-0.014966187067329884
1774790050750884600,20.631884521484373,-0.5138899683952332,0.1380554437637329,0.13652828335762024
1774790050769410800,20.650410888671875,-0.5572614073753357,0.06352993845939636,0.08643736690282822
1774790050787936800,20.668936767578124,-0.5303833484649658,0.056199558079242706,-0.08093958348035812
1774790050806463000,20.687462890625,-0.36911505460739136,0.13622283935546875,-0.15607595443725586
1774790050824989200,20.7059892578125,-0.12171480804681778,0.18081597983837128,-0.061391908675432205
1774790050843515400,20.724515380859376,0.1049160286784172,0.09346231073141098,0.0766635313630104
1774790050862041300,20.743041259765626,0.17027856409549713,0.01588248461484909,0.15668681263923645
1774790050880567600,20.761567626953124,0.016340631991624832,0.015271619893610477,0.129197895526886
1774790050899093800,20.78009375,-0.1980729103088379,0.011606430634856224,0.032070402055978775
1774790050917620000,20.798619873046874,-0.2646571695804596,-0.06597339361906052,-0.10842850059270859
1774790050936146000,20.81714599609375,-0.19440771639347076,-0.03237583488225937,-0.23548837006092072
1774790050954672000,20.835672119140625,-0.16325360536575317,0.13622283935546875,-0.27458372712135315
1774790050973198300,20.8541982421875,-0.1363755613565445,0.2614501118659973,-0.18661919236183167
1774790050991724500,20.872724609375,-0.05635227635502815,0.23762640357017517,-0.04001164436340332
1774790051010250500,20.89125048828125,0.015729768201708794,0.18081597983837128,0.07849612087011337
1774790051028776700,20.909776611328127,0.022449281066656113,0.12156209349632263,0.08399390429258347
1774790051047303000,20.928302978515624,0.013897174037992954,0.11484257876873016,-0.010690134018659592
1774790051065829000,20.9468291015625,0.03894263133406639,0.1185077652335167,-0.11575887352228165
1774790051084355000,20.96535498046875,0.09392046183347702,0.1594357043504715,-0.1383608728647232
1774790051102881300,20.98388134765625,0.15378521382808685,0.3335321843624115,-0.000305432389723137
1774790051121407500,21.002407470703126,0.20631958544254303,0.5583304166793823,0.25931209325790405
1774790051139933700,21.02093359375,0.2331976294517517,0.7183769941329956,0.40286532044410706
1774790051158459600,21.039459716796873,0.22036947309970856,0.5247328281402588,0.24953825771808624
1774790051176985900,21.05798583984375,0.14950916171073914,-0.06352993845939636,-0.16035200655460358
1774790051195512000,21.076511962890624,0.044440411031246185,-0.3640754222869873,-0.5684096813201904
1774790051214038300,21.095038330078125,-0.10155627131462097,-0.17592905461788177,-0.7186824083328247
1774790051232564200,21.113564208984375,-0.04046979174017906,0.4001164436340332,-0.448069304227829
1774790051251090400,21.13209033203125,0.35353797674179077,0.8057306408882141,0.07422006875276566
1774790051269616600,21.15061669921875,0.8000801205635071,0.9511164426803589,0.5342012643814087
1774790051288142800,21.169142822265623,0.9717331528663635,0.7764091491699219,0.7412844300270081
1774790051306668800,21.187668701171877,0.8538362383842468,0.27366742491722107,0.61117023229599
1774790051325195000,21.206195068359374,0.7212786078453064,-0.22846342623233795,0.2629773020744324
1774790051343721200,21.22472119140625,0.7261655330657959,-0.40378162264823914,-0.0565049909055233
1774790051362247400,21.243247314453125,0.7463240623474121,-0.3836230933666229,-0.21349723637104034
1774790051380773600,21.261773681640626,0.7267763614654541,-0.30543237924575806,-0.2000582218170166
1774790051399299600,21.280299560546876,0.5942187309265137,-0.27916520833969116,-0.14202606678009033
1774790051417825800,21.29882568359375,0.38652467727661133,-0.12583814561367035,-0.0668896958231926
1774790051436352000,21.31735205078125,0.16539163887500763,0.2156352698802948,0.06444623321294785
1774790051454878200,21.335878173828124,0.007788525894284248,0.39889469742774963,0.17256930470466614
1774790051473404200,21.354404052734374,-0.004428769461810589,0.43493571877479553,0.231212317943573
1774790051491930400,21.372930419921875,0.041386090219020844,0.3243691921234131,0.21899501979351044
1774790051510456600,21.39145654296875,0.08781181275844574,0.1948658674955368,0.1902843713760376
1774790051528982800,21.409982666015626,0.09453132748603821,0.0513126403093338,0.14202606678009033
1774790051547508700,21.4285087890625,0.07864884287118912,-0.004886918235570192,0.04001164436340332
1774790051566035000,21.447034912109373,0.034666575491428375,0.033597562462091446,-0.11514800786972046
1774790051584561200,21.46556103515625,-0.033139415085315704,-0.01588248461484909,-0.2306014597415924
1774790051603087400,21.48408740234375,-0.09728021919727325,-0.20463970303535461,-0.2629773020744324
1774790051621613300,21.50261328125,-0.10094540566205978,-0.35063639283180237,-0.2263254076242447
1774790051640139500,21.521139404296875,-0.1052214577794075,-0.3799578845500946,-0.21471896767616272
1774790051658665500,21.53966552734375,-0.15225805342197418,-0.29016077518463135,-0.24526220560073853
1774790051677191700,21.558191650390626,-0.18341214954853058,-0.2156352698802948,-0.2574795186519623
1774790051695718000,21.5767177734375,-0.18952079117298126,-0.19853104650974274,-0.19272783398628235
1774790051714244000,21.595244140625,-0.2280052751302719,-0.23273947834968567,-0.12370011955499649
1774790051732770000,21.61377001953125,-0.20540328323841095,-0.24862197041511536,-0.0308486707508564
1774790051751296300,21.632296142578124,-0.15470150113105774,-0.18753549456596375,0.10659590363502502
1774790051769822500,21.650822509765625,-0.17424917221069336,-0.17043127119541168,0.18723005056381226
1774790051788348400,21.669348388671875,-0.21395538747310638,-0.18570289015769958,0.1432477980852127
1774790051806875000,21.687875,-0.2842048406600952,-0.3946186602115631,-0.06627883017063141
1774790051825400800,21.70640087890625,-0.41004297137260437,-0.5870410799980164,-0.3686569035053253
1774790051843927000,21.724927001953127,-0.5487092733383179,-0.43921178579330444,-0.5024362802505493
1774790051862453000,21.743452880859376,-0.5444332361221313,-0.09712749719619751,-0.28557929396629333
1774790051880979200,21.761979248046874,-0.3477347791194916,0.05558869615197182,0.14019346237182617
1774790051899505400,21.78050537109375,0.047494735568761826,-0.020158538594841957,0.5977311730384827
1774790051918031600,21.799031494140625,0.32849252223968506,-0.07819069176912308,0.8280271887779236
1774790051936557600,21.8175576171875,0.25702136754989624,-0.19792018830776215,0.684473991394043
1774790051955083800,21.836083740234375,0.0334448479115963,-0.3341430425643921,0.29901832342147827
1774790051973610000,21.85460986328125,-0.2341139316558838,-0.3634645342826843,-0.14263692498207092
1774790051992136000,21.873135986328126,-0.4912880063056946,-0.20158538222312927,-0.3607156574726105
1774790052010662100,21.891662109375,-0.5951350331306458,0.028099779039621353,-0.25381430983543396
1774790052029188400,21.910188232421874,-0.5395463109016418,0.14782927930355072,-0.024740023538470268
1774790052047714600,21.928714599609375,-0.4228711426258087,0.12278381735086441,0.12370011955499649
1774790052075503600,21.956503662109377,-0.25182899832725525,0.039706211537122726,0.10903936624526978
1774790052094029800,21.97502978515625,-0.1357647031545639,0.11117739230394363,0.05039634555578232
1774790052112555800,21.9935556640625,-0.05024362727999687,0.21441353857517242,0.05528326332569122
1774790052131082000,22.01208203125,-0.008704823441803455,0.17348559200763702,0.06811141967773438
1774790052149608200,22.030608154296875,0.018784092739224434,0.049480047076940536,0.024740023538470268
1774790052168134100,22.049134033203124,0.0010690133785828948,-0.02260199747979641,-0.041844237595796585
1774790052186660400,22.067660400390626,-0.09850194305181503,-0.05192350596189499,-0.12064579129219055
1774790052205186600,22.0861865234375,-0.1669187992811203,-0.015271619893610477,-0.16768237948417664
1774790052223712500,22.10471240234375,-0.1467602699995041,0.006719512399286032,-0.189673513174057
1774790052242238700,22.12323876953125,-0.06856957077980042,0.021380268037319183,-0.17562362551689148
1774790052260765000,22.141764892578124,-0.0007635809597559273,0.07819069176912308,-0.12125665694475174
1774790052279291000,22.160290771484377,0.02367101050913334,0.19730933010578156,-0.013133592903614044
1774790052297817000,22.178817138671874,0.041386090219020844,0.23884813487529755,0.09193515032529831
1774790052316343300,22.19734326171875,0.056657709181308746,0.22907429933547974,0.10965022444725037
1774790052334869200,22.215869140625,0.08781181275844574,0.20830489695072174,0.06261363625526428
1774790052353395500,22.2343955078125,0.12385283410549164,0.21135921776294708,0.0021380267571657896
1774790052371921700,22.252921630859376,0.1824958473443985,0.2516762912273407,0.013133592903614044
1774790052390447600,22.271447509765625,0.2759581506252289,0.2974911332130432,0.08155044913291931
1774790052408973800,22.289973876953123,0.36514443159103394,0.40927940607070923,0.18784092366695404
1774790052427500000,22.3085,0.3400989770889282,0.5766563415527344,0.2684750556945801
1774790052446026000,22.32702587890625,0.3572031855583191,0.7422007322311401,0.2770271897315979
1774790052464552200,22.34555224609375,0.40118545293807983,0.6359102129936218,0.1328630894422531
1774790052483078400,22.364078369140625,0.4341721534729004,0.14599667489528656,-0.19700388610363007
1774790052501604400,22.382604248046874,0.4176788032054901,-0.18081597983837128,-0.5409207344055176
1774790052520130600,22.401130615234376,0.4610501825809479,0.020769402384757996,-0.4608974754810333
1774790052538656500,22.419656494140625,0.5465712547302246,0.6499601006507874,0.09315688163042068
1774790052557182700,22.4381826171875,0.5484038591384888,0.9541707634925842,0.6404917240142822
1774790052575709000,22.456708984375,0.5178605914115906,0.6206386089324951,0.7932079434394836
1774790052594235100,22.475235107421874,0.5581777095794678,0.034208428114652634,0.6117810606956482
1774790052612761000,22.493760986328127,0.6638572812080383,-0.2822195291519165,0.37720900774002075
1774790052631287300,22.512287353515624,0.641866147518158,-0.1740964651107788,0.2782489061355591
1774790052649813200,22.530813232421874,0.4964803457260132,0.03176496922969818,0.27580544352531433
1774790052668339500,22.54933935546875,0.3926333487033844,0.21441353857517242,0.2965748608112335
1774790052686865700,22.56786572265625,0.3400989770889282,0.2626718580722809,0.24465134739875793
1774790052705391600,22.5863916015625,0.28328853845596313,0.19242240488529205,0.07238747924566269
1774790052723917800,22.604917724609376,0.33337944746017456,0.2565632164478302,-0.05345066636800766
1774790052742444000,22.623444091796873,0.37491825222969055,0.37751442193984985,-0.0821613147854805
1774790052760970000,22.641969970703126,0.29794928431510925,0.39828383922576904,-0.051618073135614395
1774790052779496200,22.66049609375,0.2185368686914444,0.2779434621334076,0.0015271619195118546
1774790052798022100,22.679022216796874,0.12751802802085876,-0.10079269111156464,-0.012522728182375431
1774790052816548400,22.69754833984375,0.10674861818552017,-0.18631376326084137,-0.0565049909055233
1774790052835074600,22.716074462890624,0.10369429737329483,-0.11667517572641373,-0.16523891687393188
1774790052853600500,22.7346005859375,0.012675444595515728,-0.043371398001909256,-0.3032943606376648
1774790052872126700,22.753126708984375,-0.12782345712184906,-0.08979712426662445,-0.43829548358917236
1774790052890653000,22.77165283203125,-0.1773035079240799,-0.20219624042510986,-0.4987711012363434
1774790052909179000,22.790178955078126,-0.17119485139846802,-0.27855435013771057,-0.4529562294483185
1774790052927705000,22.808705078125,-0.2084576040506363,-0.22968515753746033,-0.2929096519947052
