time,seconds_elapsed,z,y,x
1774790030307447000,0.188447021484375,-0.04459312930703163,-0.01282816007733345,-0.026878049597144127
1774790030335234800,0.21623486328125,-0.05192350596189499,-0.06047561392188072,-0.011606430634856224
1774790030353760000,0.234760009765625,-0.08552107214927673,-0.05742128938436508,-0.004276053514331579
1774790030372285200,0.25328515625,-0.09407317638397217,-0.021991131827235222,0.003665188793092966
1774790030390810400,0.271810302734375,-0.06291907280683517,-0.039706211537122726,-0.023212861269712448
1774790030409335800,0.290335693359375,-0.028099779039621353,-0.01954767294228077,-0.021380268037319183
1774790030427861000,0.308861083984375,-0.04581485688686371,-0.043982263654470444,-0.020158538594841957
1774790030446386200,0.32738623046875,-0.13194678723812103,-0.14660754799842834,-0.029932374134659767
1774790030464911400,0.345911376953125,-0.2406807243824005,-0.30482152104377747,0.01588248461484909
1774790030483436500,0.3644365234375,-0.28527384996414185,-0.36835145950317383,0.08124501258134842
1774790030501961700,0.382961669921875,-0.28405213356018066,-0.3597993552684784,0.10201441496610641
1774790030520487000,0.40148681640625,-0.258395791053772,-0.28588470816612244,0.09590577334165573
1774790030539012000,0.42001220703125,-0.17348559200763702,-0.27550002932548523,0.08674279600381851
1774790030557537300,0.438537353515625,-0.09896009415388107,-0.24556763470172882,0.10567960888147354
1774790030576062500,0.4570625,-0.1081230640411377,-0.12767073512077332,0.10690133273601532
1774790030594587600,0.475587646484375,-0.10934479534626007,-0.12583814561367035,0.03848448023200035
1774790030613113000,0.494113037109375,-0.10567960888147354,-0.1484401375055313,-0.053145237267017365
1774790030631638300,0.51263818359375,-0.13500112295150757,-0.14721840620040894,-0.09529490768909454
1774790030650163500,0.53116357421875,-0.10629047453403473,-0.09957095980644226,-0.033597562462091446
1774790030668688600,0.549688720703125,-0.06719512492418289,-0.13133592903614044,0.07880155742168427
1774790030687213800,0.5682138671875,-0.0360410213470459,-0.14721840620040894,0.14233149588108063
1774790030705739000,0.586739013671875,0.02932151034474373,0.05558869615197182,0.053756099194288254
1774790030724264200,0.60526416015625,-0.04459312930703163,0.1905898153781891,-0.17226386070251465
1774790030742789400,0.623789306640625,0.049480047076940536,0.6914989352226257,-0.4166097939014435
1774790030761314600,0.642314453125,0.08063415437936783,0.6835576891899109,-0.5436696410179138
1774790030779839700,0.66083984375,0.02871064469218254,0.2406807243824005,-0.38240134716033936
1774790030798365200,0.679365234375,0.07574722915887833,0.2724456787109375,-0.10629047453403473
1774790030816890400,0.697890380859375,0.05925388261675835,0.5656607747077942,0.000610864779446274
1774790030835415600,0.71641552734375,-0.017715077847242355,0.6505709886550903,0.21807873249053955
1774790030853940700,0.734940673828125,-0.10690133273601532,0.526565432548523,0.5119046568870544
1774790030872466000,0.7534658203125,-0.14721840620040894,0.7232639193534851,0.5656607747077942
1774790030890991000,0.7719912109375,-0.1948658674955368,0.842382550239563,0.4367683231830597
1774790030909516500,0.7905166015625,-0.16737695038318634,0.739757239818573,0.13988803327083588
1774790030928041700,0.809041748046875,-0.18814635276794434,0.6890554428100586,-0.05192350596189499
1774790030946567000,0.82756689453125,-0.19669845700263977,0.5064069032669067,0.08796452730894089
1774790030965092000,0.846092041015625,-0.1337793916463852,0.009162971749901772,0.34147340059280396
1774790030983617300,0.8646171875,-0.08368847519159317,-0.08674279600381851,0.3811796307563782
1774790031002142500,0.883142578125,-0.05436696484684944,0.12522727251052856,0.27000224590301514
1774790031020668000,0.90166796875,0.017715077847242355,0.6249146461486816,0.11545344442129135
1774790031039193000,0.920193115234375,0.053145237267017365,0.9932661056518555,0.07024945318698883
1774790031076243500,0.957243408203125,0.24495677649974823,0.5088503360748291,0.2156352698802948
1774790031094768600,0.9757685546875,0.24862197041511536,0.23273947834968567,0.2510654330253601
1774790031113293800,0.9942939453125,0.05925388261675835,-0.2461785078048706,0.040317077189683914
1774790031131819000,1.012819091796875,0.025045456364750862,-0.1588248461484909,-0.29504770040512085
1774790031150344400,1.031344482421875,-0.15638138353824615,0.040317077189683914,-0.3634645342826843
1774790031168869600,1.04986962890625,-0.2816086709499359,0.21502439677715302,-0.20463970303535461
1774790031187394800,1.068394775390625,-0.4575377106666565,-0.0818558782339096,-0.2211330533027649
1774790031205920000,1.086919921875,-0.6603448390960693,-0.6212494969367981,-0.2620609998703003
1774790031233707800,1.114707763671875,-0.09590577334165573,-0.7745765447616577,0.21258094906806946
1774790031252233200,1.133233154296875,0.1740964651107788,-0.3530798554420471,0.12156209349632263
1774790031270758400,1.15175830078125,0.059864748269319534,-0.15515965223312378,-0.2987128794193268
1774790031289283600,1.17028369140625,-0.19853104650974274,-0.40805765986442566,-0.6243038177490234
1774790031307809000,1.18880908203125,-0.2706131041049957,0.014049889519810677,-0.6438514590263367
1774790031326334200,1.207334228515625,-0.14110976457595825,0.17043127119541168,-0.08857539296150208
1774790031344859400,1.225859375,-0.07635809481143951,-0.28038692474365234,0.3707949221134186
1774790031363384600,1.244384521484375,-0.023212861269712448,-0.5674933791160583,0.4422661066055298
1774790031381909800,1.26290966796875,-0.09590577334165573,-0.4880809485912323,0.29626941680908203
1774790031400435000,1.28143505859375,-0.20219624042510986,-0.20341797173023224,0.1490510106086731
1774790031418960400,1.29996044921875,-0.3035998046398163,0.04214967042207718,0.08918625861406326
1774790031437485600,1.318485595703125,-0.3946186602115631,0.053756099194288254,0.18387030065059662
1774790031456010800,1.3370107421875,-0.33597561717033386,-0.17043127119541168,0.4214966893196106
1774790031474536200,1.3555361328125,-0.21807873249053955,-0.430659681558609,0.5534434914588928
1774790031493061400,1.374061279296875,-0.164322629570961,-0.5009090900421143,0.4978547990322113
1774790031511586600,1.392586669921875,-0.09590577334165573,-0.5387827157974243,0.15088360011577606
1774790031530111700,1.41111181640625,-0.000610864779446274,-0.7141009569168091,-0.21807873249053955
1774790031548637000,1.429636962890625,0.12461641430854797,-0.5772672295570374,-0.318871408700943
1774790031567162400,1.448162353515625,0.20952661335468292,-0.25411975383758545,-0.18325942754745483
1774790031585687600,1.4666875,0.10690133273601532,-0.10690133273601532,-0.07269290834665298
1774790031604213000,1.485212890625,-0.11972949653863907,-0.04459312930703163,0.04825831577181816
1774790031622738200,1.50373828125,-0.13744457066059113,-0.030543239787220955,0.38850998878479004
1774790031641263400,1.522263427734375,-0.07513637095689774,-0.1081230640411377,0.6273581385612488
1774790031659788500,1.54078857421875,0.02260199747979641,-0.0030543238390237093,0.6695078015327454
1774790031678313700,1.559313720703125,0.049480047076940536,0.2864955961704254,0.7092140316963196
1774790031696839200,1.577839111328125,-0.06841685622930527,0.45448338985443115,0.8710931539535522
1774790031715364400,1.5963642578125,-0.19425499439239502,0.14538581669330597,1.0219768285751343
1774790031733889500,1.6148896484375,-0.1637117564678192,-0.017715077847242355,1.0415244102478027
1774790031752415000,1.6334150390625,0.020158538594841957,0.1496618688106537,0.9712749719619751
1774790031770940200,1.651940185546875,-0.046425722539424896,0.07819069176912308,0.7892373204231262
1774790031789465600,1.670465576171875,-0.16187916696071625,-0.11239911615848541,0.5271763205528259
1774790031807990800,1.68899072265625,-0.2254091054201126,-0.07941242307424545,0.2706131041049957
1774790031826516000,1.707515869140625,-0.185092031955719,0.3970620930194855,0.1380554437637329
1774790031845041400,1.72604150390625,-0.02932151034474373,0.411722868680954,0.06780599057674408
1774790031863566600,1.744566650390625,-0.007941242307424545,0.09101885557174683,0.026878049597144127
1774790031882091800,1.763091796875,-0.0922405794262886,-0.2577849328517914,0.04764745384454727
1774790031900617000,1.781616943359375,-0.1185077652335167,-0.5009090900421143,0.1795942485332489
1774790031919142400,1.800142333984375,-0.18325942754745483,-0.4880809485912323,0.30115634202957153
1774790031937667600,1.81866748046875,-0.19425499439239502,-0.3176496922969818,0.3237583339214325
1774790031956192800,1.83719287109375,-0.20280711352825165,-0.09896009415388107,0.3243691921234131
1774790031974718200,1.85571826171875,-0.17165300250053406,-0.08063415437936783,0.33108872175216675
1774790031993243400,1.874243408203125,-0.10873392969369888,-0.45326167345046997,0.19792018830776215
1774790032011768800,1.892768798828125,-0.049480047076940536,-0.43982264399528503,-0.04764745384454727
1774790032030294000,1.9112939453125,0.046425722539424896,0.020769402384757996,-0.17043127119541168
1774790032048819500,1.9298193359375,0.1282816082239151,0.49052441120147705,-0.1288924664258957
1774790032067344600,1.9483447265625,0.06963858753442764,0.45326167345046997,-0.040317077189683914
1774790032085870000,1.9668701171875,-0.11545344442129135,-0.04764745384454727,0.10690133273601532
1774790032104395300,1.985395263671875,-0.07147117704153061,-0.526565432548523,0.35246896743774414
1774790032122920400,2.00392041015625,0.06536252796649933,-0.4459312856197357,0.6401863098144531
1774790032141446000,2.02244580078125,0.1545487940311432,-0.23762640357017517,0.7904590368270874
1774790032159971000,2.04097119140625,0.053756099194288254,0.026878049597144127,0.720820426940918
1774790032178496500,2.05949658203125,-0.059864748269319534,0.2632827162742615,0.5510000586509705
1774790032197021700,2.078021728515625,-0.11056652665138245,0.1692095398902893,0.41355544328689575
1774790032215547100,2.096547119140625,-0.09407317638397217,-0.0360410213470459,0.3451386094093323
1774790032234072300,2.115072265625,-0.020158538594841957,-0.14599667489528656,0.3396408259868622
1774790032252597800,2.13359765625,0.04825831577181816,-0.16126830875873566,0.30115634202957153
1774790032271123000,2.152123046875,0.018325943499803543,-0.05070177838206291,0.21258094906806946
1774790032289648400,2.1706484375,-0.04276053607463837,0.0720820426940918,0.09346231073141098
1774790032308173600,2.189173583984375,-0.07635809481143951,0.13255766034126282,0.037262752652168274
1774790032326699000,2.207698974609375,-0.1747073233127594,0.006108647678047419,0.0977383628487587
1774790032345224200,2.22622412109375,-0.1539379209280014,-0.20341797173023224,0.08613193035125732
1774790032363749600,2.24474951171875,-0.05925388261675835,-0.1802051067352295,0.001221729558892548
1774790032382274800,2.26327490234375,-0.056810423731803894,0.001221729558892548,-0.05192350596189499
1774790032400800300,2.28180029296875,-0.07757982611656189,0.13133592903614044,-0.12400554865598679
1774790032419325700,2.30032568359375,-0.16310089826583862,0.16615521907806396,-0.19669845700263977
1774790032437851000,2.318850830078125,-0.21319180727005005,0.0665842592716217,-0.27977606654167175
1774790032456376300,2.337376220703125,-0.15027274191379547,-0.08613193035125732,-0.25961753726005554
1774790032474901500,2.355901611328125,-0.07024945318698883,-0.13072505593299866,-0.03481929376721382
1774790032493427000,2.374427001953125,-0.05070177838206291,-0.06902772188186646,0.13011419773101807
1774790032511952400,2.392952392578125,-0.09101885557174683,0.06291907280683517,0.07147117704153061
1774790032530477600,2.4114775390625,-0.22357651591300964,0.17348559200763702,-0.023823726922273636
1774790032549003000,2.4300029296875,-0.2205221801996231,0.04764745384454727,-0.14049890637397766
1774790032567528200,2.448528076171875,-0.010384701192378998,-0.10445787757635117,-0.07880155742168427
1774790032586053600,2.4670537109375,0.09346231073141098,-0.09162971377372742,0.09529490768909454
1774790032604579000,2.4855791015625,0.11239911615848541,0.05070177838206291,0.12522727251052856
1774790032623104300,2.504104248046875,0.04825831577181816,-0.0720820426940918,0.037262752652168274
1774790032641629700,2.522629638671875,0.043982263654470444,-0.09590577334165573,-0.05436696484684944
1774790032660155100,2.541155029296875,0.12095122784376144,-0.09101885557174683,-0.07635809481143951
1774790032678680300,2.559680419921875,0.10323614627122879,0.06230820715427399,0.021991131827235222
1774790032697205800,2.578205810546875,-0.028099779039621353,0.25534147024154663,0.06047561392188072
1774790032715731200,2.596731201171875,-0.12217295914888382,0.18814635276794434,-0.010384701192378998
1774790032734256600,2.615256591796875,-0.1484401375055313,-0.037262752652168274,-0.13500112295150757
1774790032752781800,2.63378173828125,-0.037262752652168274,-0.1533270627260208,-0.20647229254245758
1774790032771307300,2.652307373046875,0.02871064469218254,-0.020769402384757996,-0.2309068888425827
1774790032789832700,2.670832763671875,-0.006108647678047419,0.164322629570961,-0.2412915825843811
1774790032808358100,2.689358154296875,-0.05864302068948746,0.20158538222312927,-0.2254091054201126
1774790032826883300,2.70788330078125,-0.06719512492418289,0.15515965223312378,-0.0977383628487587
1774790032845408800,2.72640869140625,0.006719512399286032,-0.0030543238390237093,0.10506874322891235
1774790032863934200,2.744934326171875,0.13133592903614044,-0.01954767294228077,0.25411975383758545
1774790032882459600,2.763459716796875,0.16798780858516693,0.06414080411195755,0.205861434340477
1774790032900985000,2.781985107421875,0.17287473380565643,0.28954991698265076,0.07819069176912308
1774790032919510300,2.80051025390625,0.11056652665138245,0.2877173125743866,0.03481929376721382
1774790032938035700,2.81903564453125,-0.007330377586185932,0.185092031955719,0.1288924664258957
1774790032956561200,2.83756103515625,-0.006108647678047419,0.04764745384454727,0.1441640853881836
1774790032975086600,2.856086669921875,0.04214967042207718,0.08368847519159317,0.0873536616563797
1774790032993612000,2.874612060546875,0.001221729558892548,0.19120067358016968,0.05253437161445618
1774790033012137500,2.893137451171875,-0.08674279600381851,0.23762640357017517,0.05925388261675835
1774790033030663000,2.911662841796875,-0.15271618962287903,0.24312418699264526,0.09529490768909454
1774790033049188400,2.930188232421875,-0.13988803327083588,0.13744457066059113,0.02260199747979641
1774790033067713800,2.9487138671875,-0.0360410213470459,-0.025045456364750862,-0.1386663019657135
1774790033086239200,2.9672392578125,0.04153880476951599,-0.12522727251052856,-0.2260199636220932
1774790033104764700,2.9857646484375,0.07757982611656189,0.13133592903614044,-0.06352993845939636
1774790033123290000,3.0042900390625,0.1081230640411377,0.35613417625427246,0.2419024556875229
1774790033141815600,3.022815673828125,0.10506874322891235,0.31031930446624756,0.4007273018360138
1774790033160341000,3.041341064453125,0.06230820715427399,0.11728604137897491,0.37262752652168274
1774790033178866400,3.059866455078125,0.05192350596189499,0.02932151034474373,0.30604326725006104
1774790033197392000,3.078391845703125,0.0256563201546669,0.2706131041049957,0.30115634202957153
1774790033215917300,3.096917236328125,0.010995565913617611,0.24801109731197357,0.39278605580329895
1774790033234442800,3.11544287109375,0.03848448023200035,0.38728827238082886,0.42455101013183594
1774790033252968200,3.13396826171875,0.05070177838206291,0.11545344442129135,0.3610210716724396
1774790033271493600,3.15249365234375,0.16004657745361328,-0.05925388261675835,0.17898337543010712
1774790033290019000,3.17101904296875,0.1386663019657135,-0.07330377399921417,0.1496618688106537
1774790033308544500,3.18954443359375,0.12400554865598679,-0.07819069176912308,0.19730933010578156
1774790033327070000,3.208070068359375,0.09101885557174683,-0.1545487940311432,0.1533270627260208
1774790033345595400,3.226595458984375,0.039706211537122726,-0.04520399495959282,0.12278381735086441
1774790033364121000,3.24512109375,0.002443459117785096,0.059864748269319534,0.15638138353824615
1774790033382646500,3.263646484375,0.0030543238390237093,0.001832594396546483,0.24923282861709595
1774790033401172000,3.282171875,-0.007941242307424545,0.10995566099882126,0.35674503445625305
1774790033419697400,3.300697509765625,0.030543239787220955,0.06352993845939636,0.30970844626426697
1774790033438223000,3.31922314453125,0.046425722539424896,0.01893680728971958,0.11362084746360779
1774790033456748300,3.337748291015625,-0.08002328872680664,0.0054977829568088055,0.0256563201546669
1774790033475274000,3.35627392578125,-0.13744457066059113,-0.000610864779446274,0.014049889519810677
1774790033493799400,3.37479931640625,-0.1649334877729416,0.020158538594841957,0.21930044889450073
1774790033512324900,3.393324951171875,-0.11911863088607788,0.1545487940311432,0.4459312856197357
1774790033530850600,3.4118505859375,-0.009162971749901772,0.07330377399921417,0.3897317349910736
1774790033549376000,3.4303759765625,0.02871064469218254,0.16249002516269684,0.15088360011577606
1774790033567901400,3.4489013671875,0.13133592903614044,-0.19181154668331146,-0.5247328281402588
1774790033586427100,3.46742724609375,0.06230820715427399,-0.3170388340950012,-0.2883281707763672
1774790033604952600,3.48595263671875,-0.006719512399286032,-0.24801109731197357,0.14172062277793884
1774790033623478000,3.50447802734375,-0.06597339361906052,-0.11728604137897491,0.01954767294228077
1774790033642003700,3.523003662109375,-0.09101885557174683,-0.3017672002315521,-0.6126973628997803
1774790033660529200,3.541529052734375,0.0054977829568088055,-0.3555232882499695,-1.2315033674240112
1774790033679054600,3.5600546875,0.07024945318698883,-0.481361448764801,-1.450192928314209
1774790033697580300,3.578580322265625,-0.001832594396546483,-0.5308414697647095,-1.3072506189346313
1774790033716105700,3.597105712890625,-0.023823726922273636,-0.5387827157974243,-1.109330415725708
1774790033734631400,3.61563134765625,0.01588248461484909,-0.5400044918060303,-0.9841031432151794
1774790033753156900,3.634156982421875,0.07024945318698883,-0.3402516841888428,-0.8875865340232849
1774790033771682600,3.6526826171875,0.043371398001909256,-0.28405213356018066,-0.8106175661087036
1774790033790208000,3.6712080078125,0.023823726922273636,-0.2926042377948761,-0.7037162184715271
1774790033817996300,3.698996337890625,0.050090912729501724,-0.2706131041049957,-0.6206386089324951
1774790033836522000,3.71752197265625,0.0616973415017128,-0.22968515753746033,-0.5485565662384033
1774790033855047700,3.736047607421875,0.000610864779446274,-0.22479823231697083,-0.5094612240791321
1774790033873573000,3.754572998046875,0.010995565913617611,-0.1747073233127594,-0.47952884435653687
1774790033892098800,3.773098876953125,0.006108647678047419,-0.22174391150474548,-0.40744680166244507
1774790033910624300,3.791624267578125,-0.059864748269319534,-0.2260199636220932,-0.31520622968673706
1774790033929150000,3.81014990234375,-0.15515965223312378,-0.10751219838857651,-0.2406807243824005
1774790033947675400,3.82867529296875,-0.16859868168830872,0.14110976457595825,-0.1130099818110466
1774790033966201000,3.847201171875,0.001832594396546483,0.27366742491722107,0.07574722915887833
1774790033984726800,3.865726806640625,0.24923282861709595,0.04153880476951599,0.2761108875274658
1774790034003252200,3.884252197265625,0.2809978127479553,-0.1288924664258957,0.3121519088745117
1774790034021778000,3.90277783203125,0.03787361457943916,-0.14721840620040894,0.17653992772102356
1774790034040303600,3.9213037109375,-0.12950333952903748,-0.22846342623233795,-0.023212861269712448
1774790034058829000,3.9398291015625,-0.10751219838857651,-0.3139844834804535,-0.1588248461484909
1774790034077354800,3.958354736328125,0.029932374134659767,-0.24984370172023773,-0.16676609218120575
1774790034095880400,3.97688037109375,0.08552107214927673,0.06780599057674408,-0.11545344442129135
1774790034114406000,3.995406005859375,-0.000610864779446274,0.1692095398902893,-0.09346231073141098
1774790034132931600,4.013931640625,-0.15271618962287903,-0.000610864779446274,-0.06719512492418289
1774790034151457300,4.032457275390625,-0.2315177470445633,-0.3292561173439026,-0.017104214057326317
1774790034169983000,4.05098291015625,-0.18203771114349365,-0.5803215503692627,0.06536252796649933
1774790034188508700,4.0695087890625,-0.10629047453403473,-0.5705476999282837,0.15760311484336853
1774790034207034000,4.0880341796875,-0.07757982611656189,-0.35674503445625305,0.20647229254245758
1774790034225560000,4.10656005859375,-0.2101374864578247,-0.17104214429855347,0.07635809481143951
1774790034244085500,4.12508544921875,-0.37812530994415283,-0.053756099194288254,-0.10506874322891235
1774790034262611200,4.143611083984375,-0.4520399272441864,-0.11056652665138245,-0.205861434340477
1774790034281137000,4.162136962890625,-0.42882707715034485,-0.25961753726005554,-0.24984370172023773
1774790034299662600,4.18066259765625,-0.3799578845500946,-0.31031930446624756,-0.2559523284435272
1774790034318188300,4.199188232421875,-0.33719736337661743,-0.30543237924575806,-0.28527384996414185
1774790034336714000,4.2177138671875,-0.2516762912273407,-0.15088360011577606,-0.3170388340950012
1774790034355239700,4.23623974609375,-0.17898337543010712,0.000610864779446274,-0.2938259541988373
1774790034373765400,4.254765380859375,-0.07941242307424545,0.012217295356094837,-0.1905898153781891
1774790034392291000,4.273291015625,0.033597562462091446,-0.018325943499803543,-0.06352993845939636
1774790034410816800,4.291816650390625,0.007941242307424545,-0.0818558782339096,-0.08429934084415436
1774790034429342500,4.310342529296875,-0.10018182545900345,-0.07147117704153061,-0.22296564280986786
1774790034447868200,4.3288681640625,-0.15271618962287903,-0.1185077652335167,-0.3659079968929291
1774790034466393900,4.347393798828125,-0.1490510106086731,-0.1026252806186676,-0.37262752652168274
1774790034484919600,4.36591943359375,-0.11239911615848541,-0.02626718580722809,-0.2632827162742615
1774790034503445200,4.3844453125,-0.09834922850131989,0.05742128938436508,-0.08796452730894089
1774790034521971000,4.402970947265625,-0.14233149588108063,0.06719512492418289,0.015271619893610477
1774790034540496600,4.42149658203125,-0.12034036219120026,0.05925388261675835,-0.04764745384454727
1774790034559022600,4.440022705078125,-0.10873392969369888,0.07513637095689774,-0.20769402384757996
1774790034577548300,4.45854833984375,-0.1178968995809555,0.13194678723812103,-0.24556763470172882
1774790034596073700,4.47707373046875,-0.07269290834665298,0.0769689604640007,-0.1795942485332489
1774790034614599700,4.495599609375,0.03237583488225937,0.07880155742168427,-0.08124501258134842
1774790034633125400,4.51412548828125,0.07086031138896942,0.09407317638397217,0.08307760953903198
1774790034651651000,4.532651123046875,0.04886918142437935,0.07880155742168427,0.1905898153781891
1774790034670177000,4.551177001953125,0.06719512492418289,0.12583814561367035,0.19669845700263977
1774790034688702700,4.56970263671875,0.0818558782339096,0.30970844626426697,0.1533270627260208
1774790034707228400,4.588228515625,0.07574722915887833,0.5277871489524841,0.14233149588108063
1774790034725754000,4.606754150390625,0.11117739230394363,0.5192350745201111,0.1386663019657135
1774790034744280000,4.625280029296875,0.17043127119541168,0.20647229254245758,0.018325943499803543
1774790034762805800,4.6438056640625,0.16065743565559387,-0.15210533142089844,-0.13988803327083588
1774790034781331500,4.66233154296875,-0.023212861269712448,-0.24006985127925873,-0.3555232882499695
1774790034799857200,4.680857177734375,-0.14782927930355072,0.10751219838857651,-0.41233372688293457
1774790034818383000,4.699383056640625,-0.06414080411195755,0.4416552484035492,-0.19853104650974274
1774790034836908800,4.71790869140625,0.30115634202957153,0.5491674542427063,0.1484401375055313
1774790034855434800,4.736434814453125,0.5247328281402588,0.555276095867157,0.3848448097705841
1774790034873960400,4.75496044921875,0.4581485986709595,0.4612029194831848,0.44837474822998047
1774790034892486100,4.773486083984375,0.3341430425643921,0.2718348205089569,0.3970620930194855
1774790034911012000,4.79201220703125,0.3035998046398163,-0.0409279391169548,0.22663083672523499
1774790034929537800,4.810537841796875,0.41783151030540466,-0.143553227186203,0.021380268037319183
1774790034948063500,4.8290634765625,0.544891357421875,-0.11728604137897491,-0.08368847519159317
1774790034966589400,4.84758935546875,0.6053670048713684,-0.1185077652335167,-0.06597339361906052
1774790034985115400,4.866115478515625,0.4990765154361725,-0.2003636509180069,-0.11239911615848541
1774790035003641000,4.88464111328125,0.3530798554420471,-0.23518294095993042,-0.27366742491722107
1774790035022167000,4.9031669921875,0.27550002932548523,-0.13255766034126282,-0.37262752652168274
1774790035040692700,4.921692626953125,0.2467893660068512,-0.002443459117785096,-0.3585776388645172
1774790035059218700,4.94021875,0.25045454502105713,0.08491020649671555,-0.28466299176216125
1774790035077744400,4.958744384765625,0.27916520833969116,0.12950333952903748,-0.18753549456596375
1774790035096270300,4.977270263671875,0.23212862014770508,0.09407317638397217,-0.1905898153781891
1774790035114796000,4.995796142578125,0.21746785938739777,0.21807873249053955,-0.16859868168830872
1774790035133322000,5.014322021484375,0.18264856934547424,0.22174391150474548,-0.07757982611656189
1774790035151847700,5.03284765625,0.16676609218120575,0.02871064469218254,-0.014049889519810677
1774790035170373600,5.05137353515625,0.17104214429855347,-0.05070177838206291,0.07086031138896942
1774790035188899600,5.069899658203125,0.08674279600381851,-0.08552107214927673,0.05864302068948746
1774790035207425300,5.08842529296875,0.004276053514331579,-0.05558869615197182,-0.13194678723812103
1774790035225951200,5.106951171875,-0.012217295356094837,0.15149445831775665,-0.258395791053772
1774790035244477000,5.125476806640625,-0.04459312930703163,0.18203771114349365,-0.25411975383758545
1774790035263003000,5.1440029296875,-0.09040798991918564,-0.08613193035125732,-0.24312418699264526
1774790035281528800,5.16252880859375,-0.08796452730894089,-0.3017672002315521,-0.2577849328517914
1774790035300054800,5.1810546875,-0.09712749719619751,-0.35185810923576355,-0.2559523284435272
1774790035318580500,5.19958056640625,-0.16859868168830872,-0.235793799161911,-0.20952661335468292
1774790035346369500,5.22736962890625,-0.26389357447624207,-0.1233946830034256,-0.15515965223312378
1774790035364895200,5.245895263671875,-0.22907429933547974,-0.143553227186203,-0.1282816082239151
1774790035383421200,5.264421142578125,-0.11423171311616898,-0.1740964651107788,-0.010995565913617611
1774790035401947100,5.282947021484375,-0.02932151034474373,-0.14538581669330597,0.1490510106086731
1774790035420473000,5.30147314453125,-0.012217295356094837,-0.17104214429855347,0.17592905461788177
1774790035438999000,5.3199990234375,-0.056810423731803894,-0.30054548382759094,-0.030543239787220955
1774790035457524700,5.338524658203125,-0.1637117564678192,-0.277332603931427,-0.2919933497905731
1774790035476050700,5.35705078125,-0.3084867000579834,-0.20158538222312927,-0.471587598323822
1774790035494576600,5.37557666015625,-0.36835145950317383,-0.17287473380565643,-0.35063639283180237
1774790035513102600,5.3941025390625,-0.23823726177215576,-0.1484401375055313,-0.05253437161445618
1774790035531628500,5.412628662109375,-0.16004657745361328,-0.17715078592300415,0.17165300250053406
1774790035550154200,5.431154296875,-0.1899789422750473,-0.2932150959968567,0.12095122784376144
1774790035568680200,5.44968017578125,-0.24251331388950348,-0.2657261788845062,-0.08674279600381851
1774790035587206100,5.4682060546875,-0.2987128794193268,-0.20708316564559937,-0.19914191961288452
1774790035605732000,5.486732177734375,-0.2761108875274658,-0.17348559200763702,-0.1288924664258957
1774790035624258000,5.505258056640625,-0.2406807243824005,-0.09529490768909454,-0.007330377586185932
1774790035642784000,5.523783935546875,-0.29138249158859253,0.001221729558892548,0.08796452730894089
1774790035661310000,5.54231005859375,-0.34147340059280396,0.03848448023200035,0.07757982611656189
1774790035679836000,5.5608359375,-0.28954991698265076,0.11362084746360779,0.043982263654470444
1774790035698361900,5.57936181640625,-0.21991132199764252,0.15271618962287903,-0.014660755172371864
1774790035716887800,5.5978876953125,-0.09957095980644226,0.1692095398902893,-0.06597339361906052
1774790035735413800,5.616413818359375,0.001221729558892548,0.12034036219120026,-0.11667517572641373
1774790035753939700,5.634939697265625,0.03787361457943916,0.13011419773101807,-0.10079269111156464
1774790035772465700,5.653465576171875,0.056810423731803894,0.16065743565559387,-0.012217295356094837
1774790035790991600,5.67199169921875,0.07574722915887833,0.10079269111156464,-0.0513126403093338
1774790035809517600,5.690517578125,0.08368847519159317,0.19853104650974274,-0.1233946830034256
1774790035828043500,5.70904345703125,0.029932374134659767,0.28588470816612244,-0.17837251722812653
1774790035846569500,5.727569580078125,0.06291907280683517,0.27977606654167175,-0.18814635276794434
1774790035865095700,5.746095703125,0.15088360011577606,0.3249800503253937,-0.11362084746360779
1774790035883621600,5.76462158203125,0.2052505612373352,0.33047783374786377,0.009162971749901772
1774790035902147600,5.783147705078125,0.2406807243824005,0.20341797173023224,0.10384701192378998
1774790035920673500,5.801673583984375,0.29077163338661194,0.08491020649671555,0.14660754799842834
1774790035939199500,5.820199462890625,0.30115634202957153,-0.05436696484684944,0.11362084746360779
1774790035957725400,5.838725341796875,0.258395791053772,-0.03909534588456154,0.07819069176912308
1774790035976251600,5.857251708984375,0.14721840620040894,0.15027274191379547,0.04581485688686371
1774790035994777300,5.87577734375,0.1233946830034256,0.2156352698802948,0.0922405794262886
1774790036013303600,5.894303466796875,0.19303326308727264,0.23518294095993042,0.25473061203956604
1774790036031829500,5.91282958984375,0.23396120965480804,0.3176496922969818,0.43493571877479553
1774790036050355500,5.93135546875,0.2657261788845062,0.49968740344047546,0.500298261642456
1774790036068881400,5.94988134765625,0.27916520833969116,0.4667007029056549,0.2834412455558777
1774790036087407600,5.96840771484375,0.21319180727005005,0.11423171311616898,-0.15027274191379547
1774790036105933600,5.98693359375,0.017104214057326317,-0.258395791053772,-0.5907062292098999
1774790036124459500,6.00545947265625,-0.06597339361906052,-0.20891575515270233,-0.5705476999282837
1774790036142985500,6.0239853515625,0.027488915249705315,0.2156352698802948,-0.1795942485332489
1774790036161511700,6.04251171875,0.31520622968673706,0.6444623470306396,0.3555232882499695
1774790036180037600,6.06103759765625,0.5064069032669067,0.6548470258712769,0.5601630210876465
1774790036198563800,6.079563720703125,0.6646208763122559,0.37262752652168274,0.42455101013183594
1774790036217089500,6.098089599609375,0.8533781170845032,0.10934479534626007,0.2706131041049957
1774790036235615700,6.11661572265625,0.8930842876434326,-0.04153880476951599,0.2571740746498108
1774790036254141700,6.1351416015625,0.7935133576393127,-0.17226386070251465,0.3176496922969818
1774790036272668000,6.15366796875,0.6615665555000305,-0.27427828311920166,0.33169957995414734
1774790036291193900,6.17219384765625,0.5308414697647095,-0.19853104650974274,0.2419024556875229
1774790036309719800,6.1907197265625,0.3842339515686035,0.08063415437936783,0.12278381735086441
1774790036328246000,6.20924609375,0.20463970303535461,0.31459537148475647,-0.0054977829568088055
1774790036346772000,6.22777197265625,0.059864748269319534,0.3903425931930542,-0.11362084746360779
1774790036365298200,6.246298095703125,-0.017715077847242355,0.28527384996414185,-0.16065743565559387
1774790036383824100,6.26482421875,-0.018325943499803543,0.08613193035125732,-0.16676609218120575
1774790036402350000,6.28335009765625,0.03298669680953026,-0.10140355676412582,-0.14172062277793884
1774790036420876300,6.301876220703125,0.08124501258134842,-0.0769689604640007,-0.07024945318698883
1774790036439402200,6.32040234375,0.036651886999607086,0.000610864779446274,-0.09590577334165573
1774790036457928400,6.338928466796875,0.018325943499803543,0.037262752652168274,-0.12705987691879272
1774790036476454400,6.357454345703125,-0.027488915249705315,0.037262752652168274,-0.12705987691879272
1774790036494980600,6.375980712890625,-0.09712749719619751,-0.13683371245861053,-0.19242240488529205
1774790036513506600,6.394506591796875,-0.18387030065059662,-0.3017672002315521,-0.26450446248054504
1774790036532032800,6.41303271484375,-0.30543237924575806,-0.22418737411499023,-0.2675587832927704
1774790036550558700,6.431558837890625,-0.3756818473339081,-0.14110976457595825,-0.28466299176216125
1774790036569084700,6.450084716796875,-0.27488914132118225,-0.10018182545900345,-0.268169641494751
1774790036587611000,6.46861083984375,-0.13744457066059113,-0.07330377399921417,-0.2364046722650528
1774790036606136800,6.48713671875,-0.12705987691879272,-0.22785256803035736,-0.235793799161911
1774790036624663000,6.5056630859375,-0.22418737411499023,-0.24006985127925873,-0.13133592903614044
1774790036643189200,6.524189208984375,-0.3225366175174713,-0.1893680840730667,0.04581485688686371
1774790036661715200,6.542715087890625,-0.24251331388950348,-0.0818558782339096,0.2162461280822754
1774790036680241400,6.561241455078125,-0.13622283935546875,-0.09529490768909454,0.2205221801996231
1774790036698767400,6.579767333984375,-0.1997527778148651,-0.4068359434604645,-0.02626718580722809
1774790036717293600,6.59829345703125,-0.4166097939014435,-0.6255255341529846,-0.35124725103378296
1774790036735819800,6.61681982421875,-0.6316341757774353,-0.47097674012184143,-0.39828383922576904
1774790036754345700,6.635345703125,-0.6652317643165588,-0.1747073233127594,-0.0769689604640007
1774790036772872000,6.653871826171875,-0.3995055556297302,0.010384701192378998,0.39828383922576904
1774790036791398000,6.67239794921875,-0.08674279600381851,-0.04214967042207718,0.6939423680305481
1774790036809924000,6.690924072265625,0.013439024798572063,-0.3341430425643921,0.6340776681900024
1774790036828450000,6.709449951171875,-0.08307760953903198,-0.5674933791160583,0.36651885509490967
1774790036846976300,6.727976318359375,-0.28588470816612244,-0.49113526940345764,0.12095122784376144
1774790036865502500,6.74650244140625,-0.4728093445301056,-0.27488914132118225,-0.020158538594841957
1774790036884028400,6.7650283203125,-0.49541133642196655,-0.11239911615848541,-0.011606430634856224
1774790036902554600,6.7835546875,-0.39767298102378845,-0.10201441496610641,0.07757982611656189
1774790036921080600,6.80208056640625,-0.3543015718460083,-0.20830489695072174,0.08429934084415436
1774790036939606800,6.820606689453125,-0.37690356373786926,-0.18203771114349365,-0.036651886999607086
1774790036958133000,6.839133056640625,-0.4269944727420807,-0.006108647678047419,-0.1997527778148651
1774790036976659000,6.857658935546875,-0.39889469742774963,0.11667517572641373,-0.3237583339214325
1774790036995185200,6.87618505859375,-0.20158538222312927,0.13072505593299866,-0.3591884970664978
1774790037013711400,6.89471142578125,0.001832594396546483,0.01893680728971958,-0.30543237924575806
1774790037032237600,6.913237548828125,0.06108647957444191,-0.12217295914888382,-0.16065743565559387
1774790037050763500,6.931763427734375,-0.05192350596189499,-0.15760311484336853,-0.03909534588456154
1774790037069289700,6.950289794921875,-0.1588248461484909,-0.08002328872680664,-0.034208428114652634
1774790037087815700,6.968815673828125,-0.2156352698802948,0.09285144507884979,-0.1533270627260208
1774790037106342000,6.987341796875,-0.17715078592300415,0.27000224590301514,-0.2565632164478302
1774790037124868000,7.0058681640625,-0.07635809481143951,0.26939135789871216,-0.31093016266822815
1774790037143394300,7.024394287109375,0.03176496922969818,0.18142683804035187,-0.2467893660068512
1774790037161920300,7.042920166015625,0.05803215503692627,0.07941242307424545,-0.11911863088607788
1774790037180446500,7.061446533203125,0.08002328872680664,0.049480047076940536,0.006108647678047419
1774790037198972700,7.07997265625,0.10323614627122879,0.05436696484684944,0.06108647957444191
1774790037217499000,7.098498779296875,0.1233946830034256,0.14538581669330597,0.11423171311616898
1774790037236025000,7.117025146484375,0.12034036219120026,0.11728604137897491,0.14233149588108063
1774790037254551000,7.135551025390625,0.12950333952903748,-0.004276053514331579,0.1386663019657135
1774790037273077200,7.1540771484375,0.13011419773101807,0.007941242307424545,0.1081230640411377
1774790037291603500,7.172603515625,0.14477495849132538,0.33169957995414734,0.185092031955719
1774790037310129400,7.19112939453125,0.20402882993221283,0.7360920310020447,0.3078758418560028
1774790037328655600,7.209655517578125,0.235793799161911,0.7202095985412598,0.24251331388950348
1774790037347181800,7.228181884765625,0.18753549456596375,0.017715077847242355,-0.06536252796649933
1774790037365708000,7.2467080078125,0.11911863088607788,-0.7367029190063477,-0.47952884435653687
1774790037384234200,7.265234130859375,0.07330377399921417,-0.638353705406189,-0.5387827157974243
1774790037402760200,7.28376025390625,0.015271619893610477,0.12705987691879272,-0.14172062277793884
1774790037421286400,7.302286376953125,0.09468404203653336,0.8258891701698303,0.3072649836540222
1774790037439812600,7.3208125,0.3280344009399414,0.9639446139335632,0.4764745235443115
1774790037458338800,7.3393388671875,0.4770853817462921,0.6371319890022278,0.34574946761131287
1774790037476865000,7.357864990234375,0.4740310609340668,0.20341797173023224,0.15515965223312378
1774790037495391200,7.37639111328125,0.45875945687294006,-0.05192350596189499,0.08674279600381851
1774790037513917200,7.394917236328125,0.4819723069667816,-0.1337793916463852,0.11239911615848541
1774790037532443400,7.413443359375,0.5082395076751709,-0.09407317638397217,0.15821397304534912
1774790037550969600,7.431969482421875,0.5406153202056885,-0.014660755172371864,0.18570289015769958
1774790037569495800,7.450495849609375,0.5613847374916077,0.06902772188186646,0.24006985127925873
1774790037588021800,7.469021728515625,0.4935787320137024,0.1441640853881836,0.30970844626426697
1774790037606548000,7.4875478515625,0.3591884970664978,0.2528980076313019,0.3231474757194519
1774790037625074200,7.50607421875,0.23884813487529755,0.3756818473339081,0.2761108875274658
1774790037643600400,7.524600341796875,0.14172062277793884,0.40255987644195557,0.1539379209280014
1774790037662126600,7.543126708984375,0.10323614627122879,0.31581708788871765,0.009773836471140385
1774790037680652800,7.56165283203125,0.08979712426662445,0.08613193035125732,-0.10995566099882126
1774790037699179000,7.580178955078125,0.08368847519159317,-0.13072505593299866,-0.15515965223312378
1774790037717705000,7.598705078125,0.014660755172371864,-0.19303326308727264,-0.20952661335468292
1774790037736231200,7.617231201171875,-0.06902772188186646,-0.08063415437936783,-0.2516762912273407
1774790037754757400,7.63575732421875,-0.14049890637397766,-0.10079269111156464,-0.3023780584335327
1774790037773283600,7.65428369140625,-0.17287473380565643,-0.17104214429855347,-0.3292561173439026
1774790037791809800,7.672809814453125,-0.20158538222312927,-0.2419024556875229,-0.33047783374786377
1774790037810336000,7.6913359375,-0.19120067358016968,-0.2828303873538971,-0.2528980076313019
1774790037828862200,7.7098623046875,-0.16554436087608337,-0.37629270553588867,-0.2052505612373352
1774790037847388400,7.728388427734375,-0.11667517572641373,-0.2730565667152405,-0.14477495849132538
1774790037865914400,7.746914306640625,-0.17165300250053406,-0.0977383628487587,-0.11972949653863907
1774790037884440600,7.765440673828125,-0.30970844626426697,-0.03298669680953026,-0.18264856934547424
1774790037902966800,7.783966796875,-0.40866854786872864,-0.09957095980644226,-0.29077163338661194
1774790037921493000,7.802492919921875,-0.37323838472366333,-0.15699224174022675,-0.3426951467990875
1774790037940019200,7.821019287109375,-0.2412915825843811,-0.1331685185432434,-0.3329212963581085
1774790037958545400,7.83954541015625,-0.21258094906806946,-0.1649334877729416,-0.30970844626426697
1774790037977071600,7.858071533203125,-0.39278605580329895,-0.45326167345046997,-0.3897317349910736
1774790037995597800,7.876597900390625,-0.5955931544303894,-0.7538071274757385,-0.5809323787689209
1774790038014124000,7.8951240234375,-0.5968148708343506,-0.6139190793037415,-0.5326740741729736
1774790038032650000,7.91364990234375,-0.3744601011276245,-0.16554436087608337,-0.1386663019657135
1774790038051176400,7.932176513671875,-0.01954767294228077,0.17592905461788177,0.38728827238082886
1774790038069702400,7.950702392578125,0.3029889166355133,0.1282816082239151,0.6792816519737244
1774790038088228600,7.969228515625,0.37201663851737976,-0.16126830875873566,0.5406153202056885
1774790038106754800,7.9877548828125,0.0824667438864708,-0.3903425931930542,0.1441640853881836
1774790038125281000,8.006281005859375,-0.3500255048274994,-0.3842339515686035,-0.14294235408306122
1774790038143807200,8.02480712890625,-0.5974257588386536,-0.2938259541988373,-0.14782927930355072
1774790038162333400,8.04333349609375,-0.544891357421875,-0.143553227186203,0.039706211537122726
1774790038180859600,8.061859619140625,-0.4056142270565033,0.050090912729501724,0.1954767256975174
1774790038199385900,8.0803857421875,-0.389120876789093,0.2370155304670334,0.19242240488529205
1774790038217912000,8.098912109375,-0.4575377106666565,0.33231043815612793,0.028099779039621353
1774790038236438300,8.117438232421875,-0.4563159942626953,0.3799578845500946,-0.13011419773101807
1774790038254964500,8.135964599609375,-0.34147340059280396,0.3035998046398163,-0.15821397304534912
1774790038273490700,8.15449072265625,-0.2003636509180069,0.0769689604640007,-0.08613193035125732
1774790038292017000,8.173016845703126,-0.07391463965177536,-0.10567960888147354,-0.0030543238390237093
1774790038310543000,8.191543212890625,-0.020769402384757996,-0.09957095980644226,0.07269290834665298
1774790038329069300,8.2100693359375,-0.08429934084415436,0.050090912729501724,0.10506874322891235
1774790038347595500,8.228595458984374,-0.16187916696071625,0.1233946830034256,0.006719512399286032
1774790038366121700,8.247121826171876,-0.11423171311616898,0.03787361457943916,-0.13133592903614044
1774790038384648000,8.26564794921875,-0.018325943499803543,-0.09957095980644226,-0.18570289015769958
1774790038403174100,8.284174072265625,0.049480047076940536,-0.08552107214927673,-0.05864302068948746
1774790038421700400,8.302700439453124,0.07024945318698883,0.04581485688686371,0.12522727251052856
1774790038440226600,8.3212265625,0.06047561392188072,0.11117739230394363,0.2003636509180069
1774790038458752800,8.339752685546875,0.07757982611656189,0.03481929376721382,0.2003636509180069
1774790038477279000,8.358279052734375,0.09468404203653336,-0.17715078592300415,0.16065743565559387
1774790038495805200,8.37680517578125,0.10995566099882126,-0.2052505612373352,0.12156209349632263
1774790038514331400,8.395331298828125,0.1545487940311432,0.0922405794262886,0.1282816082239151
1774790038532857600,8.413857666015625,0.2260199636220932,0.43921178579330444,0.16615521907806396
1774790038551383800,8.4323837890625,0.29016077518463135,0.7599157691001892,0.20952661335468292
1774790038569910000,8.450909912109376,0.28954991698265076,0.7531962990760803,0.12522727251052856
1774790038588436200,8.469436279296875,0.12705987691879272,0.11056652665138245,-0.25961753726005554
1774790038606962400,8.48796240234375,-0.07574722915887833,-0.42943793535232544,-0.7293725609779358
1774790038625488600,8.506488525390624,-0.2315177470445633,-0.36163195967674255,-0.943786084651947
1774790038644014800,8.525014892578126,-0.15577052533626556,0.3243691921234131,-0.711046576499939
1774790038662541000,8.543541015625,0.12400554865598679,0.9511164426803589,-0.2883281707763672
1774790038681067300,8.5620673828125,0.4373791813850403,1.0036507844924927,-0.04459312930703163
1774790038699593500,8.580593505859374,0.7617483735084534,0.6340776681900024,0.026878049597144127
1774790038718119700,8.59911962890625,0.962722897529602,0.16737695038318634,0.012217295356094837
1774790038736646000,8.61764599609375,0.925460159778595,-0.1081230640411377,-0.006108647678047419
1774790038755172000,8.636172119140625,0.7599157691001892,-0.2461785078048706,0.001832594396546483
1774790038773698300,8.6546982421875,0.6365211009979248,-0.2559523284435272,0.04153880476951599
1774790038792224800,8.673224853515626,0.583375871181488,-0.12095122784376144,0.09101885557174683
1774790038810750700,8.691750732421875,0.6010909676551819,0.09101885557174683,0.20402882993221283
1774790038829277000,8.71027685546875,0.5632173418998718,0.23212862014770508,0.32009315490722656
1774790038847803400,8.728803466796874,0.3756818473339081,0.2364046722650528,0.32131487131118774
1774790038866329600,8.74732958984375,0.21807873249053955,0.1588248461484909,0.27550002932548523
1774790038884855800,8.765855712890625,0.1484401375055313,-0.001221729558892548,0.2107483446598053
1774790038903382000,8.784382080078124,0.1740964651107788,-0.04153880476951599,0.20647229254245758
1774790038921908200,8.802908203125,0.3078758418560028,-0.10934479534626007,0.13561198115348816
1774790038940434400,8.821434326171875,0.34636032581329346,-0.2883281707763672,0.024434590712189674
1774790038958960600,8.839960693359375,0.205861434340477,-0.164322629570961,-0.014660755172371864
1774790038977486800,8.85848681640625,-0.008552107028663158,-0.046425722539424896,-0.07880155742168427
1774790038996013000,8.877012939453126,-0.14110976457595825,0.017104214057326317,-0.164322629570961
1774790039014539300,8.895539306640625,-0.1740964651107788,-0.06841685622930527,-0.19853104650974274
1774790039033065500,8.9140654296875,-0.19669845700263977,-0.1893680840730667,-0.17898337543010712
1774790039051592000,8.932592041015624,-0.18264856934547424,-0.28588470816612244,-0.10140355676412582
1774790039070118100,8.9511181640625,-0.17348559200763702,-0.2712239623069763,-0.08491020649671555
1774790039088644400,8.969644287109375,-0.19303326308727264,-0.11911863088607788,-0.13133592903614044
1774790039107170600,8.988170654296875,-0.25473061203956604,0.004276053514331579,-0.185092031955719
1774790039125696800,9.00669677734375,-0.29016077518463135,-0.04214967042207718,-0.16676609218120575
1774790039144223000,9.025222900390625,-0.2467893660068512,-0.1637117564678192,-0.056810423731803894
1774790039162749200,9.043749267578125,-0.09407317638397217,-0.12217295914888382,0.16676609218120575
1774790039181275400,9.062275390625,-0.021380268037319183,-0.013439024798572063,0.32620179653167725
1774790039199801900,9.0808017578125,-0.20952661335468292,-0.3194822669029236,0.14110976457595825
1774790039218328000,9.099328125,-0.5137372612953186,-0.555276095867157,-0.258395791053772
1774790039236854300,9.117854248046875,-0.667064368724823,-0.3750709891319275,-0.4214966893196106
1774790039255380500,9.13638037109375,-0.5674933791160583,0.0513126403093338,-0.1649334877729416
1774790039273906700,9.15490673828125,-0.29504770040512085,0.2889390289783478,0.27550002932548523
1774790039292433000,9.173432861328125,-0.04886918142437935,0.10201441496610641,0.5271763205528259
1774790039310959400,9.19195947265625,0.027488915249705315,-0.19730933010578156,0.4728093445301056
1774790039329485600,9.210485595703124,-0.13683371245861053,-0.2809978127479553,0.18814635276794434
1774790039348011800,9.22901171875,-0.3549124300479889,-0.17592905461788177,-0.0616973415017128
1774790039366538000,9.2475380859375,-0.3787361681461334,-0.0256563201546669,-0.08429934084415436
1774790039385064200,9.266064208984375,-0.2620609998703003,0.000610864779446274,0.07330377399921417
1774790039403590400,9.28459033203125,-0.23335035145282745,-0.05803215503692627,0.2003636509180069
1774790039422116900,9.303116943359376,-0.35124725103378296,-0.08979712426662445,0.16676609218120575
1774790039440642800,9.321642822265625,-0.472198486328125,-0.006108647678047419,-0.017104214057326317
1774790039459169000,9.3401689453125,-0.4043924808502197,0.15821397304534912,-0.164322629570961
1774790039477695500,9.358695556640624,-0.21135921776294708,0.25045454502105713,-0.205861434340477
1774790039496221700,9.3772216796875,-0.043982263654470444,0.17653992772102356,-0.13011419773101807
1774790039514748000,9.395747802734375,0.013439024798572063,0.010995565913617611,-0.03237583488225937
1774790039533274000,9.414274169921875,-0.0054977829568088055,-0.1282816082239151,-0.010995565913617611
1774790039551800300,9.43280029296875,-0.06047561392188072,-0.13439024984836578,-0.0922405794262886
1774790039570326500,9.451326416015625,-0.1233946830034256,-0.030543239787220955,-0.2571740746498108
1774790039588853500,9.469853515625,-0.08063415437936783,0.11728604137897491,-0.3127627670764923
1774790039607379200,9.488379150390625,0.017715077847242355,0.22174391150474548,-0.18570289015769958
1774790039625905400,9.506905517578126,0.13439024984836578,0.22296564280986786,0.05253437161445618
1774790039644431600,9.525431640625,0.20647229254245758,0.07880155742168427,0.22296564280986786
1774790039662957800,9.543957763671875,0.22235478460788727,0.03543015569448471,0.2926042377948761
1774790039681484000,9.562484130859374,0.185092031955719,-0.007941242307424545,0.22724169492721558
1774790039700010500,9.581010498046876,0.17531819641590118,-0.010384701192378998,0.13744457066059113
1774790039718536700,9.59953662109375,0.18875721096992493,0.04520399495959282,0.07024945318698883
1774790039737063000,9.61806298828125,0.21319180727005005,0.22724169492721558,0.08002328872680664
1774790039755589000,9.636589111328124,0.21868959069252014,0.4508182108402252,0.1380554437637329
1774790039774115600,9.655115478515626,0.2767217457294464,0.711046576499939,0.2663370370864868
1774790039792641800,9.673641845703125,0.3799578845500946,0.8472694754600525,0.3341430425643921
1774790039811168000,9.69216796875,0.40378162264823914,0.4159989058971405,0.09712749719619751
1774790039829694200,9.710694091796874,0.28038692474365234,-0.24801109731197357,-0.3402516841888428
1774790039848220400,9.729220458984376,0.1484401375055313,-0.4917461574077606,-0.5894845128059387
1774790039866746600,9.74774658203125,0.16615521907806396,-0.06841685622930527,-0.4251618981361389
1774790039885273000,9.766273193359375,0.3848448097705841,0.6065887212753296,0.007941242307424545
1774790039903799300,9.78479931640625,0.6133082509040833,0.7538071274757385,0.24801109731197357
1774790039922325500,9.803325439453126,0.7861829996109009,0.33047783374786377,0.18631376326084137
1774790039940851700,9.821851806640625,0.8491020202636719,-0.1594357043504715,0.07086031138896942
1774790039959378200,9.840378173828125,0.8521563410758972,-0.28588470816612244,0.10934479534626007
1774790039977904400,9.858904296875,0.8619301915168762,-0.2260199636220932,0.21319180727005005
1774790039996430600,9.8774306640625,0.8955277800559998,-0.05803215503692627,0.2828303873538971
1774790040014956800,9.895956787109375,0.8454368710517883,0.12217295914888382,0.23945899307727814
1774790040033483000,9.91448291015625,0.7079922556877136,0.3139844834804535,0.14294235408306122
1774790040052009200,9.93300927734375,0.5320632457733154,0.44470956921577454,0.11239911615848541
1774790040070535700,9.95153564453125,0.3500255048274994,0.4679224193096161,0.1337793916463852
1774790040089062000,9.970061767578125,0.2614501118659973,0.42455101013183594,0.16310089826583862
1774790040107588000,9.988588134765624,0.2761108875274658,0.337808221578598,0.1588248461484909
1774790040126114600,10.007114501953126,0.29016077518463135,0.11911863088607788,0.05070177838206291
1774790040144640800,10.025640869140625,0.2889390289783478,-0.03481929376721382,-0.03543015569448471
1774790040163167000,10.0441669921875,0.23457208275794983,-0.0409279391169548,-0.08613193035125732
1774790040181693200,10.062693115234374,0.17531819641590118,0.003665188793092966,-0.13072505593299866
1774790040200219400,10.081219482421876,0.0977383628487587,0.01588248461484909,-0.2559523284435272
1774790040218745900,10.099745849609375,-0.023212861269712448,-0.014049889519810677,-0.4214966893196106
1774790040237272000,10.11827197265625,-0.10690133273601532,-0.17348559200763702,-0.45020735263824463
1774790040255798300,10.13679833984375,-0.11239911615848541,-0.3127627670764923,-0.30482152104377747
1774790040274324500,10.155324462890626,-0.13133592903614044,-0.258395791053772,-0.12400554865598679
1774790040292850700,10.1738505859375,-0.21930044889450073,-0.11606431007385254,-0.043982263654470444
1774790040311377200,10.192377197265625,-0.25534147024154663,-0.07024945318698883,-0.020158538594841957
1774790040329903400,10.2109033203125,-0.24434591829776764,-0.05192350596189499,0.009773836471140385
1774790040348429600,10.2294296875,-0.2877173125743866,-0.14049890637397766,-0.004886918235570192
1774790040366955800,10.247955810546875,-0.31154105067253113,-0.22296564280986786,-0.05803215503692627
1774790040385482200,10.266482177734375,-0.3133736252784729,-0.21746785938739777,-0.06719512492418289
1774790040404008400,10.285008544921874,-0.3347539007663727,-0.08918625861406326,0.007330377586185932
1774790040422534700,10.30353466796875,-0.33597561717033386,-0.04764745384454727,0.02932151034474373
1774790040441060900,10.322060791015625,-0.3756818473339081,-0.30543237924575806,-0.14294235408306122
1774790040459587300,10.34058740234375,-0.5259546041488647,-0.5253437161445618,-0.47525280714035034
1774790040478113500,10.359113525390624,-0.6444623470306396,-0.48502662777900696,-0.648127555847168
1774790040496639700,10.3776396484375,-0.6047561168670654,-0.32192572951316833,-0.48013970255851746
1774790040515166000,10.396166015625,-0.4111120104789734,-0.13439024984836578,-0.08796452730894089
1774790040533692200,10.414692138671874,-0.14599667489528656,0.010995565913617611,0.3610210716724396
1774790040552218600,10.433218505859376,-0.05864302068948746,-0.0818558782339096,0.5235111117362976
1774790040570744800,10.451744873046875,-0.13439024984836578,-0.3543015718460083,0.33536475896835327
1774790040589271000,10.47027099609375,-0.20402882993221283,-0.42394015192985535,0.14782927930355072
1774790040607797200,10.48879736328125,-0.2993237376213074,-0.30970844626426697,0.11423171311616898
1774790040626323700,10.50732373046875,-0.38850998878479004,-0.1337793916463852,0.17043127119541168
1774790040644850000,10.525849853515625,-0.4098902642726898,0.023212861269712448,0.2101374864578247
1774790040663376100,10.544376220703125,-0.4728093445301056,0.1905898153781891,0.1539379209280014
1774790040681902300,10.56290234375,-0.565049946308136,0.2315177470445633,0.04581485688686371
1774790040700428500,10.581428466796876,-0.6114756464958191,0.10323614627122879,-0.05803215503692627
1774790040718954800,10.599954833984375,-0.5283980369567871,-0.01649334840476513,-0.09101885557174683
1774790040737481200,10.618481201171875,-0.35613417625427246,-0.06047561392188072,-0.017715077847242355
1774790040756007400,10.63700732421875,-0.16676609218120575,-0.10567960888147354,0.04825831577181816
1774790040774533600,10.65553369140625,-0.0824667438864708,-0.08491020649671555,-0.01282816007733345
1774790040793059800,10.674059814453125,-0.1380554437637329,0.04276053607463837,-0.1026252806186676
1774790040811586300,10.69258642578125,-0.2315177470445633,0.14599667489528656,-0.10873392969369888
1774790040830112500,10.711112548828124,-0.20341797173023224,0.05558869615197182,-0.07452550530433655
1774790040848638700,10.729638671875,-0.014660755172371864,0.03298669680953026,0.017104214057326317
1774790040867165000,10.7481650390625,0.08918625861406326,0.07269290834665298,0.08613193035125732
1774790040885691100,10.766691162109375,0.0818558782339096,0.13072505593299866,0.12644900381565094
1774790040904217300,10.78521728515625,0.09346231073141098,0.14233149588108063,0.15760311484336853
1774790040922743800,10.803743896484375,0.10873392969369888,0.1802051067352295,0.143553227186203
1774790040941270000,10.82227001953125,0.10140355676412582,0.25350889563560486,0.09162971377372742
1774790040959796200,10.840796142578125,0.14049890637397766,0.2309068888425827,0.08063415437936783
1774790040978322400,10.859322509765626,0.1533270627260208,0.11728604137897491,0.1026252806186676
1774790040996848600,10.8778486328125,0.06963858753442764,0.0720820426940918,0.11178825795650482
1774790041015374800,10.896374755859375,-0.031154103577136993,0.16249002516269684,0.11117739230394363
1774790041033901300,10.9149013671875,-0.03909534588456154,0.38240134716033936,0.14049890637397766
1774790041052427500,10.933427490234376,0.0616973415017128,0.6688969135284424,0.16249002516269684
1774790041070953700,10.95195361328125,0.26511532068252563,0.8087849617004395,0.17287473380565643
1774790041089480000,10.97047998046875,0.4324922561645508,0.4972439408302307,0.029932374134659767
1774790041108006100,10.989006103515624,0.34574946761131287,-0.009162971749901772,-0.23518294095993042
1774790041126532400,11.007532470703126,-0.01588248461484909,-0.4013381600379944,-0.49602219462394714
1774790041145058800,11.026058837890625,-0.24006985127925873,-0.14294235408306122,-0.40378162264823914
1774790041163585000,11.0445849609375,-0.16004657745361328,0.47525280714035034,-0.018325943499803543
1774790041182111200,11.063111328125,0.12767073512077332,0.7654135823249817,0.33047783374786377
1774790041200637400,11.081637451171876,0.47525280714035034,0.656679630279541,0.4923570156097412
1774790041219163600,11.10016357421875,0.7195987105369568,0.35674503445625305,0.49663305282592773
1774790041237689900,11.11868994140625,0.7916807532310486,0.04764745384454727,0.4880809485912323
1774790041256216300,11.13721630859375,0.6811142563819885,-0.32620179653167725,0.4581485986709595
1774790041274742300,11.1557421875,0.5186241865158081,-0.516791582107544,0.5149590373039246
1774790041293268700,11.174268798828125,0.33108872175216675,-0.5900954008102417,0.5229002237319946
1774790041311795000,11.192794921875,0.15699224174022675,-0.4068359434604645,0.4612029194831848
1774790041330321200,11.211321044921876,-0.020158538594841957,-0.010995565913617611,0.38728827238082886
1774790041348847400,11.229847412109375,-0.1698204129934311,0.31459537148475647,0.29077163338661194
1774790041367373600,11.24837353515625,-0.20280711352825165,0.48441576957702637,0.23029601573944092
1774790041385899800,11.266899658203124,-0.1692095398902893,0.31642794609069824,0.20463970303535461
1774790041404426000,11.285426025390626,-0.11117739230394363,0.031154103577136993,0.2370155304670334
1774790041422952400,11.303952392578125,-0.1282816082239151,-0.2522871494293213,0.24556763470172882
1774790041441478400,11.322478515625,-0.21319180727005005,-0.3347539007663727,0.2052505612373352
1774790041460004900,11.3410048828125,-0.33047783374786377,-0.2993237376213074,0.11545344442129135
1774790041478531000,11.359531005859376,-0.44898560643196106,-0.22357651591300964,-0.04153880476951599
1774790041497057300,11.378057373046875,-0.5601630210876465,-0.26878049969673157,-0.30604326725006104
1774790041515583500,11.39658349609375,-0.6084213256835938,-0.2987128794193268,-0.5033525824546814
1774790041534109700,11.415109619140624,-0.6493492722511292,-0.2718348205089569,-0.5772672295570374
1774790041552636000,11.433635986328126,-0.6817250847816467,-0.10873392969369888,-0.6065887212753296
1774790041571162000,11.452162109375,-0.6352993845939636,0.010995565913617611,-0.5913171172142029
1774790041589688300,11.470688232421875,-0.5919279456138611,0.03481929376721382,-0.5510000586509705
1774790041608214500,11.489214599609374,-0.6126973628997803,0.004886918235570192,-0.48930269479751587
1774790041626741000,11.507740966796876,-0.6713404059410095,-0.10873392969369888,-0.4001164436340332
1774790041645267200,11.52626708984375,-0.7122683525085449,-0.2315177470445633,-0.2919933497905731
1774790041663793400,11.54479345703125,-0.6805033683776855,-0.3292561173439026,-0.17837251722812653
1774790041682319600,11.563319580078126,-0.5632173418998718,-0.337808221578598,0.020158538594841957
1774790041700845800,11.581845703125,-0.4361574649810791,-0.347582072019577,0.22968515753746033
1774790041719372000,11.6003720703125,-0.4147771894931793,-0.5882627964019775,0.24862197041511536
1774790041737898200,11.618898193359374,-0.5778780579566956,-1.0427461862564087,0.021380268037319183
1774790041756424400,11.637424560546876,-0.7220421433448792,-1.1313215494155884,-0.10201441496610641
1774790041774950700,11.65595068359375,-0.7250964641571045,-0.813671886920929,0.04459312930703163
1774790041793476900,11.674476806640625,-0.5155698657035828,-0.39828383922576904,0.3842339515686035
1774790041812003000,11.693003173828124,-0.16615521907806396,-0.06475166976451874,0.7776308655738831
1774790041830529300,11.711529296875,-0.014049889519810677,-0.053145237267017365,0.9065233469009399
1774790041849055500,11.730055419921875,-0.07024945318698883,-0.35185810923576355,0.7324268817901611
1774790041867581700,11.748581787109375,-0.2761108875274658,-0.6316341757774353,0.43432486057281494
1774790041886108000,11.76710791015625,-0.4838049113750458,-0.675616443157196,0.19914191961288452
1774790041904634000,11.785634033203126,-0.583375871181488,-0.5674933791160583,0.11056652665138245
1774790041923160300,11.804160400390625,-0.6927206516265869,-0.42455101013183594,0.029932374134659767
1774790041941686500,11.8226865234375,-0.7874047160148621,-0.2809978127479553,-0.030543239787220955
1774790041960213000,11.841212890625,-0.8185588121414185,-0.15210533142089844,-0.024434590712189674
1774790041978739000,11.859739013671875,-0.7574723362922668,-0.01893680728971958,-0.003665188793092966
1774790041997265200,11.87826513671875,-0.5790998339653015,0.12217295914888382,0.01649334840476513
1774790042015791600,11.89679150390625,-0.3756818473339081,0.13622283935546875,0.015271619893610477
1774790042034317600,11.915317626953126,-0.2003636509180069,0.036651886999607086,0.021991131827235222
1774790042052844000,11.933843994140625,-0.08796452730894089,-0.06719512492418289,0.03481929376721382
1774790042071370000,11.952369873046875,-0.09346231073141098,-0.08002328872680664,-0.05192350596189499
1774790042089896400,11.970896484375,-0.13622283935546875,-0.05864302068948746,-0.2461785078048706
1774790042108422700,11.989422607421876,-0.09346231073141098,0.029932374134659767,-0.37629270553588867
1774790042126948900,12.007948974609375,-0.020769402384757996,0.007941242307424545,-0.4147771894931793
1774790042145475000,12.02647509765625,0.08796452730894089,0.023212861269712448,-0.3433060050010681
1774790042164001300,12.045001220703124,0.17531819641590118,0.043982263654470444,-0.2461785078048706
1774790042182527500,12.063527587890626,0.23396120965480804,0.1331685185432434,-0.13683371245861053
1774790042201053700,12.0820537109375,0.22907429933547974,0.22785256803035736,-0.07757982611656189
1774790042219579600,12.10057958984375,0.19425499439239502,0.24801109731197357,-0.08552107214927673
1774790042238106000,12.119106201171874,0.21502439677715302,0.14172062277793884,-0.08552107214927673
1774790042256632300,12.13763232421875,0.2565632164478302,0.004276053514331579,-0.043982263654470444
1774790042275158500,12.156158447265625,0.32009315490722656,-0.02932151034474373,0.06780599057674408
1774790042293684700,12.174684814453125,0.4172206521034241,0.08491020649671555,0.21930044889450073
1774790042312210700,12.193210693359376,0.5186241865158081,0.3341430425643921,0.3335321843624115
1774790042330737200,12.211737060546875,0.5955931544303894,0.6334667801856995,0.328645259141922
1774790042349263000,12.23026318359375,0.6530144214630127,0.8692606091499329,0.2632827162742615
1774790042367789600,12.24878955078125,0.6591231226921082,0.7153226733207703,-0.004886918235570192
1774790042386315800,12.267315673828126,0.48013970255851746,-0.08857539296150208,-0.5400044918060303
1774790042404841700,12.285841796875,0.26389357447624207,-0.730594277381897,-0.7409789562225342
1774790042423368200,12.3043681640625,0.03909534588456154,-0.4355465769767761,-0.2767217457294464
1774790042441894100,12.32289404296875,-0.002443459117785096,0.4831940531730652,0.3799578845500946
1774790042460420600,12.341420654296876,0.3426951467990875,0.9676098227500916,0.7709113359451294
1774790042478946600,12.359946533203125,0.7544180154800415,0.767857015132904,0.6365211009979248
1774790042497472800,12.37847265625,1.0097594261169434,0.27550002932548523,0.2675587832927704
1774790042515999000,12.3969990234375,1.0262528657913208,0.018325943499803543,0.0720820426940918
1774790042534525200,12.415525146484375,0.8820887207984924,0.06475166976451874,0.1594357043504715
1774790042553051400,12.434051513671875,0.7293725609779358,0.1490510106086731,0.3066541254520416
1774790042571577600,12.45257763671875,0.6456840634346008,0.12400554865598679,0.3249800503253937
1774790042590103800,12.471103759765626,0.5259546041488647,0.059864748269319534,0.16615521907806396
1774790042608630000,12.489630126953125,0.3384190797805786,0.06536252796649933,-0.039706211537122726
1774790042627156200,12.50815625,0.1747073233127594,0.17837251722812653,-0.10690133273601532
1774790042645682400,12.526682373046874,0.06841685622930527,0.2669478952884674,-0.06352993845939636
1774790042664208600,12.545208740234376,0.07391463965177536,0.2205221801996231,-0.003665188793092966
1774790042682734800,12.56373486328125,0.12095122784376144,0.059864748269319534,-0.0409279391169548
1774790042701261000,12.582260986328125,0.14049890637397766,-0.09101885557174683,-0.0873536616563797
1774790042719787300,12.600787353515624,0.08429934084415436,-0.08552107214927673,-0.047036588191986084
1774790042738313500,12.6193134765625,0,-0.06719512492418289,-0.009162971749901772
1774790042756839400,12.63783935546875,-0.017104214057326317,-0.12034036219120026,-0.0409279391169548
1774790042775366000,12.656365966796875,-0.006719512399286032,-0.23273947834968567,-0.2211330533027649
1774790042793891800,12.674891845703126,-0.007330377586185932,-0.22785256803035736,-0.39767298102378845
1774790042812418300,12.693418212890625,-0.11484257876873016,-0.21197007596492767,-0.48441576957702637
1774790042830944300,12.7119443359375,-0.2718348205089569,-0.185092031955719,-0.4422661066055298
1774790042849470500,12.730470458984374,-0.3329212963581085,-0.19669845700263977,-0.277332603931427
1774790042867996700,12.74899658203125,-0.2889390289783478,-0.21319180727005005,-0.12400554865598679
1774790042886523000,12.76752294921875,-0.22235478460788727,-0.30482152104377747,-0.1496618688106537
1774790042905049000,12.786049072265625,-0.19364413619041443,-0.2608392536640167,-0.2767217457294464
1774790042923575300,12.8045751953125,-0.2260199636220932,-0.16310089826583862,-0.34208428859710693
1774790042942101500,12.8231015625,-0.3084867000579834,-0.1692095398902893,-0.28527384996414185
1774790042960627700,12.841627685546875,-0.3170388340950012,-0.24923282861709595,-0.11545344442129135
1774790042979154000,12.86015380859375,-0.19730933010578156,-0.17226386070251465,0.16187916696071625
1774790042997680000,12.87868017578125,-0.13255766034126282,-0.16126830875873566,0.29016077518463135
1774790043016206300,12.897206298828126,-0.2003636509180069,-0.45875945687294006,0.10690133273601532
1774790043034732500,12.915732666015625,-0.38789913058280945,-0.8301652073860168,-0.24434591829776764
1774790043053258500,12.934258544921875,-0.5497782826423645,-0.8118392825126648,-0.3439168632030487
1774790043071784700,12.95278466796875,-0.49113526940345764,-0.36224281787872314,-0.004886918235570192
1774790043090311000,12.971310791015625,-0.235793799161911,0.18387030065059662,0.4923570156097412
1774790043108837000,12.989837158203125,-0.009162971749901772,0.18325942754745483,0.7037162184715271
1774790043127363300,13.00836328125,0.039706211537122726,-0.1588248461484909,0.5613847374916077
1774790043145889500,13.0268896484375,-0.1747073233127594,-0.42455101013183594,0.28588470816612244
1774790043164415700,13.045415771484375,-0.5015199780464172,-0.4159989058971405,0.11667517572641373
1774790043182942000,13.06394189453125,-0.6218603253364563,-0.22724169492721558,0.10506874322891235
1774790043201468200,13.08246826171875,-0.5222893953323364,0.023823726922273636,0.15027274191379547
1774790043219994400,13.100994384765626,-0.3756818473339081,0.17287473380565643,0.1545487940311432
1774790043238520600,13.1195205078125,-0.33108872175216675,0.22663083672523499,0.09651663154363632
1774790043257046500,13.138046630859375,-0.38179048895835876,0.2052505612373352,-0.012217295356094837
1774790043275573000,13.156572998046874,-0.4062250852584839,0.21502439677715302,-0.08063415437936783
1774790043294099000,13.175098876953125,-0.33597561717033386,0.0977383628487587,-0.12644900381565094
1774790043312625200,13.193625244140625,-0.143553227186203,-0.024434590712189674,-0.10629047453403473
1774790043331151400,13.2121513671875,-0.026878049597144127,-0.11056652665138245,-0.04825831577181816
1774790043349677600,13.230677490234376,-0.07819069176912308,-0.11362084746360779,0.010384701192378998
1774790043368203800,13.249203857421875,-0.17776164412498474,-0.021991131827235222,0.014660755172371864
1774790043386730000,13.26772998046875,-0.2309068888425827,0.10079269111156464,-0.07086031138896942
1774790043405256200,13.286256103515624,-0.25961753726005554,0.19181154668331146,-0.17592905461788177
1774790043423782400,13.304782470703126,-0.2315177470445633,0.11728604137897491,-0.2419024556875229
1774790043442308600,13.32330859375,-0.08796452730894089,0.08307760953903198,-0.18570289015769958
1774790043460834600,13.34183447265625,0.036651886999607086,0.1130099818110466,-0.04459312930703163
1774790043479361000,13.360361083984374,0.05497783049941063,0.10201441496610641,0.03543015569448471
1774790043497887000,13.378886962890626,0.053145237267017365,0.009162971749901772,0.013439024798572063
1774790043516413200,13.3974130859375,0.08613193035125732,-0.01649334840476513,-0.036651886999607086
1774790043534939400,13.415939453125,0.10873392969369888,0.026878049597144127,-0.04214967042207718
1774790043553465600,13.434465576171876,0.10629047453403473,0.10690133273601532,-0.010384701192378998
1774790043571991800,13.45299169921875,0.11117739230394363,0.23518294095993042,0.0409279391169548
1774790043590518000,13.47151806640625,0.19425499439239502,0.3347539007663727,0.13194678723812103
1774790043609044200,13.490044189453124,0.3176496922969818,0.4972439408302307,0.1795942485332489
1774790043627570400,13.5085703125,0.4050033390522003,0.544891357421875,0.036651886999607086
1774790043646096600,13.5270966796875,0.24923282861709595,-0.001221729558892548,-0.4324922561645508
1774790043664622600,13.54562255859375,-0.04276053607463837,-0.6609556674957275,-0.831997811794281
1774790043683148800,13.564148681640624,-0.23518294095993042,-0.5821541547775269,-0.6346884965896606
1774790043701675000,13.582675048828126,-0.16676609218120575,0.164322629570961,0.020769402384757996
1774790043720201200,13.601201171875,0.22296564280986786,0.7635809779167175,0.5845975875854492
1774790043738727400,13.6197275390625,0.6896663308143616,0.8222240209579468,0.6866120100021362
1774790043757253600,13.638253662109374,0.9810488224029541,0.5039634704589844,0.4612029194831848
1774790043775779800,13.65677978515625,1.018311619758606,0.13133592903614044,0.205861434340477
1774790043794306000,13.67530615234375,0.9016364216804504,-0.0030543238390237093,0.1288924664258957
1774790043812832300,13.693832275390625,0.7544180154800415,-0.0665842592716217,0.14477495849132538
1774790043831358200,13.712358154296876,0.6328558921813965,-0.16310089826583862,0.09590577334165573
1774790043849884700,13.730884765625,0.5094612240791321,-0.20708316564559937,0.021380268037319183
1774790043868410600,13.74941064453125,0.37629270553588867,-0.1386663019657135,-0.03176496922969818
1774790043886936800,13.767936767578124,0.27427828311920166,0.09040798991918564,0.01954767294228077
1774790043905463000,13.786463134765626,0.18387030065059662,0.3249800503253937,0.11178825795650482
1774790043923989200,13.8049892578125,0.143553227186203,0.3652971386909485,0.13011419773101807
1774790043942515500,13.823515380859375,0.20708316564559937,0.277332603931427,0.11178825795650482
1774790043961041400,13.84204150390625,0.26450446248054504,0.25045454502105713,0.10079269111156464
1774790043979567600,13.860567626953125,0.258395791053772,0.2761108875274658,0.08857539296150208
1774790043998093800,13.87909375,0.21991132199764252,0.2761108875274658,0.021380268037319183
1774790044016620000,13.8976201171875,0.19914191961288452,0.18325942754745483,-0.07574722915887833
1774790044035146200,13.916146240234376,0.1337793916463852,-0.053145237267017365,-0.23273947834968567
1774790044053672400,13.93467236328125,0.053145237267017365,-0.205861434340477,-0.3445277214050293
1774790044072198700,13.95319873046875,-0.024434590712189674,-0.28954991698265076,-0.3652971386909485
1774790044090724900,13.971724853515624,-0.08796452730894089,-0.268169641494751,-0.2974911332130432
1774790044109251000,13.9902509765625,-0.17653992772102356,-0.20219624042510986,-0.22235478460788727
1774790044127777300,14.00877734375,-0.3023780584335327,-0.17043127119541168,-0.18325942754745483
1774790044146303500,14.027303466796875,-0.4312705397605896,-0.1997527778148651,-0.1802051067352295
1774790044164829400,14.045829345703124,-0.5009090900421143,-0.2877173125743866,-0.18875721096992493
1774790044183355600,14.064355712890626,-0.44470956921577454,-0.3433060050010681,-0.14049890637397766
1774790044201881900,14.0828818359375,-0.26389357447624207,-0.19303326308727264,-0.0030543238390237093
1774790044220408000,14.101407958984375,-0.14110976457595825,0.12522727251052856,0.08491020649671555
1774790044238934300,14.119934326171874,-0.21746785938739777,0.16615521907806396,-0.031154103577136993
1774790044257460500,14.13846044921875,-0.4111120104789734,-0.30115634202957153,-0.33719736337661743
1774790044275986700,14.156986572265625,-0.5913171172142029,-0.6646208763122559,-0.5558869242668152
1774790044294513000,14.175512939453125,-0.6896663308143616,-0.6511818766593933,-0.47036588191986084
1774790044313038800,14.194038818359376,-0.6236929297447205,-0.3836230933666229,-0.0720820426940918
1774790044331565000,14.21256494140625,-0.38667741417884827,-0.025045456364750862,0.37201663851737976
1774790044350091300,14.23109130859375,-0.15088360011577606,0.03237583488225937,0.49113526940345764
1774790044368617500,14.249617431640624,-0.036651886999607086,-0.143553227186203,0.3231474757194519
1774790044387143700,14.268143798828126,-0.10201441496610641,-0.4105011224746704,0.10567960888147354
1774790044405670000,14.286669921875,-0.29993459582328796,-0.5180133581161499,0.043371398001909256
1774790044424196000,14.305196044921875,-0.4581485986709595,-0.5021308660507202,0.07819069176912308
1774790044442722000,14.32372216796875,-0.44898560643196106,-0.3176496922969818,0.12950333952903748
1774790044461248300,14.342248291015625,-0.34208428859710693,-0.06230820715427399,0.13744457066059113
1774790044479774500,14.3607744140625,-0.2864955961704254,0.20341797173023224,0.10445787757635117
1774790044498300700,14.37930078125,-0.3915643095970154,0.3396408259868622,-0.017715077847242355
1774790044516827000,14.397826904296876,-0.5210676789283752,0.3280344009399414,-0.1594357043504715
1774790044535353000,14.41635302734375,-0.5247328281402588,0.17165300250053406,-0.2107483446598053
1774790044553879300,14.43487939453125,-0.43921178579330444,0.04276053607463837,-0.19669845700263977
1774790044572405500,14.453405517578124,-0.2626718580722809,-0.026878049597144127,-0.08491020649671555
1774790044590931700,14.471931640625,-0.1185077652335167,-0.03909534588456154,-0.04214967042207718
1774790044609457700,14.490457763671875,-0.0030543238390237093,0.014049889519810677,-0.08796452730894089
1774790044627984000,14.50898388671875,0.043371398001909256,0.06108647957444191,-0.21197007596492767
1774790044646510000,14.527510009765624,0.04886918142437935,0.0977383628487587,-0.25473061203956604
1774790044665036300,14.546036376953126,0.021380268037319183,0.14110976457595825,-0.1637117564678192
1774790044692825600,14.57382568359375,0.11728604137897491,0.2309068888425827,0.1130099818110466
1774790044711351800,14.592351806640625,0.22418737411499023,0.1905898153781891,0.20647229254245758
1774790044729877800,14.610877685546875,0.25900667905807495,0.20647229254245758,0.16310089826583862
1774790044748404200,14.629404296875,0.2370155304670334,0.2614501118659973,0.000610864779446274
1774790044766930200,14.64793017578125,0.23029601573944092,0.2156352698802948,-0.0922405794262886
1774790044785456400,14.666456298828125,0.20952661335468292,0.08552107214927673,-0.053145237267017365
1774790044803982600,14.684982666015625,0.17898337543010712,0.09590577334165573,0.04764745384454727
1774790044822508800,14.7035087890625,0.22785256803035736,0.4257727563381195,0.24251331388950348
1774790044841035000,14.722034912109375,0.32070401310920715,0.7470875978469849,0.3237583339214325
1774790044859561200,14.740561279296875,0.42821621894836426,0.6927206516265869,0.20280711352825165
1774790044878087400,14.75908740234375,0.43371400237083435,0.07330377399921417,-0.15638138353824615
1774790044896613600,14.777613525390626,0.28954991698265076,-0.4318813979625702,-0.4886918365955353
1774790044915139600,14.7961396484375,0.11117739230394363,-0.24984370172023773,-0.4214966893196106
1774790044933665800,14.814665771484375,0.14294235408306122,0.4465421438217163,0.01282816007733345
1774790044952192000,14.83319189453125,0.4068359434604645,1.0305289030075073,0.42271843552589417
1774790044970718200,14.85171826171875,0.6908880472183228,1.0403027534484863,0.4673115611076355
1774790044989244400,14.870244384765625,0.831997811794281,0.6890554428100586,0.27855435013771057
1774790045007770600,14.8887705078125,0.8271108865737915,0.2577849328517914,0.1178968995809555
1774790045026296800,14.907296875,0.7703005075454712,0.007330377586185932,0.0873536616563797
1774790045044822800,14.92582275390625,0.7507528066635132,-0.026878049597144127,0.09651663154363632
1774790045063349200,14.944349365234375,0.7354812026023865,-0.01893680728971958,-0.0054977829568088055
1774790045081875200,14.962875244140625,0.6976075768470764,0.06047561392188072,-0.11178825795650482
1774790045100401400,14.9814013671875,0.6261364221572876,0.1637117564678192,-0.0665842592716217
1774790045118927600,14.999927734375,0.48502662777900696,0.13683371245861053,-0.0054977829568088055
1774790045137453800,15.018453857421875,0.3585776388645172,0.08368847519159317,0.01282816007733345
1774790045155980000,15.03697998046875,0.2516762912273407,0.06352993845939636,-0.007941242307424545
1774790045174506200,15.05550634765625,0.18692462146282196,0.14660754799842834,0.06047561392188072
1774790045193032400,15.074032470703125,0.1692095398902893,0.09101885557174683,0.1484401375055313
1774790045211558400,15.092558349609375,0.1802051067352295,-0.02871064469218254,0.16676609218120575
1774790045230084900,15.1110849609375,0.18570289015769958,-0.023212861269712448,0.10506874322891235
1774790045248610800,15.12961083984375,0.17898337543010712,0.05558869615197182,0.021380268037319183
1774790045267137000,15.148136962890625,0.17226386070251465,0.06352993845939636,-0.023212861269712448
1774790045285663200,15.166663330078125,0.1185077652335167,-0.10567960888147354,-0.08002328872680664
1774790045304189400,15.185189453125,-0.007941242307424545,-0.2260199636220932,-0.12400554865598679
1774790045322715600,15.203715576171875,-0.12400554865598679,-0.21441353857517242,-0.11728604137897491
1774790045341241900,15.222241943359375,-0.13011419773101807,-0.15638138353824615,-0.053145237267017365
1774790045359768000,15.24076806640625,-0.05742128938436508,-0.12278381735086441,0.020769402384757996
1774790045378294000,15.2592939453125,-0.001221729558892548,0.04459312930703163,0.12767073512077332
1774790045396820500,15.277820556640625,-0.004886918235570192,0.06719512492418289,0.26389357447624207
1774790045415346400,15.296346435546875,-0.11239911615848541,-0.1178968995809555,0.3231474757194519
1774790045433872600,15.31487255859375,-0.21991132199764252,-0.25473061203956604,0.3347539007663727
1774790045452398800,15.33339892578125,-0.27427828311920166,-0.20219624042510986,0.37140578031539917
1774790045470925000,15.351925048828125,-0.25900667905807495,0.10995566099882126,0.40866854786872864
1774790045489451300,15.370451171875,-0.27550002932548523,0.2412915825843811,0.2987128794193268
1774790045507977500,15.3889775390625,-0.3799578845500946,-0.13622283935546875,-0.014049889519810677
1774790045526503700,15.407503662109375,-0.4367683231830597,-0.42882707715034485,-0.20647229254245758
1774790045545029600,15.426029541015625,-0.4831940531730652,-0.35613417625427246,-0.036651886999607086
1774790045563556000,15.44455615234375,-0.5106829404830933,-0.10201441496610641,0.3396408259868622
1774790045591345200,15.47234521484375,-0.3341430425643921,0.37140578031539917,0.8521563410758972
1774790045609871400,15.490871337890624,-0.27366742491722107,0.32070401310920715,0.9382883310317993
1774790045628397600,15.5093974609375,-0.2834412455558777,-0.07086031138896942,0.8362739086151123
1774790045646923800,15.527923828125,-0.29504770040512085,-0.516791582107544,0.665842592716217
1774790045665450000,15.546449951171875,-0.3280344009399414,-0.6823359727859497,0.5125155448913574
1774790045683976200,15.56497607421875,-0.4062250852584839,-0.4789179861545563,0.4453204274177551
1774790045702502400,15.58350244140625,-0.47464191913604736,-0.10201441496610641,0.4679224193096161
1774790045721028600,15.602028564453125,-0.5345066785812378,0.09651663154363632,0.5057960152626038
1774790045739554600,15.620554443359374,-0.5406153202056885,0.10079269111156464,0.5192350745201111
1774790045758081000,15.6390810546875,-0.5613847374916077,-0.05070177838206291,0.4147771894931793
1774790045776607000,15.65760693359375,-0.49602219462394714,-0.1337793916463852,0.23762640357017517
1774790045795133200,15.67613330078125,-0.29016077518463135,-0.04276053607463837,0.033597562462091446
1774790045813659400,15.694659423828124,-0.12278381735086441,0.10567960888147354,-0.14538581669330597
1774790045832185600,15.713185546875,-0.025045456364750862,0.25534147024154663,-0.11117739230394363
1774790045850711800,15.7317119140625,-0.03543015569448471,0.23518294095993042,0.09651663154363632
1774790045869238000,15.750238037109375,-0.10567960888147354,-0.03237583488225937,0.2608392536640167
1774790045887764200,15.76876416015625,-0.16249002516269684,-0.2712239623069763,0.20891575515270233
1774790045906290400,15.78729052734375,-0.20769402384757996,-0.18631376326084137,-0.04214967042207718
1774790045924816600,15.805816650390625,-0.21135921776294708,0.059864748269319534,-0.3023780584335327
1774790045943342600,15.824342529296874,-0.15027274191379547,0.24495677649974823,-0.3909534513950348
1774790045961868800,15.842868896484376,-0.04825831577181816,0.3084867000579834,-0.23518294095993042
1774790045980395000,15.86139501953125,0.034208428114652634,0.17592905461788177,-0.000610864779446274
1774790045998921200,15.879921142578125,0.07391463965177536,0.015271619893610477,0.13072505593299866
1774790046017447400,15.898447509765624,0.08429934084415436,-0.06963858753442764,0.0616973415017128
1774790046035973600,15.9169736328125,0.0769689604640007,0.009773836471140385,-0.12095122784376144
1774790046054499800,15.935499755859375,0.13500112295150757,0.2577849328517914,-0.1795942485332489
1774790046073026000,15.954026123046875,0.2052505612373352,0.3854556679725647,-0.059864748269319534
1774790046091552300,15.97255224609375,0.2767217457294464,0.4166097939014435,0.15210533142089844
1774790046110078200,15.991078125,0.33108872175216675,0.44348782300949097,0.24556763470172882
1774790046128604700,16.009604736328125,0.258395791053772,0.19730933010578156,0.06475166976451874
1774790046147130600,16.028130615234375,0.18325942754745483,-0.10140355676412582,-0.4013381600379944
1774790046165656800,16.04665673828125,0.06597339361906052,-0.2565632164478302,-0.8497129082679749
1774790046184183000,16.06518310546875,0.04764745384454727,0.08002328872680664,-0.8936951756477356
1774790046202709200,16.083709228515627,0.22968515753746033,0.7067705392837524,-0.5125155448913574
1774790046221235500,16.1022353515625,0.5381718873977661,0.9786053895950317,0.02626718580722809
1774790046239761700,16.12076171875,0.749531090259552,0.7269290685653687,0.3249800503253937
1774790046258287900,16.139287841796875,0.8362739086151123,0.2712239623069763,0.2712239623069763
1774790046276814000,16.15781396484375,0.8576541543006897,-0.06475166976451874,0.06841685622930527
1774790046295340300,16.17634033203125,0.8093958497047424,-0.17837251722812653,-0.0977383628487587
1774790046313866200,16.1948662109375,0.7892373204231262,-0.1233946830034256,-0.17837251722812653
1774790046332392400,16.213392333984373,0.768467903137207,-0.08429934084415436,-0.235793799161911
1774790046350918700,16.231918701171875,0.6646208763122559,-0.02626718580722809,-0.2864955961704254
1774790046369444900,16.25044482421875,0.5180133581161499,0.10873392969369888,-0.28466299176216125
1774790046387971000,16.26897119140625,0.3652971386909485,0.25961753726005554,-0.22235478460788727
1774790046406497300,16.287497314453127,0.2364046722650528,0.35063639283180237,-0.12461641430854797
1774790046425023500,16.3060234375,0.16187916696071625,0.28527384996414185,-0.043982263654470444
1774790046443549700,16.3245498046875,0.14782927930355072,0.12950333952903748,-0.0256563201546669
1774790046462076000,16.343075927734375,0.13439024984836578,-0.0513126403093338,-0.0720820426940918
1774790046480602000,16.36160205078125,0.14721840620040894,-0.05070177838206291,-0.07880155742168427
1774790046499128300,16.38012841796875,0.11117739230394363,0.03481929376721382,-0.021991131827235222
1774790046517654300,16.398654296875,0.025045456364750862,0.07330377399921417,0
1774790046536180500,16.417180419921873,-0.04214967042207718,-0.0054977829568088055,-0.0922405794262886
1774790046554706700,16.435706787109375,-0.06902772188186646,-0.14538581669330597,-0.21991132199764252
1774790046573233000,16.45423291015625,-0.13561198115348816,-0.2211330533027649,-0.2626718580722809
1774790046591759000,16.472759033203126,-0.2107483446598053,-0.21380266547203064,-0.26389357447624207
1774790046610285300,16.491285400390623,-0.22235478460788727,-0.12522727251052856,-0.2669478952884674
1774790046628811500,16.5098115234375,-0.235793799161911,-0.05864302068948746,-0.2412915825843811
1774790046647337700,16.528337646484374,-0.25961753726005554,-0.08491020649671555,-0.22357651591300964
1774790046665864000,16.546864013671875,-0.23212862014770508,-0.1130099818110466,-0.205861434340477
1774790046684390000,16.565389892578125,-0.2211330533027649,-0.14294235408306122,-0.20158538222312927
1774790046702916000,16.583916015625,-0.18814635276794434,-0.14477495849132538,-0.22174391150474548
1774790046721442300,16.6024423828125,-0.1386663019657135,-0.09346231073141098,-0.1954767256975174
1774790046739968500,16.620968505859373,-0.17043127119541168,-0.04886918142437935,-0.1539379209280014
1774790046758494700,16.63949462890625,-0.2663370370864868,-0.33231043815612793,-0.22296564280986786
1774790046777021000,16.65802099609375,-0.42088583111763,-0.8167262077331543,-0.4838049113750458
1774790046795547100,16.676547119140626,-0.5241219997406006,-0.8442151546478271,-0.6414080262184143
1774790046814073300,16.6950732421875,-0.5143481492996216,-0.3659079968929291,-0.4050033390522003
1774790046832599600,16.713599609375,-0.32681265473365784,0.235793799161911,0.1288924664258957
1774790046851125800,16.732125732421874,-0.12705987691879272,0.40744680166244507,0.5479456782341003
1774790046869652000,16.75065185546875,-0.004886918235570192,0.06597339361906052,0.6169734001159668
1774790046888178000,16.769177978515625,-0.08307760953903198,-0.4147771894931793,0.3549124300479889
1774790046906704100,16.7877041015625,-0.3182605504989624,-0.5821541547775269,-0.03237583488225937
1774790046925230300,16.806230224609376,-0.5955931544303894,-0.4673115611076355,-0.32070401310920715
1774790046943756500,16.824756591796874,-0.6896663308143616,-0.19669845700263977,-0.3329212963581085
1774790046962282800,16.84328271484375,-0.6071996092796326,0.021380268037319183,-0.16004657745361328
1774790046980809000,16.86180908203125,-0.5021308660507202,0.10751219838857651,0.053145237267017365
1774790046999335200,16.880335205078126,-0.5009090900421143,0.1081230640411377,0.15210533142089844
1774790047017861400,16.898861328125,-0.4990765154361725,0.10079269111156464,0.12644900381565094
1774790047036387600,16.9173876953125,-0.42882707715034485,0.13011419773101807,0.050090912729501724
1774790047054913500,16.93591357421875,-0.2993237376213074,0.19792018830776215,0.011606430634856224
1774790047073439700,16.954439697265624,-0.0977383628487587,0.15271618962287903,0.05497783049941063
1774790047091966000,16.972966064453125,0.07269290834665298,-0.015271619893610477,0.09162971377372742
1774790047110492200,16.9914921875,0.10873392969369888,-0.07269290834665298,0.09162971377372742
1774790047129018400,17.010018310546876,0.034208428114652634,0.014660755172371864,0.06597339361906052
1774790047147544600,17.028544677734374,-0.010995565913617611,0.009162971749901772,-0.024434590712189674
1774790047166070800,17.04707080078125,0.04886918142437935,0.029932374134659767,-0.10018182545900345
1774790047184597000,17.065596923828124,0.08429934084415436,0.04886918142437935,-0.11117739230394363
1774790047203123200,17.084123291015626,0.09529490768909454,0.10506874322891235,-0.04581485688686371
1774790047221649200,17.102649169921875,0.14172062277793884,0.19608759880065918,0.08307760953903198
1774790047240175400,17.12117529296875,0.16554436087608337,0.14110976457595825,0.1484401375055313
1774790047258701600,17.13970166015625,0.2009745091199875,0.05436696484684944,0.10995566099882126
1774790047277227800,17.158227783203124,0.23212862014770508,0.008552107028663158,0.0720820426940918
1774790047295754000,17.17675390625,0.19303326308727264,0.07391463965177536,0.1026252806186676
1774790047314280200,17.1952802734375,0.15088360011577606,0.20463970303535461,0.15088360011577606
1774790047332806400,17.213806396484376,0.18814635276794434,0.4111120104789734,0.21502439677715302
1774790047351332600,17.23233251953125,0.28527384996414185,0.618806004524231,0.2626718580722809
1774790047369858800,17.25085888671875,0.35185810923576355,0.593149721622467,0.12644900381565094
1774790047388384800,17.269384765625,0.27550002932548523,0.12095122784376144,-0.24801109731197357
1774790047406911200,17.2879111328125,0.11239911615848541,-0.2559523284435272,-0.6200277805328369
1774790047425437200,17.306437255859375,0.07513637095689774,-0.2559523284435272,-0.6591231226921082
1774790047443963400,17.32496337890625,0.2919933497905731,0.2889390289783478,-0.25350889563560486
1774790047462489600,17.343489501953126,0.5577195286750793,0.7067705392837524,0.2712239623069763
1774790047481015800,17.362015869140624,0.6872228980064392,0.6609556674957275,0.5198459029197693
1774790047499542000,17.3805419921875,0.6927206516265869,0.20952661335468292,0.37323838472366333
1774790047518068000,17.39906787109375,0.7067705392837524,-0.22968515753746033,0.12156209349632263
1774790047536594400,17.417594482421876,0.7098248600959778,-0.36285367608070374,0.053145237267017365
1774790047555120400,17.436120361328125,0.6334667801856995,-0.2724456787109375,0.10751219838857651
1774790047573646600,17.454646484375,0.5864301919937134,-0.143553227186203,0.12278381735086441
1774790047592172800,17.4731728515625,0.6163625717163086,-0.11667517572641373,0.0256563201546669
1774790047610699000,17.491698974609374,0.6071996092796326,-0.06597339361906052,-0.07147117704153061
1774790047629225200,17.51022509765625,0.48075059056282043,0.03543015569448471,-0.0873536616563797
1774790047647751400,17.52875146484375,0.3842339515686035,0.1795942485332489,0.004886918235570192
1774790047666277600,17.547277587890626,0.3439168632030487,0.2406807243824005,0.12644900381565094
1774790047684803800,17.565803955078124,0.3078758418560028,0.2528980076313019,0.16615521907806396
1774790047703330000,17.584330078125,0.25473061203956604,0.24984370172023773,0.11606431007385254
1774790047721856000,17.60285595703125,0.2052505612373352,0.18264856934547424,0.023212861269712448
1774790047740382200,17.62138232421875,0.17287473380565643,0.04459312930703163,-0.0513126403093338
1774790047758908400,17.639908447265626,0.1026252806186676,-0.06352993845939636,-0.12583814561367035
1774790047777434600,17.6584345703125,0.01588248461484909,-0.05558869615197182,-0.14110976457595825
1774790047795960800,17.6769609375,-0.08979712426662445,-0.05497783049941063,-0.07147117704153061
1774790047814487000,17.695487060546874,-0.16676609218120575,-0.11362084746360779,-0.020769402384757996
1774790047833013200,17.71401318359375,-0.1496618688106537,-0.14110976457595825,-0.07941242307424545
1774790047851539500,17.73253955078125,-0.08307760953903198,-0.07635809481143951,-0.20402882993221283
1774790047870065400,17.7510654296875,0.02626718580722809,-0.06352993845939636,-0.24862197041511536
1774790047888591600,17.769591552734376,0.0720820426940918,-0.24006985127925873,-0.2522871494293213
1774790047907117800,17.788117919921874,0.053756099194288254,-0.3842339515686035,-0.18692462146282196
1774790047925644000,17.80664404296875,0.001832594396546483,-0.31154105067253113,0.05742128938436508
1774790047944170200,17.825170166015624,-0.020158538594841957,-0.1545487940311432,0.36774060130119324
1774790047962696400,17.843696533203126,0.10873392969369888,0.030543239787220955,0.5900954008102417
1774790047981222700,17.86222265625,0.21930044889450073,0.20891575515270233,0.6291907429695129
1774790047999748600,17.88074853515625,0.09346231073141098,-0.009773836471140385,0.4422661066055298
1774790048018275000,17.899275146484374,-0.18570289015769958,-0.4667007029056549,0.11056652665138245
1774790048036801000,17.917801025390624,-0.3237583339214325,-0.49602219462394714,-0.06597339361906052
1774790048055327200,17.9363271484375,-0.3017672002315521,-0.12644900381565094,0.09529490768909454
1774790048073853400,17.954853515625,-0.1185077652335167,0.2364046722650528,0.4935787320137024
1774790048092379600,17.973379638671876,0.07147117704153061,0.370184063911438,0.8668171167373657
1774790048110905900,17.99190576171875,0.143553227186203,0.15638138353824615,0.9914335608482361
1774790048129432000,18.01043212890625,0.07757982611656189,-0.26450446248054504,0.8142827749252319
1774790048147958300,18.028958251953124,-0.11911863088607788,-0.6071996092796326,0.38789913058280945
1774790048166484200,18.047484130859374,-0.35735589265823364,-0.5119046568870544,-0.09590577334165573
1774790048194273500,18.0752734375,-0.5057960152626038,-0.033597562462091446,-0.48441576957702637
1774790048212799700,18.0937998046875,-0.4618137776851654,0.14294235408306122,-0.4361574649810791
1774790048231326000,18.112325927734375,-0.38301220536231995,0.07880155742168427,-0.27550002932548523
1774790048249852200,18.13085205078125,-0.3805687427520752,-0.021380268037319183,-0.164322629570961
1774790048268378400,18.14937841796875,-0.3744601011276245,0.10567960888147354,-0.1288924664258957
1774790048286904300,18.167904296875,-0.33536475896835327,0.053145237267017365,-0.17348559200763702
1774790048305430500,18.186430419921876,-0.16249002516269684,0.056199558079242706,-0.16249002516269684
1774790048323956700,18.204956787109374,0.004276053514331579,-0.001832594396546483,-0.1130099818110466
1774790048342483000,18.22348291015625,0.047036588191986084,-0.07391463965177536,-0.050090912729501724
1774790048361009200,18.242009033203125,-0.02260199747979641,-0.08002328872680664,-0.010995565913617611
1774790048379535400,18.260535400390626,-0.12583814561367035,-0.06414080411195755,-0.056810423731803894
1774790048398061600,18.2790615234375,-0.20891575515270233,0.03848448023200035,-0.18203771114349365
1774790048416587800,18.297587890625,-0.21685700118541718,0.11606431007385254,-0.2809978127479553
1774790048435113700,18.31611376953125,-0.10690133273601532,0.1747073233127594,-0.2364046722650528
1774790048453640200,18.33464013671875,0.040317077189683914,0.17287473380565643,-0.06291907280683517
1774790048472166100,18.353166259765626,0.08979712426662445,0.18631376326084137,0.164322629570961
1774790048490692400,18.3716923828125,0.020158538594841957,0.20891575515270233,0.277332603931427
1774790048509218600,18.390218505859377,-0.021991131827235222,0.19120067358016968,0.2003636509180069
1774790048527744800,18.408744873046874,-0.01893680728971958,0.1380554437637329,0.043371398001909256
1774790048546271000,18.42727099609375,0.037262752652168274,0.07452550530433655,-0.053756099194288254
1774790048564797000,18.445796875,0.13927717506885529,0.0873536616563797,-0.02871064469218254
1774790048583323100,18.4643232421875,0.2107483446598053,0.258395791053772,0.11056652665138245
1774790048601849300,18.482849365234376,0.24251331388950348,0.574212908744812,0.28527384996414185
1774790048620375600,18.50137548828125,0.2156352698802948,0.8442151546478271,0.31520622968673706
1774790048638901800,18.51990185546875,0.10506874322891235,0.5803215503692627,0.06230820715427399
1774790048657428000,18.538427978515625,-0.020769402384757996,0.010995565913617611,-0.36651885509490967
1774790048675954200,18.5569541015625,-0.1178968995809555,-0.3121519088745117,-0.6969966888427734
1774790048694480400,18.57548046875,-0.08124501258134842,-0.11484257876873016,-0.6719512343406677
1774790048713006300,18.59400634765625,0.10079269111156464,0.44348782300949097,-0.31459537148475647
1774790048731532500,18.612532470703126,0.2516762912273407,0.8692606091499329,0.15149445831775665
1774790048750058800,18.631058837890624,0.2877173125743866,0.7861829996109009,0.41416633129119873
1774790048768585000,18.6495849609375,0.337808221578598,0.2724456787109375,0.38240134716033936
1774790048787111200,18.668111083984375,0.4819723069667816,-0.1588248461484909,0.20708316564559937
1774790048805637400,18.686637451171876,0.6163625717163086,-0.2364046722650528,0.06902772188186646
1774790048824163600,18.70516357421875,0.6585122346878052,-0.14599667489528656,0.014660755172371864
1774790048842689500,18.723689453125,0.6438514590263367,-0.015271619893610477,-0.014660755172371864
1774790048861215700,18.7422158203125,0.546113133430481,-0.000610864779446274,-0.14660754799842834
1774790048879742000,18.760741943359374,0.4056142270565033,-0.059864748269319534,-0.3017672002315521
1774790048898268200,18.77926806640625,0.24984370172023773,-0.014660755172371864,-0.32070401310920715
1774790048916794400,18.79779443359375,0.1288924664258957,0.11667517572641373,-0.18875721096992493
1774790048935320600,18.816320556640626,0.07330377399921417,0.16676609218120575,-0.03176496922969818
1774790048953846500,18.834846435546876,0.07330377399921417,0.043371398001909256,0.007941242307424545
1774790048972373000,18.853373046875,0.13011419773101807,-0.1081230640411377,0.008552107028663158
1774790048990899000,18.87189892578125,0.164322629570961,-0.12156209349632263,0.0360410213470459
1774790049009425200,18.890425048828124,0.11117739230394363,-0.033597562462091446,0.05497783049941063
1774790049027951400,18.908951416015626,-0.020769402384757996,-0.000610864779446274,-0.026878049597144127
1774790049046477600,18.9274775390625,-0.1588248461484909,-0.11239911615848541,-0.22846342623233795
1774790049065003800,18.946003662109376,-0.17348559200763702,-0.19425499439239502,-0.3640754222869873
1774790049083530000,18.964530029296874,-0.13194678723812103,-0.22479823231697083,-0.3029889166355133
1774790049102056000,18.983055908203124,-0.12278381735086441,-0.21258094906806946,-0.164322629570961
1774790049120582100,19.00158203125,-0.17715078592300415,-0.20708316564559937,-0.07391463965177536
1774790049139108400,19.0201083984375,-0.27427828311920166,-0.29138249158859253,-0.12705987691879272
1774790049157634600,19.038634521484376,-0.3194822669029236,-0.3585776388645172,-0.25411975383758545
1774790049176160800,19.057160888671874,-0.30115634202957153,-0.389120876789093,-0.31031930446624756
1774790049194686700,19.075686767578127,-0.24801109731197357,-0.3787361681461334,-0.24740023910999298
1774790049213213200,19.094213134765624,-0.16859868168830872,-0.30054548382759094,-0.14172062277793884
1774790049231739100,19.1127392578125,-0.09529490768909454,-0.06291907280683517,0.030543239787220955
1774790049250265300,19.131265380859375,-0.21502439677715302,-0.05803215503692627,0.04276053607463837
1774790049268791600,19.14979150390625,-0.47952884435653687,-0.5088503360748291,-0.32192572951316833
1774790049287317800,19.16831787109375,-0.5888736248016357,-0.66645348072052,-0.6499601006507874
1774790049305844000,19.186843994140624,-0.5112938284873962,-0.3695732057094574,-0.555276095867157
1774790049324370200,19.2053701171875,-0.34147340059280396,-0.015271619893610477,-0.11484257876873016
1774790049342896000,19.223896240234374,-0.15577052533626556,0.2003636509180069,0.45387253165245056
1774790049361422300,19.24242236328125,-0.14538581669330597,0.07574722915887833,0.7611374855041504
1774790049379948500,19.260948486328125,-0.2632827162742615,-0.3194822669029236,0.6676751971244812
1774790049398474800,19.279474853515627,-0.3952295184135437,-0.6084213256835938,0.2877173125743866
1774790049417001000,19.2980009765625,-0.4972439408302307,-0.5375609993934631,-0.07757982611656189
1774790049435527200,19.316527099609374,-0.5674933791160583,-0.29565855860710144,-0.25534147024154663
1774790049454053400,19.335053466796875,-0.5510000586509705,-0.08979712426662445,-0.20158538222312927
1774790049472579300,19.353579345703125,-0.516791582107544,-0.0054977829568088055,-0.031154103577136993
1774790049491105500,19.37210546875,-0.5082395076751709,-0.07635809481143951,0.07819069176912308
1774790049509631700,19.3906318359375,-0.4972439408302307,-0.14721840620040894,0.036651886999607086
1774790049528158000,19.409157958984373,-0.44959646463394165,-0.08491020649671555,-0.10384701192378998
1774790049546684200,19.42768408203125,-0.347582072019577,-0.01282816007733345,-0.1893680840730667
1774790049565210400,19.44621044921875,-0.18081597983837128,-0.039706211537122726,-0.14172062277793884
1774790049583736300,19.464736328125,-0.04276053607463837,-0.08307760953903198,-0.013439024798572063
1774790049602262500,19.483262451171875,-0.014049889519810677,-0.12705987691879272,0.026878049597144127
1774790049620788700,19.501788818359376,-0.07086031138896942,-0.11484257876873016,-0.043982263654470444
1774790049639315000,19.52031494140625,-0.23029601573944092,-0.06352993845939636,-0.16615521907806396
1774790049657841200,19.538841064453123,-0.3842339515686035,0.02260199747979641,-0.2364046722650528
1774790049676367400,19.557367431640625,-0.37140578031539917,0.10140355676412582,-0.1954767256975174
1774790049694893300,19.575893310546874,-0.23884813487529755,0.15638138353824615,-0.1130099818110466
1774790049713419500,19.59441943359375,-0.12767073512077332,0.15577052533626556,-0.037262752652168274
1774790049731945700,19.61294580078125,-0.09101885557174683,0.15821397304534912,0.014660755172371864
1774790049750472000,19.631471923828126,-0.09285144507884979,0.17592905461788177,0.043982263654470444
1774790049768998100,19.649998046875,-0.10140355676412582,0.14172062277793884,0.028099779039621353
1774790049787524400,19.6685244140625,-0.05192350596189499,0.08552107214927673,-0.0030543238390237093
1774790049806050300,19.68705029296875,0.09162971377372742,0.10690133273601532,0.0054977829568088055
1774790049824576500,19.705576416015624,0.19181154668331146,0.14599667489528656,0.02626718580722809
1774790049843102700,19.724102783203126,0.23945899307727814,0.3402516841888428,0.16249002516269684
1774790049861629000,19.74262890625,0.2101374864578247,0.46975502371788025,0.2822195291519165
1774790049880155100,19.761155029296877,0.10873392969369888,0.16859868168830872,0.15088360011577606
1774790049898681000,19.77968115234375,-0.06108647957444191,-0.26511532068252563,-0.2364046722650528
1774790049917207300,19.798207275390624,-0.21868959069252014,-0.40378162264823914,-0.5662716627120972
1774790049935733500,19.8167333984375,-0.23884813487529755,-0.11911863088607788,-0.4880809485912323
1774790049954259700,19.835259765625,-0.09162971377372742,0.2730565667152405,-0.09285144507884979
1774790049972786000,19.853785888671876,0.287106454372406,0.49418962001800537,0.3549124300479889
1774790049991312100,19.87231201171875,0.6615665555000305,0.5711585879325867,0.6267472505569458
1774790050009838000,19.890838134765627,0.7263182401657104,0.4269944727420807,0.6352993845939636
1774790050028364300,19.9093642578125,0.5870410799980164,0.050090912729501724,0.462424635887146
1774790050046890500,19.927890380859374,0.5656607747077942,-0.2107483446598053,0.3042106628417969
1774790050065416700,19.946416748046875,0.6230821013450623,-0.18264856934547424,0.26878049969673157
1774790050083943000,19.96494287109375,0.5827649831771851,-0.07391463965177536,0.2877173125743866
1774790050102469000,19.98346923828125,0.472198486328125,-0.021991131827235222,0.2516762912273407
1774790050120995000,20.0019951171875,0.32131487131118774,0.007941242307424545,0.1178968995809555
1774790050139521300,20.020521240234373,0.15577052533626556,0.03787361457943916,-0.08307760953903198
1774790050158047500,20.039047607421875,0.08491020649671555,0.1484401375055313,-0.185092031955719
1774790050176573700,20.05757373046875,0.08918625861406326,0.21319180727005005,-0.14538581669330597
1774790050195100000,20.076099853515625,0.16004657745361328,0.20280711352825165,0.0054977829568088055
1774790050213626000,20.094626220703127,0.2364046722650528,0.11911863088607788,0.14294235408306122
1774790050232152000,20.113152099609376,0.20769402384757996,0.11728604137897491,0.143553227186203
1774790050250678300,20.13167822265625,0.11606431007385254,0.17531819641590118,0.033597562462091446
1774790050269204500,20.15020458984375,0.03237583488225937,0.08674279600381851,-0.13683371245861053
1774790050287730700,20.168730712890625,0.001832594396546483,-0.06352993845939636,-0.29077163338661194
1774790050306256600,20.187256591796874,0.033597562462091446,-0.12583814561367035,-0.3426951467990875
1774790050324783000,20.205783203125,0.06108647957444191,-0.2003636509180069,-0.3078758418560028
1774790050343309000,20.22430908203125,0.08063415437936783,-0.24556763470172882,-0.18142683804035187
1774790050361835300,20.242835205078126,0.006719512399286032,-0.23396120965480804,-0.10995566099882126
1774790050380361500,20.261361572265624,-0.09285144507884979,-0.18570289015769958,-0.15149445831775665
1774790050398887700,20.2798876953125,-0.17592905461788177,-0.09468404203653336,-0.2461785078048706
1774790050417413600,20.29841357421875,-0.2003636509180069,-0.04214967042207718,-0.30604326725006104
1774790050435939800,20.31693994140625,-0.13683371245861053,-0.14110976457595825,-0.3078758418560028
1774790050454466000,20.335466064453126,-0.0720820426940918,-0.268169641494751,-0.21197007596492767
1774790050472992300,20.3539921875,-0.08979712426662445,-0.2864955961704254,0.017715077847242355
1774790050491518500,20.3725185546875,-0.19425499439239502,-0.3090975880622864,0.14599667489528656
1774790050510044700,20.391044677734374,-0.25411975383758545,-0.2406807243824005,0.08307760953903198
1774790050528570600,20.409570556640624,-0.30482152104377747,-0.3707949221134186,-0.164322629570961
1774790050547096800,20.428096923828125,-0.37629270553588867,-0.6554579138755798,-0.4728093445301056
1774790050565623000,20.446623046875,-0.3787361681461334,-0.6096430420875549,-0.5174024701118469
1774790050584149200,20.465149169921876,-0.34147340059280396,-0.2883281707763672,-0.20952661335468292
1774790050602675200,20.48367529296875,-0.3066541254520416,0.0256563201546669,0.2419024556875229
1774790050630464500,20.511464599609376,-0.29016077518463135,0.10018182545900345,0.6426297426223755
1774790050648990700,20.52999072265625,-0.3280344009399414,-0.22418737411499023,0.462424635887146
1774790050667517000,20.548516845703126,-0.31459537148475647,-0.4935787320137024,0.09651663154363632
1774790050686043000,20.56704296875,-0.3396408259868622,-0.5308414697647095,-0.19608759880065918
1774790050704569000,20.585569091796874,-0.4276053309440613,-0.3298669755458832,-0.27488914132118225
1774790050723095300,20.60409521484375,-0.45937031507492065,-0.013439024798572063,-0.1233946830034256
1774790050741621500,20.62262158203125,-0.48563748598098755,0.143553227186203,0.08796452730894089
1774790050760147500,20.6411474609375,-0.5393936038017273,0.10079269111156464,0.1380554437637329
1774790050778673700,20.659673583984375,-0.5571087002754211,0.05070177838206291,0.009773836471140385
1774790050797200000,20.678199951171877,-0.46486809849739075,0.08918625861406326,-0.13561198115348816
1774790050815726000,20.69672607421875,-0.2510654330253601,0.17592905461788177,-0.12156209349632263
1774790050834252300,20.715252197265624,0.006719512399286032,0.15149445831775665,0.01649334840476513
1774790050852778500,20.733778564453125,0.16615521907806396,0.04459312930703163,0.13255766034126282
1774790050871304400,20.752304443359375,0.11545344442129135,0.013439024798572063,0.16004657745361328
1774790050889830700,20.77083056640625,-0.09896009415388107,0.018325943499803543,0.09040798991918564
1774790050908356900,20.78935693359375,-0.25534147024154663,-0.01649334840476513,-0.031154103577136993
1774790050926883000,20.807883056640627,-0.23396120965480804,-0.08124501258134842,-0.1747073233127594
1774790050945409000,20.826408935546876,-0.16737695038318634,0.04886918142437935,-0.26511532068252563
1774790050963935200,20.844935302734374,-0.15821397304534912,0.21930044889450073,-0.2412915825843811
1774790050982461400,20.86346142578125,-0.10079269111156464,0.2626718580722809,-0.11178825795650482
1774790051000987600,20.881987548828125,-0.009773836471140385,0.2156352698802948,0.036651886999607086
1774790051019513600,20.900513671875,0.025045456364750862,0.14172062277793884,0.09957095980644226
1774790051038039800,20.919039794921876,0.015271619893610477,0.1185077652335167,0.04886918142437935
1774790051056566000,20.93756591796875,0.02260199747979641,0.1185077652335167,-0.06291907280683517
1774790051075092200,20.95609228515625,0.06841685622930527,0.13133592903614044,-0.13622283935546875
1774790051093618200,20.9746181640625,0.12095122784376144,0.22479823231697083,-0.09040798991918564
1774790051112144400,20.993144287109374,0.185092031955719,0.45509424805641174,0.13255766034126282
1774790051130670600,21.011670654296875,0.2205221801996231,0.6505709886550903,0.36224281787872314
1774790051149196800,21.03019677734375,0.24312418699264526,0.7037162184715271,0.37629270553588867
1774790051167723000,21.048722900390626,0.18203771114349365,0.22724169492721558,0.06108647957444191
1774790051186249000,21.0672490234375,0.11423171311616898,-0.2614501118659973,-0.37323838472366333
1774790051204775200,21.085775146484377,-0.03787361457943916,-0.3292561173439026,-0.6896663308143616
1774790051223301400,21.10430126953125,-0.11056652665138245,0.10445787757635117,-0.627968966960907
1774790051241827600,21.12282763671875,0.12400554865598679,0.638353705406189,-0.1954767256975174
1774790051260353500,21.141353515625,0.5986474752426147,0.9126319885253906,0.3329212963581085
1774790051278879700,21.159879638671875,0.9303470849990845,0.9114102721214294,0.6798924803733826
1774790051297406000,21.178406005859376,0.9376774430274963,0.5540543794631958,0.7220421433448792
1774790051315932200,21.19693212890625,0.7696896195411682,-0.007941242307424545,0.44898560643196106
1774790051334458000,21.2154580078125,0.7147117853164673,-0.3488037884235382,0.09651663154363632
1774790051352984300,21.233984375,0.7385355234146118,-0.4166097939014435,-0.15821397304534912
1774790051371510500,21.252510498046874,0.7483093738555908,-0.33169957995414734,-0.21502439677715302
1774790051390036700,21.27103662109375,0.675616443157196,-0.29626941680908203,-0.16798780858516693
1774790051408562700,21.289562744140625,0.49541133642196655,-0.22846342623233795,-0.10751219838857651
1774790051427089000,21.3080888671875,0.2761108875274658,0.04276053607463837,0.001832594396546483
1774790051445615000,21.326614990234376,0.07024945318698883,0.3335321843624115,0.12705987691879272
1774790051464141300,21.345141357421873,-0.01282816007733345,0.4367683231830597,0.21380266547203064
1774790051482667300,21.363667236328126,0.01649334840476513,0.38728827238082886,0.23457208275794983
1774790051501193500,21.382193359375,0.06963858753442764,0.26389357447624207,0.20952661335468292
1774790051519719400,21.400719482421874,0.09346231073141098,0.1233946830034256,0.17287473380565643
1774790051538245600,21.41924560546875,0.09162971377372742,0.006108647678047419,0.10445787757635117
1774790051556771800,21.437771728515624,0.06291907280683517,0.01649334840476513,-0.031154103577136993
1774790051575298000,21.456298095703126,0.004886918235570192,0.0256563201546669,-0.1795942485332489
1774790051593824300,21.47482421875,-0.07147117704153061,-0.09712749719619751,-0.25473061203956604
1774790051612350200,21.49335009765625,-0.10079269111156464,-0.2919933497905731,-0.2412915825843811
1774790051630876400,21.51187646484375,-0.09957095980644226,-0.379347026348114,-0.21258094906806946
1774790051649402600,21.530402587890624,-0.12278381735086441,-0.34086254239082336,-0.2205221801996231
1774790051667928800,21.5489287109375,-0.17531819641590118,-0.25045454502105713,-0.2571740746498108
1774790051686454800,21.567454833984375,-0.18081597983837128,-0.19608759880065918,-0.22724169492721558
1774790051704981000,21.58598095703125,-0.2101374864578247,-0.21197007596492767,-0.15271618962287903
1774790051723507200,21.604507080078125,-0.22418737411499023,-0.24801109731197357,-0.07757982611656189
1774790051742033200,21.623033203125,-0.17653992772102356,-0.22174391150474548,0.03909534588456154
1774790051760559400,21.641559326171876,-0.15515965223312378,-0.16737695038318634,0.164322629570961
1774790051779085600,21.66008544921875,-0.19425499439239502,-0.17287473380565643,0.18692462146282196
1774790051797611500,21.678611572265623,-0.23823726177215576,-0.25473061203956604,0.06475166976451874
1774790051816137700,21.6971376953125,-0.3433060050010681,-0.5186241865158081,-0.2162461280822754
1774790051834664000,21.715663818359374,-0.4880809485912323,-0.5674933791160583,-0.4728093445301056
1774790051853190100,21.734190185546876,-0.5681042671203613,-0.2663370370864868,-0.42882707715034485
1774790051871716000,21.752716064453125,-0.471587598323822,0.026878049597144127,-0.08124501258134842
1774790051890242300,21.7712421875,-0.16554436087608337,0.02260199747979641,0.38179048895835876
1774790051908768500,21.7897685546875,0.22907429933547974,-0.050090912729501724,0.7605266571044922
1774790051927294500,21.80829443359375,0.328645259141922,-0.1233946830034256,0.8032872080802917
1774790051945820700,21.826820556640627,0.15271618962287903,-0.2761108875274658,0.5143481492996216
1774790051964347000,21.845346923828124,-0.09346231073141098,-0.3652971386909485,0.07452550530433655
1774790051982873000,21.863873046875,-0.37323838472366333,-0.30482152104377747,-0.2932150959968567
1774790052001399000,21.88239892578125,-0.565049946308136,-0.08002328872680664,-0.3341430425643921
1774790052019925200,21.90092529296875,-0.5815432667732239,0.1081230640411377,-0.13500112295150757
1774790052038451200,21.919451171875,-0.4819723069667816,0.15027274191379547,0.07024945318698883
1774790052056977400,21.937977294921875,-0.36835145950317383,0.0818558782339096,0.14721840620040894
1774790052075503600,21.956503662109377,-0.2510654330253601,0.0409279391169548,0.1130099818110466
1774790052094029800,21.97502978515625,-0.13500112295150757,0.11239911615848541,0.05436696484684944
1774790052112555800,21.9935556640625,-0.049480047076940536,0.2156352698802948,0.05925388261675835
1774790052131082000,22.01208203125,-0.007941242307424545,0.1747073233127594,0.0720820426940918
1774790052149608200,22.030608154296875,0.01954767294228077,0.05070177838206291,0.02871064469218254
1774790052168134100,22.049134033203124,0.001832594396546483,-0.021380268037319183,-0.03787361457943916
1774790052186660400,22.067660400390626,-0.0977383628487587,-0.05070177838206291,-0.11667517572641373
1774790052205186600,22.0861865234375,-0.16615521907806396,-0.014049889519810677,-0.1637117564678192
1774790052223712500,22.10471240234375,-0.14599667489528656,0.007941242307424545,-0.18570289015769958
1774790052242238700,22.12323876953125,-0.06780599057674408,0.02260199747979641,-0.17165300250053406
1774790052260765000,22.141764892578124,0,0.07941242307424545,-0.11728604137897491
1774790052279291000,22.160290771484377,0.024434590712189674,0.19853104650974274,-0.009162971749901772
1774790052297817000,22.178817138671874,0.04214967042207718,0.24006985127925873,0.09590577334165573
1774790052316343300,22.19734326171875,0.05742128938436508,0.23029601573944092,0.11362084746360779
1774790052334869200,22.215869140625,0.08857539296150208,0.20952661335468292,0.0665842592716217
1774790052353395500,22.2343955078125,0.12461641430854797,0.21258094906806946,0.006108647678047419
1774790052371921700,22.252921630859376,0.18325942754745483,0.2528980076313019,0.017104214057326317
1774790052390447600,22.271447509765625,0.2767217457294464,0.2987128794193268,0.08552107214927673
1774790052408973800,22.289973876953123,0.3659079968929291,0.4105011224746704,0.19181154668331146
1774790052427500000,22.3085,0.34086254239082336,0.5778780579566956,0.2724456787109375
1774790052446026000,22.32702587890625,0.35796675086021423,0.7434224486351013,0.2809978127479553
1774790052464552200,22.34555224609375,0.401949018239975,0.6371319890022278,0.13683371245861053
1774790052483078400,22.364078369140625,0.43493571877479553,0.14721840620040894,-0.19303326308727264
1774790052501604400,22.382604248046874,0.41844236850738525,-0.1795942485332489,-0.5369501113891602
1774790052520130600,22.401130615234376,0.4618137776851654,0.021991131827235222,-0.4569268524646759
1774790052538656500,22.419656494140625,0.5473348498344421,0.6511818766593933,0.09712749719619751
1774790052557182700,22.4381826171875,0.5491674542427063,0.9553925395011902,0.6444623470306396
1774790052575709000,22.456708984375,0.5186241865158081,0.6218603253364563,0.7971785664558411
1774790052594235100,22.475235107421874,0.5589412450790405,0.03543015569448471,0.6157516837120056
1774790052612761000,22.493760986328127,0.6646208763122559,-0.2809978127479553,0.3811796307563782
1774790052631287300,22.512287353515624,0.6426297426223755,-0.17287473380565643,0.2822195291519165
1774790052649813200,22.530813232421874,0.4972439408302307,0.03298669680953026,0.27977606654167175
1774790052668339500,22.54933935546875,0.39339691400527954,0.2156352698802948,0.30054548382759094
1774790052686865700,22.56786572265625,0.34086254239082336,0.26389357447624207,0.24862197041511536
1774790052705391600,22.5863916015625,0.28405213356018066,0.19364413619041443,0.07635809481143951
1774790052723917800,22.604917724609376,0.3341430425643921,0.2577849328517914,-0.049480047076940536
1774790052742444000,22.623444091796873,0.3756818473339081,0.3787361681461334,-0.07819069176912308
1774790052760970000,22.641969970703126,0.2987128794193268,0.3995055556297302,-0.04764745384454727
1774790052779496200,22.66049609375,0.21930044889450073,0.27916520833969116,0.0054977829568088055
1774790052798022100,22.679022216796874,0.1282816082239151,-0.09957095980644226,-0.008552107028663158
1774790052816548400,22.69754833984375,0.10751219838857651,-0.185092031955719,-0.05253437161445618
1774790052835074600,22.716074462890624,0.10445787757635117,-0.11545344442129135,-0.16126830875873566
1774790052853600500,22.7346005859375,0.013439024798572063,-0.04214967042207718,-0.2993237376213074
1774790052872126700,22.753126708984375,-0.12705987691879272,-0.08857539296150208,-0.43432486057281494
1774790052890653000,22.77165283203125,-0.17653992772102356,-0.2009745091199875,-0.49480047821998596
1774790052909179000,22.790178955078126,-0.17043127119541168,-0.277332603931427,-0.44898560643196106
1774790052927705000,22.808705078125,-0.20769402384757996,-0.22846342623233795,-0.2889390289783478
1774790052946231300,22.827231201171877,-0.287106454372406,-0.164322629570961,-0.10384701192378998
1774790052964757200,22.84575732421875,-0.3536907136440277,-0.21258094906806946,-0.05558869615197182
1774790052983283500,22.864283447265624,-0.3811796307563782,-0.28038692474365234,-0.12950333952903748
1774790053001809400,22.882809326171873,-0.37262752652168274,-0.34574946761131287,-0.2052505612373352
