time,seconds_elapsed,z,y,x
1774790030293079600,0.17407958984375,-54.375003814697266,52.781253814697266,6.581250190734863
1774790030323079400,0.204079345703125,-56.38125228881836,52.53750228881836,8.268750190734863
1774790030343079400,0.224079345703125,-52.81875228881836,53.625003814697266,6.412500381469727
1774790030353079600,0.23407958984375,-52.81875228881836,53.625003814697266,6.412500381469727
1774790030363079400,0.244079345703125,-52.33125305175781,53.88750076293945,3.9000000953674316
1774790030373079600,0.25407958984375,-53.962501525878906,52.35000228881836,7.893750190734863
1774790030383079400,0.264079345703125,-52.406253814697266,52.72500228881836,6.225000381469727
1774790030393079600,0.27407958984375,-54.69375228881836,53.36250305175781,8.8125
1774790030403079400,0.284079345703125,-52.51875305175781,53.83125305175781,7.012500286102295
1774790030413079600,0.29407958984375,-53.70000076293945,54.86250305175781,7.237500190734863
1774790030423079400,0.304079345703125,-54.093753814697266,52.406253814697266,7.481250286102295
1774790030433079600,0.31407958984375,-54.337501525878906,54.01875305175781,6.525000095367432
1774790030443079400,0.324079345703125,-56.17500305175781,54.39375305175781,9.037500381469727
1774790030453079600,0.33407958984375,-55.10625076293945,54.806251525878906,10.21875
1774790030463079400,0.344079345703125,-53.13750076293945,53.83125305175781,7.875000476837158
1774790030473079600,0.35407958984375,-55.29375076293945,54.22500228881836,11.40000057220459
1774790030483079400,0.364079345703125,-56.38125228881836,53.73750305175781,10.631250381469727
1774790030493079600,0.37407958984375,-57.41250228881836,54.712501525878906,11.25
1774790030503079400,0.384079345703125,-56.64375305175781,54.07500076293945,9.43125057220459
1774790030513079600,0.39407958984375,-56.19375228881836,53.70000076293945,8.643750190734863
1774790030523079400,0.404079345703125,-56.906253814697266,56.250003814697266,11.53125
1774790030533079600,0.41407958984375,-57.093753814697266,54.22500228881836,9.600000381469727
1774790030543079400,0.424079345703125,-55.275001525878906,52.85625076293945,6.187500476837158
1774790030553079600,0.43407958984375,-58.275001525878906,54.187503814697266,6.806250095367432
1774790030563079400,0.444079345703125,-56.28750228881836,54.993751525878906,8.043750762939453
1774790030573079600,0.45407958984375,-57.54375076293945,53.437503814697266,5.943750381469727
1774790030583079400,0.464079345703125,-56.73750305175781,54.26250076293945,5.643750190734863
1774790030593079600,0.47407958984375,-57.63750076293945,55.57500076293945,8.606250762939453
1774790030603079400,0.484079345703125,-56.79375076293945,54.76875305175781,10.83750057220459
1774790030613079600,0.49407958984375,-59.17500305175781,55.57500076293945,8.643750190734863
1774790030623079400,0.504079345703125,-59.08125305175781,53.94375228881836,9.318750381469727
1774790030633079600,0.51407958984375,-58.462501525878906,54.76875305175781,9.881250381469727
1774790030643079400,0.524079345703125,-57.03750228881836,55.087501525878906,6.937500476837158
1774790030653079600,0.53407958984375,-58.687503814697266,56.47500228881836,8.8125
1774790030663079400,0.544079345703125,-57.806251525878906,55.20000076293945,7.687500476837158
1774790030673079600,0.55407958984375,-57.656253814697266,54.88125228881836,8.193750381469727
1774790030683079400,0.564079345703125,-57.82500076293945,55.10625076293945,8.8125
1774790030693079600,0.57407958984375,-56.13750076293945,55.14375305175781,8.193750381469727
1774790030703079400,0.584079345703125,-59.38125228881836,53.83125305175781,8.606250762939453
1774790030713079600,0.59407958984375,-58.70625305175781,55.57500076293945,8.643750190734863
1774790030723079400,0.604079345703125,-57.67500305175781,54.45000076293945,7.687500476837158
1774790030733079600,0.61407958984375,-59.32500076293945,55.406253814697266,9.1875
1774790030743079400,0.624079345703125,-59.812503814697266,55.33125305175781,10.3125
1774790030753079600,0.63407958984375,-60.243751525878906,55.687503814697266,9.412500381469727
1774790030763079400,0.644079345703125,-57.656253814697266,55.743751525878906,9.768750190734863
1774790030773079600,0.65407958984375,-56.73750305175781,55.25625228881836,8.100000381469727
1774790030783079400,0.664079345703125,-57.45000076293945,57.13125228881836,9.881250381469727
1774790030793079600,0.67407958984375,-57.750003814697266,57.31875228881836,9.506250381469727
1774790030803079400,0.684079345703125,-59.47500228881836,55.95000076293945,9.43125057220459
1774790030813079600,0.69407958984375,-58.25625228881836,55.85625076293945,9.65625
1774790030823079400,0.704079345703125,-58.44375228881836,55.218753814697266,10.387500762939453
1774790030833079600,0.71407958984375,-58.44375228881836,55.218753814697266,10.387500762939453
1774790030843079400,0.724079345703125,-58.05000305175781,57.712501525878906,10.443750381469727
1774790030853079600,0.73407958984375,-57.056251525878906,57.093753814697266,13.968750953674316
1774790030863079400,0.744079345703125,-56.60625076293945,56.13750076293945,12.506250381469727
1774790030873079600,0.75407958984375,-56.73750305175781,55.89375305175781,9.918750762939453
1774790030883079400,0.764079345703125,-55.29375076293945,52.95000076293945,6.918750286102295
1774790030893079600,0.77407958984375,-55.89375305175781,53.250003814697266,8.11875057220459
1774790030903079400,0.784079345703125,-55.95000076293945,52.931251525878906,10.18125057220459
1774790030913079600,0.79407958984375,-57.91875076293945,53.306251525878906,11.850000381469727
1774790030923079400,0.804079345703125,-58.181251525878906,55.44375228881836,14.531250953674316
1774790030933079600,0.81407958984375,-56.98125076293945,55.031253814697266,13.425000190734863
1774790030943079400,0.824079345703125,-56.73750305175781,53.212501525878906,13.781250953674316
1774790030953079600,0.83407958984375,-56.118751525878906,51.618751525878906,8.793750762939453
1774790030963079400,0.844079345703125,-55.61250305175781,53.212501525878906,8.662500381469727
1774790030973079600,0.85407958984375,-54.48750305175781,53.681251525878906,5.90625
1774790030983079400,0.864079345703125,-52.85625076293945,51.806251525878906,4.237500190734863
1774790030993079600,0.87407958984375,-51.16875076293945,50.08125305175781,-1.6500000953674316
1774790031003079400,0.884079345703125,-52.218753814697266,50.531253814697266,-1.1062500476837158
1774790031013079600,0.89407958984375,-46.61250305175781,47.493751525878906,-9.037500381469727
1774790031023079400,0.904079345703125,-47.70000076293945,47.28750228881836,-7.912500381469727
1774790031033079600,0.91407958984375,-49.593753814697266,48.58125305175781,-10.162500381469727
1774790031043079400,0.924079345703125,-48.993751525878906,49.01250076293945,-8.11875057220459
1774790031053079600,0.93407958984375,-46.10625076293945,48.07500076293945,-11.0625
1774790031063079400,0.944079345703125,-44.04375076293945,50.28750228881836,-10.40625
1774790031083079400,0.964079345703125,-44.66250228881836,46.462501525878906,-9.28125
1774790031093079600,0.97407958984375,-46.462501525878906,49.368751525878906,-3.8812501430511475
1774790031103079400,0.984079345703125,-46.556251525878906,46.01250076293945,-5.512500286102295
1774790031113079600,0.99407958984375,-44.17500305175781,47.28750228881836,-9.5625
1774790031123079400,1.004079345703125,-43.462501525878906,46.57500076293945,-7.593750476837158
1774790031133079600,1.01407958984375,-43.53750228881836,46.95000076293945,-12.750000953674316
1774790031143079400,1.024079345703125,-46.20000076293945,47.51250076293945,-4.668750286102295
1774790031153079600,1.03407958984375,-47.88750076293945,47.45625305175781,-4.21875
1774790031163079400,1.044079345703125,-48.69375228881836,47.73750305175781,0.24375000596046448
1774790031173079600,1.05407958984375,-48.95625305175781,48.243751525878906,-1.350000023841858
1774790031183079400,1.064079345703125,-47.83125305175781,47.83125305175781,-7.668750286102295
1774790031193079600,1.07407958984375,-44.98125076293945,48.88125228881836,-12.33750057220459
1774790031203079400,1.084079345703125,-43.6875,47.26875305175781,-11.418750762939453
1774790031223079400,1.104079345703125,-46.72500228881836,47.85000228881836,-10.08750057220459
1774790031233079600,1.11407958984375,-46.76250076293945,47.41875076293945,-8.756250381469727
1774790031243079400,1.124079345703125,-48.13125228881836,46.125,-11.662500381469727
1774790031253079600,1.13407958984375,-45,48.13125228881836,-13.200000762939453
1774790031263079400,1.144079345703125,-48.843753814697266,47.83125305175781,-11.02500057220459
1774790031273079600,1.15407958984375,-47.45625305175781,49.23750305175781,-9.112500190734863
1774790031283079400,1.164079345703125,-50.400001525878906,48.337501525878906,-7.650000095367432
1774790031293079600,1.17407958984375,-48.22500228881836,50.343753814697266,-5.775000095367432
1774790031303079400,1.184079345703125,-52.53750228881836,49.51875305175781,-3.843750238418579
1774790031313079600,1.19407958984375,-52.53750228881836,49.51875305175781,-3.843750238418579
1774790031323079400,1.204079345703125,-49.95000076293945,47.88750076293945,-8.175000190734863
1774790031333079600,1.21407958984375,-46.78125,49.650001525878906,-13.143750190734863
1774790031343079400,1.224079345703125,-50.28750228881836,50.681251525878906,-8.606250762939453
1774790031353079600,1.23407958984375,-50.343753814697266,51.11250305175781,-3.168750047683716
1774790031363079400,1.244079345703125,-48.993751525878906,48.750003814697266,-8.175000190734863
1774790031373079600,1.25407958984375,-49.687503814697266,48.60000228881836,-13.537500381469727
1774790031383079400,1.264079345703125,-50.10000228881836,47.625,-9.05625057220459
1774790031393079600,1.27407958984375,-48.07500076293945,46.76250076293945,-14.081250190734863
1774790031403079400,1.284079345703125,-50.00625228881836,49.61250305175781,-10.800000190734863
1774790031413079600,1.29407958984375,-46.05000305175781,47.83125305175781,-15.33750057220459
1774790031423079400,1.304079345703125,-49.275001525878906,49.29375076293945,-8.756250381469727
1774790031433079600,1.31407958984375,-50.85000228881836,48.45000076293945,-7.762500286102295
1774790031443079400,1.324079345703125,-51.843753814697266,48.712501525878906,-11.0625
1774790031453079600,1.33407958984375,-48.525001525878906,46.875,-14.193750381469727
1774790031463079400,1.344079345703125,-49.312503814697266,47.26875305175781,-11.550000190734863
1774790031473079600,1.35407958984375,-51.03750228881836,50.775001525878906,-9.71250057220459
1774790031483079400,1.364079345703125,-49.312503814697266,46.181251525878906,-14.718750953674316
1774790031493079600,1.37407958984375,-47.34375,44.625,-17.606250762939453
1774790031503079400,1.384079345703125,-48.11250305175781,46.125,-14.193750381469727
1774790031513079600,1.39407958984375,-49.29375076293945,46.556251525878906,-14.643750190734863
1774790031523079400,1.404079345703125,-46.72500228881836,45.69375228881836,-16.293750762939453
1774790031533079600,1.41407958984375,-49.593753814697266,47.13750076293945,-13.256250381469727
1774790031543079400,1.424079345703125,-49.181251525878906,46.44375228881836,-11.981250762939453
1774790031553079600,1.43407958984375,-56.025001525878906,46.91250228881836,-10.59375
1774790031563079400,1.444079345703125,-55.087501525878906,48.30000305175781,-8.793750762939453
1774790031573079600,1.45407958984375,-54.48750305175781,44.83125305175781,-6.937500476837158
1774790031583079400,1.464079345703125,-54.056251525878906,48.468753814697266,-6.825000286102295
1774790031593079600,1.47407958984375,-52.406253814697266,47.0625,-8.68125057220459
1774790031603079400,1.484079345703125,-55.14375305175781,47.23125076293945,-7.593750476837158
1774790031613079600,1.49407958984375,-58.181251525878906,47.90625,-5.550000190734863
1774790031623079400,1.504079345703125,-53.306251525878906,46.80000305175781,-9.693750381469727
1774790031633079600,1.51407958984375,-59.062503814697266,49.51875305175781,-3.937500238418579
1774790031643079400,1.524079345703125,-53.26875305175781,48.281253814697266,-8.006250381469727
1774790031653079600,1.53407958984375,-54.30000305175781,49.38750076293945,-8.193750381469727
1774790031663079400,1.544079345703125,-53.66250228881836,45.9375,-7.875000476837158
1774790031673079600,1.55407958984375,-54.67500305175781,46.05000305175781,-11.362500190734863
1774790031683079400,1.564079345703125,-53.17500305175781,45.75,-11.737500190734863
1774790031693079600,1.57407958984375,-51.54375076293945,43.76250076293945,-13.425000190734863
1774790031703079400,1.584079345703125,-51.525001525878906,45.28125,-11.4375
1774790031713079600,1.59407958984375,-52.031253814697266,43.25625228881836,-12.52500057220459
1774790031723079400,1.604079345703125,-53.437503814697266,44.08125305175781,-6.975000381469727
1774790031733079600,1.61407958984375,-50.98125076293945,42.35625076293945,-13.575000762939453
1774790031743079400,1.624079345703125,-52.38750076293945,44.493751525878906,-5.793750286102295
1774790031753079600,1.63407958984375,-56.306251525878906,42.26250076293945,-2.2875001430511475
1774790031763079400,1.644079345703125,-54.000003814697266,41.83125305175781,-5.268750190734863
1774790031773079600,1.65407958984375,-52.500003814697266,38.94375228881836,-12.206250190734863
1774790031783079400,1.664079345703125,-52.500003814697266,38.94375228881836,-12.206250190734863
1774790031793079600,1.67407958984375,-54.67500305175781,41.64375305175781,-1.4812500476837158
1774790031803079400,1.684079345703125,-54.67500305175781,41.64375305175781,-1.4812500476837158
1774790031813079600,1.69407958984375,-57.03750228881836,43.16250228881836,-2.1000001430511475
1774790031823079400,1.704079345703125,-58.20000076293945,41.17500305175781,-1.3312500715255737
1774790031833079600,1.71407958984375,-56.343753814697266,41.625,-2.418750047683716
1774790031843079400,1.724079345703125,-60.337501525878906,40.743751525878906,-0.7875000238418579
1774790031853079600,1.73407958984375,-57.468753814697266,41.13750076293945,1.0500000715255737
1774790031863079400,1.744079345703125,-55.42500305175781,41.83125305175781,-1.8375000953674316
1774790031873079600,1.75407958984375,-58.781253814697266,41.66250228881836,-1.350000023841858
1774790031883079400,1.764079345703125,-55.743751525878906,39.806251525878906,-5.456250190734863
1774790031893079600,1.77407958984375,-52.35000228881836,40.368751525878906,-7.556250095367432
1774790031903079400,1.784079345703125,-55.500003814697266,39.65625,-2.25
1774790031913079600,1.79407958984375,-53.56875228881836,42.150001525878906,-3.093750238418579
1774790031923079400,1.804079345703125,-57.000003814697266,40.63125228881836,-1.6125000715255737
1774790031933079600,1.81407958984375,-58.837501525878906,40.14375305175781,-0.65625
1774790031943079400,1.824079345703125,-57.69375228881836,42.60000228881836,-0.9187500476837158
1774790031953079600,1.83407958984375,-56.17500305175781,41.73750305175781,-2.5500001907348633
1774790031963079400,1.844079345703125,-56.212501525878906,40.23750305175781,-4.237500190734863
1774790031973079600,1.85407958984375,-56.36250305175781,41.15625,-1.3687500953674316
1774790031983079400,1.864079345703125,-56.51250076293945,39.76875305175781,-5.737500190734863
1774790031993079600,1.87407958984375,-54.35625076293945,41.025001525878906,-3.9937500953674316
1774790032003079400,1.884079345703125,-55.125003814697266,40.76250076293945,-4.03125
1774790032013079600,1.89407958984375,-53.156253814697266,39.84375,-6.937500476837158
1774790032023079400,1.904079345703125,-57.150001525878906,40.462501525878906,-1.912500023841858
1774790032033079600,1.91407958984375,-55.931251525878906,39.86250305175781,-3.468750238418579
1774790032043079400,1.924079345703125,-54.656253814697266,40.66875076293945,-5.606250286102295
1774790032053079600,1.93407958984375,-57.91875076293945,39.712501525878906,-2.7375001907348633
1774790032063079400,1.944079345703125,-54.618751525878906,41.13750076293945,-6.656250476837158
1774790032073079600,1.95407958984375,-56.94375228881836,40.3125,-6.318750381469727
1774790032083079400,1.964079345703125,-56.36250305175781,40.20000076293945,-3.6750001907348633
1774790032093079600,1.97407958984375,-54.11250305175781,38.70000076293945,-5.4375
1774790032103079400,1.984079345703125,-57.76875305175781,40.48125076293945,-0.9000000357627869
1774790032113079600,1.99407958984375,-58.23750305175781,39.88125228881836,-1.5750000476837158
1774790032123079400,2.004079345703125,-57.03750228881836,39.337501525878906,-1.8562500476837158
1774790032133079600,2.01407958984375,-56.36250305175781,40.03125,-4.837500095367432
1774790032143079400,2.024079345703125,-52.38750076293945,39.375,-8.456250190734863
1774790032153079600,2.03407958984375,-55.51875305175781,38.45625305175781,-3.6000001430511475
1774790032163079400,2.044079345703125,-56.00625228881836,38.04375076293945,-3.1125001907348633
1774790032173079600,2.05407958984375,-55.462501525878906,39.056251525878906,-6.318750381469727
1774790032183079400,2.064079345703125,-55.25625228881836,37.29375076293945,-3.9750001430511475
1774790032193079600,2.07407958984375,-56.587501525878906,37.462501525878906,-6.168750286102295
1774790032203079400,2.084079345703125,-56.51250076293945,36.82500076293945,-2.90625
1774790032213079600,2.09407958984375,-58.05000305175781,36.1875,-2.981250047683716
1774790032223079400,2.104079345703125,-52.031253814697266,36.48750305175781,-8.58750057220459
1774790032233079600,2.11407958984375,-54.91875076293945,38.26875305175781,-4.087500095367432
1774790032243079400,2.124079345703125,-53.73750305175781,35.962501525878906,-7.106250286102295
1774790032253079600,2.13407958984375,-55.931251525878906,35.118751525878906,-5.231250286102295
1774790032263079400,2.144079345703125,-55.931251525878906,35.118751525878906,-5.231250286102295
1774790032273079600,2.15407958984375,-58.593753814697266,36.69375228881836,-5.550000190734863
1774790032283079400,2.164079345703125,-51.900001525878906,36.09375,-7.818750381469727
1774790032293079600,2.17407958984375,-57.13125228881836,36.82500076293945,-2.043750047683716
1774790032303079400,2.184079345703125,-56.343753814697266,37.51875305175781,-1.5
1774790032313079600,2.19407958984375,-56.718753814697266,34.57500076293945,-4.59375
1774790032323079400,2.204079345703125,-54.900001525878906,34.57500076293945,-4.650000095367432
1774790032333079600,2.21407958984375,-54.26250076293945,35.41875076293945,-3.937500238418579
1774790032343079400,2.224079345703125,-56.306251525878906,37.931251525878906,-2.981250047683716
1774790032353079600,2.23407958984375,-53.83125305175781,35.73750305175781,-1.7812501192092896
1774790032363079400,2.244079345703125,-54.39375305175781,35.962501525878906,-3.6937501430511475
1774790032373079600,2.25407958984375,-56.38125228881836,36.1875,-2.1937501430511475
1774790032383079400,2.264079345703125,-55.01250076293945,34.95000076293945,-5.418750286102295
1774790032393079600,2.27407958984375,-55.29375076293945,36,-4.21875
1774790032403079400,2.284079345703125,-55.743751525878906,35.85000228881836,-5.231250286102295
1774790032413079600,2.29407958984375,-51.093753814697266,36.84375,-9.543750762939453
1774790032423079400,2.304079345703125,-55.25625228881836,36.31875228881836,-6.281250476837158
1774790032433079600,2.31407958984375,-55.16250228881836,37.81875228881836,-8.8125
1774790032443079400,2.324079345703125,-53.83125305175781,34.40625,-4.856250286102295
1774790032453079600,2.33407958984375,-54.16875076293945,37.44375228881836,-5.381250381469727
1774790032463079400,2.344079345703125,-53.00625228881836,34.70625305175781,-8.77500057220459
1774790032473079600,2.35407958984375,-54.03750228881836,35.70000076293945,-7.987500190734863
1774790032483079400,2.364079345703125,-52.80000305175781,36.28125,-8.325000762939453
1774790032493079600,2.37407958984375,-49.76250076293945,36.150001525878906,-9.15000057220459
1774790032503079400,2.384079345703125,-51.900001525878906,35.025001525878906,-10.856250762939453
1774790032513079600,2.39407958984375,-51.58125305175781,35.306251525878906,-11.512500762939453
1774790032523079400,2.404079345703125,-51.48750305175781,36.91875076293945,-13.331250190734863
1774790032533079600,2.41407958984375,-51.562503814697266,36.09375,-10.36875057220459
1774790032543079400,2.424079345703125,-51.67500305175781,37.29375076293945,-9.862500190734863
1774790032553079600,2.43407958984375,-50.92500305175781,35.306251525878906,-14.925000190734863
1774790032563079400,2.444079345703125,-54.525001525878906,35.38125228881836,-6.768750190734863
1774790032573079600,2.45407958984375,-53.47500228881836,34.06875228881836,-8.86875057220459
1774790032583079400,2.464079345703125,-51.76875305175781,38.28750228881836,-0.48750001192092896
1774790032593079600,2.47407958984375,-52.72500228881836,35.13750076293945,-5.868750095367432
1774790032603079400,2.484079345703125,-51.375003814697266,36.150001525878906,-2.325000047683716
1774790032613079600,2.49407958984375,-55.25625228881836,37.78125,-3.187500238418579
1774790032623079400,2.504079345703125,-54.281253814697266,35.73750305175781,-1.7625000476837158
1774790032633079600,2.51407958984375,-55.29375076293945,37.51875305175781,-0.6937500238418579
1774790032643079400,2.524079345703125,-53.812503814697266,36.41250228881836,-1.3687500953674316
1774790032653079600,2.53407958984375,-54.281253814697266,35.625,-2.4937500953674316
1774790032663079400,2.544079345703125,-55.25625228881836,38.34375,-0.956250011920929
1774790032673079600,2.55407958984375,-54.50625228881836,37.95000076293945,-2.043750047683716
1774790032683079400,2.564079345703125,-54.525001525878906,37.23750305175781,-2.606250047683716
1774790032693079600,2.57407958984375,-52.05000305175781,37.650001525878906,-4.837500095367432
1774790032703079400,2.584079345703125,-52.66875076293945,37.275001525878906,-4.050000190734863
1774790032713079600,2.59407958984375,-54.35625076293945,37.275001525878906,-3.1500000953674316
1774790032723079400,2.604079345703125,-52.406253814697266,35.775001525878906,-5.756250381469727
1774790032733079600,2.61407958984375,-51.750003814697266,37.01250076293945,-4.96875
1774790032743079400,2.624079345703125,-51.750003814697266,37.01250076293945,-4.96875
1774790032753079600,2.63407958984375,-53.00625228881836,37.21875,-2.6437501907348633
1774790032763079400,2.644079345703125,-54.13125228881836,35.41875076293945,-3.093750238418579
1774790032773079600,2.65407958984375,-56.00625228881836,37.25625228881836,-4.256250381469727
1774790032783079400,2.664079345703125,-53.41875076293945,37.556251525878906,-4.6875
1774790032793079600,2.67407958984375,-56.025001525878906,38.36250305175781,-0.9375000596046448
1774790032803079400,2.684079345703125,-56.56875228881836,39.76875305175781,-1.5
1774790032813079600,2.69407958984375,-55.51875305175781,39.11250305175781,-1.6500000953674316
1774790032823079400,2.704079345703125,-55.33125305175781,37.5,1.7062500715255737
1774790032833079600,2.71407958984375,-53.587501525878906,37.125,-4.200000286102295
1774790032843079400,2.724079345703125,-54.150001525878906,40.48125076293945,0.8250000476837158
1774790032853079600,2.73407958984375,-55.781253814697266,35.85000228881836,-3.543750047683716
1774790032863079400,2.744079345703125,-52.35000228881836,37.40625,-5.737500190734863
1774790032873079600,2.75407958984375,-55.76250076293945,36.07500076293945,-3.7687501907348633
1774790032883079400,2.764079345703125,-53.718753814697266,36.86250305175781,-6.918750286102295
1774790032893079600,2.77407958984375,-54.337501525878906,36.39375305175781,-7.556250095367432
1774790032903079400,2.784079345703125,-52.66875076293945,36.806251525878906,-5.550000190734863
1774790032913079600,2.79407958984375,-51.67500305175781,38.08125305175781,-8.71875
1774790032923079400,2.804079345703125,-53.531253814697266,38.79375076293945,-3.8812501430511475
1774790032933079600,2.81407958984375,-53.718753814697266,37.03125,-5.756250381469727
1774790032943079400,2.824079345703125,-52.91250228881836,37.275001525878906,-8.287500381469727
1774790032953079600,2.83407958984375,-51.000003814697266,36.58125305175781,-6.206250190734863
1774790032963079400,2.844079345703125,-51.13125228881836,36.431251525878906,-8.0625
1774790032973079600,2.85407958984375,-53.343753814697266,36.712501525878906,-1.03125
1774790032983079400,2.864079345703125,-53.51250076293945,36.056251525878906,-2.137500047683716
1774790032993079600,2.87407958984375,-54.48750305175781,36.76875305175781,-5.793750286102295
1774790033003079400,2.884079345703125,-53.55000305175781,38.400001525878906,-3.9562501907348633
1774790033013079600,2.89407958984375,-54.54375076293945,36.11250305175781,-3.5250000953674316
1774790033023079400,2.904079345703125,-52.875003814697266,36.86250305175781,-1.725000023841858
1774790033033079600,2.91407958984375,-54.806251525878906,37.06875228881836,-4.59375
1774790033043079400,2.924079345703125,-51.843753814697266,39.1875,-3.7125000953674316
1774790033053079600,2.93407958984375,-54.562503814697266,36.91875076293945,-0.5437500476837158
1774790033063079400,2.944079345703125,-53.36250305175781,35.962501525878906,-1.8750001192092896
1774790033073079600,2.95407958984375,-56.437503814697266,36.50625228881836,1.8375000953674316
1774790033083079400,2.964079345703125,-56.400001525878906,37.462501525878906,2.2875001430511475
1774790033093079600,2.97407958984375,-51.63750076293945,37.743751525878906,-0.75
1774790033103079400,2.984079345703125,-53.79375076293945,37.33125305175781,0.65625
1774790033113079600,2.99407958984375,-56.66250228881836,37.42500305175781,-0.5250000357627869
1774790033123079400,3.004079345703125,-58.06875228881836,36.30000305175781,-0.5625
1774790033133079600,3.01407958984375,-55.275001525878906,38.625,0.9375000596046448
1774790033143079400,3.024079345703125,-50.118751525878906,37.275001525878906,-2.2875001430511475
1774790033153079600,3.03407958984375,-53.56875228881836,35.08125305175781,-0.20625001192092896
1774790033163079400,3.044079345703125,-56.41875076293945,36.41250228881836,1.1062500476837158
1774790033173079600,3.05407958984375,-54.39375305175781,37.01250076293945,-0.675000011920929
1774790033183079400,3.064079345703125,-54.30000305175781,36.20625305175781,1.4250000715255737
1774790033193079600,3.07407958984375,-55.687503814697266,35.212501525878906,-0.28125
1774790033203079400,3.084079345703125,-55.16250228881836,37.931251525878906,1.3687500953674316
1774790033213079600,3.09407958984375,-55.16250228881836,37.931251525878906,1.3687500953674316
1774790033223079400,3.104079345703125,-55.06875228881836,37.23750305175781,4.181250095367432
1774790033233079600,3.11407958984375,-51.468753814697266,34.76250076293945,0.9375000596046448
1774790033243079400,3.124079345703125,-53.00625228881836,34.66875076293945,2.1000001430511475
1774790033253079600,3.13407958984375,-54.337501525878906,34.61250305175781,-0.9937500357627869
1774790033263079400,3.144079345703125,-52.53750228881836,34.556251525878906,0.35625001788139343
1774790033273079600,3.15407958984375,-51.900001525878906,34.5,-0.7875000238418579
1774790033283079400,3.164079345703125,-49.80000305175781,33.900001525878906,-1.5187500715255737
1774790033293079600,3.17407958984375,-53.47500228881836,34.03125,1.9875000715255737
1774790033303079400,3.184079345703125,-52.275001525878906,33.11250305175781,-0.05625000223517418
1774790033313079600,3.19407958984375,-53.45625305175781,34.6875,2.1000001430511475
1774790033323079400,3.204079345703125,-53.66250228881836,33.712501525878906,3.2062501907348633
1774790033333079600,3.21407958984375,-51.093753814697266,31.837501525878906,-1.1812500953674316
1774790033343079400,3.224079345703125,-52.14375305175781,32.79375076293945,1.1437500715255737
1774790033353079600,3.23407958984375,-53.250003814697266,32.681251525878906,3
1774790033363079400,3.244079345703125,-51.281253814697266,30.693750381469727,-1.256250023841858
1774790033373079600,3.25407958984375,-52.98750305175781,34.76250076293945,0.9750000238418579
1774790033383079400,3.264079345703125,-53.868751525878906,35.19375228881836,0.5250000357627869
1774790033393079600,3.27407958984375,-52.70625305175781,34.29375076293945,2.0062501430511475
1774790033403079400,3.284079345703125,-54.243751525878906,33.13125228881836,0
1774790033413079600,3.29407958984375,-51.97500228881836,33.07500076293945,-0.35625001788139343
1774790033423079400,3.304079345703125,-55.76250076293945,33.9375,1.3312500715255737
1774790033433079600,3.31407958984375,-54.243751525878906,34.087501525878906,2.3062500953674316
1774790033443079400,3.324079345703125,-54.281253814697266,32.962501525878906,1.3687500953674316
1774790033453079600,3.33407958984375,-52.76250076293945,31.98750114440918,-0.956250011920929
1774790033463079400,3.344079345703125,-51.07500076293945,31.875001907348633,-2.5875000953674316
1774790033473079600,3.35407958984375,-52.91250228881836,32.19375228881836,-0.35625001788139343
1774790033483079400,3.364079345703125,-52.05000305175781,30.337501525878906,-2.0062501430511475
1774790033493079600,3.37407958984375,-52.743751525878906,32.26875305175781,-1.6125000715255737
1774790033503079400,3.384079345703125,-52.63125228881836,31.350000381469727,-0.24375000596046448
1774790033513079600,3.39407958984375,-50.60625076293945,31.443750381469727,-3.8062500953674316
1774790033523079400,3.404079345703125,-52.931251525878906,31.500001907348633,-0.9187500476837158
1774790033533079600,3.41407958984375,-50.73750305175781,33.95625305175781,1.4812500476837158
1774790033543079400,3.424079345703125,-50.306251525878906,32.45625305175781,-1.0875000953674316
1774790033553079600,3.43407958984375,-50.70000076293945,30.375001907348633,-0.05625000223517418
1774790033563079400,3.444079345703125,-48.82500076293945,30.11250114440918,-4.387500286102295
1774790033573079600,3.45407958984375,-48.58125305175781,29.775001525878906,-1.5
1774790033583079400,3.464079345703125,-53.212501525878906,32.85000228881836,1.4625000953674316
1774790033593079600,3.47407958984375,-49.556251525878906,31.012500762939453,-4.200000286102295
1774790033603079400,3.484079345703125,-53.10000228881836,31.51875114440918,0.07500000298023224
1774790033613079600,3.49407958984375,-49.72500228881836,31.668750762939453,-1.3875000476837158
1774790033623079400,3.504079345703125,-49.650001525878906,32.75625228881836,-4.143750190734863
1774790033633079600,3.51407958984375,-49.687503814697266,32.56875228881836,-1.21875
1774790033643079400,3.524079345703125,-49.10625076293945,30.543750762939453,-5.71875
1774790033653079600,3.53407958984375,-49.76250076293945,30.225000381469727,-2.793750047683716
1774790033663079400,3.544079345703125,-51.11250305175781,29.681251525878906,-4.837500095367432
1774790033673079600,3.55407958984375,-49.931251525878906,34.181251525878906,-1.3312500715255737
1774790033683079400,3.564079345703125,-53.23125076293945,32.34375,0.675000011920929
1774790033693079600,3.57407958984375,-53.23125076293945,32.34375,0.675000011920929
1774790033703079400,3.584079345703125,-53.437503814697266,33.337501525878906,-2.8125
1774790033713079600,3.59407958984375,-54.60000228881836,34.81875228881836,-3.7687501907348633
1774790033723079400,3.604079345703125,-53.10000228881836,33.88125228881836,-4.275000095367432
1774790033733079600,3.61407958984375,-51.58125305175781,37.650001525878906,-5.700000286102295
1774790033743079400,3.624079345703125,-54.50625228881836,37.38750076293945,-3.281250238418579
1774790033753079600,3.63407958984375,-50.493751525878906,35.83125305175781,-11.30625057220459
1774790033763079400,3.644079345703125,-55.29375076293945,35.32500076293945,-7.181250095367432
1774790033773079600,3.65407958984375,-53.36250305175781,39.056251525878906,-4.6875
1774790033783079400,3.664079345703125,-51.54375076293945,37.81875228881836,-7.087500095367432
1774790033793079600,3.67407958984375,-55.23750305175781,38.41875076293945,-3.0562500953674316
1774790033803079400,3.684079345703125,-51.82500076293945,38.23125076293945,-8.550000190734863
1774790033813079600,3.69407958984375,-48.69375228881836,38.75625228881836,-13.481250762939453
1774790033823079400,3.704079345703125,-47.94375228881836,36.243751525878906,-19.61250114440918
1774790033833079600,3.71407958984375,-52.743751525878906,40.01250076293945,-13.406250953674316
1774790033843079400,3.724079345703125,-51.806251525878906,40.33125305175781,-14.643750190734863
1774790033853079600,3.73407958984375,-52.29375076293945,41.19375228881836,-10.518750190734863
1774790033863079400,3.744079345703125,-50.73750305175781,41.25,-12.656250953674316
1774790033873079600,3.75407958984375,-52.23750305175781,42.86250305175781,-10.200000762939453
1774790033883079400,3.764079345703125,-53.32500076293945,41.19375228881836,-13.031250953674316
1774790033893079600,3.77407958984375,-54.26250076293945,42.35625076293945,-7.706250190734863
1774790033903079400,3.784079345703125,-53.47500228881836,41.92500305175781,-10.631250381469727
1774790033913079600,3.79407958984375,-50.60625076293945,41.36250305175781,-10.106250762939453
1774790033923079400,3.804079345703125,-52.087501525878906,43.61250305175781,-7.518750190734863
1774790033933079600,3.81407958984375,-55.275001525878906,43.01250076293945,-9.09375
1774790033943079400,3.824079345703125,-55.23750305175781,43.40625,-10.725000381469727
1774790033953079600,3.83407958984375,-53.19375228881836,40.98750305175781,-11.100000381469727
1774790033963079400,3.844079345703125,-52.368751525878906,42.20625305175781,-12.99375057220459
1774790033973079600,3.85407958984375,-54.69375228881836,42.88125228881836,-8.287500381469727
1774790033983079400,3.864079345703125,-54.95625305175781,44.025001525878906,-7.368750095367432
1774790033993079600,3.87407958984375,-55.275001525878906,43.38750076293945,-8.325000762939453
1774790034003079400,3.884079345703125,-52.462501525878906,41.75625228881836,-7.443750381469727
1774790034013079600,3.89407958984375,-52.06875228881836,42.243751525878906,-12.71250057220459
1774790034023079400,3.904079345703125,-53.306251525878906,42.525001525878906,-9.956250190734863
1774790034033079600,3.91407958984375,-54.20625305175781,42.525001525878906,-10.762500762939453
1774790034043079400,3.924079345703125,-51.468753814697266,41.94375228881836,-12.225000381469727
1774790034053079600,3.93407958984375,-52.462501525878906,39.48750305175781,-12.80625057220459
1774790034063079400,3.944079345703125,-56.19375228881836,41.71875,-12
1774790034073079600,3.95407958984375,-55.29375076293945,40.650001525878906,-14.21250057220459
1774790034083079400,3.964079345703125,-56.775001525878906,43.743751525878906,-8.49375057220459
1774790034093079600,3.97407958984375,-52.57500076293945,40.48125076293945,-13.593750953674316
1774790034103079400,3.984079345703125,-54.69375228881836,41.08125305175781,-12.168750762939453
1774790034113079600,3.99407958984375,-54.01875305175781,42.75,-12.71250057220459
1774790034123079400,4.004079345703125,-55.275001525878906,42.31875228881836,-11.34375
1774790034133079600,4.01407958984375,-53.26875305175781,42.806251525878906,-12.300000190734863
1774790034143079400,4.024079345703125,-52.42500305175781,40.21875,-13.800000190734863
1774790034153079600,4.03407958984375,-53.812503814697266,41.73750305175781,-9.375
1774790034163079400,4.044079345703125,-53.812503814697266,41.73750305175781,-9.375
1774790034173079600,4.05407958984375,-57.243751525878906,43.98750305175781,-7.593750476837158
1774790034183079400,4.064079345703125,-57.20625305175781,43.35000228881836,-11.943750381469727
1774790034193079600,4.07407958984375,-57.20625305175781,43.35000228881836,-11.943750381469727
1774790034203079400,4.084079345703125,-54.69375228881836,40.66875076293945,-13.237500190734863
1774790034213079600,4.09407958984375,-56.343753814697266,42.13125228881836,-10.93125057220459
1774790034223079400,4.104079345703125,-54.806251525878906,42.60000228881836,-12.018750190734863
1774790034233079600,4.11407958984375,-53.92500305175781,39.431251525878906,-17.4375
1774790034243079400,4.124079345703125,-54.656253814697266,41.45625305175781,-13.781250953674316
1774790034253079600,4.13407958984375,-54.48750305175781,42.91875076293945,-11.53125
1774790034263079400,4.144079345703125,-55.593753814697266,41.53125,-12.468750953674316
1774790034273079600,4.15407958984375,-56.36250305175781,41.212501525878906,-12.937500953674316
1774790034283079400,4.164079345703125,-52.29375076293945,42.993751525878906,-16.087501525878906
1774790034293079600,4.17407958984375,-55.29375076293945,42.13125228881836,-10.96875
1774790034303079400,4.184079345703125,-54.16875076293945,42.525001525878906,-13.312500953674316
1774790034313079600,4.19407958984375,-55.968753814697266,42.375,-15.262500762939453
1774790034323079400,4.204079345703125,-56.250003814697266,43.61250305175781,-13.612500190734863
1774790034333079600,4.21407958984375,-51.54375076293945,41.56875228881836,-19.912500381469727
1774790034343079400,4.224079345703125,-52.181251525878906,41.88750076293945,-16.875
1774790034353079600,4.23407958984375,-52.931251525878906,41.73750305175781,-17.868751525878906
1774790034363079400,4.244079345703125,-55.500003814697266,43.01250076293945,-15.168750762939453
1774790034373079600,4.25407958984375,-52.16250228881836,42.09375,-17.118751525878906
1774790034383079400,4.264079345703125,-54.150001525878906,43.16250228881836,-13.200000762939453
1774790034393079600,4.27407958984375,-56.10000228881836,43.61250305175781,-14.475000381469727
1774790034403079400,4.284079345703125,-54.431251525878906,42.86250305175781,-16.200000762939453
1774790034413079600,4.29407958984375,-55.53750228881836,42.58125305175781,-13.83750057220459
1774790034423079400,4.304079345703125,-51.97500228881836,43.275001525878906,-16.762500762939453
1774790034433079600,4.31407958984375,-52.29375076293945,43.10625076293945,-15.375000953674316
1774790034443079400,4.324079345703125,-55.593753814697266,44.962501525878906,-13.800000190734863
1774790034453079600,4.33407958984375,-53.062503814697266,42.84375,-15.393750190734863
1774790034463079400,4.344079345703125,-55.66875076293945,43.14375305175781,-13.443750381469727
1774790034473079600,4.35407958984375,-55.875003814697266,44.83125305175781,-15.506250381469727
1774790034483079400,4.364079345703125,-53.88750076293945,42.09375,-13.687500953674316
1774790034493079600,4.37407958984375,-54.88125228881836,43.78125,-13.331250190734863
1774790034503079400,4.384079345703125,-49.38750076293945,43.29375076293945,-17.381250381469727
1774790034513079600,4.39407958984375,-53.00625228881836,45.78750228881836,-12.300000190734863
1774790034523079400,4.404079345703125,-54.78750228881836,45.63750076293945,-15.093750953674316
1774790034533079600,4.41407958984375,-53.64375305175781,44.13750076293945,-14.287500381469727
1774790034543079400,4.424079345703125,-55.48125076293945,43.181251525878906,-16.537500381469727
1774790034553079600,4.43407958984375,-51.63750076293945,42.03750228881836,-21.806251525878906
1774790034563079400,4.444079345703125,-55.968753814697266,43.181251525878906,-13.987500190734863
1774790034573079600,4.45407958984375,-55.312503814697266,44.681251525878906,-13.162500381469727
1774790034583079400,4.464079345703125,-55.16250228881836,44.13750076293945,-14.250000953674316
1774790034593079600,4.47407958984375,-54.76875305175781,43.03125,-13.350000381469727
1774790034603079400,4.484079345703125,-56.85000228881836,43.368751525878906,-16.181251525878906
1774790034613079600,4.49407958984375,-55.16250228881836,44.94375228881836,-12.975000381469727
1774790034623079400,4.504079345703125,-54.39375305175781,44.775001525878906,-14.156250953674316
1774790034633079600,4.51407958984375,-54.39375305175781,44.775001525878906,-14.156250953674316
1774790034643079400,4.524079345703125,-54.54375076293945,43.14375305175781,-17.700000762939453
1774790034653079600,4.53407958984375,-56.400001525878906,43.931251525878906,-13.968750953674316
1774790034663079400,4.544079345703125,-55.275001525878906,45.63750076293945,-13.387500762939453
1774790034673079600,4.55407958984375,-57.01875305175781,43.931251525878906,-13.106250762939453
1774790034683079400,4.564079345703125,-55.38750076293945,42.75,-13.518750190734863
1774790034693079600,4.57407958984375,-52.57500076293945,43.16250228881836,-17.475000381469727
1774790034703079400,4.584079345703125,-56.868751525878906,44.28750228881836,-11.49375057220459
1774790034713079600,4.59407958984375,-55.95000076293945,43.462501525878906,-14.643750190734863
1774790034723079400,4.604079345703125,-54.88125228881836,43.556251525878906,-14.793750762939453
1774790034733079600,4.61407958984375,-52.931251525878906,43.81875228881836,-12.112500190734863
1774790034743079400,4.624079345703125,-52.968753814697266,42.375,-13.518750190734863
1774790034753079600,4.63407958984375,-52.10625076293945,41.34375,-12.881250381469727
1774790034763079400,4.644079345703125,-55.650001525878906,43.70625305175781,-13.74375057220459
1774790034773079600,4.65407958984375,-55.48125076293945,43.53750228881836,-15.768750190734863
1774790034783079400,4.664079345703125,-54.95625305175781,42,-12.693750381469727
1774790034793079600,4.67407958984375,-55.35000228881836,42.75,-16.068750381469727
1774790034803079400,4.684079345703125,-55.368751525878906,43.70625305175781,-11.21250057220459
1774790034813079600,4.69407958984375,-57.03750228881836,43.85625076293945,-12
1774790034823079400,4.704079345703125,-52.33125305175781,42.20625305175781,-15.543750762939453
1774790034833079600,4.71407958984375,-52.931251525878906,42.95625305175781,-13.83750057220459
1774790034843079400,4.724079345703125,-52.66875076293945,41.66250228881836,-14.925000190734863
1774790034853079600,4.73407958984375,-53.19375228881836,43.42500305175781,-16.556251525878906
1774790034863079400,4.744079345703125,-52.42500305175781,44.025001525878906,-15.05625057220459
1774790034873079600,4.75407958984375,-51.281253814697266,42.50625228881836,-13.387500762939453
1774790034883079400,4.764079345703125,-53.19375228881836,41.13750076293945,-11.77500057220459
1774790034893079600,4.77407958984375,-54.48750305175781,43.40625,-10.74375057220459
1774790034903079400,4.784079345703125,-55.44375228881836,41.88750076293945,-10.856250762939453
1774790034913079600,4.79407958984375,-53.906253814697266,43.01250076293945,-9.975000381469727
1774790034923079400,4.804079345703125,-49.931251525878906,41.90625,-14.100000381469727
1774790034933079600,4.81407958984375,-53.98125076293945,44.94375228881836,-10.46250057220459
1774790034943079400,4.824079345703125,-52.70625305175781,42.88125228881836,-8.34375
1774790034953079600,4.83407958984375,-54.73125076293945,41.60625076293945,-8.53125
1774790034963079400,4.844079345703125,-53.73750305175781,43.61250305175781,-9.300000190734863
1774790034973079600,4.85407958984375,-53.70000076293945,44.55000305175781,-8.850000381469727
1774790034983079400,4.864079345703125,-52.687503814697266,43.63125228881836,-7.500000476837158
1774790034993079600,4.87407958984375,-55.42500305175781,41.625,-12.750000953674316
1774790035003079400,4.884079345703125,-53.868751525878906,42.78750228881836,-13.27500057220459
1774790035013079600,4.89407958984375,-54.60000228881836,43.91250228881836,-12.33750057220459
1774790035023079400,4.904079345703125,-53.64375305175781,44.94375228881836,-13.012500762939453
1774790035033079600,4.91407958984375,-53.88750076293945,42.806251525878906,-11.4375
1774790035043079400,4.924079345703125,-53.812503814697266,45.58125305175781,-9.487500190734863
1774790035053079600,4.93407958984375,-52.48125076293945,44.28750228881836,-10.631250381469727
1774790035063079400,4.944079345703125,-54.431251525878906,44.51250076293945,-11.662500381469727
1774790035073079600,4.95407958984375,-53.17500305175781,41.55000305175781,-11.40000057220459
1774790035083079400,4.964079345703125,-55.48125076293945,45.26250076293945,-10.78125
1774790035093079600,4.97407958984375,-54.60000228881836,45.056251525878906,-8.86875057220459
1774790035103079400,4.984079345703125,-54.60000228881836,45.056251525878906,-8.86875057220459
1774790035113079600,4.99407958984375,-54.562503814697266,45.46875,-10.200000762939453
1774790035123079400,5.004079345703125,-52.23750305175781,42.35625076293945,-10.987500190734863
1774790035133079600,5.01407958984375,-55.48125076293945,44.681251525878906,-12.300000190734863
1774790035143079400,5.024079345703125,-54.39375305175781,45.30000305175781,-12.206250190734863
1774790035153079600,5.03407958984375,-55.368751525878906,44.493751525878906,-10.08750057220459
1774790035163079400,5.044079345703125,-54.843753814697266,45.056251525878906,-13.08750057220459
1774790035173079600,5.05407958984375,-57.150001525878906,45.60000228881836,-9.393750190734863
1774790035183079400,5.064079345703125,-53.868751525878906,43.85625076293945,-10.237500190734863
1774790035193079600,5.07407958984375,-55.968753814697266,44.34375,-10.237500190734863
1774790035203079400,5.084079345703125,-55.368751525878906,45.20625305175781,-7.837500095367432
1774790035213079600,5.09407958984375,-54.900001525878906,44.45625305175781,-10.387500762939453
1774790035223079400,5.104079345703125,-56.17500305175781,42.95625305175781,-10.350000381469727
1774790035233079600,5.11407958984375,-54.13125228881836,44.71875,-11.0625
1774790035243079400,5.124079345703125,-54.750003814697266,44.73750305175781,-10.200000762939453
1774790035253079600,5.13407958984375,-55.72500228881836,43.33125305175781,-9.600000381469727
1774790035263079400,5.144079345703125,-55.368751525878906,44.19375228881836,-10.425000190734863
1774790035273079600,5.15407958984375,-56.13750076293945,44.306251525878906,-9.675000190734863
1774790035283079400,5.164079345703125,-56.28750228881836,44.0625,-10.575000762939453
1774790035293079600,5.17407958984375,-53.19375228881836,45.20625305175781,-11.137500762939453
1774790035303079400,5.184079345703125,-53.212501525878906,45.03750228881836,-9.75
1774790035313079600,5.19407958984375,-55.181251525878906,45.806251525878906,-8.850000381469727
1774790035323079400,5.204079345703125,-54.01875305175781,43.70625305175781,-10.40625
1774790035333079600,5.21407958984375,-53.062503814697266,45.13125228881836,-10.03125
1774790035343079400,5.224079345703125,-52.593753814697266,43.59375,-14.568750381469727
1774790035353079600,5.23407958984375,-53.32500076293945,46.01250076293945,-10.83750057220459
1774790035363079400,5.244079345703125,-55.593753814697266,45.806251525878906,-12.225000381469727
1774790035373079600,5.25407958984375,-54.093753814697266,45.20625305175781,-12.093750953674316
1774790035383079400,5.264079345703125,-55.931251525878906,46.556251525878906,-7.987500190734863
1774790035393079600,5.27407958984375,-53.64375305175781,46.21875,-8.53125
1774790035403079400,5.284079345703125,-55.312503814697266,45.5625,-11.287500381469727
1774790035413079600,5.29407958984375,-55.593753814697266,45.91875076293945,-11.49375057220459
1774790035423079400,5.304079345703125,-55.61250305175781,45.46875,-12
1774790035433079600,5.31407958984375,-54.69375228881836,45.31875228881836,-12.206250190734863
1774790035443079400,5.324079345703125,-54.58125305175781,44.775001525878906,-10.762500762939453
1774790035453079600,5.33407958984375,-55.931251525878906,44.212501525878906,-13.800000190734863
1774790035463079400,5.344079345703125,-54.88125228881836,44.56875228881836,-12.206250190734863
1774790035473079600,5.35407958984375,-53.906253814697266,44.51250076293945,-15.90000057220459
1774790035483079400,5.364079345703125,-54.618751525878906,45.63750076293945,-16.80000114440918
1774790035493079600,5.37407958984375,-53.212501525878906,46.59375,-17.08125114440918
1774790035503079400,5.384079345703125,-52.181251525878906,44.118751525878906,-21.243751525878906
1774790035513079600,5.39407958984375,-50.28750228881836,45.45000076293945,-23.15625
1774790035523079400,5.404079345703125,-54.48750305175781,46.48125076293945,-13.537500381469727
1774790035533079600,5.41407958984375,-51.900001525878906,45.993751525878906,-15.112500190734863
1774790035543079400,5.424079345703125,-54.243751525878906,46.81875228881836,-18.993751525878906
1774790035553079600,5.43407958984375,-48.900001525878906,43.57500076293945,-18.900001525878906
1774790035563079400,5.444079345703125,-51.243751525878906,45.45000076293945,-19.743751525878906
1774790035573079600,5.45407958984375,-52.95000076293945,45.243751525878906,-17.775001525878906
1774790035583079400,5.464079345703125,-52.95000076293945,45.243751525878906,-17.775001525878906
1774790035593079600,5.47407958984375,-52.44375228881836,45.95625305175781,-19.762500762939453
1774790035603079400,5.484079345703125,-53.13750076293945,43.5,-20.36250114440918
1774790035613079600,5.49407958984375,-49.556251525878906,45.22500228881836,-22.087501525878906
1774790035623079400,5.504079345703125,-52.33125305175781,45.84375,-17.100000381469727
1774790035633079600,5.51407958984375,-54.63750076293945,46.3125,-13.856250762939453
1774790035643079400,5.524079345703125,-54.468753814697266,46.80000305175781,-13.893750190734863
1774790035653079600,5.53407958984375,-55.10625076293945,46.42500305175781,-13.106250762939453
1774790035663079400,5.544079345703125,-54.35625076293945,45.63750076293945,-14.268750190734863
1774790035673079600,5.55407958984375,-56.94375228881836,46.78125,-10.74375057220459
1774790035683079400,5.564079345703125,-56.66250228881836,46.06875228881836,-11.30625057220459
1774790035693079600,5.57407958984375,-55.218753814697266,47.66250228881836,-12.300000190734863
1774790035703079400,5.584079345703125,-55.368751525878906,47.94375228881836,-11.268750190734863
1774790035713079600,5.59407958984375,-55.38750076293945,46.66875076293945,-14.043750762939453
1774790035723079400,5.604079345703125,-55.05000305175781,47.493751525878906,-14.325000762939453
1774790035733079600,5.61407958984375,-54.69375228881836,45.20625305175781,-12.937500953674316
1774790035743079400,5.624079345703125,-55.29375076293945,46.3125,-10.443750381469727
1774790035753079600,5.63407958984375,-57.07500076293945,47.34375,-10.200000762939453
1774790035763079400,5.644079345703125,-57.056251525878906,48,-10.068750381469727
1774790035773079600,5.65407958984375,-56.60625076293945,47.08125305175781,-12.937500953674316
1774790035783079400,5.664079345703125,-56.13750076293945,48.54375076293945,-9.71250057220459
1774790035793079600,5.67407958984375,-55.875003814697266,47.25,-9.956250190734863
1774790035803079400,5.684079345703125,-55.968753814697266,48.41250228881836,-11.4375
1774790035813079600,5.69407958984375,-55.593753814697266,45.95625305175781,-11.21250057220459
1774790035823079400,5.704079345703125,-56.118751525878906,47.45625305175781,-12.881250381469727
1774790035833079600,5.71407958984375,-57.375003814697266,47.85000228881836,-10.237500190734863
1774790035843079400,5.724079345703125,-55.23750305175781,48.337501525878906,-9.356250762939453
1774790035853079600,5.73407958984375,-55.06875228881836,47.98125076293945,-10.96875
1774790035863079400,5.744079345703125,-56.17500305175781,48.31875228881836,-6.937500476837158
1774790035873079600,5.75407958984375,-56.75625228881836,47.98125076293945,-10.08750057220459
1774790035883079400,5.764079345703125,-57.806251525878906,48.806251525878906,-8.77500057220459
1774790035893079600,5.77407958984375,-57.525001525878906,48.093753814697266,-9.33750057220459
1774790035903079400,5.784079345703125,-56.92500305175781,48.375003814697266,-8.30625057220459
1774790035913079600,5.79407958984375,-55.98750305175781,49.312503814697266,-7.031250476837158
1774790035923079400,5.804079345703125,-54.48750305175781,48.76875305175781,-6.468750476837158
1774790035933079600,5.81407958984375,-56.17500305175781,48.150001525878906,-8.100000381469727
1774790035943079400,5.824079345703125,-56.32500076293945,47.92500305175781,-7.987500190734863
1774790035953079600,5.83407958984375,-57.35625076293945,48.093753814697266,-10.18125057220459
1774790035963079400,5.844079345703125,-55.218753814697266,48.618751525878906,-10.012500762939453
1774790035973079600,5.85407958984375,-56.75625228881836,47.493751525878906,-10.875
1774790035983079400,5.864079345703125,-57.35625076293945,47.73750305175781,-10.96875
1774790035993079600,5.87407958984375,-58.06875228881836,49.44375228881836,-9.487500190734863
1774790036003079400,5.884079345703125,-55.80000305175781,47.60625076293945,-13.575000762939453
1774790036013079600,5.89407958984375,-55.01250076293945,48.093753814697266,-14.49375057220459
1774790036023079400,5.904079345703125,-54.431251525878906,46.70625305175781,-16.3125
1774790036033079600,5.91407958984375,-56.66250228881836,46.66875076293945,-9.768750190734863
1774790036043079400,5.924079345703125,-56.66250228881836,46.66875076293945,-9.768750190734863
1774790036053079600,5.93407958984375,-57.45000076293945,47.15625,-6.412500381469727
1774790036063079400,5.944079345703125,-56.36250305175781,47.38125228881836,-7.387500286102295
1774790036073079600,5.95407958984375,-57.86250305175781,48.03750228881836,-7.218750476837158
1774790036083079400,5.964079345703125,-56.718753814697266,46.06875228881836,-7.068750381469727
1774790036093079600,5.97407958984375,-56.681251525878906,47.19375228881836,-6.150000095367432
1774790036103079400,5.984079345703125,-57.187503814697266,46.48125076293945,-4.987500190734863
1774790036113079600,5.99407958984375,-55.875003814697266,48.31875228881836,-6.937500476837158
1774790036123079400,6.004079345703125,-56.36250305175781,47.34375,-7.687500476837158
1774790036133079600,6.01407958984375,-54.54375076293945,49.85625076293945,-10.912500381469727
1774790036143079400,6.024079345703125,-56.04375076293945,47.34375,-7.687500476837158
1774790036153079600,6.03407958984375,-58.44375228881836,49.01250076293945,-6.450000286102295
1774790036163079400,6.044079345703125,-58.650001525878906,47.625,-5.71875
1774790036173079600,6.05407958984375,-58.406253814697266,46.462501525878906,-5.25
1774790036183079400,6.064079345703125,-57.937503814697266,46.875,-4.893750190734863
1774790036193079600,6.07407958984375,-58.23750305175781,47.19375228881836,-3.562500238418579
1774790036203079400,6.084079345703125,-58.29375076293945,45.48750305175781,-5.025000095367432
1774790036213079600,6.09407958984375,-58.42500305175781,45.91875076293945,-4.650000095367432
1774790036223079400,6.104079345703125,-56.681251525878906,47.08125305175781,-6.862500190734863
1774790036233079600,6.11407958984375,-55.44375228881836,47.71875,-6.787500381469727
1774790036243079400,6.124079345703125,-55.66875076293945,46.44375228881836,-5.325000286102295
1774790036253079600,6.13407958984375,-54.60000228881836,47.025001525878906,-3.825000047683716
1774790036263079400,6.144079345703125,-56.70000076293945,46.80000305175781,-6.225000381469727
1774790036273079600,6.15407958984375,-57.150001525878906,47.56875228881836,-4.368750095367432
1774790036283079400,6.164079345703125,-57.16875076293945,46.76250076293945,-5.643750190734863
1774790036293079600,6.17407958984375,-57.468753814697266,46.556251525878906,-6.243750095367432
1774790036303079400,6.184079345703125,-56.26875305175781,45.806251525878906,-7.125000476837158
1774790036313079600,6.19407958984375,-58.25625228881836,46.275001525878906,-5.568750381469727
1774790036323079400,6.204079345703125,-56.47500228881836,45.16875076293945,-5.550000190734863
1774790036333079600,6.21407958984375,-57.48750305175781,45.88125228881836,-6.656250476837158
1774790036343079400,6.224079345703125,-56.45625305175781,45.09375,-5.981250286102295
1774790036353079600,6.23407958984375,-57.22500228881836,45.056251525878906,-6.262500286102295
1774790036363079400,6.244079345703125,-57.937503814697266,46.275001525878906,-6.431250095367432
1774790036373079600,6.25407958984375,-56.17500305175781,44.94375228881836,-5.325000286102295
1774790036383079400,6.264079345703125,-55.556251525878906,45.9375,-3.6000001430511475
1774790036393079600,6.27407958984375,-57.806251525878906,45.97500228881836,-5.925000190734863
1774790036403079400,6.284079345703125,-56.41875076293945,46.275001525878906,-6.468750476837158
1774790036413079600,6.29407958984375,-56.250003814697266,47.400001525878906,-4.706250190734863
1774790036423079400,6.304079345703125,-56.10000228881836,46.275001525878906,-6.468750476837158
1774790036433079600,6.31407958984375,-57.01875305175781,46.650001525878906,-5.53125
1774790036443079400,6.324079345703125,-57.63750076293945,46.38750076293945,-5.71875
1774790036453079600,6.33407958984375,-55.181251525878906,46.96875,-5.100000381469727
1774790036463079400,6.344079345703125,-59.60625076293945,46.98750305175781,-4.96875
1774790036473079600,6.35407958984375,-56.868751525878906,46.44375228881836,-5.287500381469727
1774790036483079400,6.364079345703125,-57.95625305175781,46.556251525878906,-4.537500381469727
1774790036493079600,6.37407958984375,-59.493751525878906,45.97500228881836,-4.331250190734863
1774790036503079400,6.384079345703125,-59.493751525878906,45.97500228881836,-4.331250190734863
1774790036513079600,6.39407958984375,-55.35000228881836,46.81875228881836,-5.268750190734863
1774790036523079400,6.404079345703125,-57.03750228881836,46.44375228881836,-4.443750381469727
1774790036533079600,6.41407958984375,-56.85000228881836,46.59375,-6.825000286102295
1774790036543079400,6.424079345703125,-57.900001525878906,47.73750305175781,-5.025000095367432
1774790036553079600,6.43407958984375,-56.343753814697266,48.26250076293945,-5.662500381469727
1774790036563079400,6.444079345703125,-57.11250305175781,47.83125305175781,-6.862500190734863
1774790036573079600,6.45407958984375,-59.212501525878906,49.23750305175781,-4.987500190734863
1774790036583079400,6.464079345703125,-57.431251525878906,47.34375,-6.806250095367432
1774790036593079600,6.47407958984375,-57.562503814697266,47.775001525878906,-7.275000095367432
1774790036603079400,6.484079345703125,-59.26875305175781,47.56875228881836,-5.306250095367432
1774790036613079600,6.49407958984375,-58.181251525878906,47.625,-7.425000190734863
1774790036623079400,6.504079345703125,-56.79375076293945,48.58125305175781,-6.018750190734863
1774790036633079600,6.51407958984375,-58.312503814697266,48.91875076293945,-5.493750095367432
1774790036643079400,6.524079345703125,-58.35000228881836,47.13750076293945,-7.387500286102295
1774790036653079600,6.53407958984375,-59.493751525878906,49.14375305175781,-7.387500286102295
1774790036663079400,6.544079345703125,-58.29375076293945,48.48750305175781,-6.693750381469727
1774790036673079600,6.55407958984375,-58.10625076293945,49.650001525878906,-6.337500095367432
1774790036683079400,6.564079345703125,-58.63125228881836,48.01875305175781,-5.662500381469727
1774790036693079600,6.57407958984375,-57.67500305175781,48.48750305175781,-7.575000286102295
1774790036703079400,6.584079345703125,-59.32500076293945,49.781253814697266,-6.431250095367432
1774790036713079600,6.59407958984375,-57.78750228881836,49.44375228881836,-8.643750190734863
1774790036723079400,6.604079345703125,-57.39375305175781,48.22500228881836,-7.631250381469727
1774790036733079600,6.61407958984375,-56.812503814697266,47.493751525878906,-6.656250476837158
1774790036743079400,6.624079345703125,-56.92500305175781,48.41250228881836,-8.02500057220459
1774790036753079600,6.63407958984375,-56.88750076293945,49.53750228881836,-7.106250286102295
1774790036763079400,6.644079345703125,-59.17500305175781,48.712501525878906,-8.606250762939453
1774790036773079600,6.65407958984375,-57.67500305175781,48.91875076293945,-7.200000286102295
1774790036783079400,6.664079345703125,-57.07500076293945,49.593753814697266,-5.118750095367432
1774790036793079600,6.67407958984375,-56.17500305175781,48.11250305175781,-8.381250381469727
1774790036803079400,6.684079345703125,-59.19375228881836,48.31875228881836,-8.68125057220459
1774790036813079600,6.69407958984375,-57.41250228881836,47.587501525878906,-7.743750095367432
1774790036823079400,6.704079345703125,-57.60000228881836,46.275001525878906,-8.981250762939453
1774790036833079600,6.71407958984375,-57.58125305175781,47.025001525878906,-8.137500762939453
1774790036843079400,6.724079345703125,-58.63125228881836,47.25,-8.34375
1774790036853079600,6.73407958984375,-56.625003814697266,47.56875228881836,-9.600000381469727
1774790036863079400,6.744079345703125,-58.462501525878906,46.931251525878906,-9.675000190734863
1774790036873079600,6.75407958984375,-56.36250305175781,46.275001525878906,-10.706250190734863
1774790036883079400,6.764079345703125,-58.593753814697266,48.16875076293945,-8.86875057220459
1774790036893079600,6.77407958984375,-57.525001525878906,48.41250228881836,-8.850000381469727
1774790036903079400,6.784079345703125,-55.875003814697266,47.66250228881836,-8.90625
1774790036913079600,6.79407958984375,-55.556251525878906,47.8125,-8.737500190734863
1774790036923079400,6.804079345703125,-55.275001525878906,47.0625,-9.600000381469727
1774790036933079600,6.81407958984375,-54.843753814697266,47.4375,-6.993750095367432
1774790036943079400,6.824079345703125,-56.812503814697266,46.5,-9.24375057220459
1774790036953079600,6.83407958984375,-56.88750076293945,45.056251525878906,-8.8125
1774790036963079400,6.844079345703125,-58.14375305175781,48.056251525878906,-8.756250381469727
1774790036973079600,6.85407958984375,-58.14375305175781,48.056251525878906,-8.756250381469727
1774790036983079400,6.864079345703125,-56.775001525878906,47.45625305175781,-9.487500190734863
1774790036993079600,6.87407958984375,-58.181251525878906,46.743751525878906,-9.300000190734863
1774790037003079400,6.884079345703125,-56.32500076293945,47.306251525878906,-10.518750190734863
1774790037013079600,6.89407958984375,-55.85625076293945,47.08125305175781,-11.11875057220459
1774790037023079400,6.904079345703125,-55.53750228881836,48.30000305175781,-9.637500762939453
1774790037033079600,6.91407958984375,-57.093753814697266,46.96875,-10.27500057220459
1774790037043079400,6.924079345703125,-56.625003814697266,47.66250228881836,-8.887500762939453
1774790037053079600,6.93407958984375,-56.17500305175781,48.31875228881836,-6.937500476837158
1774790037063079400,6.944079345703125,-56.025001525878906,46.96875,-10.293750762939453
1774790037073079600,6.95407958984375,-56.681251525878906,46.38750076293945,-9.131250381469727
1774790037083079400,6.964079345703125,-56.92500305175781,47.94375228881836,-9.52500057220459
1774790037093079600,6.97407958984375,-58.16250228881836,46.35000228881836,-11.90625
1774790037103079400,6.984079345703125,-56.94375228881836,47.73750305175781,-8.4375
1774790037113079600,6.99407958984375,-55.593753814697266,46.275001525878906,-10.725000381469727
1774790037123079400,7.004079345703125,-55.89375305175781,46.72500228881836,-9.356250762939453
1774790037133079600,7.01407958984375,-56.64375305175781,46.875,-10.012500762939453
1774790037143079400,7.024079345703125,-55.16250228881836,49.76250076293945,-10.78125
1774790037153079600,7.03407958984375,-55.368751525878906,48.63750076293945,-9
1774790037163079400,7.044079345703125,-54.78750228881836,48.03750228881836,-9.71250057220459
1774790037173079600,7.05407958984375,-56.28750228881836,48.20625305175781,-10.331250190734863
1774790037183079400,7.064079345703125,-58.593753814697266,47.71875,-9.375
1774790037193079600,7.07407958984375,-55.031253814697266,49.931251525878906,-8.77500057220459
1774790037203079400,7.084079345703125,-56.962501525878906,46.76250076293945,-9.037500381469727
1774790037213079600,7.09407958984375,-57.843753814697266,47.36250305175781,-10.18125057220459
1774790037223079400,7.104079345703125,-56.681251525878906,45.48750305175781,-10.987500190734863
1774790037233079600,7.11407958984375,-56.60625076293945,47.90625,-9.825000762939453
1774790037243079400,7.124079345703125,-55.95000076293945,49.33125305175781,-9.43125057220459
1774790037253079600,7.13407958984375,-55.85625076293945,47.45625305175781,-10.350000381469727
1774790037263079400,7.144079345703125,-55.125003814697266,47.51250076293945,-8.25
1774790037273079600,7.15407958984375,-53.88750076293945,48,-9.168750762939453
1774790037283079400,7.164079345703125,-54.78750228881836,48.993751525878906,-7.406250476837158
1774790037293079600,7.17407958984375,-52.95000076293945,48.03750228881836,-9.75
1774790037303079400,7.184079345703125,-51.58125305175781,46.89375305175781,-14.100000381469727
1774790037313079600,7.19407958984375,-53.156253814697266,46.01250076293945,-11.68125057220459
1774790037323079400,7.204079345703125,-48.900001525878906,45.16875076293945,-13.93125057220459
1774790037333079600,7.21407958984375,-53.962501525878906,44.83125305175781,-11.193750381469727
1774790037343079400,7.224079345703125,-54.58125305175781,45.09375,-10.27500057220459
1774790037353079600,7.23407958984375,-54.58125305175781,45.20625305175781,-9.543750762939453
1774790037363079400,7.244079345703125,-56.681251525878906,46.59375,-7.668750286102295
1774790037373079600,7.25407958984375,-55.29375076293945,46.42500305175781,-9.71250057220459
1774790037383079400,7.264079345703125,-56.025001525878906,46.81875228881836,-11.325000762939453
1774790037393079600,7.27407958984375,-54.843753814697266,46.05000305175781,-10.5
1774790037403079400,7.284079345703125,-53.60625076293945,46.38750076293945,-11.606250762939453
1774790037413079600,7.29407958984375,-51.22500228881836,42.993751525878906,-16.125
1774790037423079400,7.304079345703125,-53.962501525878906,47.493751525878906,-15.187500953674316
1774790037433079600,7.31407958984375,-53.962501525878906,47.493751525878906,-15.187500953674316
1774790037443079400,7.324079345703125,-54.525001525878906,45.63750076293945,-13.425000190734863
1774790037453079600,7.33407958984375,-51.95625305175781,44.38125228881836,-15.131250381469727
1774790037463079400,7.344079345703125,-51.95625305175781,44.38125228881836,-15.131250381469727
1774790037473079600,7.35407958984375,-52.85625076293945,44.92500305175781,-14.86875057220459
1774790037483079400,7.364079345703125,-50.88750076293945,42.73125076293945,-19.575000762939453
1774790037493079600,7.37407958984375,-51.48750305175781,44.0625,-17.325000762939453
1774790037503079400,7.384079345703125,-52.500003814697266,46.85625076293945,-13.518750190734863
1774790037513079600,7.39407958984375,-52.14375305175781,44.92500305175781,-10.5
1774790037523079400,7.404079345703125,-55.687503814697266,44.45625305175781,-8.662500381469727
1774790037533079600,7.41407958984375,-56.26875305175781,45.65625,-8.137500762939453
1774790037543079400,7.424079345703125,-54.73125076293945,46.01250076293945,-7.406250476837158
1774790037553079600,7.43407958984375,-55.500003814697266,45.900001525878906,-8.11875057220459
1774790037563079400,7.444079345703125,-53.400001525878906,45.30000305175781,-7.162500381469727
1774790037573079600,7.45407958984375,-55.53750228881836,45.31875228881836,-6.112500190734863
1774790037583079400,7.464079345703125,-54.45000076293945,45,-8.325000762939453
1774790037593079600,7.47407958984375,-54.45000076293945,45.1875,-8.700000762939453
1774790037603079400,7.484079345703125,-55.66875076293945,45.26250076293945,-7.387500286102295
1774790037613079600,7.49407958984375,-52.931251525878906,45.84375,-6.787500381469727
1774790037623079400,7.504079345703125,-50.98125076293945,44.73750305175781,-7.462500095367432
1774790037633079600,7.51407958984375,-51.525001525878906,42.30000305175781,-7.218750476837158
1774790037643079400,7.524079345703125,-53.13750076293945,43.96875,-7.706250190734863
1774790037653079600,7.53407958984375,-54.993751525878906,44.45625305175781,-4.3125
1774790037663079400,7.544079345703125,-54.843753814697266,43.76250076293945,-5.71875
1774790037673079600,7.55407958984375,-53.47500228881836,42.9375,-7.893750190734863
1774790037683079400,7.564079345703125,-55.44375228881836,43.51875305175781,-6.600000381469727
1774790037693079600,7.57407958984375,-53.73750305175781,44.60625076293945,-6.712500095367432
1774790037703079400,7.584079345703125,-53.47500228881836,43.5,-6.656250476837158
1774790037713079600,7.59407958984375,-53.28750228881836,43.85625076293945,-7.575000286102295
1774790037723079400,7.604079345703125,-53.118751525878906,44.60625076293945,-7.575000286102295
1774790037733079600,7.61407958984375,-53.85000228881836,45.67500305175781,-6.225000381469727
1774790037743079400,7.624079345703125,-51.30000305175781,44.60625076293945,-7.631250381469727
1774790037753079600,7.63407958984375,-54.22500228881836,44.25,-5.793750286102295
1774790037763079400,7.644079345703125,-53.17500305175781,43.16250228881836,-6.450000286102295
1774790037773079600,7.65407958984375,-52.35000228881836,44.60625076293945,-7.593750476837158
1774790037783079400,7.664079345703125,-53.306251525878906,44.08125305175781,-6.131250381469727
1774790037793079600,7.67407958984375,-54.39375305175781,46.33125305175781,-9.46875
1774790037803079400,7.684079345703125,-53.85000228881836,45.26250076293945,-7.443750381469727
1774790037813079600,7.69407958984375,-53.718753814697266,44.400001525878906,-8.175000190734863
1774790037823079400,7.704079345703125,-53.812503814697266,45.73125076293945,-8.475000381469727
1774790037833079600,7.71407958984375,-55.98750305175781,44.15625,-9.84375
1774790037843079400,7.724079345703125,-54.88125228881836,45.69375228881836,-8.737500190734863
1774790037853079600,7.73407958984375,-55.312503814697266,47.19375228881836,-7.031250476837158
1774790037863079400,7.744079345703125,-55.91250228881836,46.931251525878906,-7.912500381469727
1774790037873079600,7.75407958984375,-53.28750228881836,43.21875,-9.393750190734863
1774790037883079400,7.764079345703125,-53.775001525878906,46.85625076293945,-9.24375057220459
1774790037893079600,7.77407958984375,-54.78750228881836,44.56875228881836,-6.975000381469727
1774790037903079400,7.784079345703125,-54.78750228881836,44.56875228881836,-6.975000381469727
1774790037913079600,7.79407958984375,-56.812503814697266,46.38750076293945,-9.975000381469727
1774790037923079400,7.804079345703125,-55.931251525878906,45.375,-10.03125
1774790037933079600,7.81407958984375,-56.23125076293945,45.60000228881836,-10.27500057220459
1774790037943079400,7.824079345703125,-54.82500076293945,47.0625,-9.600000381469727
1774790037953079600,7.83407958984375,-55.85625076293945,47.51250076293945,-9.918750762939453
1774790037963079400,7.844079345703125,-56.08125305175781,46.44375228881836,-7.856250286102295
1774790037973079600,7.85407958984375,-56.23125076293945,47.4375,-6.112500190734863
1774790037983079400,7.864079345703125,-56.38125228881836,45.63750076293945,-10.818750381469727
1774790037993079600,7.87407958984375,-54.54375076293945,46.51875305175781,-9.018750190734863
1774790038003079400,7.884079345703125,-55.593753814697266,46.80000305175781,-9.637500762939453
1774790038013079600,7.89407958984375,-52.38750076293945,46.48125076293945,-10.912500381469727
1774790038023079400,7.904079345703125,-55.275001525878906,47.17500305175781,-8.86875057220459
1774790038033079600,7.91407958984375,-53.10000228881836,47.962501525878906,-11.02500057220459
1774790038043079400,7.924079345703125,-56.868751525878906,48.69375228881836,-10.36875057220459
1774790038053079600,7.93407958984375,-58.556251525878906,48.11250305175781,-11.006250381469727
1774790038063079400,7.944079345703125,-56.56875228881836,48.73125076293945,-10.08750057220459
1774790038073079600,7.95407958984375,-54.76875305175781,48.78750228881836,-8.850000381469727
1774790038083079400,7.964079345703125,-57.525001525878906,47.45625305175781,-11.15625
1774790038093079600,7.97407958984375,-56.625003814697266,47.10000228881836,-11.100000381469727
1774790038103079400,7.984079345703125,-56.156253814697266,47.83125305175781,-10.27500057220459
1774790038113079600,7.99407958984375,-56.00625228881836,47.45625305175781,-11.193750381469727
1774790038123079400,8.004079345703126,-55.85625076293945,46.53750228881836,-12.356250762939453
1774790038133079600,8.01407958984375,-56.28750228881836,46.181251525878906,-15.656250953674316
1774790038143079400,8.024079345703125,-53.250003814697266,47.0625,-13.893750190734863
1774790038153079600,8.03407958984375,-56.73750305175781,47.73750305175781,-11.831250190734863
1774790038163079400,8.044079345703125,-56.868751525878906,47.681251525878906,-13.106250762939453
1774790038173079600,8.05407958984375,-57.01875305175781,47.41875076293945,-14.006250381469727
1774790038183079400,8.064079345703124,-55.968753814697266,48.03750228881836,-11.512500762939453
1774790038193079600,8.07407958984375,-55.38750076293945,46.81875228881836,-13.031250953674316
1774790038203079400,8.084079345703126,-55.51875305175781,47.56875228881836,-13.031250953674316
1774790038213079600,8.09407958984375,-57.468753814697266,47.71875,-13.65000057220459
1774790038223079400,8.104079345703125,-57.093753814697266,45.60000228881836,-13.631250381469727
1774790038233079600,8.11407958984375,-55.42500305175781,45.900001525878906,-12.487500190734863
1774790038243079400,8.124079345703125,-56.75625228881836,47.34375,-11.90625
1774790038253079600,8.13407958984375,-59.19375228881836,47.25,-11.71875
1774790038263079400,8.144079345703124,-55.368751525878906,47.625,-11.737500190734863
1774790038273079600,8.15407958984375,-55.781253814697266,48.63750076293945,-13.36875057220459
1774790038283079400,8.164079345703126,-56.88750076293945,47.41875076293945,-13.162500381469727
1774790038293079600,8.17407958984375,-55.931251525878906,48.806251525878906,-13.050000190734863
1774790038303079400,8.184079345703125,-55.06875228881836,47.0625,-12.99375057220459
1774790038313079600,8.19407958984375,-55.35000228881836,47.306251525878906,-13.93125057220459
1774790038323079400,8.204079345703125,-55.23750305175781,46.38750076293945,-14.250000953674316
1774790038333079600,8.21407958984375,-55.76250076293945,49.53750228881836,-11.362500190734863
1774790038343079400,8.224079345703124,-55.218753814697266,47.55000305175781,-13.031250953674316
1774790038353079600,8.23407958984375,-56.70000076293945,48.525001525878906,-12.375000953674316
1774790038363079400,8.244079345703126,-56.70000076293945,48.525001525878906,-12.375000953674316
1774790038373079600,8.25407958984375,-57.375003814697266,47.306251525878906,-11.325000762939453
1774790038383079400,8.264079345703125,-54.431251525878906,47.306251525878906,-14.793750762939453
1774790038393079600,8.27407958984375,-55.76250076293945,49.44375228881836,-12.093750953674316
1774790038403079400,8.284079345703125,-56.13750076293945,47.13750076293945,-12.52500057220459
1774790038413079600,8.29407958984375,-55.80000305175781,48.056251525878906,-13.068750381469727
1774790038423079400,8.304079345703125,-55.968753814697266,47.92500305175781,-12.24375057220459
1774790038433079600,8.31407958984375,-55.031253814697266,49.25625228881836,-10.74375057220459
1774790038443079400,8.324079345703124,-56.64375305175781,46.78125,-10.74375057220459
1774790038453079600,8.33407958984375,-58.031253814697266,49.53750228881836,-13.143750190734863
1774790038463079400,8.344079345703125,-57.431251525878906,48.712501525878906,-13.74375057220459
1774790038473079600,8.35407958984375,-55.98750305175781,47.13750076293945,-13.36875057220459
1774790038483079400,8.364079345703125,-54.39375305175781,47.92500305175781,-16.51875114440918
1774790038493079600,8.37407958984375,-53.51250076293945,47.17500305175781,-16.537500381469727
1774790038503079400,8.384079345703125,-51.76875305175781,46.95000076293945,-21.431251525878906
1774790038513079600,8.39407958984375,-51.39375305175781,45.243751525878906,-20.34375
1774790038523079400,8.404079345703124,-56.73750305175781,47.17500305175781,-13.068750381469727
1774790038533079600,8.41407958984375,-55.95000076293945,47.775001525878906,-13.256250381469727
1774790038543079400,8.424079345703126,-56.118751525878906,47.775001525878906,-12.393750190734863
1774790038553079600,8.43407958984375,-52.20000076293945,46.05000305175781,-14.812500953674316
1774790038563079400,8.444079345703125,-55.80000305175781,48.20625305175781,-12.037500381469727
1774790038573079600,8.45407958984375,-55.218753814697266,47.23125076293945,-12.675000190734863
1774790038583079400,8.464079345703125,-55.05000305175781,48.73125076293945,-10.125
1774790038593079600,8.47407958984375,-55.218753814697266,47.66250228881836,-12.300000190734863
1774790038603079400,8.484079345703124,-53.812503814697266,48.337501525878906,-12.768750190734863
1774790038613079600,8.49407958984375,-55.33125305175781,48.843753814697266,-11.943750381469727
1774790038623079400,8.504079345703126,-54.618751525878906,47.625,-11.756250381469727
1774790038633079600,8.51407958984375,-56.70000076293945,48.95625305175781,-12.018750190734863
1774790038643079400,8.524079345703125,-54.48750305175781,51.01875305175781,-11.550000190734863
1774790038653079600,8.53407958984375,-56.04375076293945,50.60625076293945,-10.03125
1774790038663079400,8.544079345703125,-54.656253814697266,51.22500228881836,-10.93125057220459
1774790038673079600,8.55407958984375,-54.656253814697266,51.82500076293945,-9.412500381469727
1774790038683079400,8.564079345703124,-55.72500228881836,51.150001525878906,-10.631250381469727
1774790038693079600,8.57407958984375,-55.89375305175781,50.70000076293945,-10.293750762939453
1774790038703079400,8.584079345703126,-55.781253814697266,49.81875228881836,-9.487500190734863
1774790038713079600,8.59407958984375,-54.58125305175781,49.968753814697266,-8.49375057220459
1774790038723079400,8.604079345703125,-54.187503814697266,51.63750076293945,-9.881250381469727
1774790038733079600,8.61407958984375,-57.281253814697266,50.94375228881836,-7.818750381469727
1774790038743079400,8.624079345703125,-56.04375076293945,51.150001525878906,-8.943750381469727
1774790038753079600,8.63407958984375,-56.212501525878906,51.468753814697266,-7.593750476837158
1774790038763079400,8.644079345703124,-54.58125305175781,49.53750228881836,-8.850000381469727
1774790038773079600,8.65407958984375,-54.337501525878906,51.562503814697266,-11.15625
1774790038783079400,8.664079345703126,-56.04375076293945,50.08125305175781,-11.96250057220459
1774790038793079600,8.67407958984375,-54.22500228881836,49.406253814697266,-13.968750953674316
1774790038803079400,8.684079345703125,-54.468753814697266,51.03750228881836,-13.93125057220459
1774790038813079600,8.69407958984375,-54.95625305175781,50.98125076293945,-11.8125
1774790038823079400,8.704079345703125,-54.48750305175781,50.60625076293945,-12.600000381469727
1774790038833079600,8.71407958984375,-54.95625305175781,51.63750076293945,-9.862500190734863
1774790038843079400,8.724079345703124,-54.95625305175781,51.63750076293945,-9.862500190734863
1774790038853079600,8.73407958984375,-55.743751525878906,50.28750228881836,-10.518750190734863
1774790038863079400,8.744079345703126,-55.29375076293945,51.150001525878906,-8.96250057220459
1774790038873079600,8.75407958984375,-55.48125076293945,49.01250076293945,-11.625
1774790038883079400,8.764079345703125,-53.00625228881836,50.41875076293945,-11.268750190734863
1774790038893079600,8.77407958984375,-54.562503814697266,49.85625076293945,-9.225000381469727
1774790038903079400,8.784079345703125,-53.94375228881836,50.118751525878906,-10.03125
1774790038913079600,8.79407958984375,-54.993751525878906,50.64375305175781,-9.768750190734863
1774790038923079400,8.804079345703125,-54.000003814697266,48.937503814697266,-9.5625
1774790038933079600,8.81407958984375,-53.51250076293945,48.78750228881836,-12.281250953674316
1774790038943079400,8.824079345703124,-54.243751525878906,49.48125076293945,-11.850000381469727
1774790038953079600,8.83407958984375,-53.775001525878906,50.23125076293945,-10.856250762939453
1774790038963079400,8.844079345703125,-53.51250076293945,48.900001525878906,-11.550000190734863
1774790038973079600,8.85407958984375,-53.962501525878906,49.10625076293945,-10.93125057220459
1774790038983079400,8.864079345703125,-54.35625076293945,50.962501525878906,-10.987500190734863
1774790038993079600,8.87407958984375,-54.243751525878906,49.72500228881836,-11.793750762939453
1774790039003079400,8.884079345703125,-50.79375076293945,48.056251525878906,-12.918750762939453
1774790039013079600,8.89407958984375,-52.70625305175781,50.10000228881836,-11.756250381469727
1774790039023079400,8.904079345703124,-54.26250076293945,50.062503814697266,-9.46875
1774790039033079600,8.91407958984375,-54.525001525878906,50.98125076293945,-9.99375057220459
1774790039043079400,8.924079345703126,-54.243751525878906,50.00625228881836,-9.90000057220459
1774790039053079600,8.93407958984375,-54.50625228881836,51.35625076293945,-9.225000381469727
1774790039063079400,8.944079345703125,-53.51250076293945,49.312503814697266,-10.350000381469727
1774790039073079600,8.95407958984375,-53.66250228881836,49.14375305175781,-10.65000057220459
1774790039083079400,8.964079345703125,-51.45000076293945,50.625003814697266,-12.393750190734863
1774790039093079600,8.97407958984375,-54.58125305175781,49.968753814697266,-8.49375057220459
1774790039103079400,8.984079345703124,-53.00625228881836,50.17500305175781,-11.325000762939453
1774790039113079600,8.99407958984375,-54.41250228881836,49.25625228881836,-11.606250762939453
1774790039123079400,9.004079345703126,-55.29375076293945,50.51250076293945,-10.78125
1774790039133079600,9.01407958984375,-53.47500228881836,50.45625305175781,-9.412500381469727
1774790039143079400,9.024079345703125,-52.275001525878906,49.06875228881836,-11.96250057220459
1774790039153079600,9.03407958984375,-52.368751525878906,50.36250305175781,-12.562500953674316
1774790039163079400,9.044079345703125,-52.91250228881836,48.187503814697266,-12.975000381469727
1774790039173079600,9.05407958984375,-52.85625076293945,50.212501525878906,-11.887500762939453
1774790039183079400,9.064079345703124,-53.17500305175781,50.00625228881836,-10.78125
1774790039193079600,9.07407958984375,-52.70625305175781,50.26875305175781,-10.59375
1774790039203079400,9.084079345703126,-52.181251525878906,48.16875076293945,-10.443750381469727
1774790039213079600,9.09407958984375,-52.743751525878906,49.743751525878906,-9.99375057220459
1774790039223079400,9.104079345703125,-54.67500305175781,50.400001525878906,-10.668750762939453
1774790039233079600,9.11407958984375,-51.91875076293945,51.16875076293945,-10.46250057220459
1774790039243079400,9.124079345703125,-52.181251525878906,52.35000228881836,-10.93125057220459
1774790039253079600,9.13407958984375,-53.47500228881836,50.60625076293945,-10.106250762939453
1774790039263079400,9.144079345703124,-52.087501525878906,50.10000228881836,-12.637500762939453
1774790039273079600,9.15407958984375,-53.625003814697266,49.368751525878906,-13.425000190734863
1774790039283079400,9.164079345703126,-51.150001525878906,50.47500228881836,-13.425000190734863
1774790039293079600,9.17407958984375,-51.150001525878906,50.47500228881836,-13.425000190734863
1774790039303079400,9.184079345703125,-49.968753814697266,49.125003814697266,-14.137500762939453
1774790039313079600,9.19407958984375,-51.39375305175781,48.16875076293945,-13.012500762939453
1774790039323079400,9.204079345703125,-53.062503814697266,48.993751525878906,-10.83750057220459
1774790039333079600,9.21407958984375,-53.493751525878906,49.743751525878906,-9.975000381469727
1774790039343079400,9.224079345703124,-53.493751525878906,49.743751525878906,-9.975000381469727
1774790039353079600,9.23407958984375,-53.156253814697266,49.72500228881836,-12.675000190734863
1774790039363079400,9.244079345703126,-53.79375076293945,48.97500228881836,-12.656250953674316
1774790039373079600,9.25407958984375,-52.743751525878906,49.743751525878906,-9.99375057220459
1774790039383079400,9.264079345703125,-49.85625076293945,49.01250076293945,-11.475000381469727
1774790039393079600,9.27407958984375,-51.07500076293945,49.38750076293945,-10.668750762939453
1774790039403079400,9.284079345703125,-51.97500228881836,48.97500228881836,-12.71250057220459
1774790039413079600,9.29407958984375,-50.00625228881836,49.01250076293945,-12.318750381469727
1774790039423079400,9.304079345703125,-53.156253814697266,50.28750228881836,-11.4375
1774790039433079600,9.31407958984375,-52.91250228881836,48.750003814697266,-10.74375057220459
1774790039443079400,9.324079345703124,-53.00625228881836,50.587501525878906,-10.106250762939453
1774790039453079600,9.33407958984375,-51.056251525878906,49.781253814697266,-10.59375
1774790039463079400,9.344079345703125,-51.07500076293945,49.275001525878906,-11.40000057220459
1774790039473079600,9.35407958984375,-53.51250076293945,48.95625305175781,-11.11875057220459
1774790039483079400,9.364079345703125,-50.23125076293945,50.47500228881836,-14.30625057220459
1774790039493079600,9.37407958984375,-51.35625076293945,49.181251525878906,-12.112500190734863
1774790039503079400,9.384079345703125,-50.493751525878906,51.056251525878906,-14.606250762939453
1774790039513079600,9.39407958984375,-50.681251525878906,50.85000228881836,-12.656250953674316
1774790039523079400,9.404079345703124,-53.437503814697266,51.618751525878906,-9.90000057220459
1774790039533079600,9.41407958984375,-52.087501525878906,50.306251525878906,-11.175000190734863
1774790039543079400,9.424079345703126,-49.81875228881836,50.306251525878906,-11.231250762939453
1774790039553079600,9.43407958984375,-51.900001525878906,50.962501525878906,-11.90625
1774790039563079400,9.444079345703125,-50.38125228881836,49.462501525878906,-16.181251525878906
1774790039573079600,9.45407958984375,-51.337501525878906,49.462501525878906,-12.768750190734863
1774790039583079400,9.464079345703125,-48.41250228881836,50.51250076293945,-13.218750953674316
1774790039593079600,9.47407958984375,-51.000003814697266,51.056251525878906,-12.05625057220459
1774790039603079400,9.484079345703124,-51.78750228881836,50.73750305175781,-9.975000381469727
1774790039613079600,9.49407958984375,-49.031253814697266,50.83125305175781,-11.86875057220459
1774790039623079400,9.504079345703126,-51.337501525878906,49.70625305175781,-12.731250762939453
1774790039633079600,9.51407958984375,-50.26875305175781,50.306251525878906,-11.231250762939453
1774790039643079400,9.524079345703125,-49.743751525878906,52.181251525878906,-11.15625
1774790039653079600,9.53407958984375,-52.98750305175781,51.16875076293945,-10.425000190734863
1774790039663079400,9.544079345703125,-49.743751525878906,52.44375228881836,-11.11875057220459
1774790039673079600,9.55407958984375,-52.368751525878906,52.125003814697266,-8.981250762939453
1774790039683079400,9.564079345703124,-51.50625228881836,49.70625305175781,-11.86875057220459
1774790039693079600,9.57407958984375,-50.00625228881836,49.23750305175781,-10.875
1774790039703079400,9.584079345703126,-52.98750305175781,51.13125228881836,-10.706250190734863
1774790039713079600,9.59407958984375,-50.55000305175781,50.306251525878906,-12.918750762939453
1774790039723079400,9.604079345703125,-51.13125228881836,51.63750076293945,-11.512500762939453
1774790039733079600,9.61407958984375,-51.30000305175781,51.20625305175781,-11.02500057220459
1774790039743079400,9.624079345703125,-50.400001525878906,51.60000228881836,-9.99375057220459
1774790039753079600,9.63407958984375,-52.38750076293945,50.681251525878906,-10.387500762939453
1774790039763079400,9.644079345703124,-52.38750076293945,50.681251525878906,-10.387500762939453
1774790039773079600,9.65407958984375,-50.400001525878906,51.22500228881836,-10.068750381469727
1774790039783079400,9.664079345703126,-51.01875305175781,51.26250076293945,-8.90625
1774790039793079600,9.67407958984375,-50.60625076293945,49.98750305175781,-9.168750762939453
1774790039803079400,9.684079345703125,-51.31875228881836,50.94375228881836,-11.081250190734863
1774790039813079600,9.69407958984375,-48.91875076293945,50.41875076293945,-9.543750762939453
1774790039823079400,9.704079345703125,-50.73750305175781,50.83125305175781,-8.4375
1774790039833079600,9.71407958984375,-51.806251525878906,50.10000228881836,-10.08750057220459
1774790039843079400,9.724079345703124,-51.16875076293945,51.337501525878906,-9.318750381469727
1774790039853079600,9.73407958984375,-50.531253814697266,51.58125305175781,-10.96875
1774790039863079400,9.744079345703126,-51.000003814697266,51.656253814697266,-10.518750190734863
1774790039873079600,9.75407958984375,-51.39375305175781,52.06875228881836,-12.843750953674316
1774790039883079400,9.764079345703125,-49.91250228881836,51.337501525878906,-11.887500762939453
1774790039893079600,9.77407958984375,-50.718753814697266,49.95000076293945,-12.843750953674316
1774790039903079400,9.784079345703125,-49.91250228881836,51.618751525878906,-11.550000190734863
1774790039913079600,9.79407958984375,-49.10625076293945,53.45625305175781,-10.08750057220459
1774790039923079400,9.804079345703125,-52.031253814697266,52.35000228881836,-10.08750057220459
1774790039933079600,9.81407958984375,-51.91875076293945,51.76875305175781,-8.925000190734863
1774790039943079400,9.824079345703124,-52.087501525878906,52.76250076293945,-4.631250381469727
1774790039953079600,9.83407958984375,-50.26875305175781,51.78750228881836,-6.993750095367432
1774790039963079400,9.844079345703125,-50.625003814697266,50.04375076293945,-8.71875
1774790039973079600,9.85407958984375,-51.78750228881836,51.525001525878906,-8.831250190734863
1774790039983079400,9.864079345703125,-51.88125228881836,52.66875076293945,-8.756250381469727
1774790039993079600,9.87407958984375,-51.468753814697266,51.86250305175781,-8.21250057220459
1774790040003079400,9.884079345703125,-51.41250228881836,52.931251525878906,-9.43125057220459
1774790040013079600,9.89407958984375,-51.150001525878906,52.500003814697266,-8.100000381469727
1774790040023079400,9.904079345703124,-50.250003814697266,51.97500228881836,-8.362500190734863
1774790040033079600,9.91407958984375,-51.16875076293945,51.22500228881836,-10.03125
1774790040043079400,9.924079345703126,-50.437503814697266,49.875003814697266,-10.74375057220459
1774790040053079600,9.93407958984375,-50.775001525878906,49.20000076293945,-11.137500762939453
1774790040063079400,9.944079345703125,-51.093753814697266,49.29375076293945,-9.5625
1774790040073079600,9.95407958984375,-50.587501525878906,51.54375076293945,-7.031250476837158
1774790040083079400,9.964079345703125,-51.468753814697266,52.23750305175781,-7.443750381469727
1774790040093079600,9.97407958984375,-50.45625305175781,50.64375305175781,-8.043750762939453
1774790040103079400,9.984079345703124,-51.375003814697266,51.375003814697266,-5.625
1774790040113079600,9.99407958984375,-51.35625076293945,51.656253814697266,-6.281250476837158
1774790040123079400,10.004079345703126,-52.16250228881836,50.73750305175781,-5.737500190734863
1774790040133079600,10.01407958984375,-50.45625305175781,51.63750076293945,-5.456250190734863
1774790040143079400,10.024079345703125,-51.35625076293945,52.06875228881836,-5.081250190734863
1774790040153079600,10.03407958984375,-51.48750305175781,52.44375228881836,-5.981250286102295
1774790040163079400,10.044079345703125,-50.41875076293945,51.58125305175781,-7.593750476837158
1774790040173079600,10.05407958984375,-55.031253814697266,50.28750228881836,-8.006250381469727
1774790040183079400,10.064079345703124,-49.80000305175781,52.10625076293945,-7.368750095367432
1774790040193079600,10.07407958984375,-50.60625076293945,50.79375076293945,-7.875000476837158
1774790040203079400,10.084079345703126,-51.056251525878906,52.06875228881836,-5.081250190734863
1774790040213079600,10.09407958984375,-52.29375076293945,50.962501525878906,-5.831250190734863
1774790040223079400,10.104079345703125,-51.30000305175781,52.875003814697266,-6.468750476837158
1774790040233079600,10.11407958984375,-51.30000305175781,52.875003814697266,-6.468750476837158
1774790040243079400,10.124079345703125,-52.85625076293945,52.23750305175781,-6.562500476837158
1774790040253079600,10.13407958984375,-51.39375305175781,50.73750305175781,-5.756250381469727
1774790040263079400,10.144079345703124,-52.85625076293945,51.750003814697266,-7.350000381469727
1774790040273079600,10.15407958984375,-50.56875228881836,52.29375076293945,-6.187500476837158
1774790040283079400,10.164079345703126,-50.70000076293945,52.66875076293945,-6.956250190734863
1774790040293079600,10.17407958984375,-52.087501525878906,52.087501525878906,-7.593750476837158
1774790040303079400,10.184079345703125,-54.95625305175781,53.587501525878906,-4.96875
1774790040313079600,10.19407958984375,-52.837501525878906,52.35000228881836,-7.518750190734863
1774790040323079400,10.204079345703125,-51.91875076293945,53.19375228881836,-5.118750095367432
1774790040333079600,10.21407958984375,-52.33125305175781,54.525001525878906,-5.418750286102295
1774790040343079400,10.224079345703124,-52.087501525878906,52.650001525878906,-5.362500190734863
1774790040353079600,10.23407958984375,-53.45625305175781,53.00625228881836,-4.706250190734863
1774790040363079400,10.244079345703126,-52.01250076293945,53.45625305175781,-8.456250190734863
1774790040373079600,10.25407958984375,-51.243751525878906,53.19375228881836,-10.21875
1774790040383079400,10.264079345703125,-49.89375305175781,52.98750305175781,-9.037500381469727
1774790040393079600,10.27407958984375,-49.01250076293945,52.14375305175781,-8.793750762939453
1774790040403079400,10.284079345703125,-51.750003814697266,52.51875305175781,-8.925000190734863
1774790040413079600,10.29407958984375,-52.275001525878906,54.806251525878906,-7.781250476837158
1774790040423079400,10.304079345703125,-52.61250305175781,54.54375076293945,-6.975000381469727
1774790040433079600,10.31407958984375,-52.781253814697266,54.11250305175781,-6.487500190734863
1774790040443079400,10.324079345703124,-52.968753814697266,52.406253814697266,-8.77500057220459
1774790040453079600,10.33407958984375,-54.337501525878906,51.712501525878906,-10.143750190734863
1774790040463079400,10.344079345703125,-52.35000228881836,53.51250076293945,-6.318750381469727
1774790040473079600,10.35407958984375,-53.38125228881836,53.64375305175781,-8.8125
1774790040483079400,10.364079345703125,-50.625003814697266,53.306251525878906,-11.21250057220459
1774790040493079600,10.37407958984375,-51.093753814697266,52.06875228881836,-12.843750953674316
1774790040503079400,10.384079345703125,-52.23750305175781,55.556251525878906,-9.46875
1774790040513079600,10.39407958984375,-51.900001525878906,55.556251525878906,-11.175000190734863
1774790040523079400,10.404079345703124,-54.093753814697266,54.88125228881836,-8.981250762939453
1774790040533079600,10.41407958984375,-53.47500228881836,53.962501525878906,-11.850000381469727
1774790040543079400,10.424079345703126,-51.000003814697266,55.125003814697266,-11.550000190734863
1774790040553079600,10.43407958984375,-52.087501525878906,53.88750076293945,-13.18125057220459
1774790040563079400,10.444079345703125,-51.150001525878906,55.33125305175781,-10.950000762939453
1774790040573079600,10.45407958984375,-52.61250305175781,53.906253814697266,-8.77500057220459
1774790040583079400,10.464079345703125,-52.01250076293945,53.04375076293945,-9.52500057220459
1774790040593079600,10.47407958984375,-54.093753814697266,55.087501525878906,-7.537500381469727
1774790040603079400,10.484079345703124,-52.16250228881836,53.26875305175781,-8.925000190734863
1774790040613079600,10.49407958984375,-52.85625076293945,55.61250305175781,-8.175000190734863
1774790040623079400,10.504079345703126,-55.16250228881836,54.093753814697266,-10.08750057220459
1774790040633079600,10.51407958984375,-53.493751525878906,54.750003814697266,-8.175000190734863
1774790040643079400,10.524079345703125,-53.718753814697266,52.63125228881836,-9
1774790040653079600,10.53407958984375,-53.04375076293945,53.681251525878906,-11.21250057220459
1774790040663079400,10.544079345703125,-51.86250305175781,52.80000305175781,-10.425000190734863
1774790040673079600,10.55407958984375,-53.587501525878906,52.38750076293945,-7.218750476837158
1774790040683079400,10.564079345703124,-52.33125305175781,53.19375228881836,-8.49375057220459
1774790040693079600,10.57407958984375,-52.33125305175781,53.19375228881836,-8.49375057220459
1774790040703079400,10.584079345703126,-52.76250076293945,53.343753814697266,-9.168750762939453
1774790040713079600,10.59407958984375,-54.281253814697266,54.11250305175781,-8.268750190734863
1774790040723079400,10.604079345703125,-54.900001525878906,52.85625076293945,-10.050000190734863
1774790040733079600,10.61407958984375,-53.812503814697266,54.000003814697266,-9.018750190734863
1774790040743079400,10.624079345703125,-53.79375076293945,54.375003814697266,-8.943750381469727
1774790040753079600,10.63407958984375,-53.04375076293945,53.85000228881836,-10.050000190734863
1774790040763079400,10.644079345703124,-53.66250228881836,53.55000305175781,-9.52500057220459
1774790040773079600,10.65407958984375,-54.431251525878906,54.01875305175781,-8.006250381469727
1774790040783079400,10.664079345703126,-54.431251525878906,53.062503814697266,-10.3125
1774790040793079600,10.67407958984375,-53.04375076293945,53.306251525878906,-11.981250762939453
1774790040803079400,10.684079345703125,-54.468753814697266,53.118751525878906,-8.175000190734863
1774790040813079600,10.69407958984375,-54.431251525878906,53.062503814697266,-10.3125
1774790040823079400,10.704079345703125,-53.812503814697266,53.04375076293945,-11.325000762939453
1774790040833079600,10.71407958984375,-53.343753814697266,53.17500305175781,-12.15000057220459
1774790040843079400,10.724079345703124,-54.41250228881836,53.26875305175781,-11.40000057220459
1774790040853079600,10.73407958984375,-52.743751525878906,53.47500228881836,-10.83750057220459
1774790040863079400,10.744079345703126,-55.16250228881836,54.13125228881836,-9.80625057220459
1774790040873079600,10.75407958984375,-52.91250228881836,54.01875305175781,-8.043750762939453
1774790040883079400,10.764079345703125,-53.812503814697266,54.45000076293945,-8.512500762939453
1774790040893079600,10.77407958984375,-52.35000228881836,53.025001525878906,-7.125000476837158
1774790040903079400,10.784079345703125,-54.86250305175781,54.656253814697266,-7.875000476837158
1774790040913079600,10.79407958984375,-54.31875228881836,54.337501525878906,-4.987500190734863
1774790040923079400,10.804079345703125,-54.468753814697266,53.625003814697266,-6.393750190734863
1774790040933079600,10.81407958984375,-55.35000228881836,53.92500305175781,-7.856250286102295
1774790040943079400,10.824079345703124,-55.25625228881836,52.53750228881836,-7.987500190734863
1774790040953079600,10.83407958984375,-55.218753814697266,53.92500305175781,-7.012500286102295
1774790040963079400,10.844079345703125,-55.368751525878906,53.531253814697266,-7.931250095367432
1774790040973079600,10.85407958984375,-54.618751525878906,52.66875076293945,-9.52500057220459
1774790040983079400,10.864079345703125,-52.63125228881836,53.04375076293945,-8.662500381469727
1774790040993079600,10.87407958984375,-55.72500228881836,52.35000228881836,-6.600000381469727
1774790041003079400,10.884079345703125,-54.337501525878906,52.781253814697266,-7.125000476837158
1774790041013079600,10.89407958984375,-55.48125076293945,50.47500228881836,-7.518750190734863
1774790041023079400,10.904079345703124,-56.08125305175781,51.993751525878906,-4.818750381469727
1774790041033079600,10.91407958984375,-54.525001525878906,51.13125228881836,-8.981250762939453
1774790041043079400,10.924079345703126,-53.062503814697266,49.91250228881836,-8.831250190734863
1774790041053079600,10.93407958984375,-54.993751525878906,51.82500076293945,-6.018750190734863
1774790041063079400,10.944079345703125,-54.97500228881836,52.95000076293945,-5.100000381469727
1774790041073079600,10.95407958984375,-53.212501525878906,51.60000228881836,-4.125
1774790041083079400,10.964079345703125,-53.531253814697266,50.38125228881836,-5.625
1774790041093079600,10.97407958984375,-53.85000228881836,50.55000305175781,-4.443750381469727
1774790041103079400,10.984079345703124,-55.368751525878906,50.60625076293945,-4.125
1774790041113079600,10.99407958984375,-55.80000305175781,51.993751525878906,-3.1312501430511475
1774790041123079400,11.004079345703126,-56.00625228881836,50.60625076293945,-2.4000000953674316
1774790041133079600,11.01407958984375,-55.968753814697266,51.91875076293945,-1.8750001192092896
1774790041143079400,11.024079345703125,-55.35000228881836,51.13125228881836,-4.725000381469727
1774790041153079600,11.03407958984375,-55.35000228881836,51.13125228881836,-4.725000381469727
1774790041163079400,11.044079345703125,-55.01250076293945,51.67500305175781,-5.34375
1774790041173079600,11.05407958984375,-53.94375228881836,52.125003814697266,-4.706250190734863
1774790041183079400,11.064079345703124,-53.94375228881836,51.281253814697266,-6.281250476837158
1774790041193079600,11.07407958984375,-55.38750076293945,50.70000076293945,-3.3937501907348633
1774790041203079400,11.084079345703126,-55.10625076293945,50.531253814697266,-2.0250000953674316
1774790041213079600,11.09407958984375,-56.625003814697266,50.343753814697266,-1.5937501192092896
1774790041223079400,11.104079345703125,-55.89375305175781,50.718753814697266,0.9937500357627869
1774790041233079600,11.11407958984375,-55.33125305175781,48.76875305175781,-0.375
1774790041243079400,11.124079345703125,-56.79375076293945,50.66250228881836,-0.26250001788139343
1774790041253079600,11.13407958984375,-54.11250305175781,48.993751525878906,-0.65625
1774790041263079400,11.144079345703124,-54.58125305175781,48.843753814697266,0.03750000149011612
1774790041273079600,11.15407958984375,-52.14375305175781,47.90625,-2.887500047683716
1774790041283079400,11.164079345703126,-55.650001525878906,47.775001525878906,-2.9625000953674316
1774790041293079600,11.17407958984375,-54.45000076293945,46.81875228881836,-4.443750381469727
1774790041303079400,11.184079345703125,-52.875003814697266,48.45000076293945,-3.468750238418579
1774790041313079600,11.19407958984375,-55.20000076293945,46.61250305175781,-5.868750095367432
1774790041323079400,11.204079345703125,-55.51875305175781,46.44375228881836,-4.481250286102295
1774790041333079600,11.21407958984375,-53.98125076293945,48.07500076293945,-1.818750023841858
1774790041343079400,11.224079345703124,-53.85000228881836,47.23125076293945,-2.4000000953674316
1774790041353079600,11.23407958984375,-54.16875076293945,46.42500305175781,-3.6750001907348633
1774790041363079400,11.244079345703126,-54.150001525878906,47.13750076293945,-3.1125001907348633
1774790041373079600,11.25407958984375,-52.06875228881836,44.212501525878906,-7.687500476837158
1774790041383079400,11.264079345703125,-50.906253814697266,43.91250228881836,-3.825000047683716
1774790041393079600,11.27407958984375,-52.35000228881836,45.07500076293945,-6.093750476837158
1774790041403079400,11.284079345703125,-55.406253814697266,45.78750228881836,-3.7687501907348633
1774790041413079600,11.29407958984375,-55.312503814697266,44.56875228881836,-2.7375001907348633
1774790041423079400,11.304079345703125,-54.562503814697266,44.681251525878906,-2.0250000953674316
1774790041433079600,11.31407958984375,-54.95625305175781,46.21875,-2.5687501430511475
1774790041443079400,11.324079345703124,-53.025001525878906,44.70000076293945,-3.468750238418579
1774790041453079600,11.33407958984375,-53.775001525878906,44.64375305175781,-3.8812501430511475
1774790041463079400,11.344079345703125,-54.806251525878906,45.900001525878906,-2.2125000953674316
1774790041473079600,11.35407958984375,-54.95625305175781,45,-4.912500381469727
1774790041483079400,11.364079345703125,-54.50625228881836,45.1875,-4.462500095367432
1774790041493079600,11.37407958984375,-52.20000076293945,44.8125,-6.993750095367432
1774790041503079400,11.384079345703125,-52.687503814697266,43.63125228881836,-7.500000476837158
1774790041513079600,11.39407958984375,-54.806251525878906,45.78750228881836,-2.9437501430511475
1774790041523079400,11.404079345703124,-54.07500076293945,45.50625228881836,-2.3062500953674316
1774790041533079600,11.41407958984375,-55.44375228881836,45.31875228881836,-2.71875
1774790041543079400,11.424079345703126,-54.806251525878906,45.75,-3.2250001430511475
1774790041553079600,11.43407958984375,-57.48750305175781,47.04375076293945,-2.90625
1774790041563079400,11.444079345703125,-55.931251525878906,47.66250228881836,-4.668750286102295
1774790041573079600,11.45407958984375,-54.468753814697266,46.275001525878906,-3.843750238418579
1774790041583079400,11.464079345703125,-53.66250228881836,47.85000228881836,-3.281250238418579
1774790041593079600,11.47407958984375,-54.11250305175781,47.66250228881836,-3.731250047683716
1774790041603079400,11.484079345703124,-53.812503814697266,48.07500076293945,-2.6625001430511475
1774790041613079600,11.49407958984375,-53.94375228881836,49.35000228881836,-1.5750000476837158
1774790041623079400,11.504079345703126,-53.94375228881836,49.35000228881836,-1.5750000476837158
1774790041633079600,11.51407958984375,-56.400001525878906,47.23125076293945,-4.162500381469727
1774790041643079400,11.524079345703125,-55.931251525878906,48.150001525878906,-3.8625001907348633
1774790041653079600,11.53407958984375,-54.11250305175781,46.48125076293945,-7.612500190734863
1774790041663079400,11.544079345703125,-54.35625076293945,49.48125076293945,-3.2250001430511475
1774790041673079600,11.55407958984375,-54.35625076293945,49.66875076293945,-3.6187500953674316
1774790041683079400,11.564079345703124,-55.44375228881836,49.031253814697266,-3.7125000953674316
1774790041693079600,11.57407958984375,-55.42500305175781,47.92500305175781,-7.031250476837158
1774790041703079400,11.584079345703126,-54.78750228881836,49.687503814697266,-4.443750381469727
1774790041713079600,11.59407958984375,-55.33125305175781,47.45625305175781,-5.137500286102295
1774790041723079400,11.604079345703125,-54.07500076293945,48.187503814697266,-6.168750286102295
1774790041733079600,11.61407958984375,-53.906253814697266,48.88125228881836,-4.762500286102295
1774790041743079400,11.624079345703125,-55.57500076293945,48.63750076293945,-5.625
1774790041753079600,11.63407958984375,-54.78750228881836,49.05000305175781,-7.106250286102295
1774790041763079400,11.644079345703124,-55.53750228881836,49.462501525878906,-5.887500286102295
1774790041773079600,11.65407958984375,-55.23750305175781,49.05000305175781,-7.106250286102295
1774790041783079400,11.664079345703126,-54.48750305175781,48.618751525878906,-7.481250286102295
1774790041793079600,11.67407958984375,-55.38750076293945,48.78750228881836,-7.987500190734863
1774790041803079400,11.684079345703125,-56.718753814697266,49.368751525878906,-9.112500190734863
1774790041813079600,11.69407958984375,-56.250003814697266,50.17500305175781,-7.837500095367432
1774790041823079400,11.704079345703125,-56.88750076293945,49.44375228881836,-7.837500095367432
1774790041833079600,11.71407958984375,-53.868751525878906,47.28750228881836,-11.418750762939453
1774790041843079400,11.724079345703124,-56.79375076293945,48.03750228881836,-7.256250381469727
1774790041853079600,11.73407958984375,-56.19375228881836,47.56875228881836,-7.781250476837158
1774790041863079400,11.744079345703126,-56.23125076293945,46.59375,-7.687500476837158
1774790041873079600,11.75407958984375,-54.562503814697266,46.33125305175781,-8.625
1774790041883079400,11.764079345703125,-54.41250228881836,44.775001525878906,-11.606250762939453
1774790041893079600,11.77407958984375,-54.07500076293945,45.900001525878906,-11.550000190734863
1774790041903079400,11.784079345703125,-53.212501525878906,44.400001525878906,-12.412500381469727
1774790041913079600,11.79407958984375,-51.45000076293945,46.14375305175781,-14.100000381469727
1774790041923079400,11.804079345703125,-54.843753814697266,45.525001525878906,-11.58750057220459
1774790041933079600,11.81407958984375,-55.312503814697266,45.26250076293945,-11.625
1774790041943079400,11.824079345703124,-53.906253814697266,46.6875,-11.25
1774790041953079600,11.83407958984375,-55.33125305175781,45.48750305175781,-10.18125057220459
1774790041963079400,11.844079345703125,-54.39375305175781,45.41250228881836,-11.49375057220459
1774790041973079600,11.85407958984375,-54.63750076293945,46.96875,-11.887500762939453
1774790041983079400,11.864079345703125,-55.556251525878906,46.38750076293945,-12.543750762939453
1774790041993079600,11.87407958984375,-54.337501525878906,46.01250076293945,-14.193750381469727
1774790042003079400,11.884079345703125,-54.78750228881836,46.96875,-12.731250762939453
1774790042013079600,11.89407958984375,-54.35625076293945,46.76250076293945,-10.800000190734863
1774790042023079400,11.904079345703124,-55.57500076293945,47.118751525878906,-9.15000057220459
1774790042033079600,11.91407958984375,-55.48125076293945,44.681251525878906,-12.300000190734863
1774790042043079400,11.924079345703126,-55.42500305175781,46.44375228881836,-11.268750190734863
1774790042053079600,11.93407958984375,-53.88750076293945,46.59375,-11.981250762939453
1774790042063079400,11.944079345703125,-53.36250305175781,44.55000305175781,-12.24375057220459
1774790042073079600,11.95407958984375,-55.35000228881836,44.83125305175781,-10.293750762939453
1774790042083079400,11.964079345703125,-54.525001525878906,46.20000076293945,-11.193750381469727
1774790042093079600,11.97407958984375,-54.525001525878906,46.20000076293945,-11.193750381469727
1774790042103079400,11.984079345703124,-54.35625076293945,46.33125305175781,-12.018750190734863
1774790042113079600,11.99407958984375,-54.35625076293945,46.33125305175781,-12.018750190734863
1774790042123079400,12.004079345703126,-56.025001525878906,46.556251525878906,-11.362500190734863
1774790042133079600,12.01407958984375,-55.57500076293945,46.650001525878906,-10.65000057220459
1774790042143079400,12.024079345703125,-56.19375228881836,46.51875305175781,-10.800000190734863
1774790042153079600,12.03407958984375,-55.275001525878906,45.60000228881836,-13.687500953674316
1774790042163079400,12.044079345703125,-52.20000076293945,46.96875,-12.80625057220459
1774790042173079600,12.05407958984375,-54.056251525878906,46.59375,-11.137500762939453
1774790042183079400,12.064079345703124,-54.056251525878906,46.837501525878906,-11.081250190734863
1774790042193079600,12.07407958984375,-55.38750076293945,47.681251525878906,-11.30625057220459
1774790042203079400,12.084079345703126,-55.10625076293945,47.19375228881836,-10.425000190734863
1774790042213079600,12.09407958984375,-55.875003814697266,45.63750076293945,-14.231250762939453
1774790042223079400,12.104079345703125,-55.837501525878906,47.17500305175781,-12.24375057220459
1774790042233079600,12.11407958984375,-52.837501525878906,46.38750076293945,-11.625
1774790042243079400,12.124079345703125,-55.38750076293945,48.187503814697266,-9.52500057220459
1774790042253079600,12.13407958984375,-55.42500305175781,46.650001525878906,-11.512500762939453
1774790042263079400,12.144079345703124,-54.67500305175781,46.01250076293945,-11.643750190734863
1774790042273079600,12.15407958984375,-54.618751525878906,47.118751525878906,-12.562500953674316
1774790042283079400,12.164079345703126,-53.70000076293945,47.118751525878906,-13.443750381469727
1774790042293079600,12.17407958984375,-55.81875228881836,48.69375228881836,-10.40625
1774790042303079400,12.184079345703125,-55.57500076293945,46.556251525878906,-11.381250381469727
1774790042313079600,12.19407958984375,-53.250003814697266,47.0625,-13.893750190734863
1774790042323079400,12.204079345703125,-56.025001525878906,46.743751525878906,-11.756250381469727
1774790042333079600,12.21407958984375,-54.31875228881836,47.55000305175781,-12.206250190734863
1774790042343079400,12.224079345703124,-56.343753814697266,45.75,-12.637500762939453
1774790042353079600,12.23407958984375,-55.16250228881836,45.48750305175781,-11.02500057220459
1774790042363079400,12.244079345703126,-52.98750305175781,46.650001525878906,-10.725000381469727
1774790042373079600,12.25407958984375,-55.500003814697266,45.54375076293945,-8.887500762939453
1774790042383079400,12.264079345703125,-54.11250305175781,45.618751525878906,-9.1875
1774790042393079600,12.27407958984375,-54.562503814697266,45.76875305175781,-9.862500190734863
1774790042403079400,12.284079345703125,-54.69375228881836,45.900001525878906,-10.6875
1774790042413079600,12.29407958984375,-53.531253814697266,48.35625076293945,-10.950000762939453
1774790042423079400,12.304079345703125,-54.468753814697266,46.275001525878906,-14.981250762939453
1774790042433079600,12.31407958984375,-53.88750076293945,45.5625,-14.718750953674316
1774790042443079400,12.324079345703124,-53.13750076293945,46.650001525878906,-11.568750381469727
1774790042453079600,12.33407958984375,-54.67500305175781,46.01250076293945,-11.643750190734863
1774790042463079400,12.344079345703125,-52.44375228881836,45.20625305175781,-11.15625
1774790042473079600,12.35407958984375,-53.118751525878906,47.92500305175781,-9.637500762939453
1774790042483079400,12.364079345703125,-53.681251525878906,45.58125305175781,-8.643750190734863
1774790042493079600,12.37407958984375,-52.89375305175781,45.150001525878906,-11.568750381469727
1774790042503079400,12.384079345703125,-52.44375228881836,45.67500305175781,-9.65625
1774790042513079600,12.39407958984375,-51.97500228881836,45.712501525878906,-10.21875
1774790042523079400,12.404079345703124,-55.35000228881836,45.30000305175781,-8.793750762939453
1774790042533079600,12.41407958984375,-53.32500076293945,46.14375305175781,-9.825000762939453
1774790042543079400,12.424079345703126,-52.25625228881836,45.993751525878906,-10.875
1774790042553079600,12.43407958984375,-54.73125076293945,45.78750228881836,-8.86875057220459
1774790042563079400,12.444079345703125,-54.73125076293945,45.78750228881836,-8.86875057220459
1774790042573079600,12.45407958984375,-52.89375305175781,46.21875,-8.550000190734863
1774790042583079400,12.464079345703125,-56.118751525878906,44.56875228881836,-9.61875057220459
1774790042593079600,12.47407958984375,-53.19375228881836,45.73125076293945,-9.33750057220459
1774790042603079400,12.484079345703124,-53.64375305175781,45.50625228881836,-10.78125
1774790042613079600,12.49407958984375,-53.681251525878906,44.23125076293945,-11.02500057220459
1774790042623079400,12.504079345703126,-54.01875305175781,44.25,-9.168750762939453
1774790042633079600,12.51407958984375,-55.35000228881836,44.83125305175781,-10.293750762939453
1774790042643079400,12.524079345703125,-52.91250228881836,44.868751525878906,-10.93125057220459
1774790042653079600,12.53407958984375,-53.250003814697266,43.44375228881836,-12.168750762939453
1774790042663079400,12.544079345703125,-54.16875076293945,44.306251525878906,-9.731250762939453
1774790042673079600,12.55407958984375,-53.66250228881836,45.46875,-9.375
1774790042683079400,12.564079345703124,-52.312503814697266,44.38125228881836,-10.893750190734863
1774790042693079600,12.57407958984375,-52.85625076293945,46.14375305175781,-10.6875
1774790042703079400,12.584079345703126,-49.76250076293945,45.22500228881836,-17.006250381469727
1774790042713079600,12.59407958984375,-50.08125305175781,45.03750228881836,-16.61250114440918
1774790042723079400,12.604079345703125,-47.36250305175781,43.35000228881836,-20.400001525878906
1774790042733079600,12.61407958984375,-49.968753814697266,44.15625,-16.650001525878906
1774790042743079400,12.624079345703125,-53.38125228881836,44.34375,-11.15625
1774790042753079600,12.63407958984375,-52.23750305175781,46.087501525878906,-11.981250762939453
1774790042763079400,12.644079345703124,-51.41250228881836,44.17500305175781,-11.381250381469727
1774790042773079600,12.65407958984375,-53.400001525878906,44.75625228881836,-8.25
1774790042783079400,12.664079345703126,-53.23125076293945,44.28750228881836,-10.59375
1774790042793079600,12.67407958984375,-53.70000076293945,45.30000305175781,-8.006250381469727
1774790042803079400,12.684079345703125,-55.218753814697266,45.150001525878906,-7.275000095367432
1774790042813079600,12.69407958984375,-54.000003814697266,45.30000305175781,-7.987500190734863
1774790042823079400,12.704079345703125,-53.23125076293945,45.1875,-8.737500190734863
1774790042833079600,12.71407958984375,-54.562503814697266,45.73125076293945,-10.143750190734863
1774790042843079400,12.724079345703124,-53.212501525878906,45.35625076293945,-10.125
1774790042853079600,12.73407958984375,-53.32500076293945,45.9375,-11.268750190734863
1774790042863079400,12.744079345703126,-53.868751525878906,43.650001525878906,-9.862500190734863
1774790042873079600,12.75407958984375,-54.056251525878906,46.837501525878906,-11.081250190734863
1774790042883079400,12.764079345703125,-54.60000228881836,45.30000305175781,-8.8125
1774790042893079600,12.77407958984375,-51.69375228881836,45.76875305175781,-8.943750381469727
1774790042903079400,12.784079345703125,-53.83125305175781,44.71875,-11.0625
1774790042913079600,12.79407958984375,-53.19375228881836,45.46875,-11.081250190734863
1774790042923079400,12.804079345703125,-54.31875228881836,47.60625076293945,-11.77500057220459
1774790042933079600,12.81407958984375,-54.806251525878906,46.85625076293945,-11.0625
1774790042943079400,12.824079345703124,-53.906253814697266,45.26250076293945,-15.05625057220459
1774790042953079600,12.83407958984375,-51.281253814697266,45.1875,-17.25
1774790042963079400,12.844079345703125,-51.48750305175781,43.275001525878906,-18.46875
1774790042973079600,12.85407958984375,-44.025001525878906,44.85000228881836,-26.400001525878906
1774790042983079400,12.864079345703125,-53.812503814697266,49.25625228881836,-10.762500762939453
1774790042993079600,12.87407958984375,-52.01250076293945,46.51875305175781,-16.70625114440918
1774790043003079400,12.884079345703125,-55.89375305175781,46.875,-10.03125
1774790043013079600,12.89407958984375,-53.306251525878906,46.89375305175781,-8.981250762939453
1774790043023079400,12.904079345703124,-53.306251525878906,46.89375305175781,-8.981250762939453
1774790043033079600,12.91407958984375,-55.57500076293945,46.85625076293945,-11.043750762939453
1774790043043079400,12.924079345703126,-53.56875228881836,46.96875,-11.925000190734863
1774790043053079600,12.93407958984375,-53.26875305175781,46.57500076293945,-12.843750953674316
1774790043063079400,12.944079345703125,-51.91875076293945,46.78125,-11.4375
1774790043073079600,12.95407958984375,-52.48125076293945,46.95000076293945,-14.625000953674316
1774790043083079400,12.964079345703125,-48.900001525878906,46.25625228881836,-22.762500762939453
1774790043093079600,12.97407958984375,-51.993751525878906,47.32500076293945,-15.412500381469727
1774790043103079400,12.984079345703124,-51.281253814697266,45.22500228881836,-16.96875
1774790043113079600,12.99407958984375,-52.368751525878906,45.1875,-15.52500057220459
1774790043123079400,13.004079345703126,-52.368751525878906,46.21875,-12.80625057220459
1774790043133079600,13.01407958984375,-53.73750305175781,46.44375228881836,-12.15000057220459
1774790043143079400,13.024079345703125,-53.906253814697266,46.76250076293945,-10.818750381469727
1774790043153079600,13.03407958984375,-53.19375228881836,44.08125305175781,-14.58750057220459
1774790043163079400,13.044079345703125,-54.07500076293945,45.806251525878906,-12.262500762939453
1774790043173079600,13.05407958984375,-52.593753814697266,43.80000305175781,-14.812500953674316
1774790043183079400,13.064079345703124,-53.55000305175781,46.650001525878906,-14.100000381469727
1774790043193079600,13.07407958984375,-53.83125305175781,48.03750228881836,-13.125000953674316
1774790043203079400,13.084079345703126,-54.82500076293945,45.63750076293945,-13.406250953674316
1774790043213079600,13.09407958984375,-50.437503814697266,44.92500305175781,-13.950000762939453
1774790043223079400,13.104079345703125,-52.462501525878906,44.00625228881836,-12.506250381469727
1774790043233079600,13.11407958984375,-52.125003814697266,45.03750228881836,-12.318750381469727
1774790043243079400,13.124079345703125,-53.64375305175781,45.46875,-11.0625
1774790043253079600,13.13407958984375,-52.85625076293945,45.09375,-13.706250190734863
1774790043263079400,13.144079345703124,-52.29375076293945,44.4375,-12.99375057220459
1774790043273079600,13.15407958984375,-50.45625305175781,44.32500076293945,-13.781250953674316
1774790043283079400,13.164079345703126,-51.35625076293945,44.868751525878906,-13.500000953674316
1774790043293079600,13.17407958984375,-53.79375076293945,44.70000076293945,-12.90000057220459
1774790043303079400,13.184079345703125,-51.69375228881836,44.962501525878906,-10.237500190734863
1774790043313079600,13.19407958984375,-53.625003814697266,45.20625305175781,-12.956250190734863
1774790043323079400,13.204079345703125,-53.98125076293945,43.91250228881836,-13.200000762939453
1774790043333079600,13.21407958984375,-52.125003814697266,44.118751525878906,-14.325000762939453
1774790043343079400,13.224079345703124,-53.625003814697266,45.20625305175781,-12.956250190734863
1774790043353079600,13.23407958984375,-51.54375076293945,43.6875,-13.875000953674316
