time,seconds_elapsed,z,y,x
1774790030290003000,0.1710029296875,8.621339797973633,4.622933387756348,0.14835500717163086
1774790030317790700,0.198790771484375,8.707481384277344,4.634897232055664,0.3756731450557709
1774790030336316000,0.21731591796875,8.654839515686035,4.780859470367432,0.34217363595962524
1774790030354841000,0.235841064453125,8.839086532592773,4.692325115203857,0.1866401731967926
1774790030373366300,0.2543662109375,8.528019905090332,4.54636287689209,0.13878370821475983
1774790030391891500,0.272891357421875,8.549555778503418,4.4961137771606445,0.25363919138908386
1774790030410416600,0.291416748046875,8.669196128845215,4.584648132324219,0.34217363595962524
1774790030428941800,0.30994189453125,8.367700576782227,4.984249591827393,0.3684946894645691
1774790030447467000,0.328467041015625,8.288737297058105,5.079962253570557,0.39481574296951294
1774790030465992200,0.3469921875,8.547162055969238,4.898108005523682,0.39960137009620667
1774790030484517600,0.365517578125,8.776873588562012,4.721039295196533,0.41874396800994873
1774790030503042800,0.384042724609375,8.839086532592773,4.673182487487793,0.37088751792907715
1774790030521568000,0.402568115234375,8.638090133666992,4.536791801452637,0.15553347766399384
1774790030540093200,0.42109326171875,8.638090133666992,4.443471431732178,-0.0023928226437419653
1774790030558618400,0.439618408203125,8.997013092041016,4.627718925476074,0.24406790733337402
1774790030577143600,0.4581435546875,8.714659690856934,4.673182487487793,0.6604190468788147
1774790030595668700,0.476668701171875,8.616554260253906,4.776073932647705,0.550349235534668
1774790030614194000,0.49519384765625,8.563912391662598,4.9363932609558105,0.4331009089946747
1774790030632719000,0.513718994140625,8.8438720703125,4.9292144775390625,0.31345975399017334
1774790030651244300,0.532244384765625,9.087940216064453,4.761716842651367,0.2225325107574463
1774790030669769700,0.550769775390625,8.870193481445312,4.656432628631592,0.4546363055706024
1774790030688295000,0.569294921875,8.61894702911377,4.7952165603637695,0.43549370765686035
1774790030706820000,0.587820068359375,7.848458290100098,5.300102233886719,0.9619147181510925
1774790030725345300,0.60634521484375,7.685746192932129,5.1182475090026855,0.4977070987224579
1774790030743870500,0.624870361328125,7.814958572387695,4.981856822967529,0.44027936458587646
1774790030762395600,0.643395751953125,7.884350776672363,4.302295207977295,0.8207381963729858
1774790030780920800,0.6619208984375,8.879764556884766,4.18983268737793,0.4378865361213684
1774790030799446000,0.680446044921875,9.592825889587402,4.5583271980285645,0.9619147181510925
1774790030817971200,0.69897119140625,9.829715728759766,4.826323509216309,0.698704183101654
1774790030836496400,0.717496337890625,9.468399047851562,4.589433670043945,0.20338992774486542
1774790030855021600,0.736021484375,9.370293617248535,4.570291042327881,-0.28953152894973755
1774790030882809600,0.7638095703125,8.48016357421875,4.766502857208252,0.07896314561367035
1774790030901334800,0.782334716796875,7.81974458694458,4.8574299812316895,0.062213387340307236
1774790030919860000,0.80085986328125,8.666803359985352,4.67078971862793,-0.19381862878799438
1774790030938385200,0.81938525390625,9.059226989746094,4.890929698944092,-1.160519003868103
1774790030956910300,0.837910400390625,8.719446182250977,4.902893543243408,-1.5074782371520996
1774790030975435500,0.856435546875,8.949156761169434,4.716253280639648,-0.8207381963729858
1774790030993961000,0.8749609375,8.61176872253418,4.862215518951416,-0.5982056856155396
1774790031012486100,0.893486083984375,9.109476089477539,5.441278457641602,-0.5407779216766357
1774790031031011300,0.91201123046875,9.207581520080566,4.728217601776123,-0.43549370765686035
1774790031049536500,0.93053662109375,8.549555778503418,4.335794448852539,-1.0289137363433838
1774790031077324300,0.95832421875,8.37966537475586,4.811966419219971,-1.8448662757873535
1774790031095849700,0.976849609375,6.678368091583252,5.285745143890381,-1.1892328262329102
1774790031114375000,0.995375,6.709474563598633,5.158925533294678,-1.588834285736084
1774790031132900000,1.013900146484375,8.401200294494629,5.230710506439209,-0.9547362327575684
1774790031151425300,1.03242529296875,8.910871505737305,5.565705299377441,-0.4211367964744568
1774790031169950500,1.050950439453125,8.432307243347168,5.771488189697266,-0.6747759580612183
1774790031188476000,1.069475830078125,7.214360237121582,5.161318302154541,-0.349352091550827
1774790031207001000,1.0880009765625,8.724231719970703,4.302295207977295,-1.6534404754638672
1774790031234788900,1.115788818359375,9.492327690124512,3.5126636028289795,-2.344966173171997
1774790031253314300,1.134314208984375,8.185846328735352,4.395615100860596,-0.44027936458587646
1774790031271839500,1.152839599609375,6.613761901855469,4.910071849822998,0.0023928226437419653
1774790031290364700,1.17136474609375,9.001798629760742,5.929414749145508,0.20099709928035736
1774790031308889900,1.189889892578125,10.978270530700684,5.520241737365723,-0.8973084688186646
1774790031327415000,1.2084150390625,9.896714210510254,4.417150497436523,-0.9068797826766968
1774790031345940200,1.226940185546875,8.46580696105957,4.685146808624268,-1.4189438819885254
1774790031364465700,1.245465576171875,8.391629219055176,4.706682205200195,-0.916451096534729
1774790031382990800,1.263990966796875,8.748159408569336,5.017749309539795,-0.576670229434967
1774790031401516000,1.28251611328125,9.150154113769531,5.091926574707031,-0.5623133182525635
1774790031420041500,1.30104150390625,9.119047164916992,4.95074987411499,-0.4307080805301666
1774790031438566700,1.319566650390625,8.738588333129883,4.809573650360107,-0.5216353535652161
1774790031457091800,1.338091796875,8.13081169128418,4.390829563140869,-1.1653046607971191
1774790031475617000,1.356616943359375,7.6977105140686035,4.613361835479736,-1.301695466041565
1774790031494142200,1.37514208984375,7.5637125968933105,4.718646049499512,-1.2849457263946533
1774790031512667400,1.39366748046875,6.479763507843018,4.675575256347656,-1.0289137363433838
1774790031531192800,1.41219287109375,7.869993686676025,4.7473602294921875,-0.9762716293334961
1774790031549718000,1.430718017578125,9.126225471496582,4.7712883949279785,-0.7968099117279053
1774790031568243500,1.449243408203125,8.949156761169434,4.919643402099609,-0.349352091550827
1774790031586768600,1.4677685546875,8.48734188079834,5.407779216766357,0.4546363055706024
1774790031605293800,1.4862939453125,9.284152030944824,5.388636589050293,-0.031106693670153618
1774790031623819000,1.504819091796875,9.207581520080566,5.087141036987305,-0.7968099117279053
1774790031642344400,1.523344482421875,8.863015174865723,5.087141036987305,-0.851844847202301
1774790031660869600,1.54186962890625,9.236295700073242,4.957928657531738,-0.2512463629245758
1774790031679394800,1.560394775390625,9.205188751220703,5.13739013671875,0.15074782073497772
1774790031697920000,1.578919921875,8.214560508728027,5.752345561981201,-0.02153540402650833
1774790031716445400,1.597445556640625,7.310073375701904,5.3455657958984375,-0.4713860750198364
1774790031734970600,1.615970703125,7.922635555267334,5.19960355758667,-1.069591760635376
1774790031753496000,1.63449609375,7.125825881958008,6.0777692794799805,-0.727418065071106
1774790031772021200,1.653021240234375,6.63769006729126,6.640082836151123,-0.5072783827781677
1774790031790546400,1.67154638671875,6.955935478210449,6.455835342407227,-0.1339980661869049
1774790031809071600,1.690071533203125,8.243273735046387,6.570691108703613,-0.5335994362831116
1774790031827597000,1.70859716796875,8.662017822265625,5.804987907409668,-1.2251251935958862
1774790031846122200,1.727122314453125,7.628318786621094,5.6925249099731445,-0.9020941257476807
1774790031864647400,1.7456474609375,7.5326056480407715,6.197410583496094,-0.6101697683334351
1774790031883172900,1.7641728515625,7.867600917816162,6.398407936096191,-0.37088751792907715
1774790031901698000,1.782697998046875,8.240880966186523,6.3122663497924805,-0.7824530005455017
1774790031920223200,1.80122314453125,8.441878318786621,6.673582553863525,-0.8135597109794617
1774790031938748700,1.819748779296875,8.200202941894531,6.532405853271484,-0.8685946464538574
1774790031957273900,1.83827392578125,7.463213920593262,6.1328043937683105,-1.0528420209884644
1774790031975799300,1.85679931640625,6.175875186920166,6.290730953216553,-0.97148597240448
1774790031994324500,1.875324462890625,6.034698486328125,6.632904529571533,-0.8877372145652771
1774790032012850000,1.893849853515625,7.302894592285156,6.410371780395508,-1.031306505203247
1774790032031375000,1.912375,8.291130065917969,5.938985824584961,-1.093519926071167
1774790032049900300,1.930900390625,7.64028263092041,6.5491557121276855,-1.0001999139785767
1774790032068425700,1.94942578125,6.666403770446777,7.410571575164795,-0.2991028428077698
1774790032086951000,1.967950927734375,6.908079147338867,7.094718933105469,-0.4378865361213684
1774790032105476400,1.986476318359375,8.059026718139648,6.192625045776367,-1.1940184831619263
1774790032124001500,2.00500146484375,8.583054542541504,5.989234924316406,-1.3304094076156616
1774790032142526700,2.023526611328125,8.209774017333984,6.597012042999268,-0.6963114142417908
1774790032161052200,2.04205224609375,7.520641803741455,7.250252723693848,-0.035892341285943985
1774790032179577300,2.060577392578125,6.719046115875244,6.948757171630859,-0.36610186100006104
1774790032198102800,2.079102783203125,6.20219612121582,6.967899322509766,-0.7154539823532104
1774790032216628000,2.0976279296875,6.230910301208496,6.8554368019104,-0.882951557636261
1774790032235153400,2.1161533203125,6.472585201263428,6.8171515464782715,-0.7537391185760498
1774790032253678600,2.1346787109375,6.558726787567139,7.2430739402771,-0.24406790733337402
1774790032272204000,2.1532041015625,6.6113691329956055,7.3052873611450195,0.0526420995593071
1774790032290729200,2.171729248046875,6.654439926147461,7.149754047393799,0.07896314561367035
1774790032309254700,2.190254638671875,6.821937561035156,7.350750923156738,0.1579262912273407
1774790032327779800,2.20877978515625,6.206982135772705,7.09711217880249,-0.009571290574967861
1774790032346305300,2.22730517578125,6.405586242675781,7.094718933105469,-0.3278166949748993
1774790032364830500,2.24583056640625,7.594819068908691,7.424928665161133,-0.07178468257188797
1774790032383356000,2.26435595703125,7.676175117492676,7.434499740600586,0.2799602448940277
1774790032401881000,2.282881103515625,7.061219692230225,7.463213920593262,0.3924229145050049
1774790032420406500,2.301406494140625,6.833901405334473,7.989634990692139,0.20338992774486542
1774790032438932000,2.319931884765625,6.649653911590576,7.412964344024658,0.15314064919948578
1774790032457457200,2.33845703125,7.429714202880859,7.087540626525879,-0.08853443711996078
1774790032475982600,2.356982666015625,7.575676441192627,6.939185619354248,-0.21774685382843018
1774790032494508000,2.375508056640625,6.955935478210449,7.04207706451416,-0.064606212079525
1774790032513033200,2.394033203125,6.293123722076416,7.810173034667969,0.2679961323738098
1774790032531558700,2.41255859375,6.151947021484375,7.307680130004883,0.22013968229293823
1774790032550084000,2.431083984375,6.137589931488037,6.798008918762207,-1.1676974296569824
1774790032568609300,2.449609375,6.865008354187012,6.640082836151123,-1.153340458869934
1774790032587134700,2.468134765625,7.039684295654297,6.872186660766602,-0.5814558863639832
1774790032605660000,2.486659912109375,6.293123722076416,7.135396957397461,-0.038285162299871445
1774790032624185300,2.505185302734375,5.740381717681885,7.420143127441406,-0.019142581149935722
1774790032642710500,2.52371044921875,6.379265308380127,7.202396392822266,-0.45942193269729614
1774790032661236000,2.542236083984375,6.7692952156066895,6.97986364364624,-0.4570291340351105
1774790032679761400,2.560761474609375,7.192824840545654,7.389036178588867,-0.07896314561367035
1774790032698286800,2.579286865234375,6.017949104309082,7.348358154296875,0.24406790733337402
1774790032716812300,2.597812255859375,5.405386447906494,7.822137355804443,-0.33738797903060913
1774790032735337500,2.61633740234375,6.017949104309082,7.470392227172852,-0.9834501147270203
1774790032753863000,2.63486279296875,7.089933395385742,7.037291526794434,-0.8231309652328491
1774790032772388400,2.653388427734375,7.738388538360596,7.118647575378418,-0.3038884699344635
1774790032790913500,2.67191357421875,7.554141044616699,7.255038261413574,0.02632104977965355
1774790032809439000,2.69043896484375,7.401000499725342,7.362715244293213,0.062213387340307236
1774790032827964400,2.70896435546875,7.1234331130981445,7.188039302825928,-0.2799602448940277
1774790032846489900,2.72748974609375,7.039684295654297,6.879364967346191,-0.6652047038078308
1774790032865015300,2.746015380859375,6.831508636474609,6.891329288482666,-0.6221339106559753
1774790032883540700,2.764540771484375,6.58265495300293,7.293323516845703,-0.28953152894973755
1774790032902066200,2.783066162109375,6.295516490936279,7.51585578918457,-0.03349951654672623
1774790032920591400,2.80159130859375,6.2428741455078125,7.8317084312438965,0.27756741642951965
1774790032939116800,2.82011669921875,6.285944938659668,7.779066562652588,0.031106693670153618
1774790032957642200,2.838642333984375,6.4510498046875,7.499105930328369,-0.4307080805301666
1774790032976167700,2.857167724609375,6.915257453918457,7.6666035652160645,-0.3158525824546814
1774790032994693000,2.875693115234375,7.1234331130981445,7.927421569824219,-0.15074782073497772
1774790033013218600,2.894218505859375,7.118647575378418,7.850851058959961,-0.13639089465141296
1774790033031744000,2.912743896484375,6.845865726470947,7.968099594116211,-0.6915257573127747
1774790033050269200,2.931269287109375,6.814758777618408,8.09970474243164,-1.301695466041565
1774790033068794600,2.949794677734375,7.113861560821533,7.755138397216797,-1.34476637840271
1774790033087320000,2.968320068359375,8.975478172302246,7.659425258636475,-0.727418065071106
1774790033105845800,2.986845703125,9.760323524475098,7.3986077308654785,-0.1052841991186142
1774790033124371000,3.005370849609375,8.49452018737793,7.271788120269775,0.038285162299871445
1774790033142896400,3.023896484375,6.752545356750488,7.7838521003723145,-0.33499518036842346
1774790033161421800,3.042421875,6.350551128387451,7.585247993469238,-0.7752745151519775
1774790033179947300,3.060947265625,6.728617191314697,6.989434719085693,-0.8973084688186646
1774790033198472700,3.07947265625,7.2574310302734375,6.7070817947387695,-0.9188438653945923
1774790033216998100,3.097998046875,6.936792850494385,6.606583118438721,-1.404586911201477
1774790033235523600,3.116523681640625,6.393621921539307,6.879364967346191,-1.3639088869094849
1774790033254049300,3.13504931640625,5.821737289428711,6.606583118438721,-1.8305093050003052
1774790033272574700,3.15357470703125,6.472585201263428,6.606583118438721,-1.550549030303955
1774790033291100200,3.17210009765625,7.144968509674072,6.51326322555542,-1.3639088869094849
1774790033309625600,3.19062548828125,6.728617191314697,6.50608491897583,-1.5122638940811157
1774790033328151000,3.209151123046875,7.082755088806152,6.798008918762207,-1.1940184831619263
1774790033346676500,3.227676513671875,7.525427341461182,6.453442573547363,-1.1940184831619263
1774790033365202000,3.246201904296875,7.534998416900635,6.463014125823975,-1.5720844268798828
1774790033383727400,3.264727294921875,7.544569969177246,6.991827964782715,-1.5146567821502686
1774790033402253000,3.283253173828125,7.164111137390137,6.539584159851074,-1.4739787578582764
1774790033420778500,3.301778564453125,6.297909259796143,6.8171515464782715,-1.588834285736084
1774790033439304000,3.320303955078125,6.376872539520264,7.51585578918457,-1.074377417564392
1774790033457829400,3.338829345703125,6.422336101531982,7.142575740814209,-0.8590233325958252
1774790033476354800,3.357354736328125,6.5180487632751465,6.941578388214111,-1.1485549211502075
1774790033494880500,3.375880615234375,7.41535758972168,6.881757736206055,-1.399801254272461
1774790033513406000,3.394406005859375,6.120840549468994,6.206982135772705,-1.521835207939148
1774790033531931400,3.412931396484375,5.175675392150879,6.867401123046875,-1.6366907358169556
1774790033550457000,3.43145703125,2.957528829574585,7.216753005981445,-2.421536445617676
1774790033568982500,3.449982421875,4.938786029815674,7.539783954620361,-1.7204394340515137
1774790033587508000,3.468508056640625,8.02791976928711,7.927421569824219,-1.2873386144638062
1774790033606033700,3.48703369140625,6.819544315338135,7.657032489776611,-1.0839486122131348
1774790033624559000,3.50555908203125,4.268795490264893,7.992027759552002,-1.2035897970199585
1774790033643084500,3.52408447265625,3.335594654083252,7.606783390045166,-1.8544375896453857
1774790033661610200,3.5426103515625,4.5200419425964355,7.350750923156738,-1.9908283948898315
1774790033680135700,3.5611357421875,5.759523868560791,7.176074981689453,-1.098305583000183
1774790033698661400,3.579661376953125,6.527620315551758,7.046862602233887,-0.8542376756668091
1774790033717186800,3.598186767578125,6.922435760498047,7.168896675109863,-1.1700903177261353
1774790033735712300,3.616712158203125,7.491927623748779,6.893722057342529,-0.9690931439399719
1774790033754238000,3.635238037109375,7.503891944885254,6.5419769287109375,-0.8566305041313171
1774790033772763400,3.653763427734375,7.080362319946289,7.03489875793457,-0.7537391185760498
1774790033791289000,3.6722890625,7.448856830596924,7.319644451141357,-0.8087740540504456
1774790033819077400,3.700077392578125,7.841279983520508,7.1856465339660645,-0.6795616149902344
1774790033837602800,3.718602783203125,8.008777618408203,7.164111137390137,-0.4019941985607147
1774790033856128500,3.73712841796875,7.740781307220459,6.920042991638184,-0.2105683982372284
1774790033883916800,3.764916748046875,7.523034572601318,7.1234331130981445,-0.33020952343940735
1774790033902442500,3.7834423828125,7.994420528411865,7.456035137176514,-0.36610186100006104
1774790033920968000,3.801968017578125,8.707481384277344,7.451249599456787,-0.24885354936122894
1774790033939493600,3.82049365234375,9.489934921264648,7.003791809082031,-0.5240281820297241
1774790033958019300,3.839019287109375,9.403793334960938,6.235695838928223,-1.1437692642211914
1774790033976545000,3.857544921875,8.197810173034668,5.903093338012695,-1.674975872039795
1774790033995070500,3.876070556640625,7.970492362976074,7.41535758972168,-0.8135597109794617
1774790034013596200,3.89459619140625,7.786244869232178,7.977670669555664,0.6149554252624512
1774790034032121600,3.91312158203125,7.5086774826049805,7.238288402557373,0.48813581466674805
1774790034050647300,3.931647216796875,7.70249605178833,6.427121639251709,-0.1579262912273407
1774790034069173000,3.950173095703125,8.420342445373535,5.831308841705322,-0.46420758962631226
1774790034087698400,3.968698486328125,8.891729354858398,5.726024627685547,0.0526420995593071
1774790034106224000,3.98722412109375,8.47298526763916,6.247660160064697,0.6293123364448547
1774790034124749800,4.005749755859375,7.941778182983398,6.415157318115234,1.031306505203247
1774790034143275500,4.024275634765625,7.903493404388428,5.982056617736816,0.8470591902732849
1774790034161801200,4.04280126953125,8.161917686462402,5.613562107086182,0.3517449200153351
1774790034180326700,4.06132666015625,8.559126853942871,5.407779216766357,0.4713860750198364
1774790034198852400,4.079852294921875,8.422736167907715,5.3455657958984375,0.7968099117279053
1774790034217378000,4.0983779296875,7.891529083251953,5.867201328277588,1.5792629718780518
1774790034235903700,4.11690380859375,7.597211837768555,5.752345561981201,1.7539390325546265
1774790034254429400,4.135429443359375,7.372286796569824,5.398207664489746,0.9978070259094238
1774790034272955100,4.153955078125,7.542177200317383,5.237888813018799,0.42831525206565857
1774790034291480800,4.172480712890625,7.822137355804443,5.13021183013916,0.29431718587875366
1774790034310006300,4.19100634765625,8.063812255859375,5.216353416442871,0.1746760457754135
1774790034328532200,4.2095322265625,8.312665939331055,5.20678186416626,0.14117653667926788
1774790034347058000,4.228057861328125,8.15234661102295,5.120640277862549,0.1459621787071228
1774790034365583400,4.246583251953125,7.561319351196289,5.113461971282959,-0.22013968229293823
1774790034384109000,4.265109130859375,7.154539585113525,5.362315654754639,-0.1866401731967926
1774790034402635000,4.283635009765625,6.675975322723389,5.7858452796936035,0.6675975322723389
1774790034421160400,4.302160400390625,6.484549522399902,6.087340831756592,0.9499505758285522
1774790034439686100,4.32068603515625,6.39601469039917,6.051448345184326,0.5982056856155396
1774790034458212000,4.339212158203125,7.331608772277832,5.781059741973877,0.49292147159576416
1774790034476737800,4.35773779296875,7.719245910644531,5.493920803070068,0.4211367964744568
1774790034495263200,4.37626318359375,7.8795647621154785,5.67338228225708,0.605384111404419
1774790034513789200,4.3947890625,7.475177764892578,5.927021503448486,0.6149554252624512
1774790034532315000,4.41331494140625,6.9822564125061035,5.862415313720703,0.5335994362831116
1774790034550840600,4.431840576171875,6.960721015930176,6.029912948608398,0.6197410821914673
1774790034569366300,4.4503662109375,7.63310432434082,5.979663848876953,0.5431707501411438
1774790034587892000,4.46889208984375,7.664210796356201,5.661418437957764,0.019142581149935722
1774790034606418000,4.48741796875,8.350951194763184,6.331408500671387,-0.40677985548973083
1774790034624943600,4.505943603515625,8.781659126281738,6.422336101531982,-0.1459621787071228
1774790034643469300,4.52446923828125,8.863015174865723,6.379265308380127,0.08374879509210587
1774790034661995000,4.5429951171875,9.131011009216309,6.367300987243652,0.07657032459974289
1774790034680520700,4.561520751953125,9.513862609863281,6.424728870391846,0.23688943684101105
1774790034699046700,4.580046630859375,9.509077072143555,6.714260101318359,0.014356935396790504
1774790034717572400,4.598572265625,8.714659690856934,7.2095746994018555,-1.0815558433532715
1774790034736098000,4.61709814453125,8.116454124450684,8.003992080688477,-2.0099709033966064
1774790034754624000,4.6356240234375,8.973084449768066,7.75753116607666,-1.153340458869934
1774790034773149700,4.654149658203125,10.593026161193848,6.865008354187012,0.3732803463935852
1774790034791675400,4.67267529296875,12.222537994384766,5.730810165405273,0.2871387302875519
1774790034810201000,4.691201171875,12.04068374633789,4.417150497436523,-0.8255237936973572
1774790034828727000,4.70972705078125,10.942378044128418,3.94097900390625,-1.7491533756256104
1774790034847252700,4.728252685546875,9.619147300720215,4.728217601776123,-1.2251251935958862
1774790034865778400,4.7467783203125,8.032705307006836,5.412564754486084,-0.760917603969574
1774790034884304400,4.765304443359375,6.879364967346191,5.218746185302734,-0.9906286001205444
1774790034902830000,4.783830078125,6.403193473815918,4.756931304931641,-1.550549030303955
1774790034921356000,4.80235595703125,7.037291526794434,4.481756687164307,-1.7611174583435059
1774790034939881700,4.8208818359375,7.776673793792725,4.2592244148254395,-1.4979069232940674
1774790034958407400,4.839407470703125,8.049455642700195,4.2831525802612305,-1.1485549211502075
1774790034976933400,4.857933349609375,7.869993686676025,4.632504463195801,-0.30149564146995544
1774790034995459000,4.876458984375,8.118846893310547,4.551148891448975,0.25363919138908386
1774790035013985000,4.894985107421875,8.57348346710205,4.338187217712402,0.35413774847984314
1774790035032511000,4.913510986328125,8.520841598510742,4.187439441680908,0.13160525262355804
1774790035051036700,4.93203662109375,8.202595710754395,4.1970109939575195,-0.15553347766399384
1774790035069562600,4.950562744140625,7.654639720916748,4.302295207977295,-0.32303106784820557
1774790035088088300,4.96908837890625,7.140182971954346,4.685146808624268,-0.14835500717163086
1774790035106614300,4.9876142578125,7.489534854888916,5.003392219543457,-0.08614161610603333
1774790035125140000,5.006139892578125,7.04925537109375,4.876572608947754,-0.13639089465141296
1774790035143666000,5.024666015625,6.434299945831299,4.926821708679199,-0.4426721930503845
1774790035162191600,5.043191650390625,6.850651264190674,5.017749309539795,-0.380458801984787
1774790035180717600,5.061717529296875,6.776473522186279,5.326423168182373,-0.19381862878799438
1774790035199243500,5.080243408203125,6.97986364364624,5.855237007141113,-0.19142581522464752
1774790035217769200,5.098769287109375,7.927421569824219,5.903093338012695,0.12442677468061447
1774790035236295200,5.117295166015625,7.520641803741455,5.371886730194092,0.4833501875400543
1774790035254821000,5.135821044921875,7.278966426849365,6.168696880340576,-0.19142581522464752
1774790035273346800,5.154346923828125,7.64028263092041,6.309873104095459,-0.38763725757598877
1774790035291872800,5.172872802734375,8.583054542541504,6.111268997192383,-0.10767702013254166
1774790035310398700,5.191398681640625,9.480362892150879,6.307480335235596,0.11724831163883209
1774790035328924400,5.20992431640625,9.588040351867676,6.180660724639893,0.12921242415905
1774790035347450400,5.228450439453125,9.731609344482422,5.883950710296631,0.019142581149935722
1774790035365976300,5.246976318359375,9.958928108215332,5.781059741973877,-0.34695929288864136
1774790035384502300,5.265502197265625,10.258030891418457,5.6685967445373535,-0.48095735907554626
1774790035403028000,5.284028076171875,10.037891387939453,6.106483459472656,-0.6652047038078308
1774790035421554000,5.302553955078125,9.166903495788574,6.259624004364014,-0.45224347710609436
1774790035440080000,5.321079833984375,9.485149383544922,5.670989513397217,0.9595218896865845
1774790035458605800,5.339605712890625,9.7938232421875,4.931607246398926,2.122433662414551
1774790035477131800,5.3581318359375,10.463813781738281,4.555934429168701,1.698904037475586
1774790035495657700,5.37665771484375,10.554740905761719,3.9936211109161377,0.7058826684951782
1774790035514183700,5.39518359375,10.112068176269531,3.7016966342926025,0.14117653667926788
1774790035532709400,5.41370947265625,9.028120040893555,4.335794448852539,0.17946170270442963
1774790035551235300,5.4322353515625,8.635697364807129,4.60857629776001,0.7082754969596863
1774790035569761300,5.45076123046875,8.944371223449707,4.374079704284668,1.1030912399291992
1774790035588287200,5.469287353515625,9.229117393493652,4.194618225097656,0.8231309652328491
1774790035606813200,5.487813232421875,9.351150512695312,4.158725738525391,0.6293123364448547
1774790035625339100,5.506339111328125,9.06401252746582,4.383651256561279,0.6245267391204834
1774790035643865000,5.524864990234375,8.147561073303223,4.412364959716797,0.5623133182525635
1774790035662391000,5.54339111328125,7.609176158905029,4.211368083953857,0.062213387340307236
1774790035680917000,5.5619169921875,7.128218650817871,3.8811583518981934,-0.2679961323738098
1774790035699443000,5.58044287109375,6.838686943054199,3.8811583518981934,-0.46899324655532837
1774790035717969000,5.598968994140625,6.774080753326416,4.089334011077881,-0.5096712112426758
1774790035736494800,5.617494873046875,7.070790767669678,4.426722049713135,-0.24406790733337402
1774790035755020800,5.636020751953125,7.611568927764893,4.529613494873047,-0.016749758273363113
1774790035773546800,5.654546630859375,7.2813591957092285,4.488935470581055,0.09810572862625122
1774790035792072700,5.67307275390625,7.412964344024658,4.9531426429748535,0.1746760457754135
1774790035810598700,5.6915986328125,7.7216386795043945,5.015356063842773,0.4953143000602722
1774790035829124600,5.71012451171875,7.688138961791992,4.764110088348389,0.3397808074951172
1774790035847650600,5.728650634765625,8.221738815307617,4.867001056671143,0.15074782073497772
1774790035866176500,5.747176513671875,8.439485549926758,4.701896667480469,0.5742774605751038
1774790035884702500,5.765702392578125,8.056633949279785,4.816751956939697,0.5312066078186035
1774790035903228700,5.784228759765625,8.094919204711914,5.414957523345947,0.18424734473228455
1774790035921754600,5.802754638671875,7.850851058959961,5.625525951385498,0.02871387079358101
1774790035940280600,5.821280517578125,8.264809608459473,5.843272686004639,0.20099709928035736
1774790035958806500,5.839806640625,9.272188186645508,5.955735683441162,0.7369893789291382
1774790035977332500,5.85833251953125,9.717252731323242,5.958128452301025,0.6340979933738708
1774790035995858400,5.8768583984375,10.15035343170166,5.584847927093506,0.04785645380616188
1774790036014384400,5.89538427734375,10.277173042297363,5.4628143310546875,-0.059820566326379776
1774790036032910600,5.91391064453125,10.195816993713379,5.927021503448486,-0.48813581466674805
1774790036051436500,5.9324365234375,9.394221305847168,6.764509677886963,-1.5672988891601562
1774790036069962500,5.95096240234375,8.331808090209961,7.494320392608643,-2.2468605041503906
1774790036088488400,5.969488525390625,8.714659690856934,7.252645492553711,-1.3471591472625732
1774790036107014400,5.988014404296875,11.241480827331543,5.876772403717041,-0.062213387340307236
1774790036125540600,6.00654052734375,13.648660659790039,4.292723655700684,-0.15553347766399384
1774790036144066600,6.025066650390625,13.23709487915039,3.129812002182007,-1.1389836072921753
1774790036162592500,6.043592529296875,11.227124214172363,3.1585259437561035,-2.1846470832824707
1774790036181118700,6.06211865234375,8.673981666564941,3.8668015003204346,-2.541177749633789
1774790036199644700,6.080644775390625,7.963313579559326,4.139583110809326,-2.3234307765960693
1774790036218170600,6.099170654296875,8.233702659606934,3.9601213932037354,-1.3160524368286133
1774790036236696600,6.117696533203125,8.496912956237793,4.335794448852539,-0.37806597352027893
1774790036255222800,6.136222900390625,8.408378601074219,4.785645484924316,0.0526420995593071
1774790036273748700,6.154748779296875,8.23848819732666,4.737788677215576,0.6963114142417908
1774790036292274700,6.173274658203125,8.389236450195312,4.479363918304443,1.3543375730514526
1774790036310801000,6.19180078125,7.968099594116211,4.364508628845215,1.5409778356552124
1774790036329326800,6.210326904296875,7.077969551086426,4.3788652420043945,1.1940184831619263
1774790036347853000,6.22885302734375,6.474977970123291,4.156332969665527,0.6317051649093628
1774790036366379000,6.24737890625,6.010770320892334,3.838087558746338,0.15553347766399384
1774790036384905200,6.2659052734375,5.9198431968688965,3.7567315101623535,-0.2679961323738098
1774790036403431200,6.28443115234375,6.419943332672119,3.9385859966278076,-0.4737788736820221
1774790036421957000,6.30295703125,6.391229152679443,4.180261135101318,-0.1579262912273407
1774790036440483300,6.3214833984375,6.223731517791748,4.658825874328613,-0.12442677468061447
1774790036459009300,6.34000927734375,6.45822811126709,4.972285270690918,-0.24406790733337402
1774790036477535500,6.358535400390625,6.2668023109436035,5.13739013671875,-0.06939185410737991
1774790036496061400,6.3770615234375,6.642475605010986,5.649454116821289,-0.08614161610603333
1774790036514587400,6.39558740234375,7.83410120010376,6.072983741760254,0.08614161610603333
1774790036533113600,6.414113525390625,8.427521705627441,5.769095420837402,0.035892341285943985
1774790036551639800,6.432639892578125,8.839086532592773,5.548955917358398,-0.6317051649093628
1774790036570165800,6.451165771484375,9.336793899536133,5.391029357910156,-0.9379864931106567
1774790036588692000,6.46969189453125,9.207581520080566,5.788238048553467,-0.8542376756668091
1774790036607218000,6.488218017578125,9.92542839050293,6.364908218383789,-0.36610186100006104
1774790036625744100,6.506744140625,11.081161499023438,6.501298904418945,-0.04785645380616188
1774790036644270000,6.52527001953125,11.56690502166748,6.16391134262085,-0.21296121180057526
1774790036662796300,6.54379638671875,10.911271095275879,5.97727108001709,-0.6125625967979431
1774790036681322200,6.562322265625,9.729216575622559,6.496513366699219,-0.7776673436164856
1774790036699848400,6.580848388671875,9.403793334960938,6.508477687835693,0.5407779216766357
1774790036718374400,6.59937451171875,11.258230209350586,5.697310924530029,1.8711873292922974
1774790036736900600,6.617900634765625,12.811172485351562,4.455435752868652,2.021935224533081
1774790036755426600,6.636426513671875,12.77049446105957,3.0340991020202637,1.1102696657180786
1774790036773952800,6.654952880859375,11.155339241027832,2.6488547325134277,0.1339980661869049
1774790036792479000,6.67347900390625,8.908478736877441,3.493520975112915,-0.1339980661869049
1774790036811005000,6.6920048828125,7.692924976348877,4.40757942199707,0.5000999569892883
1774790036829531100,6.71053125,8.164310455322266,4.8502516746521,1.428515076637268
1774790036848057000,6.72905712890625,8.810373306274414,4.790431022644043,1.9836499691009521
1774790036866583300,6.747583251953125,9.013762474060059,4.42193603515625,1.552941918373108
1774790036885109500,6.766109619140625,8.327022552490234,3.8835511207580566,0.7561319470405579
1774790036903635500,6.784635498046875,7.267002582550049,3.696911096572876,0.3445664644241333
1774790036922161700,6.80316162109375,6.539584159851074,4.051048755645752,0.27038896083831787
1774790036940688000,6.82168798828125,6.57547664642334,4.323830604553223,0.33738797903060913
1774790036959214000,6.840214111328125,6.539584159851074,4.036691665649414,0.2153540402650833
1774790036977740000,6.858739990234375,6.305087566375732,3.617947816848755,-0.28953152894973755
1774790036996266200,6.877266357421875,6.307480335235596,3.627519130706787,-0.5575276613235474
1774790037014792200,6.895792236328125,6.419943332672119,4.1347975730896,-0.2105683982372284
1774790037033318400,6.914318359375,7.094718933105469,4.783252239227295,0.38763725757598877
1774790037051844600,6.9328447265625,7.41535758972168,5.146961688995361,0.8135597109794617
1774790037070370800,6.951370849609375,7.6043901443481445,5.06082010269165,0.973878800868988
1774790037088896800,6.969896728515625,7.762316703796387,4.821537494659424,0.8135597109794617
1774790037107423000,6.988423095703125,7.628318786621094,4.6301116943359375,0.39481574296951294
1774790037125949200,7.00694921875,7.738388538360596,4.7952165603637695,0.10767702013254166
1774790037144475100,7.02547509765625,7.994420528411865,4.996213912963867,0.13878370821475983
1774790037163001300,7.04400146484375,8.315058708190918,5.170889854431152,0.18903298676013947
1774790037181527600,7.062527587890625,8.475378036499023,5.314459323883057,0.11724831163883209
1774790037200053800,7.0810537109375,8.793622970581055,5.577669620513916,0.16031911969184875
1774790037218579700,7.099579833984375,8.997013092041016,5.769095420837402,0.05024927482008934
1774790037237106000,7.11810595703125,8.879764556884766,5.8097734451293945,-0.05503492057323456
1774790037255632100,7.136632080078125,9.34157943725586,5.6207404136657715,0.2225325107574463
1774790037274158300,7.155158447265625,10.353743553161621,5.6207404136657715,0.42831525206565857
1774790037292684300,7.173684326171875,11.011770248413086,5.745167255401611,0
1774790037311210500,7.19221044921875,9.760323524475098,6.508477687835693,-1.25144624710083
1774790037329736700,7.21073681640625,8.047062873840332,7.3292155265808105,-2.3784656524658203
1774790037348263000,7.229262939453125,7.982456207275391,7.530212879180908,-2.1415762901306152
1774790037366788900,7.247788818359375,11.188838958740234,6.747759819030762,-0.3684946894645691
1774790037385315000,7.266315185546875,14.895320892333984,5.292923450469971,0.9403793215751648
1774790037403841300,7.28484130859375,14.964713096618652,4.01037073135376,0.8638089895248413
1774790037422367500,7.303367431640625,12.215359687805176,3.4576287269592285,-0.7345965504646301
1774790037440893400,7.3218935546875,9.145368576049805,3.8500516414642334,-1.9262222051620483
1774790037459419600,7.340419677734375,7.630711555480957,4.326223373413086,-2.108076810836792
1774790037477945900,7.35894580078125,7.874779224395752,4.206582069396973,-1.5649060010910034
1774790037496472000,7.37747216796875,8.707481384277344,3.5676984786987305,-0.8805587291717529
1774790037514998300,7.395998291015625,9.300901412963867,3.436093330383301,-0.49292147159576416
1774790037533524500,7.4145244140625,9.305686950683594,3.321237802505493,-0.10289137065410614
1774790037552050400,7.433050537109375,9.004191398620605,3.3619158267974854,0.27038896083831787
1774790037570576600,7.45157666015625,8.506484031677246,3.4552359580993652,0.7369893789291382
1774790037589102800,7.470102783203125,7.747959613800049,3.6394832134246826,1.0408778190612793
1774790037607629000,7.488629150390625,7.1162543296813965,3.8500516414642334,0.9547362327575684
1774790037626155300,7.5071552734375,6.168696880340576,3.996013879776001,0.6604190468788147
1774790037644681500,7.525681396484375,5.429314613342285,4.07258415222168,0.275174617767334
1774790037663207400,7.54420751953125,4.924428939819336,4.177868366241455,-0.007178467698395252
1774790037681733600,7.562733642578125,5.024927616119385,4.285545349121094,-0.1986042857170105
1774790037700259800,7.581259765625,5.469992637634277,4.706682205200195,-0.1459621787071228
1774790037718786000,7.5997861328125,6.235695838928223,5.146961688995361,0.0023928226437419653
1774790037737312300,7.618312255859375,6.530013084411621,5.249852657318115,-0.07417750358581543
1774790037755838500,7.63683837890625,6.695117950439453,5.31685209274292,-0.07657032459974289
1774790037774364700,7.65536474609375,7.41535758972168,5.446064472198486,-0.11485548317432404
1774790037792890600,7.673890625,8.118846893310547,5.405386447906494,-0.13639089465141296
1774790037811416800,7.692416748046875,8.597412109375,5.3694939613342285,-0.15074782073497772
1774790037829943000,7.710943115234375,9.233902931213379,5.79780912399292,-0.2799602448940277
1774790037848469200,7.72946923828125,9.884750366210938,6.137589931488037,0.04785645380616188
1774790037866995500,7.747995361328125,9.611968994140625,6.3601226806640625,0.3397808074951172
1774790037885521700,7.766521728515625,9.183652877807617,6.460621356964111,0.1818545162677765
1774790037904047900,7.7850478515625,9.379864692687988,6.238088607788086,-0.32303106784820557
1774790037922574000,7.803573974609375,9.882357597351074,5.929414749145508,-0.7465606927871704
1774790037941100300,7.822100341796875,10.272387504577637,6.283552169799805,-1.0001999139785767
1774790037959626500,7.84062646484375,9.889535903930664,6.427121639251709,-0.6939185857772827
1774790037978152400,7.85915234375,9.798608779907227,5.536991596221924,0.5216353535652161
1774790037996678700,7.8776787109375,11.416156768798828,4.254438877105713,1.0360921621322632
1774790038015204900,7.896204833984375,13.110275268554688,2.8450660705566406,0.9451649188995361
1774790038033731000,7.91473095703125,13.00259780883789,1.9310078620910645,0.2871387302875519
1774790038052257300,7.93325732421875,10.928021430969238,2.2540390491485596,-0.6340979933738708
1774790038070783500,7.951783447265625,8.793622970581055,3.7495529651641846,-0.6891329288482666
1774790038089309700,7.970309814453125,7.769495010375977,5.307280540466309,0.6460621356964111
1774790038107836000,7.9888359375,8.343772888183594,5.831308841705322,2.100898265838623
1774790038126362000,8.007362060546875,9.44447135925293,4.977071285247803,2.5603201389312744
1774790038144888300,8.025888427734374,10.085747718811035,4.012763500213623,1.5960127115249634
1774790038163414500,8.04441455078125,9.78664493560791,3.603590965270996,0.851844847202301
1774790038181940700,8.062940673828125,8.70508861541748,3.759124279022217,0.698704183101654
1774790038200467000,8.081467041015625,7.369893550872803,4.101297855377197,0.6628118753433228
1774790038218993200,8.0999931640625,6.553941249847412,4.122833251953125,0.39960137009620667
1774790038237519000,8.11851904296875,6.340980052947998,3.689732551574707,-0.019142581149935722
1774790038256045300,8.13704541015625,6.082555294036865,3.4911282062530518,-0.44027936458587646
1774790038274571800,8.15557177734375,6.190232276916504,3.838087558746338,-0.6532405614852905
1774790038293097700,8.17409765625,6.678368091583252,4.232903480529785,-0.3038884699344635
1774790038311624200,8.192624267578125,7.125825881958008,4.541577339172363,0.17946170270442963
1774790038330150100,8.211150146484375,7.015756130218506,4.756931304931641,0.4019941985607147
1774790038348676400,8.22967626953125,6.589833736419678,4.584648132324219,0.2799602448940277
1774790038367202600,8.24820263671875,6.8243303298950195,4.225724697113037,0.16749759018421173
1774790038385728800,8.266728759765625,7.824530124664307,4.35254430770874,0.1339980661869049
1774790038404255200,8.285255126953125,8.623732566833496,4.615755081176758,-0.03349951654672623
1774790038422781200,8.30378125,8.72901725769043,5.077569484710693,-0.038285162299871445
1774790038441307400,8.322307373046876,8.520841598510742,5.424529075622559,-0.24646073579788208
1774790038459833600,8.34083349609375,8.449056625366211,5.639883041381836,-0.6436693072319031
1774790038478359800,8.35935986328125,9.116654396057129,5.613562107086182,-0.6580262184143066
1774790038496886300,8.37788623046875,10.473384857177734,5.498706340789795,-0.12681959569454193
1774790038515412200,8.396412109375,11.064412117004395,5.245067119598389,0.16749759018421173
1774790038533938400,8.4149384765625,10.990234375,5.60399055480957,-0.3086741268634796
1774790038552465000,8.43346484375,10.016355514526367,6.618547439575195,-1.4428720474243164
1774790038570990800,8.451990966796876,8.243273735046387,7.314858913421631,-2.1918256282806396
1774790038589517300,8.470517333984375,8.157132148742676,7.240681171417236,-1.7204394340515137
1774790038608043500,8.48904345703125,10.526026725769043,5.857629776000977,-0.5742774605751038
1774790038626569700,8.50756982421875,13.627124786376953,4.070191383361816,-0.1986042857170105
1774790038645096000,8.526095947265626,14.321043968200684,2.455035924911499,-0.9690931439399719
1774790038663622100,8.5446220703125,12.177074432373047,1.8544375896453857,-1.8687944412231445
1774790038682148400,8.5631484375,10.054640769958496,2.3712873458862305,-2.840280532836914
1774790038700674600,8.581674560546874,8.676374435424805,2.8211379051208496,-2.8115665912628174
1774790038719200800,8.60020068359375,8.738588333129883,3.517449378967285,-1.7204394340515137
1774790038737727000,8.61872705078125,9.042476654052734,4.015156269073486,-0.6628118753433228
1774790038756253200,8.637253173828125,9.475577354431152,3.9864425659179688,-0.10049854964017868
1774790038774779400,8.655779296875,9.688538551330566,3.562912940979004,0.41156548261642456
1774790038793305600,8.6743056640625,9.621540069580078,3.211168050765991,0.641276478767395
1774790038811831800,8.692831787109375,8.920442581176758,3.136990547180176,0.6245267391204834
1774790038830358000,8.71135791015625,7.573283672332764,3.5916268825531006,0.7704889178276062
1774790038848884200,8.72988427734375,6.482156753540039,3.8835511207580566,0.6939185857772827
1774790038867410400,8.748410400390625,5.948556900024414,3.7256247997283936,0.23449662327766418
1774790038885937000,8.76693701171875,6.034698486328125,3.7160534858703613,-0.1579262912273407
1774790038904462800,8.785462890625,6.156732559204102,3.3786656856536865,-0.8925228714942932
1774790038922989000,8.803989013671876,5.467599868774414,3.8500516414642334,-0.5958128571510315
1774790038941515500,8.822515625,6.269195556640625,4.319045066833496,0.04307080805301666
1774790038960041700,8.841041748046875,6.776473522186279,4.766502857208252,0.27756741642951965
1774790038978568000,8.85956787109375,6.991827964782715,5.175675392150879,0.2273181527853012
1774790038997094100,8.87809423828125,7.362715244293213,5.115854740142822,-0.1052841991186142
1774790039015620400,8.896620361328125,7.786244869232178,5.034498691558838,-0.14356936514377594
1774790039034146600,8.915146484375,8.427521705627441,4.941178798675537,-0.40677985548973083
1774790039052672800,8.9336728515625,8.872586250305176,4.969892501831055,-0.6484549641609192
1774790039071199000,8.952198974609376,9.573683738708496,5.283352375030518,-0.519242525100708
1774790039089725400,8.970725341796875,10.202995300292969,5.613562107086182,-0.22971096634864807
1774790039108251600,8.989251708984375,10.504491806030273,5.376672267913818,-0.1459621787071228
1774790039126777900,9.00777783203125,10.738987922668457,5.039284706115723,-0.17228323221206665
1774790039145304000,9.026303955078125,11.389835357666016,4.823930263519287,-0.3038884699344635
1774790039163830300,9.044830322265625,11.578868865966797,5.194818019866943,-0.7130611538887024
1774790039182356500,9.0633564453125,10.25324535369873,5.931807518005371,-0.5575276613235474
1774790039200882700,9.081882568359376,9.42054271697998,5.469992637634277,1.1700903177261353
1774790039219409000,9.100408935546875,10.84427261352539,4.512863636016846,2.5292134284973145
1774790039237935000,9.11893505859375,12.361321449279785,3.263810157775879,1.8999011516571045
1774790039256461600,9.137461669921874,12.478569984436035,2.421536445617676,0.5048855543136597
1774790039274987800,9.15598779296875,10.693524360656738,2.768495798110962,-0.7680960893630981
1774790039293514000,9.174513916015625,8.898907661437988,3.579662561416626,-0.8973084688186646
1774790039312040200,9.193040283203125,8.300702095031738,4.376472473144531,0.380458801984787
1774790039330566400,9.21156640625,8.57348346710205,4.706682205200195,1.466800332069397
1774790039349092600,9.230092529296876,9.176474571228027,4.383651256561279,1.3543375730514526
1774790039367619000,9.248619140625,9.150154113769531,3.8572301864624023,0.7202396392822266
1774790039386145300,9.267145263671875,8.197810173034668,3.7016966342926025,0.41874396800994873
1774790039404671500,9.28567138671875,7.2813591957092285,4.177868366241455,0.45942193269729614
1774790039423197700,9.30419775390625,6.742974281311035,4.35254430770874,0.36610186100006104
1774790039441724000,9.322723876953125,6.838686943054199,3.895515203475952,0.08614161610603333
1774790039460250000,9.34125,6.955935478210449,3.335594654083252,-0.2799602448940277
1774790039478776300,9.3597763671875,6.766902446746826,3.2709884643554688,-0.607776939868927
1774790039497302500,9.378302490234375,6.537191390991211,3.84765887260437,-0.7465606927871704
1774790039515829000,9.3968291015625,6.510870456695557,4.412364959716797,-0.5000999569892883
1774790039534355200,9.415355224609375,6.783652305603027,4.575077056884766,-0.13878370821475983
1774790039552881400,9.43388134765625,7.121040344238281,4.754538536071777,0.13639089465141296
1774790039571407600,9.45240771484375,7.922635555267334,4.584648132324219,0.2632105052471161
1774790039589934300,9.470934326171875,8.621339797973633,4.125226020812988,0.11724831163883209
1774790039608460000,9.4894599609375,8.944371223449707,3.9385859966278076,-0.09810572862625122
1774790039626986500,9.507986572265626,8.382058143615723,4.230510234832764,-0.4833501875400543
1774790039645512700,9.5265126953125,8.427521705627441,5.034498691558838,-0.6293123364448547
1774790039664039000,9.545038818359375,8.48016357421875,5.477170944213867,-0.27038896083831787
1774790039682565000,9.563565185546874,8.7505521774292,5.553741455078125,-0.1698904037475586
1774790039701091600,9.582091552734376,9.343972206115723,5.4556355476379395,-0.16271193325519562
1774790039719617800,9.60061767578125,10.054640769958496,5.4173502922058105,-0.12921242415905
1774790039738144000,9.61914404296875,10.585846900939941,5.31685209274292,-0.009571290574967861
1774790039756670200,9.637670166015624,10.813165664672852,5.446064472198486,-0.349352091550827
1774790039775196400,9.656196533203126,10.394421577453613,5.898307800292969,-1.6175481081008911
1774790039793722600,9.67472265625,8.846264839172363,6.556334018707275,-2.816352367401123
1774790039812249000,9.6932490234375,7.539783954620361,6.941578388214111,-2.7876384258270264
1774790039830775300,9.711775390625,9.198010444641113,6.056233882904053,-1.3615161180496216
1774790039849301500,9.730301513671876,12.201003074645996,4.41475772857666,-0.3206382393836975
1774790039867827700,9.74882763671875,13.969298362731934,3.022135019302368,-0.5599204897880554
1774790039886354000,9.76735400390625,12.335000991821289,2.6775684356689453,-1.8089739084243774
1774790039904880000,9.785880126953124,9.755537986755371,3.314059257507324,-2.830709218978882
1774790039923406600,9.804406494140625,8.602197647094727,3.8213376998901367,-2.9359934329986572
1774790039941932800,9.822932861328125,9.66221809387207,3.7423746585845947,-2.0985054969787598
1774790039960459000,9.841458984375,10.535597801208496,3.0891339778900146,-0.9690931439399719
1774790039978985200,9.859985107421876,10.621739387512207,3.067598581314087,-0.30628129839897156
1774790039997511700,9.87851171875,10.097711563110352,3.359523057937622,0.1818545162677765
1774790040016038000,9.897037841796875,9.107083320617676,3.696911096572876,0.9858429431915283
1774790040034564000,9.915564208984375,8.425128936767578,3.744767427444458,1.2394821643829346
1774790040053090300,9.93409033203125,7.477570533752441,3.6466617584228516,1.0648061037063599
1774790040071616500,9.952616455078125,6.6592254638671875,3.493520975112915,0.5000999569892883
1774790040090143000,9.97114306640625,6.099305152893066,3.4169507026672363,-0.1698904037475586
1774790040108669200,9.989669189453124,5.2977094650268555,3.5270206928253174,-0.37088751792907715
1774790040127195400,10.0081953125,5.302495002746582,3.8668015003204346,-0.5096712112426758
1774790040145721600,10.0267216796875,5.816951751708984,4.036691665649414,-0.2632105052471161
1774790040164247800,10.045247802734375,6.2189459800720215,4.216153621673584,-0.04785645380616188
1774790040182774300,10.063774169921874,6.412764549255371,4.610969066619873,-0.08853443711996078
1774790040201300500,10.082300537109376,6.5252275466918945,5.101497650146484,0.275174617767334
1774790040219826700,10.10082666015625,7.128218650817871,5.223531723022461,0.21774685382843018
1774790040238353200,10.119353271484375,7.970492362976074,4.934000492095947,-0.007178467698395252
1774790040256879400,10.13787939453125,8.963513374328613,4.859822750091553,-0.08374879509210587
1774790040275405600,10.156405517578126,9.4660062789917,5.185246467590332,0.14835500717163086
1774790040293931800,10.174931884765625,9.339186668395996,5.371886730194092,-0.064606212079525
1774790040312458000,10.1934580078125,9.418149948120117,5.412564754486084,-0.4139583110809326
1774790040330984400,10.211984375,9.265008926391602,5.5345988273620605,-0.5383850932121277
1774790040349510700,10.2305107421875,9.212367057800293,5.67338228225708,-0.5575276613235474
1774790040368036900,10.249036865234375,9.906285285949707,5.663811206817627,-0.31345975399017334
1774790040386563000,10.26756298828125,10.552348136901855,5.66620397567749,-0.08374879509210587
1774790040405089300,10.28608935546875,10.514062881469727,5.840879917144775,-0.5599204897880554
1774790040423615700,10.30461572265625,9.750752449035645,6.125626087188721,-1.1485549211502075
1774790040442142000,10.323141845703125,9.442078590393066,5.697310924530029,-0.02392822690308094
1774790040460668200,10.341668212890625,10.657631874084473,4.680361270904541,1.4500504732131958
1774790040479194600,10.360194580078126,12.081361770629883,3.5676984786987305,1.5672988891601562
1774790040497720800,10.378720947265625,12.650853157043457,2.744567632675171,0.8662018179893494
1774790040516247000,10.3972470703125,12.220145225524902,2.3473589420318604,0.23210379481315613
1774790040534773200,10.415773193359374,10.571490287780762,2.7421748638153076,0.059820566326379776
1774790040553299500,10.434299560546876,8.638090133666992,3.562912940979004,0.5982056856155396
1774790040571825700,10.45282568359375,8.429914474487305,4.096512317657471,1.2083754539489746
1774790040590352000,10.471351806640625,9.131011009216309,4.00319242477417,1.6079767942428589
1774790040608878300,10.48987841796875,9.315258979797363,3.955335855484009,1.7443677186965942
1774790040627404500,10.508404541015626,9.059226989746094,4.005585193634033,1.4787644147872925
1774790040645930800,10.5269306640625,8.398807525634766,4.163511276245117,1.3519448041915894
1774790040664457200,10.545457275390625,7.590033531188965,4.268795490264893,1.2251251935958862
1774790040682983400,10.5639833984375,6.86261510848999,4.254438877105713,0.4905286431312561
1774790040701509600,10.582509521484376,6.6352972984313965,3.8739798069000244,-0.16031911969184875
1774790040720035800,10.601035888671875,7.010970115661621,3.438486099243164,-0.638883650302887
1774790040738562000,10.61956201171875,7.0683979988098145,3.2279176712036133,-0.7872386574745178
1774790040757088300,10.638088134765624,7.0301127433776855,3.737588882446289,-0.397208571434021
1774790040775614700,10.65661474609375,7.362715244293213,4.4721856117248535,0.22971096634864807
1774790040794141000,10.675140869140625,7.769495010375977,4.8502516746521,0.2727817893028259
1774790040812667100,10.693667236328125,7.599604606628418,4.4410786628723145,0.02871387079358101
1774790040831193300,10.712193359375,7.824530124664307,4.015156269073486,-0.397208571434021
1774790040849719800,10.7307197265625,8.116454124450684,4.118047714233398,-0.31106695532798767
1774790040868246000,10.74924609375,7.980063438415527,4.692325115203857,-0.11964113265275955
1774790040886772200,10.767772216796875,7.81974458694458,4.969892501831055,-0.19381862878799438
1774790040905298400,10.78629833984375,7.7455668449401855,5.115854740142822,-0.2584248483181
1774790040923824600,10.80482470703125,7.968099594116211,5.4795637130737305,-0.14117653667926788
1774790040942350800,10.823350830078125,8.056633949279785,5.639883041381836,-0.30149564146995544
1774790040960877300,10.841877197265624,8.367700576782227,5.7786664962768555,-0.380458801984787
1774790040979403500,10.860403564453126,8.774480819702148,5.994020938873291,0.04307080805301666
1774790040997929700,10.8789296875,9.53061294555664,5.929414749145508,0.5024927258491516
1774790041016456000,10.8974560546875,10.212567329406738,5.5034918785095215,0.4043870270252228
1774790041034982100,10.915982177734374,10.334601402282715,5.335994720458984,-0.16271193325519562
1774790041053508400,10.93450830078125,9.961320877075195,5.788238048553467,-1.5649060010910034
1774790041072034800,10.953034912109375,8.858229637145996,6.467799663543701,-2.6177480220794678
1774790041090561000,10.97156103515625,8.628518104553223,7.133004188537598,-2.196611166000366
1774790041109087200,10.990087158203124,9.535398483276367,6.98704195022583,-0.2512463629245758
1774790041127613400,11.008613525390626,12.059825897216797,5.6590256690979,1.155733346939087
1774790041146139600,11.0271396484375,14.033905029296875,3.9146578311920166,0.6293123364448547
1774790041164665900,11.045665771484375,12.978670120239258,2.620140790939331,-0.7848458290100098
1774790041183192300,11.0641923828125,10.813165664672852,2.770888566970825,-2.2707886695861816
1774790041201718500,11.082718505859376,9.284152030944824,3.3068809509277344,-2.885744094848633
1774790041220244700,11.10124462890625,8.662017822265625,3.6873397827148438,-2.1655044555664062
1774790041238771000,11.11977099609375,8.22413158416748,3.6993038654327393,-0.9499505758285522
1774790041257297200,11.138297119140624,8.793622970581055,4.211368083953857,-0.07417750358581543
1774790041275823400,11.1568232421875,9.190832138061523,4.2281174659729,0.5599204897880554
1774790041294349600,11.175349609375,9.339186668395996,4.211368083953857,1.196411371231079
1774790041312875800,11.193875732421875,9.607182502746582,4.211368083953857,1.5912270545959473
1774790041331402000,11.212402099609376,8.992227554321289,3.845266103744507,1.6319050788879395
1774790041349928400,11.230928466796875,7.733603000640869,3.5772697925567627,0.9571290612220764
1774790041368454700,11.24945458984375,6.537191390991211,3.3379876613616943,0.16271193325519562
1774790041386980900,11.26798095703125,5.66620397567749,3.428914785385132,-0.27038896083831787
1774790041405507000,11.286507080078126,5.266602516174316,3.730410575866699,-0.34695929288864136
1774790041424033300,11.305033203125,5.338387489318848,4.146761417388916,0.019142581149935722
1774790041442559500,11.3235595703125,5.553741455078125,4.488935470581055,0.19142581522464752
1774790041461085700,11.342085693359374,5.565705299377441,4.776073932647705,0.064606212079525
1774790041479612000,11.36061181640625,5.247459888458252,4.864608287811279,-0.16271193325519562
1774790041498138400,11.379138427734375,5.637490272521973,4.969892501831055,-0.4737788736820221
1774790041516664600,11.39766455078125,6.5252275466918945,4.752145767211914,-0.6532405614852905
1774790041535190800,11.416190673828124,7.465606689453125,4.845465660095215,-0.7322037220001221
1774790041553717000,11.434717041015626,7.963313579559326,5.099104881286621,-1.1054840087890625
1774790041572243200,11.4532431640625,8.358129501342773,5.517848968505859,-1.428515076637268
1774790041590769400,11.471769287109375,8.793622970581055,5.970092296600342,-1.1270195245742798
1774790041609295600,11.490295654296874,9.28893756866455,6.357729911804199,-0.7441678643226624
1774790041627821800,11.50882177734375,9.731609344482422,6.429514408111572,-0.6125625967979431
1774790041646348000,11.52734814453125,10.255638122558594,6.393621921539307,-0.5240281820297241
1774790041664874200,11.545874267578125,11.10748291015625,6.386443614959717,-0.5934200286865234
1774790041683400400,11.564400390625,11.562119483947754,6.3840508460998535,-0.8662018179893494
1774790041701927000,11.582927001953125,10.932806968688965,6.850651264190674,-1.277767300605774
1774790041720453000,11.601453125,9.93978500366211,6.946363925933838,-0.672383189201355
1774790041738979000,11.61997900390625,10.84427261352539,5.907878875732422,0.8566305041313171
1774790041757505500,11.638505615234376,12.571889877319336,4.493721008300781,1.550549030303955
1774790041776031700,11.65703173828125,13.016955375671387,3.22552490234375,1.3926228284835815
1774790041794558000,11.675557861328125,12.227323532104492,2.4909284114837646,0.6795616149902344
1774790041813084200,11.694084228515624,10.06421184539795,3.1657042503356934,-0.038285162299871445
1774790041831610400,11.7126103515625,7.657032489776611,4.390829563140869,-0.28953152894973755
1774790041850136600,11.731136474609375,6.551548480987549,5.170889854431152,0.007178467698395252
1774790041868662800,11.749662841796875,6.726224422454834,5.362315654754639,0.641276478767395
1774790041887189000,11.76818896484375,7.7455668449401855,4.969892501831055,0.9403793215751648
1774790041905715200,11.786715087890625,7.802994728088379,4.730610370635986,0.8015955686569214
1774790041924241400,11.805241455078125,7.692924976348877,4.716253280639648,0.6221339106559753
1774790041942767600,11.823767578125,7.585247993469238,4.398007869720459,0.17946170270442963
1774790041961293800,11.8422939453125,7.36032247543335,3.957728624343872,-0.380458801984787
1774790041979820000,11.860820068359375,7.0683979988098145,3.7016966342926025,-0.9451649188995361
1774790041998346200,11.87934619140625,6.527620315551758,3.5820555686950684,-1.2681959867477417
1774790042016872400,11.89787255859375,5.903093338012695,3.806980848312378,-1.4189438819885254
1774790042035398700,11.916398681640626,5.697310924530029,4.3788652420043945,-1.5481562614440918
1774790042053924900,11.9349248046875,5.7547383308410645,4.898108005523682,-1.306481122970581
1774790042072451000,11.953451171875,5.704489231109619,5.264209747314453,-0.9188438653945923
1774790042090977300,11.971977294921874,6.3601226806640625,5.3312087059021,-0.8805587291717529
1774790042109503500,11.99050341796875,6.783652305603027,4.962714195251465,-0.7345965504646301
1774790042128029700,12.00902978515625,7.444071292877197,4.898108005523682,-0.6819544434547424
1774790042146556000,12.027555908203125,7.905886173248291,4.977071285247803,-0.5934200286865234
1774790042165082000,12.04608203125,8.209774017333984,5.26181697845459,-0.4498506486415863
1774790042183608300,12.0646083984375,8.429914474487305,5.733202934265137,-0.34695929288864136
1774790042202134500,12.083134521484375,8.200202941894531,6.20219612121582,-0.48574298620224
1774790042220660700,12.10166064453125,8.11406135559082,6.293123722076416,-0.8877372145652771
1774790042239187000,12.12018701171875,8.37727165222168,6.147161483764648,-1.0528420209884644
1774790042257713200,12.138713134765625,9.305686950683594,6.032305717468262,-1.0049854516983032
1774790042276239400,12.1572392578125,10.14317512512207,5.850451469421387,-0.9786644577980042
1774790042294765600,12.175765625,10.564311981201172,5.678168296813965,-0.7393822073936462
1774790042313291800,12.194291748046876,10.528419494628906,6.128018856048584,-0.6771687865257263
1774790042331818000,12.21281787109375,10.04985523223877,7.073183536529541,-1.2873386144638062
1774790042350344200,12.23134423828125,9.212367057800293,7.829315662384033,-2.203789710998535
1774790042368870400,12.249870361328124,7.9489569664001465,8.312665939331055,-2.297109842300415
1774790042387396600,12.268396728515626,9.446864128112793,7.5565338134765625,-0.9379864931106567
1774790042405922800,12.2869228515625,13.562519073486328,5.771488189697266,0.7322037220001221
1774790042424449000,12.305448974609375,15.730416297912598,3.81655216217041,1.0552347898483276
1774790042442975200,12.323975341796874,13.59362506866455,2.3497519493103027,-0.550349235534668
1774790042461501400,12.34250146484375,9.851250648498535,2.517249345779419,-2.344966173171997
1774790042480027600,12.361027587890625,7.412964344024658,3.383451223373413,-2.7637102603912354
1774790042498553900,12.379553955078125,7.357929706573486,3.900300979614258,-1.765903115272522
1774790042517080000,12.398080078125,8.7505521774292,3.895515203475952,-0.12681959569454193
1774790042535606300,12.416606201171875,9.265008926391602,3.893122434616089,0.5934200286865234
1774790042554132500,12.435132568359375,8.554341316223145,4.0079779624938965,0.7058826684951782
1774790042572658700,12.45365869140625,7.618747234344482,4.211368083953857,0.9547362327575684
1774790042591185000,12.472184814453126,7.152146816253662,4.35254430770874,1.5625132322311401
1774790042609711000,12.490711181640625,7.3052873611450195,4.3070807456970215,1.6007983684539795
1774790042628237300,12.5092373046875,7.200003147125244,4.106083869934082,1.1126625537872314
1774790042646763500,12.527763427734374,6.606583118438721,3.7495529651641846,0.44027936458587646
1774790042665289700,12.546289794921876,5.828916072845459,3.6610186100006104,0.07178468257188797
1774790042683815700,12.564815673828125,5.5968122482299805,4.067798614501953,-0.15553347766399384
1774790042702342000,12.583341796875,6.068198204040527,4.48414945602417,-0.05024927482008934
1774790042720868000,12.6018681640625,6.345765590667725,4.66361141204834,0.0526420995593071
1774790042739394300,12.620394287109375,6.068198204040527,4.843072891235352,-0.30149564146995544
1774790042757920500,12.63892041015625,5.66620397567749,5.0703911781311035,-0.5048855543136597
1774790042776446700,12.65744677734375,6.0849480628967285,5.465207099914551,-0.1579262912273407
1774790042794973000,12.675972900390626,6.857829570770264,5.618347644805908,0.2105683982372284
1774790042813499100,12.6944990234375,7.747959613800049,5.912664890289307,0.4019941985607147
1774790042832025300,12.713025390625,8.48734188079834,5.989234924316406,-0.11964113265275955
1774790042850551600,12.731551513671874,9.157332420349121,5.879165172576904,-0.5910272002220154
1774790042869077800,12.750077880859376,8.82951545715332,5.795416355133057,-0.7417750358581543
1774790042887604000,12.76860400390625,9.19561767578125,6.221338748931885,-0.5000999569892883
1774790042906130200,12.787130126953125,9.853643417358398,6.57547664642334,-0.26081767678260803
1774790042924656400,12.805656494140624,10.375279426574707,6.577869415283203,0.04546362906694412
1774790042943182600,12.8241826171875,10.688738822937012,6.26440954208374,-0.009571290574967861
1774790042961708500,12.84270849609375,11.313265800476074,5.876772403717041,-0.13878370821475983
1774790042980234800,12.86123486328125,11.172088623046875,5.883950710296631,-0.5144568681716919
1774790042998761000,12.879760986328124,9.592825889587402,6.44387149810791,-0.7489534616470337
1774790043017287200,12.898287109375,8.719446182250977,6.235695838928223,0.07417750358581543
1774790043035813400,12.9168134765625,10.124032974243164,5.285745143890381,1.6151553392410278
1774790043054339600,12.935339599609375,12.382857322692871,3.9864425659179688,2.122433662414551
1774790043072865800,12.95386572265625,12.954741477966309,2.857030153274536,1.7419748306274414
1774790043091392000,12.97239208984375,11.016555786132812,2.981456995010376,0.6484549641609192
1774790043109918200,12.990918212890625,8.662017822265625,4.106083869934082,0.19142581522464752
1774790043128444400,13.0094443359375,7.802994728088379,5.000999450683594,0.8159525394439697
1774790043146970600,13.027970703125,8.135597229003906,5.213960647583008,1.674975872039795
1774790043165496600,13.04649658203125,8.958727836608887,4.661218643188477,1.7252250909805298
1774790043184023000,13.06502294921875,9.004191398620605,4.108476638793945,1.0265209674835205
1774790043202549000,13.083549072265624,8.169096946716309,3.895515203475952,0.5359922647476196
1774790043221075500,13.102075439453126,7.051648139953613,4.060619831085205,0.3852444589138031
1774790043239601400,13.120601318359375,6.154339790344238,4.359723091125488,0.2991028428077698
1774790043258127600,13.139127685546875,5.91505765914917,4.575077056884766,-0.062213387340307236
1774790043276653800,13.15765380859375,5.601597785949707,4.350151538848877,-0.5359922647476196
1774790043295180000,13.176179931640625,5.714060306549072,4.271188259124756,-0.9116654396057129
1774790043313706200,13.194706298828125,5.994020938873291,4.409972190856934,-0.7369893789291382
1774790043332232400,13.213232421875,6.317051887512207,4.88853645324707,-0.15074782073497772
1774790043350758700,13.231758544921876,6.740581512451172,5.2977094650268555,0.12442677468061447
1774790043369284900,13.250284912109375,6.932007312774658,5.426921844482422,0.3086741268634796
1774790043387811000,13.26881103515625,7.11146879196167,5.333601474761963,0.397208571434021
1774790043406337000,13.2873369140625,7.010970115661621,4.948357105255127,0.2967100143432617
1774790043424863200,13.30586328125,7.389036178588867,4.785645484924316,0.07417750358581543
1774790043443389400,13.324389404296875,8.078168869018555,4.965106964111328,-0.20578274130821228
1774790043461915600,13.34291552734375,7.9968132972717285,5.414957523345947,-0.24167509377002716
1774790043480441900,13.36144189453125,7.659425258636475,5.855237007141113,-0.2560320198535919
1774790043498968000,13.379968017578125,7.994420528411865,6.027520179748535,-0.20099709928035736
1774790043517494300,13.398494384765625,8.810373306274414,6.293123722076416,-0.09571290761232376
1774790043536020500,13.4170205078125,9.487542152404785,6.38165807723999,0.007178467698395252
1774790043554546700,13.435546630859376,9.91825008392334,6.302694797515869,0.22971096634864807
1774790043573073000,13.454072998046875,10.13599681854248,6.183053493499756,-0.062213387340307236
1774790043591599000,13.47259912109375,10.045069694519043,6.592226505279541,-1.0289137363433838
1774790043610125000,13.491125,9.710074424743652,7.499105930328369,-2.0985054969787598
1774790043628651300,13.5096513671875,8.274380683898926,8.451449394226074,-2.462214469909668
1774790043647177500,13.528177490234375,8.372486114501953,8.2695951461792,-1.4739787578582764
1774790043665703700,13.54670361328125,12.031112670898438,6.56829833984375,-0.2225325107574463
1774790043684230000,13.56522998046875,15.182459831237793,4.3310089111328125,0.2392822653055191
1774790043702756000,13.583756103515626,14.622539520263672,2.581855535507202,-0.9116654396057129
1774790043721282300,13.6022822265625,11.212766647338867,2.390429735183716,-2.6297121047973633
1774790043739808500,13.62080859375,8.221738815307617,3.3379876613616943,-3.38105845451355
1774790043758334700,13.639334716796874,6.8865437507629395,4.132404804229736,-2.9001009464263916
1774790043776860700,13.657860595703125,7.348358154296875,4.412364959716797,-1.545763373374939
1774790043795387000,13.676386962890625,8.030312538146973,4.309473514556885,-0.6508477330207825
1774790043813913000,13.6949130859375,7.836493968963623,4.4482574462890625,-0.23688943684101105
1774790043832439300,13.713439208984376,7.944170951843262,4.6301116943359375,0.040677983313798904
1774790043850965500,13.731965576171875,8.226524353027344,4.548755645751953,0.7226324677467346
1774790043869491700,13.75049169921875,8.671588897705078,4.168296813964844,1.0528420209884644
1774790043888018000,13.769017822265624,8.595019340515137,3.7974095344543457,1.0600204467773438
1774790043906543900,13.7875439453125,7.57806921005249,3.5820555686950684,0.39481574296951294
1774790043925070300,13.8060703125,6.616154670715332,3.5294134616851807,-0.24885354936122894
1774790043943596300,13.82459619140625,6.211767673492432,3.649054527282715,-0.380458801984787
1774790043962122500,13.84312255859375,6.087340831756592,3.9361932277679443,-0.32303106784820557
1774790043980648700,13.861648681640625,5.690132141113281,4.357329845428467,-0.2512463629245758
1774790043999175000,13.8801748046875,5.450850009918213,4.773681163787842,-0.3445664644241333
1774790044017701000,13.898701171875,5.082355499267578,5.091926574707031,-0.2679961323738098
1774790044036227300,13.917227294921876,5.61116886138916,5.505885124206543,-0.11485548317432404
1774790044054753500,13.93575341796875,6.6352972984313965,5.764309883117676,0.059820566326379776
1774790044073279500,13.954279541015625,7.747959613800049,5.879165172576904,0.1818545162677765
1774790044091806000,13.972805908203124,8.642875671386719,5.998806476593018,0.6029912829399109
1774790044110332000,13.991331787109376,9.008976936340332,6.166304111480713,0.7417750358581543
1774790044128858000,14.009858154296875,9.343972206115723,6.3361945152282715,0.6029912829399109
1774790044147384300,14.02838427734375,9.499505996704102,6.116054534912109,0.27756741642951965
1774790044165910500,14.04691064453125,9.913464546203613,5.647061347961426,-0.13160525262355804
1774790044184436700,14.065436767578126,10.466206550598145,5.26899528503418,-0.5072783827781677
1774790044202963000,14.083962890625,11.052447319030762,5.529813289642334,-0.397208571434021
1774790044221489200,14.1024892578125,10.322636604309082,6.6352972984313965,-0.4713860750198364
1774790044240015000,14.12101513671875,8.83669376373291,6.960721015930176,-0.2919243574142456
1774790044258541300,14.139541259765625,8.889336585998535,6.197410583496094,0.7154539823532104
1774790044277067500,14.158067626953125,10.681560516357422,5.036891460418701,1.7587246894836426
1774790044295593700,14.17659375,12.15793228149414,3.7112679481506348,1.7850457429885864
1774790044314120000,14.195119873046876,12.21057415008545,2.7565317153930664,0.8973084688186646
1774790044332646100,14.213646240234375,10.506884574890137,3.0101709365844727,-0.30149564146995544
1774790044351172400,14.23217236328125,8.798408508300781,4.022335052490234,-0.8063812255859375
1774790044369698600,14.250698486328124,7.941778182983398,4.53200626373291,-0.2392822653055191
1774790044388224500,14.269224609375,8.48734188079834,4.8502516746521,0.605384111404419
1774790044406751000,14.2877509765625,9.104690551757812,4.742574691772461,0.882951557636261
1774790044425277000,14.30627685546875,9.501898765563965,4.589433670043945,0.7154539823532104
1774790044443803100,14.32480322265625,9.164510726928711,4.18983268737793,0.7010970115661621
1774790044462329300,14.343329345703125,8.499305725097656,4.213760852813721,0.7872386574745178
1774790044480855600,14.36185546875,7.307680130004883,4.644468784332275,0.7561319470405579
1774790044499381800,14.3803818359375,6.314659118652344,4.9435715675354,0.5024927258491516
1774790044517907700,14.39890771484375,5.807380676269531,4.661218643188477,-0.2919243574142456
1774790044536434200,14.41743408203125,5.824130535125732,4.237689018249512,-0.6293123364448547
1774790044554960100,14.435960205078125,6.374479293823242,3.9792640209198,-1.0169496536254883
1774790044573486300,14.454486328125,6.723831653594971,4.024727821350098,-1.1820544004440308
1774790044592012500,14.473012451171876,6.941578388214111,4.4243292808532715,-1.0791629552841187
1774790044610538800,14.491538818359375,7.0923261642456055,4.646861553192139,-0.5718846321105957
1774790044629065000,14.51006494140625,7.472784996032715,4.754538536071777,0.038285162299871445
1774790044647591200,14.528591064453124,8.032705307006836,4.917250633239746,0.0526420995593071
1774790044666117400,14.547117431640626,8.525627136230469,4.991427898406982,-0.12442677468061447
1774790044693906700,14.57490673828125,8.300702095031738,4.780859470367432,-0.48574298620224
1774790044712432600,14.5934326171875,7.999206066131592,5.357530117034912,-0.5216353535652161
1774790044730958800,14.611958740234375,8.056633949279785,6.034698486328125,-0.44027936458587646
1774790044749485000,14.630485107421874,8.338987350463867,6.230910301208496,-0.45942193269729614
1774790044768011300,14.64901123046875,8.882157325744629,6.049055576324463,-0.550349235534668
1774790044786537500,14.667537353515625,9.671789169311523,5.7547383308410645,-0.2847459018230438
1774790044805063700,14.686063720703125,10.813165664672852,5.61116886138916,-0.24646073579788208
1774790044823590000,14.70458984375,10.944770812988281,5.723631858825684,-1.1988041400909424
1774790044842115800,14.72311572265625,9.820143699645996,6.733402729034424,-2.5986053943634033
1774790044860642000,14.74164208984375,8.35573673248291,7.379465103149414,-3.1680972576141357
1774790044879168300,14.760168212890624,8.817551612854004,6.963113784790039,-2.0099709033966064
1774790044897694500,14.778694580078126,11.49512004852295,5.766702651977539,-0.3756731450557709
1774790044916220700,14.797220703125,13.86640739440918,4.18983268737793,-0.30628129839897156
1774790044934747000,14.815746826171875,13.684553146362305,2.861815929412842,-1.28255295753479
1774790044953273000,14.834273193359374,10.992627143859863,2.854637384414673,-2.045863389968872
1774790044971799300,14.85279931640625,8.544769287109375,3.792623996734619,-2.1607189178466797
1774790044990325500,14.871325439453125,7.5086774826049805,4.369294166564941,-1.9166508913040161
1774790045008851500,14.8898515625,7.70967435836792,4.218546390533447,-1.25144624710083
1774790045027377700,14.908377685546874,8.271987915039062,4.012763500213623,-0.7896314859390259
1774790045045904000,14.92690380859375,8.25523853302002,4.051048755645752,-0.7322037220001221
1774790045064430000,14.94543017578125,8.228917121887207,4.230510234832764,-0.44745782017707825
1774790045082956300,14.963956298828125,8.717052459716797,4.077369689941406,0.007178467698395252
1774790045101482500,14.982482421875,8.394021987915039,3.7495529651641846,0.5024927258491516
1774790045120008700,15.0010087890625,7.836493968963623,3.704089403152466,0.5479564070701599
1774790045138535000,15.019534912109375,7.460821151733398,3.8763725757598877,0.4043870270252228
1774790045157060900,15.038060791015624,7.621140003204346,3.988835334777832,0.3038884699344635
1774790045175587300,15.05658740234375,7.16650390625,3.8979079723358154,-0.02871387079358101
1774790045194113300,15.07511328125,6.604190349578857,3.895515203475952,-0.2967100143432617
1774790045212639500,15.093639404296875,6.45822811126709,4.137190341949463,-0.24167509377002716
1774790045231165700,15.112165771484374,6.577869415283203,4.41475772857666,-0.11724831163883209
1774790045249692000,15.13069189453125,6.508477687835693,4.60857629776001,-0.19621145725250244
1774790045268218000,15.149218017578125,6.278766632080078,4.768895626068115,-0.17946170270442963
1774790045286744300,15.167744384765625,6.585047721862793,5.26899528503418,-0.019142581149935722
1774790045305270500,15.1862705078125,7.3675007820129395,5.493920803070068,0.04546362906694412
1774790045323796500,15.20479638671875,8.157132148742676,5.3934221267700195,-0.3206382393836975
1774790045342323000,15.223322998046875,8.511270523071289,5.295316696166992,-0.6532405614852905
1774790045360849000,15.241848876953124,9.09990406036377,5.4173502922058105,-0.4259224236011505
1774790045379375000,15.260375,9.391828536987305,5.92223596572876,-0.38285163044929504
1774790045397901300,15.2789013671875,8.999405860900879,6.290730953216553,-0.46899324655532837
1774790045416427500,15.297427490234375,8.848658561706543,6.51326322555542,-0.44745782017707825
1774790045434953700,15.31595361328125,9.408578872680664,6.508477687835693,-0.2919243574142456
1774790045453480000,15.33447998046875,10.243673324584961,6.4701924324035645,0.09810572862625122
1774790045472006100,15.353006103515625,9.89432144165039,6.740581512451172,-0.2967100143432617
1774790045490532000,15.371531982421875,8.482556343078613,7.070790767669678,-0.35892340540885925
1774790045509058600,15.39005859375,8.444271087646484,6.649653911590576,0.05024927482008934
1774790045527584500,15.40858447265625,10.17428207397461,5.249852657318115,1.1724830865859985
1774790045546110700,15.42711083984375,11.35633659362793,4.5583271980285645,1.5074782371520996
1774790045564637000,15.445636962890624,11.34676456451416,4.412364959716797,0.9523434042930603
1774790045592426200,15.47342626953125,8.874979019165039,4.48414945602417,-0.12921242415905
1774790045610952400,15.491952392578124,7.460821151733398,5.285745143890381,-0.2799602448940277
1774790045629478700,15.510478759765626,7.020541667938232,5.556134223937988,-0.10767702013254166
1774790045648004900,15.5290048828125,7.57806921005249,5.776273727416992,0.29431718587875366
1774790045666531000,15.547531005859375,8.592626571655273,5.883950710296631,0.5910272002220154
1774790045685057000,15.56605712890625,9.19561767578125,5.548955917358398,0.6101697683334351
1774790045703583200,15.584583251953125,8.446663856506348,5.302495002746582,0.4666004180908203
1774790045722109400,15.603109375,7.477570533752441,5.362315654754639,0.12921242415905
1774790045740635600,15.6216357421875,6.16391134262085,5.383851051330566,-0.44745782017707825
1774790045759161900,15.640161865234376,5.513063430786133,5.565705299377441,-0.7561319470405579
1774790045777688000,15.65868798828125,5.565705299377441,5.407779216766357,-1.2729816436767578
1774790045796214300,15.67721435546875,5.601597785949707,5.3312087059021,-1.0719845294952393
1774790045814740500,15.695740478515624,6.154339790344238,5.412564754486084,-0.5383850932121277
1774790045833266700,15.7142666015625,6.3840508460998535,5.72841739654541,-0.4378865361213684
1774790045851792600,15.732792724609375,5.828916072845459,6.235695838928223,-0.5670989751815796
1774790045870319000,15.751319091796875,5.5345988273620605,6.4941205978393555,-0.6221339106559753
1774790045888845000,15.769844970703126,5.917450428009033,6.640082836151123,-0.23210379481315613
1774790045907371300,15.788371337890625,6.585047721862793,6.357729911804199,-0.09571290761232376
1774790045925897500,15.8068974609375,6.884150981903076,6.029912948608398,-0.3326023519039154
1774790045944423700,15.825423583984374,7.343572616577148,6.113661766052246,-0.641276478767395
1774790045962950000,15.843949951171876,7.302894592285156,6.288337707519531,-0.9020941257476807
1774790045981476000,15.86247607421875,7.056434154510498,6.752545356750488,-1.2131611108779907
1774790046000002300,15.881002197265625,6.97268533706665,7.314858913421631,-1.3208380937576294
1774790046018528500,15.899528564453124,7.546962738037109,7.609176158905029,-1.0265209674835205
1774790046037054700,15.9180546875,8.635697364807129,7.561319351196289,-0.7657032608985901
1774790046055580700,15.93658056640625,9.248259544372559,7.061219692230225,-0.8638089895248413
1774790046074107000,15.95510693359375,9.152546882629395,7.472784996032715,-1.2346965074539185
1774790046092633000,15.973633056640624,8.717052459716797,8.00638484954834,-1.9262222051620483
1774790046111159300,15.9921591796875,7.743174076080322,8.925228118896484,-2.59621262550354
1774790046129685500,16.010685546875,7.238288402557373,9.375079154968262,-2.840280532836914
1774790046148211700,16.029211669921875,8.34855842590332,8.568697929382324,-2.0243279933929443
1774790046166738000,16.047738037109376,10.85862922668457,6.953542709350586,-1.5146567821502686
1774790046185264000,16.06626416015625,12.88056468963623,5.221138954162598,-1.7395820617675781
1774790046203790300,16.084790283203127,12.239287376403809,4.115654945373535,-2.5842485427856445
1774790046222316500,16.103316650390624,9.824930191040039,4.589433670043945,-3.1800613403320312
1774790046240842500,16.121842529296874,7.5804619789123535,5.359922885894775,-2.9479575157165527
1774790046259368700,16.14036865234375,6.7310099601745605,5.419743061065674,-2.2301106452941895
1774790046277895000,16.15889501953125,7.171289443969727,5.154139995574951,-1.5074782371520996
1774790046296421000,16.177421142578126,7.9585280418396,5.151747226715088,-1.0839486122131348
1774790046314947300,16.195947265625,8.149953842163086,5.051248550415039,-0.8662018179893494
1774790046333473500,16.2144736328125,8.283951759338379,5.166104316711426,-0.1746760457754135
1774790046351999500,16.23299951171875,8.441878318786621,5.127819061279297,0.5168496966362
1774790046370526000,16.25152587890625,8.248059272766113,4.780859470367432,0.8303094506263733
1774790046389052000,16.270052001953125,7.499105930328369,4.522434711456299,0.5575276613235474
1774790046407578400,16.288578369140627,6.496513366699219,4.575077056884766,0.014356935396790504
1774790046426104300,16.307104248046876,5.737988471984863,4.417150497436523,-0.2799602448940277
1774790046444630500,16.325630615234374,5.407779216766357,4.417150497436523,-0.27038896083831787
1774790046463156700,16.34415673828125,5.79780912399292,4.570291042327881,-0.38763725757598877
1774790046481683000,16.362682861328125,6.2668023109436035,4.821537494659424,-0.3206382393836975
1774790046500209200,16.381209228515626,6.309873104095459,5.120640277862549,-0.20338992774486542
1774790046518735400,16.3997353515625,5.898307800292969,5.580062389373779,-0.19621145725250244
1774790046537261600,16.418261474609373,5.848058700561523,5.8337016105651855,-0.2584248483181
1774790046555787800,16.436787841796875,6.419943332672119,6.156732559204102,-0.26081767678260803
1774790046574314000,16.45531396484375,7.195217609405518,6.391229152679443,-0.2560320198535919
1774790046592840200,16.473840087890625,7.915457248687744,6.295516490936279,-0.30628129839897156
1774790046611366100,16.4923662109375,8.429914474487305,6.357729911804199,-0.5838487148284912
1774790046629892400,16.510892333984376,8.616554260253906,6.56829833984375,-0.7680960893630981
1774790046648418600,16.52941845703125,8.951549530029297,6.510870456695557,-0.9379864931106567
1774790046666944800,16.54794482421875,9.305686950683594,6.558726787567139,-0.9068797826766968
1774790046685471000,16.566470947265625,9.506684303283691,6.589833736419678,-0.727418065071106
1774790046703997200,16.5849970703125,9.688538551330566,6.479763507843018,-0.6819544434547424
1774790046722523400,16.6035234375,9.702896118164062,7.013363361358643,-0.8087740540504456
1774790046741049600,16.622049560546873,8.999405860900879,7.417750358581543,-1.1318050622940063
1774790046759575800,16.640575927734375,8.171489715576172,6.735795974731445,-0.39960137009620667
1774790046778102000,16.65910205078125,9.633503913879395,5.685346603393555,0.9427721500396729
1774790046796628000,16.6776279296875,12.064611434936523,4.6372904777526855,1.3878371715545654
1774790046815154200,16.696154296875,12.825529098510742,3.4025938510894775,0.7680960893630981
1774790046833680400,16.714680419921876,11.243873596191406,3.486342668533325,-0.380458801984787
1774790046852206600,16.73320654296875,8.623732566833496,4.579862594604492,-1.0815558433532715
1774790046870732800,16.75173291015625,6.752545356750488,5.544169902801514,-0.727418065071106
1774790046889259000,16.770259033203125,6.632904529571533,6.020341873168945,0.24885354936122894
1774790046907785200,16.78878515625,7.69531774520874,5.955735683441162,1.1629117727279663
1774790046926311400,16.8073115234375,9.06401252746582,5.414957523345947,0.8709874153137207
1774790046944837600,16.825837646484374,9.659825325012207,4.67078971862793,0.21296121180057526
1774790046963363800,16.84436376953125,9.284152030944824,4.194618225097656,-0.2105683982372284
1774790046981889800,16.862889892578124,8.2695951461792,4.3788652420043945,-0.40677985548973083
1774790047000416000,16.881416015625,7.286144733428955,4.522434711456299,-0.5718846321105957
1774790047018942200,16.899942138671875,6.666403770446777,4.287938117980957,-0.8997012972831726
1774790047037468400,16.918468505859376,6.372086524963379,4.211368083953857,-1.1054840087890625
1774790047055994600,16.93699462890625,6.118447303771973,4.091726779937744,-1.4380863904953003
1774790047074520800,16.955520751953124,5.876772403717041,4.204189300537109,-1.5792629718780518
1774790047093047000,16.974047119140625,5.9509501457214355,4.919643402099609,-1.210768222808838
1774790047111573200,16.9925732421875,6.606583118438721,5.383851051330566,-0.6173482537269592
1774790047130099500,17.011099365234376,6.733402729034424,5.367101192474365,-0.31345975399017334
1774790047148625700,17.029625732421874,7.046862602233887,5.333601474761963,-0.5024927258491516
1774790047167151600,17.048151611328127,7.5086774826049805,5.26181697845459,-0.42352959513664246
1774790047185677800,17.066677734375,7.89631462097168,5.412564754486084,-0.2799602448940277
1774790047204204000,17.0852041015625,8.372486114501953,5.505885124206543,-0.4378865361213684
1774790047222730200,17.103730224609375,8.066205024719238,5.6925249099731445,-0.7345965504646301
1774790047241256400,17.12225634765625,7.791030406951904,6.0370917320251465,-0.8135597109794617
1774790047259782700,17.14078271484375,8.109275817871094,6.190232276916504,-0.8159525394439697
1774790047278308900,17.159308837890624,8.922835350036621,6.4319071769714355,-0.6364908218383789
1774790047296835000,17.1778349609375,9.430113792419434,6.3840508460998535,-0.5359922647476196
1774790047315361300,17.196361328125,9.686145782470703,6.178267955780029,-0.760917603969574
1774790047333887200,17.21488720703125,9.480362892150879,6.333801746368408,-1.5026925802230835
1774790047352413400,17.233413330078125,8.685946464538574,7.17368221282959,-2.541177749633789
1774790047370939600,17.251939697265627,7.357929706573486,8.056633949279785,-2.926422119140625
1774790047389465900,17.2704658203125,8.233702659606934,8.13798999786377,-2.115255117416382
1774790047407992000,17.288991943359374,10.604990005493164,6.860222339630127,-1.0887342691421509
1774790047426518300,17.307518310546875,13.201202392578125,5.209175109863281,-1.0528420209884644
1774790047445044500,17.32604443359375,13.253844261169434,4.101297855377197,-1.5026925802230835
1774790047463570700,17.34457080078125,10.621739387512207,4.395615100860596,-2.038684844970703
1774790047482097000,17.363096923828124,7.944170951843262,5.142175674438477,-2.1655044555664062
1774790047500622800,17.381622802734373,6.685546398162842,5.398207664489746,-2.038684844970703
1774790047519149000,17.400149169921875,7.57806921005249,4.962714195251465,-1.552941918373108
1774790047537675300,17.41867529296875,8.556734085083008,4.67078971862793,-1.0552347898483276
1774790047556201500,17.437201416015625,8.879764556884766,4.6540398597717285,-0.9595218896865845
1774790047574727700,17.455727783203123,8.372486114501953,4.417150497436523,-0.9762716293334961
1774790047593254000,17.47425390625,8.209774017333984,4.163511276245117,-0.5527420043945312
1774790047611780000,17.492780029296874,8.389236450195312,4.252045631408691,0.07178468257188797
1774790047630306000,17.51130615234375,8.384450912475586,4.144368648529053,0.24167509377002716
1774790047648832500,17.52983251953125,7.9250288009643555,4.036691665649414,0.11964113265275955
1774790047667358500,17.5483583984375,6.865008354187012,4.094119548797607,-0.05742774158716202
1774790047685884700,17.566884765625,6.063412666320801,4.316651821136475,-0.04785645380616188
1774790047704411000,17.585410888671873,5.414957523345947,4.5583271980285645,-0.13878370821475983
1774790047722937000,17.60393701171875,5.237888813018799,4.701896667480469,-0.2153540402650833
1774790047741463300,17.62246337890625,5.328815937042236,4.974678039550781,-0.13639089465141296
1774790047759989500,17.640989501953126,5.934200286865234,5.443671703338623,0.01196411345154047
1774790047778515700,17.659515625,6.465406894683838,5.730810165405273,-0.12681959569454193
1774790047797041700,17.678041748046876,6.501298904418945,5.776273727416992,-0.33020952343940735
1774790047815568000,17.69656787109375,6.479763507843018,5.649454116821289,-0.6580262184143066
1774790047834094000,17.715093994140624,7.056434154510498,6.0370917320251465,-0.9212366938591003
1774790047852620300,17.733620361328125,7.841279983520508,6.628118515014648,-1.337587833404541
1774790047871146500,17.752146484375,8.303094863891602,6.6831536293029785,-1.2011969089508057
1774790047889672700,17.770672607421876,9.030512809753418,6.783652305603027,-0.5383850932121277
1774790047908199000,17.789198974609373,10.604990005493164,6.893722057342529,-0.15553347766399384
1774790047926725000,17.80772509765625,11.557332992553711,6.874579429626465,-0.2584248483181
1774790047945251000,17.8262509765625,11.416156768798828,6.50608491897583,-0.4259224236011505
1774790047963777500,17.844777587890626,10.549955368041992,6.45822811126709,-0.5120640397071838
1774790047982303500,17.863303466796875,9.186046600341797,7.427321434020996,-0.6317051649093628
1774790048000829700,17.88182958984375,7.886743545532227,7.9250288009643555,-0.2847459018230438
1774790048019356000,17.90035595703125,9.047262191772461,6.881757736206055,0.7034898400306702
1774790048037882000,17.918882080078124,10.99741268157959,5.347958564758301,1.2969099283218384
1774790048056408300,17.937408203125,11.662617683410645,4.132404804229736,0.914058268070221
1774790048074934300,17.955934326171874,10.475777626037598,3.981656789779663,0.15074782073497772
1774790048093460700,17.974460693359376,8.49452018737793,4.955535888671875,-0.43549370765686035
1774790048111986700,17.992986572265625,6.597012042999268,5.625525951385498,-0.275174617767334
1774790048130513000,18.011512939453127,5.927021503448486,5.994020938873291,0.698704183101654
1774790048149039000,18.0300390625,6.936792850494385,6.1950178146362305,1.8233308792114258
1774790048167565300,18.0485654296875,7.814958572387695,5.905486106872559,1.8807586431503296
1774790048195354600,18.076354736328124,8.236095428466797,5.091926574707031,0.8183453679084778
1774790048213880800,18.094880859375,7.664210796356201,4.838287353515625,0.33020952343940735
1774790048232406800,18.11340673828125,7.058826923370361,4.876572608947754,0.21296121180057526
1774790048250933200,18.131933349609376,7.106683254241943,4.948357105255127,0.1866401731967926
1774790048269459200,18.150459228515626,6.374479293823242,4.776073932647705,0.12681959569454193
1774790048287985400,18.1689853515625,6.147161483764648,4.60857629776001,-0.32542386651039124
1774790048306511600,18.18751171875,6.005984783172607,4.716253280639648,-0.6891329288482666
1774790048325037800,18.206037841796874,5.9509501457214355,5.338387489318848,-0.48574298620224
1774790048343564000,18.22456396484375,6.142375946044922,5.850451469421387,-0.07417750358581543
1774790048362090200,18.24309033203125,6.290730953216553,5.970092296600342,0.2919243574142456
1774790048380616200,18.2616162109375,6.422336101531982,6.070590972900391,0.37088751792907715
1774790048399142400,18.280142333984376,6.7070817947387695,6.003592014312744,0.05503492057323456
1774790048417668600,18.298668701171874,7.219145774841309,5.7164530754089355,-0.4211367964744568
1774790048436194800,18.31719482421875,7.637889862060547,5.458028316497803,-0.6340979933738708
1774790048454721000,18.335720947265624,7.915457248687744,5.79780912399292,-0.40677985548973083
1774790048473247200,18.354247314453126,7.872386455535889,6.515655994415283,-0.11964113265275955
1774790048491773400,18.3727734375,7.429714202880859,6.936792850494385,-0.17946170270442963
1774790048510299400,18.39129931640625,7.2095746994018555,7.274180889129639,-0.45224347710609436
1774790048528825900,18.409825927734374,7.420143127441406,7.204789161682129,-0.6556333899497986
1774790048547351800,18.428351806640624,8.336593627929688,6.764509677886963,-0.7058826684951782
1774790048565878000,18.4468779296875,9.363115310668945,6.585047721862793,-0.6628118753433228
1774790048584404200,18.465404296875,10.095318794250488,6.829115867614746,-0.5599204897880554
1774790048602930400,18.483930419921876,9.664610862731934,7.575676441192627,-0.7824530005455017
1774790048621456600,18.50245654296875,8.193024635314941,8.673981666564941,-1.3543375730514526
1774790048639982800,18.52098291015625,6.884150981903076,9.078369140625,-1.7132610082626343
1774790048658508800,18.5395087890625,8.061419486999512,8.149953842163086,-1.093519926071167
1774790048677035000,18.558034912109374,10.667202949523926,6.697510719299316,-0.8350951075553894
1774790048695561200,18.576561279296875,12.66042423248291,5.254638671875,-1.098305583000183
1774790048714087400,18.59508740234375,12.617353439331055,4.596612453460693,-1.5936198234558105
1774790048732613600,18.613613525390626,10.420742988586426,4.919643402099609,-2.076970100402832
1774790048751139800,18.632139892578124,7.645068168640137,5.0225348472595215,-2.5603201389312744
1774790048769666000,18.650666015625,6.474977970123291,4.931607246398926,-2.730210542678833
1774790048788192000,18.66919189453125,7.1162543296813965,4.60139799118042,-2.0578274726867676
1774790048806718200,18.68771826171875,7.810173034667969,4.35254430770874,-1.4452649354934692
1774790048825244400,18.706244384765625,8.001599311828613,4.5822553634643555,-1.0097711086273193
1774790048843770600,18.7247705078125,7.726424217224121,4.7401814460754395,-0.3206382393836975
1774790048862296800,18.743296875,7.3675007820129395,4.922036170959473,0.4450650215148926
1774790048880823000,18.761822998046874,7.762316703796387,5.000999450683594,0.7417750358581543
1774790048899349200,18.780349365234375,7.956135272979736,4.783252239227295,0.42831525206565857
1774790048917875500,18.79887548828125,7.575676441192627,4.517649173736572,-0.07417750358581543
1774790048936401400,18.8174013671875,6.695117950439453,4.2831525802612305,-0.35892340540885925
1774790048954927600,18.835927734375,6.104090690612793,4.29033088684082,-0.5718846321105957
1774790048973453800,18.854453857421873,6.254838466644287,4.429114818572998,-0.6197410821914673
1774790048991980000,18.87297998046875,6.2500529289245605,4.737788677215576,-0.31345975399017334
1774790049010506200,18.89150634765625,5.862415313720703,5.2283172607421875,-0.275174617767334
1774790049029032200,18.9100322265625,5.38624382019043,5.831308841705322,-0.22013968229293823
1774790049047558700,18.92855859375,5.836094379425049,5.996413707733154,-0.35413774847984314
1774790049066084600,18.947084716796876,7.0061845779418945,5.661418437957764,-0.4546363055706024
1774790049084610800,18.96561083984375,7.623532772064209,5.821737289428711,-0.6293123364448547
1774790049103137000,18.984136962890624,8.118846893310547,6.269195556640625,-0.6795616149902344
1774790049121663200,19.002663330078125,7.95134973526001,6.561119556427002,-0.5694918036460876
1774790049140189400,19.021189453125,8.183453559875488,6.723831653594971,-0.5790630578994751
1774790049158715600,19.039715576171876,8.855836868286133,6.6352972984313965,-0.7657032608985901
1774790049177241600,19.05824169921875,9.633503913879395,6.32662296295166,-0.7800601720809937
1774790049195767800,19.076767822265627,10.212567329406738,6.0538411140441895,-0.6221339106559753
1774790049214294000,19.0952939453125,10.923234939575195,6.321837425231934,-0.46420758962631226
1774790049232820200,19.1138203125,10.308279991149902,7.10429048538208,-0.576670229434967
1774790049251346400,19.132346435546875,8.554341316223145,7.609176158905029,-0.1698904037475586
1774790049269872600,19.15087255859375,9.152546882629395,6.687939167022705,0.9595218896865845
1774790049288398800,19.16939892578125,11.511869430541992,5.350351333618164,1.3519448041915894
1774790049306924800,19.1879248046875,12.873385429382324,4.240081787109375,1.1676974296569824
1774790049325451000,19.206450927734377,12.437891960144043,3.840480327606201,0.7034898400306702
1774790049343977200,19.224977294921874,10.293923377990723,4.309473514556885,0.4019941985607147
1774790049362503400,19.24350341796875,7.719245910644531,5.020142078399658,0.39960137009620667
1774790049381029600,19.262029541015625,6.460621356964111,5.290530681610107,0.7226324677467346
1774790049399555800,19.280555908203127,7.0995049476623535,5.027320384979248,1.4620146751403809
1774790049418081800,19.299081787109376,7.95134973526001,4.797609329223633,1.6295121908187866
1774790049436608000,19.31760791015625,8.47298526763916,4.491328239440918,1.0887342691421509
1774790049455134200,19.33613427734375,8.336593627929688,4.311866283416748,0.5910272002220154
1774790049473660400,19.354660400390625,7.525427341461182,4.242474555969238,0.24167509377002716
1774790049492186600,19.3731865234375,6.802794933319092,4.182653903961182,0.08853443711996078
1774790049510712800,19.391712890625,6.474977970123291,4.208974838256836,-0.13878370821475983
1774790049529238800,19.41023876953125,6.594619274139404,4.168296813964844,-0.3613162338733673
1774790049547765200,19.42876513671875,6.546762943267822,4.039084434509277,-0.5910272002220154
1774790049566291200,19.447291259765624,6.668796539306641,4.311866283416748,-0.7250252366065979
1774790049584817400,19.4658173828125,6.556334018707275,4.869394302368164,-0.3924229145050049
1774790049603343600,19.484343505859375,6.5419769287109375,5.398207664489746,0.15314064919948578
1774790049621869800,19.502869873046876,6.664011001586914,5.78345251083374,0.8063812255859375
1774790049640396000,19.52139599609375,7.061219692230225,5.862415313720703,1.0145567655563354
1774790049658922000,19.539921875,7.609176158905029,5.558526992797852,0.5551348328590393
1774790049677448200,19.5584482421875,7.9728851318359375,5.084748268127441,-0.06699903309345245
1774790049695974400,19.576974365234374,7.929814338684082,5.077569484710693,-0.2153540402650833
1774790049714500600,19.59550048828125,7.932207107543945,5.446064472198486,-0.09810572862625122
1774790049733026800,19.61402685546875,8.039883613586426,5.900700569152832,-0.12681959569454193
1774790049751553000,19.632552978515626,8.104490280151367,6.142375946044922,-0.3206382393836975
1774790049770079000,19.651078857421876,8.319844245910645,6.204588890075684,-0.5335994362831116
1774790049788605200,19.669605224609374,9.097511291503906,6.065805435180664,-0.6819544434547424
1774790049807131400,19.68813134765625,9.614361763000488,6.116054534912109,-0.47617170214653015
1774790049825657600,19.70665771484375,10.360921859741211,6.553941249847412,-0.36610186100006104
1774790049844183800,19.725183837890626,10.403992652893066,7.211967468261719,-0.7752745151519775
1774790049862710000,19.7437099609375,9.138189315795898,8.075776100158691,-1.5337992906570435
1774790049881236000,19.762236083984376,8.233702659606934,8.410771369934082,-1.3854442834854126
1774790049899762200,19.78076220703125,9.614361763000488,7.513463020324707,-0.30628129839897156
1774790049918288400,19.799288330078124,12.260823249816895,6.082555294036865,-0.2727817893028259
1774790049936814600,19.817814697265625,13.543375968933105,4.417150497436523,-1.2203395366668701
1774790049955340800,19.8363408203125,12.746565818786621,3.2518460750579834,-2.5292134284973145
1774790049973867000,19.854866943359376,11.169695854187012,3.2063822746276855,-3.249453067779541
1774790049992393000,19.87339306640625,9.06401252746582,4.106083869934082,-2.572284460067749
1774790050010919200,19.891919189453127,7.238288402557373,4.776073932647705,-1.8735800981521606
1774790050029445400,19.9104453125,6.802794933319092,4.8502516746521,-1.5744773149490356
1774790050047971600,19.9289716796875,7.8077802658081055,4.570291042327881,-1.3208380937576294
1774790050066497800,19.947497802734375,8.319844245910645,4.6301116943359375,-0.8662018179893494
1774790050085023700,19.966023681640625,7.9489569664001465,4.814359188079834,-0.4785645306110382
1774790050103550000,19.984550048828126,7.312466144561768,4.773681163787842,-0.09571290761232376
1774790050122076200,20.003076171875,6.991827964782715,4.577469825744629,0.3613162338733673
1774790050140602400,20.021602294921873,7.35314416885376,4.321437835693359,0.3278166949748993
1774790050159128600,20.040128662109375,7.491927623748779,4.027120590209961,-0.13160525262355804
1774790050177654500,20.058654541015624,7.2813591957092285,3.8500516414642334,-0.5168496966362
1774790050196180700,20.0771806640625,6.628118515014648,3.783052682876587,-0.7896314859390259
1774790050214707000,20.09570703125,6.123233318328857,4.299902439117432,-0.45942193269729614
1774790050233233200,20.114233154296876,5.781059741973877,4.886143684387207,-0.16031911969184875
1774790050251759400,20.13275927734375,5.3455657958984375,5.132604598999023,-0.1818545162677765
1774790050270285300,20.151285400390623,5.225924491882324,5.185246467590332,-0.4211367964744568
1774790050288811500,20.1698115234375,5.893522262573242,5.242674350738525,-0.550349235534668
1774790050307337700,20.188337646484374,6.740581512451172,5.201996326446533,-0.5934200286865234
1774790050325864000,20.206864013671876,7.341179847717285,5.498706340789795,-0.5144568681716919
1774790050344390100,20.22539013671875,7.905886173248291,5.898307800292969,-0.2632105052471161
1774790050362916400,20.243916259765626,7.9968132972717285,6.262016773223877,0.004785645287483931
1774790050381442300,20.2624423828125,8.303094863891602,6.580262184143066,-0.11964113265275955
1774790050399968500,20.280968505859374,8.535198211669922,6.666403770446777,-0.3158525824546814
1774790050418494700,20.29949462890625,8.776873588562012,6.324230194091797,-0.6340979933738708
1774790050437021000,20.31802099609375,9.020941734313965,6.412764549255371,-0.8279166221618652
1774790050455547000,20.336546875,9.882357597351074,6.632904529571533,-0.5527420043945312
1774790050474073000,20.355072998046875,9.963713645935059,6.697510719299316,-0.17706887423992157
1774790050492599300,20.373599365234377,9.710074424743652,7.058826923370361,-0.30628129839897156
1774790050511125500,20.39212548828125,9.135796546936035,7.250252723693848,-0.6436693072319031
1774790050529651700,20.410651611328124,8.595019340515137,6.448657035827637,-0.13160525262355804
1774790050548178000,20.429177978515625,10.059426307678223,5.367101192474365,0.8135597109794617
1774790050566703900,20.447703857421875,11.928220748901367,4.563112735748291,1.1653046607971191
1774790050585230000,20.46622998046875,12.344572067260742,4.043870449066162,1.2969099283218384
1774790050603756300,20.48475634765625,11.042876243591309,4.1036906242370605,0.8422735929489136
1774790050622282500,20.503282470703127,8.96829891204834,4.687539577484131,0.11006984114646912
1774790050640808400,20.521808349609376,7.03489875793457,5.027320384979248,-0.31824541091918945
1774790050659334700,20.540334716796874,7.106683254241943,5.120640277862549,-0.07417750358581543
1774790050677860900,20.55886083984375,8.295916557312012,4.783252239227295,0.8374879360198975
1774790050696387000,20.577386962890625,9.66939640045166,4.800002098083496,1.28255295753479
1774790050714913300,20.595913330078126,10.191031455993652,4.618147850036621,1.1030912399291992
1774790050733439500,20.614439453125,9.238688468933105,4.4410786628723145,0.7322037220001221
1774790050751965400,20.63296533203125,7.7455668449401855,4.445864677429199,0.2991028428077698
1774790050770491600,20.65149169921875,6.936792850494385,4.390829563140869,-0.08614161610603333
1774790050789017900,20.670017822265624,6.819544315338135,3.957728624343872,-0.5838487148284912
1774790050807544000,20.6885439453125,6.905686378479004,3.680161237716675,-1.1054840087890625
1774790050826070000,20.707070068359375,6.551548480987549,3.7423746585845947,-1.2418749332427979
1774790050844596200,20.72559619140625,6.206982135772705,4.524827480316162,-0.7178468108177185
1774790050863122400,20.744122314453126,6.166304111480713,5.340780258178711,0.23688943684101105
1774790050881648600,20.762648681640623,6.099305152893066,5.752345561981201,0.794417142868042
1774790050900174600,20.781174560546877,5.9916276931762695,5.481956481933594,0.519242525100708
1774790050918700800,20.79970068359375,6.369693756103516,5.113461971282959,0.05503492057323456
1774790050937227000,20.81822705078125,7.350750923156738,5.053641319274902,0.08135596662759781
1774790050955753200,20.836753173828125,7.869993686676025,5.096712112426758,-0.031106693670153618
1774790050974279200,20.855279052734375,7.9728851318359375,4.993820667266846,-0.35413774847984314
1774790050992805400,20.873805419921876,7.9585280418396,5.252245903015137,-0.6867401003837585
1774790051011331600,20.89233154296875,7.750352382659912,5.812166213989258,-0.8925228714942932
1774790051029857800,20.91085791015625,7.908278942108154,6.199803352355957,-0.9308080077171326
1774790051048384000,20.929384033203124,8.401200294494629,6.111268997192383,-0.6556333899497986
1774790051066910000,20.947909912109374,9.245866775512695,5.972485542297363,-0.4378865361213684
1774790051085436200,20.966436279296875,10.236495018005371,5.979663848876953,-0.3206382393836975
1774790051103962400,20.98496240234375,11.030912399291992,5.886343479156494,-0.41156548261642456
1774790051122488600,21.003488525390626,10.389636039733887,6.3122663497924805,-0.8709874153137207
1774790051141014500,21.0220146484375,8.882157325744629,7.219145774841309,-1.7515461444854736
1774790051159540700,21.040540771484373,7.183253765106201,8.00638484954834,-2.2683959007263184
1774790051178067000,21.05906689453125,8.23130989074707,7.6498541831970215,-1.8400806188583374
1774790051196593200,21.07759326171875,10.827522277832031,6.652047157287598,-0.9236295223236084
1774790051215119000,21.096119140625,13.521841049194336,5.065605640411377,-0.8733802437782288
1774790051233645300,21.114645263671875,13.899907112121582,3.3379876613616943,-1.9357935190200806
1774790051252171500,21.133171630859376,12.308679580688477,2.7876384258270264,-2.7326035499572754
1774790051270697700,21.15169775390625,9.659825325012207,3.7399818897247314,-2.7086751461029053
1774790051289223700,21.1702236328125,6.8171515464782715,4.752145767211914,-2.321038007736206
1774790051307750000,21.18875,5.3216376304626465,5.173282623291016,-1.8400806188583374
1774790051326276000,21.207276123046874,6.022734642028809,4.7952165603637695,-1.5696916580200195
1774790051344802300,21.22580224609375,7.377072334289551,4.359723091125488,-1.1581261157989502
1774790051363328300,21.244328369140625,8.599804878234863,4.311866283416748,-0.7680960893630981
1774790051381854500,21.2628544921875,9.17886734008789,4.3310089111328125,-0.02871387079358101
1774790051400380700,21.281380615234376,9.743574142456055,4.500899314880371,0.6819544434547424
1774790051418907000,21.299906982421874,10.26760196685791,4.515256404876709,1.1198409795761108
1774790051437432800,21.318432861328127,9.501898765563965,4.156332969665527,0.9188438653945923
1774790051455959000,21.336958984375,8.003992080688477,3.9361932277679443,0.064606212079525
1774790051474485200,21.3554853515625,6.664011001586914,3.8500516414642334,-0.5934200286865234
1774790051493011500,21.374011474609375,5.7619171142578125,3.996013879776001,-0.9092726111412048
1774790051511537400,21.392537353515625,5.213960647583008,4.187439441680908,-0.8757730722427368
1774790051530063600,21.411063720703126,5.0464630126953125,4.436293125152588,-0.7728816866874695
1774790051548589800,21.42958984375,5.355136871337891,5.039284706115723,-0.5838487148284912
1774790051567116000,21.448115966796873,5.589633464813232,5.44845724105835,-0.4331009089946747
1774790051585642000,21.46664208984375,5.766702651977539,5.472385406494141,-0.4618147611618042
1774790051604168200,21.485168212890624,6.369693756103516,5.517848968505859,-0.8063812255859375
1774790051622694400,21.5036943359375,7.178467750549316,5.702096462249756,-0.8973084688186646
1774790051641220400,21.522220458984375,7.956135272979736,5.903093338012695,-0.6221339106559753
1774790051659746600,21.54074658203125,8.542376518249512,6.027520179748535,-0.43549370765686035
1774790051678272800,21.559272705078126,9.049654960632324,6.065805435180664,-0.672383189201355
1774790051696799000,21.577799072265623,9.343972206115723,6.216553211212158,-0.6699903607368469
1774790051715325000,21.596324951171876,9.688538551330566,6.240481376647949,-0.7537391185760498
1774790051733851100,21.61485107421875,10.119247436523438,6.271588325500488,-0.8446664214134216
1774790051752377300,21.63337744140625,9.999606132507324,6.51326322555542,-0.7872386574745178
1774790051770903600,21.651903564453125,9.422935485839844,6.951149940490723,-0.8135597109794617
1774790051789429500,21.670429443359374,8.858229637145996,7.384250640869141,-1.1222338676452637
1774790051807955700,21.688955810546876,8.621339797973633,7.066005229949951,-0.6460621356964111
1774790051826481700,21.707481689453125,10.009177207946777,5.986842155456543,0.39960137009620667
1774790051845008000,21.7260078125,11.650653839111328,4.742574691772461,0.4833501875400543
1774790051863534000,21.7445341796875,11.72722339630127,3.431307554244995,-0.33499518036842346
1774790051882060300,21.763060302734374,10.612168312072754,2.9934210777282715,-1.4069796800613403
1774790051900586500,21.78158642578125,9.468399047851562,3.3164522647857666,-1.5433706045150757
1774790051919112400,21.800112548828125,7.975277900695801,4.60857629776001,-0.48095735907554626
1774790051937638700,21.818638671875,7.128218650817871,5.766702651977539,0.4905286431312561
1774790051956164600,21.83716455078125,7.470392227172852,5.891129493713379,1.730010747909546
1774790051974690800,21.85569091796875,8.496912956237793,5.970092296600342,2.282752752304077
1774790051993217000,21.874217041015626,9.645467758178711,5.599205017089844,1.6223337650299072
1774790052011743200,21.8927431640625,9.602396965026855,4.744967460632324,0.6269195079803467
1774790052030269200,21.911269287109373,8.640482902526855,4.393222332000732,-0.08853443711996078
1774790052048795400,21.92979541015625,7.401000499725342,4.249652862548828,-0.32303106784820557
1774790052067321600,21.948321533203124,6.733402729034424,4.206582069396973,-0.363709032535553
1774790052085847600,21.96684765625,6.45822811126709,4.429114818572998,-0.4307080805301666
1774790052104373800,21.985373779296875,6.1710896492004395,4.5822553634643555,-0.4833501875400543
1774790052122900000,22.00389990234375,5.539384365081787,4.855037212371826,-0.4785645306110382
1774790052141426200,22.02242626953125,5.3455657958984375,5.424529075622559,-0.5527420043945312
1774790052159952100,22.0409521484375,5.625525951385498,5.697310924530029,-0.3086741268634796
1774790052178478300,22.059478271484377,6.180660724639893,5.819344520568848,-0.05742774158716202
1774790052197004300,22.07800439453125,6.826723098754883,5.7547383308410645,-0.24406790733337402
1774790052215530500,22.096530517578124,7.393822193145752,5.493920803070068,-0.44027936458587646
1774790052234056700,22.115056640625,7.77188777923584,5.1804609298706055,-0.3756731450557709
1774790052252583000,22.1335830078125,8.322237014770508,5.312066078186035,-0.23688943684101105
1774790052271108900,22.15210888671875,8.630910873413086,5.527420520782471,-0.27038896083831787
1774790052289635000,22.170635009765626,8.327022552490234,5.735595703125,-0.5000999569892883
1774790052308161300,22.189161376953123,7.994420528411865,6.089733600616455,-0.7178468108177185
1774790052326687200,22.207687255859376,8.025527000427246,6.305087566375732,-0.8446664214134216
1774790052345213400,22.22621337890625,8.432307243347168,6.345765590667725,-0.885344386100769
1774790052363739400,22.244739501953124,8.970691680908203,6.173482418060303,-1.0408778190612793
1774790052382265600,22.263265625,9.418149948120117,5.965306758880615,-0.9810572862625122
1774790052400791800,22.281791748046874,9.710074424743652,6.230910301208496,-0.8207381963729858
1774790052419318000,22.300318115234376,9.399007797241211,6.788437843322754,-0.8183453679084778
1774790052437844000,22.318843994140625,8.927620887756348,7.369893550872803,-1.7850457429885864
1774790052456370200,22.3373701171875,7.733603000640869,8.109275817871094,-2.912065267562866
1774790052474896400,22.355896484375,7.463213920593262,8.015955924987793,-2.830709218978882
1774790052493422300,22.37442236328125,9.578469276428223,6.91765022277832,-1.1868400573730469
1774790052511948500,22.392948486328127,13.014562606811523,5.3216376304626465,-0.3517449200153351
1774790052530474500,22.411474609375,14.306686401367188,4.500899314880371,-0.7130611538887024
1774790052549000700,22.430000732421874,11.956934928894043,4.711467742919922,-1.794616937637329
1774790052567527000,22.44852685546875,8.83669376373291,5.087141036987305,-2.644068956375122
1774790052586052900,22.467052978515625,7.496713161468506,4.960321426391602,-2.8115665912628174
1774790052604579000,22.4855791015625,8.257631301879883,4.543970108032227,-1.9070796966552734
1774790052623105300,22.504105224609376,9.31047248840332,4.481756687164307,-0.8279166221618652
1774790052641631200,22.52263134765625,9.241081237792969,4.395615100860596,-0.3613162338733673
1774790052660157400,22.541157470703126,8.506484031677246,4.201796531677246,-0.46420758962631226
1774790052678683600,22.55968359375,7.302894592285156,3.9984066486358643,-0.44027936458587646
1774790052697209600,22.578209716796874,6.527620315551758,3.7782669067382812,-0.14356936514377594
1774790052715735800,22.59673583984375,6.709474563598633,3.5820555686950684,-0.08853443711996078
1774790052734262000,22.615261962890624,6.527620315551758,3.7471601963043213,0.16271193325519562
1774790052752788000,22.6337880859375,5.962913990020752,4.261617183685303,0.3206382393836975
1774790052771314200,22.652314208984375,5.178068161010742,4.632504463195801,0.08614161610603333
1774790052789840100,22.670840087890625,4.673182487487793,4.78803825378418,-0.19142581522464752
1774790052808366300,22.689366455078126,5.1876397132873535,4.957928657531738,-0.42352959513664246
1774790052826892300,22.707892333984375,5.60399055480957,5.2115678787231445,-0.22013968229293823
1774790052845418500,22.72641845703125,5.699703693389893,5.654240131378174,0.05503492057323456
1774790052863944700,22.74494482421875,5.757131099700928,6.0370917320251465,-0.031106693670153618
1774790052882470700,22.763470703125,6.441478729248047,6.010770320892334,-0.24406790733337402
1774790052900996900,22.781996826171873,7.365108013153076,5.986842155456543,-0.2871387302875519
1774790052919523000,22.800523193359375,8.307880401611328,6.245266914367676,-0.3278166949748993
1774790052938049000,22.819049072265624,8.537590980529785,6.5491557121276855,-0.5527420043945312
1774790052956575200,22.8375751953125,8.298309326171875,6.809973239898682,-0.7561319470405579
1774790052975101400,22.856101318359375,8.346165657043457,6.960721015930176,-0.8805587291717529
1774790052993627400,22.87462744140625,8.719446182250977,6.723831653594971,-0.9882357716560364
1774790053012153600,22.893153564453126,9.281759262084961,6.350551128387451,-0.973878800868988
1774790053030679600,22.911679443359375,10.068997383117676,6.221338748931885,-0.9906286001205444
1774790053058468900,22.93946875,9.736394882202148,7.255038261413574,-1.0193424224853516
1774790053076994800,22.957994873046875,8.185846328735352,7.920242786407471,-0.7896314859390259
1774790053095521000,22.97652099609375,8.57348346710205,7.176074981689453,0.1986042857170105
1774790053114047000,22.995046875,10.856236457824707,5.635097503662109,0.8015955686569214
1774790053132573200,23.0135732421875,12.861421585083008,4.01037073135376,0.36610186100006104
1774790053151099400,23.032099365234377,13.01934814453125,3.211168050765991,-0.07896314561367035
1774790053169625300,23.050625244140626,11.557332992553711,3.8763725757598877,-0.07417750358581543
1774790053188151600,23.069151611328124,9.193224906921387,4.989035129547119,0.4570291340351105
1774790053206677500,23.087677490234373,7.274180889129639,5.72841739654541,0.8949156403541565
1774790053225203700,23.10620361328125,7.240681171417236,5.623133182525635,1.1868400573730469
1774790053243730000,23.12472998046875,8.535198211669922,5.024927616119385,1.3088740110397339
1774790053262255900,23.143255859375,9.456435203552246,4.498506546020508,0.607776939868927
1774790053280782000,23.161781982421875,9.090332984924316,4.29033088684082,0.031106693670153618
1774790053299308000,23.18030810546875,8.090133666992188,4.474578380584717,-0.02392822690308094
1774790053317834200,23.198834228515626,7.164111137390137,4.666004180908203,-0.040677983313798904
1774790053336360400,23.2173603515625,6.742974281311035,4.577469825744629,-0.37806597352027893
1774790053354886400,23.235886474609377,6.606583118438721,4.084548473358154,-1.0432707071304321
1774790053373412600,23.25441259765625,6.379265308380127,3.8428730964660645,-1.5194423198699951
1774790053391938600,23.2729384765625,5.836094379425049,4.216153621673584,-1.5337992906570435
1774790053410464800,23.29146484375,5.134997367858887,5.13739013671875,-1.0528420209884644
1774790053428991000,23.309990966796875,5.185246467590332,5.752345561981201,-0.5910272002220154
1774790053447517000,23.328516845703124,6.068198204040527,5.917450428009033,-0.2273181527853012
1774790053466043100,23.347043212890625,6.745367050170898,5.639883041381836,-0.17946170270442963
1774790053484569000,23.365569091796875,7.219145774841309,5.350351333618164,-0.25363919138908386
1774790053503095300,23.38409521484375,7.625925540924072,5.400600910186768,-0.32542386651039124
1774790053521621200,23.402621337890626,7.9585280418396,5.568098068237305,-0.16510476171970367
1774790053540147500,23.4211474609375,8.422736167907715,5.592026710510254,-0.18424734473228455
1774790053558673700,23.439673583984376,8.26241683959961,5.879165172576904,-0.6747759580612183
1774790053577199600,23.45819970703125,8.042277336120605,6.20219612121582,-1.0959128141403198
1774790053595725800,23.476725830078124,8.059026718139648,6.1710896492004395,-0.9786644577980042
1774790053614251800,23.495251708984377,8.523234367370605,6.226124286651611,-0.6963114142417908
1774790053632778000,23.513778076171874,9.023334503173828,6.293123722076416,-0.576670229434967
1774790053651304200,23.53230419921875,9.45164966583252,6.374479293823242,-0.3684946894645691
1774790053669830100,23.550830078125,9.616754531860352,6.305087566375732,-0.3158525824546814
1774790053688356400,23.5693564453125,9.403793334960938,6.515655994415283,-0.8207381963729858
1774790053706882300,23.58788232421875,8.762516975402832,7.1473612785339355,-1.7491533756256104
1774790053725408500,23.606408447265625,7.326822757720947,7.956135272979736,-2.390429735183716
1774790053743934700,23.624934814453123,6.3840508460998535,8.408378601074219,-2.282752752304077
1774790053762460700,23.643460693359376,7.494320392608643,7.518248558044434,-1.301695466041565
1774790053780987000,23.66198681640625,11.274980545043945,5.675775527954102,-0.7106683254241943
1774790053799512800,23.680512939453124,14.428720474243164,3.9984066486358643,-0.6771687865257263
1774790053818039000,23.6990390625,13.071990013122559,3.751945972442627,-1.3591232299804688
1774790053836565000,23.71756494140625,9.437292098999023,4.73300313949585,-2.0889341831207275
1774790053855091200,23.73609130859375,6.989434719085693,5.481956481933594,-2.225325107574463
1774790053873617200,23.7546171875,6.831508636474609,5.151747226715088,-2.029113531112671
1774790053892143400,23.773143310546875,8.657232284545898,4.182653903961182,-1.5002998113632202
1774790053910669300,23.79166943359375,9.67657470703125,3.8261234760284424,-0.8662018179893494
1774790053929195500,23.810195556640625,10.097711563110352,4.046263217926025,-0.11485548317432404
1774790053947721500,23.828721435546875,9.497113227844238,4.342973232269287,0.6580262184143066
1774790053966247700,23.84724755859375,8.336593627929688,4.488935470581055,0.8877372145652771
1774790053984774000,23.86577392578125,7.389036178588867,4.467400074005127,0.7872386574745178
1774790054003299800,23.8842998046875,6.597012042999268,4.304687976837158,0.38763725757598877
1774790054021826000,23.902825927734376,6.082555294036865,4.168296813964844,-0.11724831163883209
1774790054040352000,23.92135205078125,5.72841739654541,4.01037073135376,-0.5216353535652161
1774790054058878200,23.939878173828124,5.443671703338623,4.077369689941406,-0.8039883971214294
1774790054077404200,23.958404052734377,5.697310924530029,4.553541660308838,-0.5718846321105957
1774790054095930400,23.976930419921874,6.130411624908447,4.910071849822998,-0.12921242415905
1774790054114456600,23.99545654296875,6.087340831756592,5.182853698730469,-0.16271193325519562
