time,seconds_elapsed,z,y,x
1774790028887290600,-1.23170947265625,0.13439035415649414,0.3640756905078888,0.475253164768219
1774790028897261300,-1.22173876953125,-0.1661553531885147,0.35674530267715454,0.22968533635139465
1774790028907132200,-1.211867919921875,-0.34574973583221436,0.6340781450271606,0.6951646208763123
1774790028917033500,-1.201966552734375,0.13072516024112701,-0.2871066629886627,-0.6047565937042236
1774790028927104300,-1.191895751953125,0.11239920556545258,-0.1966986060142517,-0.35185837745666504
1774790028937175000,-1.181824951171875,0.019547687843441963,0,0.006108652334660292
1774790028947245800,-1.171754150390625,0.009773843921720982,0.006108652334660292,0
1774790028957347000,-1.16165283203125,0.004886921960860491,0,-0.00733038317412138
1774790028967417900,-1.15158203125,0.004886921960860491,-0.00366519158706069,-0.00733038317412138
1774790028977488600,-1.141511474609375,0.00855211354792118,-0.006108652334660292,0
1774790028987529000,-1.131470947265625,0.009773843921720982,-0.00855211354792118,0.01466076634824276
1774790029037852400,-1.081147705078125,-0.004886921960860491,-0.01710422709584236,0.013439035043120384
1774790029057963500,-1.061036376953125,0.006108652334660292,-0.01466076634824276,-0.02687807008624077
1774790029088176000,-1.030823974609375,-0.00733038317412138,-0.01466076634824276,0
1774790029098247000,-1.020753173828125,-0.00733038317412138,-0.018325956538319588,0.03787364438176155
1774790029108287000,-1.010713134765625,-0.010995574295520782,-0.013439035043120384,0.07819075137376785
1774790029118327300,-1.000672607421875,-0.01710422709584236,-0.00855211354792118,0.12095131725072861
1774790029128367600,-0.99063232421875,-0.019547687843441963,-0.00733038317412138,0.1466076523065567
1774790029138438400,-0.9805615234375,-0.015882495790719986,-0.0024434609804302454,0.1368338167667389
1774790029148478700,-0.970521240234375,-0.019547687843441963,0.0024434609804302454,0.09162978827953339
1774790029158549500,-0.960450439453125,-0.02932153269648552,0.0024434609804302454,0.025656340643763542
1774790029168620300,-0.950379638671875,-0.0354301854968071,0,-0.0354301854968071
1774790029178721800,-0.9402783203125,-0.0354301854968071,0,-0.059864792972803116
1774790029188792600,-0.93020751953125,-0.03298672288656235,0.006108652334660292,-0.04764748737215996
1774790029198863400,-0.92013671875,-0.030543262138962746,0.013439035043120384,-0.013439035043120384
1774790029208903700,-0.910096435546875,-0.025656340643763542,0.019547687843441963,0.019547687843441963
1774790029249156400,-0.86984375,0.00366519158706069,0.028099801391363144,0.06963863968849182
1774790029259227100,-0.85977294921875,0.010995574295520782,0.02932153269648552,0.0757472887635231
1774790029269298000,-0.8497021484375,0.01466076634824276,0.03176499158143997,0.07452555745840073
1774790029279399200,-0.839600830078125,0.01710422709584236,0.03298672288656235,0.051312681287527084
1774790029289439500,-0.829560546875,0.02687807008624077,0.03176499158143997,0.004886921960860491
1774790029299479800,-0.819520263671875,0.03420845419168472,0.025656340643763542,-0.04398229718208313
1774790029309520100,-0.80947998046875,0.03787364438176155,0.019547687843441963,-0.06719517707824707
1774790029329600500,-0.7893994140625,0.0403171069920063,0.01466076634824276,-0.05253441259264946
1774790029349742000,-0.7692578125,0.04764748737215996,0.015882495790719986,0.012217304669320583
1774790029359843600,-0.759156494140625,0.05253441259264946,0.010995574295520782,0.02932153269648552
1774790029369884000,-0.7491162109375,0.05253441259264946,0.010995574295520782,0.051312681287527084
1774790029379924000,-0.739075927734375,0.05253441259264946,0.010995574295520782,0.051312681287527084
1774790029389964300,-0.72903564453125,0.05375614017248154,0.006108652334660292,0.04886921867728233
1774790029400035000,-0.71896484375,0.04764748737215996,0.0012217304902151227,0.015882495790719986
1774790029410075400,-0.708924560546875,0.036651913076639175,0.0012217304902151227,-0.0354301854968071
1774790029420176600,-0.6988232421875,0.02076941914856434,0.004886921960860491,-0.0708603709936142
1774790029440287700,-0.678712158203125,0.00366519158706069,0.02321287989616394,-0.045204028487205505
1774790029450358500,-0.668641357421875,-0.0012217304902151227,0.036651913076639175,-0.00366519158706069
1774790029460429300,-0.65857080078125,-0.004886921960860491,0.045204028487205505,0.028099801391363144
1774790029470500400,-0.648499755859375,-0.010995574295520782,0.04886921867728233,0.042760565876960754
1774790029480601600,-0.6383984375,-0.02076941914856434,0.042760565876960754,0.04153883829712868
1774790029490642000,-0.628358154296875,-0.02687807008624077,0.03787364438176155,0.0403171069920063
1774790029500712700,-0.618287353515625,-0.02321287989616394,0.042760565876960754,0.039095375686883926
1774790029510783500,-0.608216552734375,-0.018325956538319588,0.04764748737215996,0.036651913076639175
1774790029520854300,-0.598145751953125,-0.018325956538319588,0.051312681287527084,0.03420845419168472
1774790029530894600,-0.58810546875,-0.024434609338641167,0.04886921867728233,0.03298672288656235
1774790029571177700,-0.547822265625,-0.028099801391363144,0.036651913076639175,0.0708603709936142
1774790029601390000,-0.51760986328125,0.0012217304902151227,0.02076941914856434,0.10262536257505417
1774790029641673200,-0.477326904296875,0.02076941914856434,-0.030543262138962746,0.05497787147760391
1774790029651713500,-0.467286376953125,0.025656340643763542,-0.0354301854968071,0.06230825558304787
1774790029661815000,-0.45718505859375,0.02932153269648552,-0.030543262138962746,0.0806342139840126
1774790029671885800,-0.4471142578125,0.03298672288656235,-0.03420845419168472,0.09529497474431992
1774790029691997000,-0.427003173828125,0.0354301854968071,-0.03298672288656235,0.07208210229873657
1774790029702067700,-0.416932373046875,0.0354301854968071,-0.0403171069920063,0.03420845419168472
1774790029712108000,-0.40689208984375,0.0354301854968071,-0.04886921867728233,-0.00366519158706069
1774790029722178800,-0.3968212890625,0.03787364438176155,-0.05253441259264946,-0.018325956538319588
1774790029762462000,-0.3565380859375,0.04398229718208313,-0.05497787147760391,0.01466076634824276
1774790029772502300,-0.346497802734375,0.042760565876960754,-0.05009094998240471,0.0024434609804302454
1774790029782603500,-0.336396484375,0.045204028487205505,-0.045204028487205505,-0.0012217304902151227
1774790029792674300,-0.32632568359375,0.04764748737215996,-0.039095375686883926,0.010995574295520782
1774790029802775600,-0.316224365234375,0.0403171069920063,-0.03420845419168472,0.0354301854968071
1774790029812816000,-0.30618408203125,0.03176499158143997,-0.025656340643763542,0.05497787147760391
1774790029822917000,-0.296082763671875,0.02932153269648552,-0.018325956538319588,0.0659734457731247
1774790029843059000,-0.275941162109375,0.03787364438176155,-0.010995574295520782,0.042760565876960754
1774790029853129700,-0.265870361328125,0.0403171069920063,-0.00366519158706069,0.013439035043120384
1774790029863200500,-0.255799560546875,0.036651913076639175,-0.00366519158706069,-0.010995574295520782
1774790029873240800,-0.24575927734375,0.02932153269648552,-0.00855211354792118,-0.006108652334660292
1774790029883311600,-0.2356884765625,0.018325956538319588,-0.009773843921720982,0.03420845419168472
1774790029893382400,-0.22561767578125,0.009773843921720982,-0.009773843921720982,0.10018189996480942
1774790029903453200,-0.215546875,0.00733038317412138,-0.009773843921720982,0.15271630883216858
1774790029913462800,-0.205537109375,0.01710422709584236,-0.009773843921720982,0.17104226350784302
1774790029923564300,-0.195435791015625,0.03176499158143997,-0.00733038317412138,0.15271630883216858
1774790029953685000,-0.16531494140625,0.01710422709584236,-0.04886921867728233,0.07696902006864548
1774790029963786500,-0.155213623046875,0.009773843921720982,-0.051312681287527084,0.08552113175392151
1774790029973826600,-0.14517333984375,0.01466076634824276,-0.04764748737215996,0.1160643994808197
1774790029983928000,-0.135072021484375,0.02321287989616394,-0.04153883829712868,0.15271630883216858
1774790029993937700,-0.125062255859375,0.02932153269648552,-0.03787364438176155,0.18325957655906677
1774790030004039200,-0.1149609375,0.03176499158143997,-0.039095375686883926,0.1918116807937622
1774790030014110000,-0.10489013671875,0.024434609338641167,-0.039095375686883926,0.1966986060142517
1774790030024211200,-0.094788818359375,0.018325956538319588,-0.05375614017248154,0.16737708449363708
1774790030034251500,-0.08474853515625,0.021991148591041565,-0.06352998316287994,0.15271630883216858
1774790030054362600,-0.064637451171875,0.036651913076639175,-0.06963863968849182,0.12095131725072861
1774790030084575000,-0.034425048828125,0.03420845419168472,-0.07696902006864548,0.01466076634824276
1774790030144877600,0.025877685546875,0.0659734457731247,-0.07696902006864548,-0.006108652334660292
1774790030154887400,0.035887451171875,0.06719517707824707,-0.06963863968849182,0.006108652334660292
1774790030205241300,0.086241455078125,0.024434609338641167,-0.06230825558304787,-0.012217304669320583
1774790030225322000,0.106322021484375,-0.01710422709584236,-0.07330382615327835,-0.013439035043120384
1774790030235331800,0.116331787109375,-0.0403171069920063,-0.0708603709936142,-0.006108652334660292
1774790030255473400,0.136473388671875,-0.08307767659425735,-0.06352998316287994,0.06352998316287994
1774790030325908000,0.206907958984375,-0.15271630883216858,-0.04886921867728233,0.09896016865968704
1774790030356059400,0.237059326171875,-0.1319468915462494,-0.0806342139840126,0.04886921867728233
1774790030366130200,0.247130126953125,-0.11239920556545258,-0.08796459436416626,0.01466076634824276
1774790030396342500,0.277342529296875,-0.051312681287527084,-0.13072516024112701,-0.07819075137376785
1774790030456767200,0.337767333984375,0.02076941914856434,-0.1270599663257599,0.03787364438176155
1774790030497050600,0.378050537109375,0.06108652427792549,-0.1111774742603302,0.06230825558304787
1774790030507152000,0.38815185546875,0.06108652427792549,-0.10384709388017654,0.039095375686883926
1774790030517222700,0.39822265625,0.059864792972803116,-0.09285151958465576,0.028099801391363144
1774790030527293400,0.40829345703125,0.06230825558304787,-0.08552113175392151,0.045204028487205505
1774790030547374000,0.4283740234375,0.06108652427792549,-0.07941248267889023,0.10873401165008545
1774790030557444900,0.43844482421875,0.05742133408784866,-0.07941248267889023,0.1270599663257599
1774790030577556000,0.458555908203125,0.039095375686883926,-0.09040805697441101,0.06230825558304787
1774790030597667000,0.4786669921875,0.01710422709584236,-0.09162978827953339,0.0354301854968071
1774790030607737900,0.48873779296875,0.004886921960860491,-0.09407325088977814,0.07330382615327835
1774790030617778200,0.498778076171875,-0.006108652334660292,-0.08918632566928864,0.11850785464048386
1774790030627879400,0.50887939453125,-0.010995574295520782,-0.08185594528913498,0.1612684279680252
1774790030637919700,0.518919677734375,-0.010995574295520782,-0.08307767659425735,0.1820378452539444
1774790030658091800,0.539091796875,-0.006108652334660292,-0.0806342139840126,0.15882496535778046
1774790030668193000,0.549193115234375,0,-0.07819075137376785,0.1270599663257599
1774790030678233300,0.5592333984375,0.01466076634824276,-0.06963863968849182,0.09285151958465576
1774790030688304000,0.56930419921875,0.030543262138962746,-0.059864792972803116,0.06475171446800232
1774790030698375000,0.579375,0.039095375686883926,-0.051312681287527084,0.03787364438176155
1774790030708415200,0.589415283203125,0.036651913076639175,-0.045204028487205505,0.02321287989616394
1774790030718486000,0.599486083984375,0.03298672288656235,-0.042760565876960754,0.0354301854968071
1774790030728556800,0.609556884765625,0.024434609338641167,-0.03298672288656235,0.06963863968849182
1774790030738597000,0.61959716796875,0.012217304669320583,-0.021991148591041565,0.10751228034496307
1774790030788890000,0.66989013671875,-0.10384709388017654,0.0403171069920063,0.00855211354792118
1774790030798900000,0.67989990234375,-0.10384709388017654,0.0403171069920063,0.00855211354792118
1774790030808970800,0.689970703125,-0.13072516024112701,0.04398229718208313,-0.021991148591041565
1774790030819041500,0.70004150390625,-0.14782938361167908,0.04764748737215996,-0.03787364438176155
1774790030829142800,0.710142822265625,-0.15760323405265808,0.04764748737215996,-0.042760565876960754
1774790030838897700,0.719897705078125,-0.16493362188339233,0.05009094998240471,-0.04886921867728233
1774790030848399000,0.729399169921875,-0.1722639948129654,0.051312681287527084,-0.05742133408784866
1774790030867340500,0.748340576171875,-0.17959438264369965,0.05497787147760391,-0.0806342139840126
1774790030876750300,0.757750244140625,-0.1820378452539444,0.05009094998240471,-0.10018189996480942
1774790030886251800,0.767251708984375,-0.1869247704744339,0.04642575979232788,-0.10751228034496307
1774790030895922400,0.77692236328125,-0.19058994948863983,0.04764748737215996,-0.10262536257505417
1774790030905593300,0.78659326171875,-0.19425514340400696,0.045204028487205505,-0.09285151958465576
1774790030915372500,0.79637255859375,-0.1966986060142517,0.042760565876960754,-0.08796459436416626
1774790030925273900,0.80627392578125,-0.1918116807937622,0.04398229718208313,-0.08918632566928864
1774790030935114200,0.8161142578125,-0.18081611394882202,0.04886921867728233,-0.09407325088977814
1774790030945215500,0.826215576171875,-0.16982053220272064,0.051312681287527084,-0.10018189996480942
1774790030955225300,0.836225341796875,-0.16004669666290283,0.05253441259264946,-0.09529497474431992
1774790031035700000,0.916699951171875,-0.05864306539297104,0.03787364438176155,-0.11972958594560623
1774790031045771000,0.92677099609375,-0.059864792972803116,0.02321287989616394,-0.11362093687057495
1774790031055841800,0.936841796875,-0.06841690838336945,0.015882495790719986,-0.07941248267889023
1774790031065943000,0.946943115234375,-0.07208210229873657,0.010995574295520782,-0.0403171069920063
1774790031075953000,0.956952880859375,-0.06352998316287994,0.00855211354792118,-0.00855211354792118
1774790031096094500,0.977094482421875,-0.042760565876960754,0.004886921960860491,-0.018325956538319588
1774790031106165200,0.987165283203125,-0.0354301854968071,0.006108652334660292,-0.04642575979232788
1774790031136316700,1.017316650390625,0.006108652334660292,0.01466076634824276,-0.16737708449363708
1774790031146387500,1.027387451171875,0.02687807008624077,0.013439035043120384,-0.15515977144241333
1774790031156397000,1.03739697265625,0.03787364438176155,0.018325956538319588,-0.10873401165008545
1774790031166467800,1.0474677734375,0.0354301854968071,0.021991148591041565,-0.05375614017248154
1774790031176508200,1.057508056640625,0.030543262138962746,0.03176499158143997,-0.02321287989616394
1774790031186579000,1.067578857421875,0.0403171069920063,0.05497787147760391,-0.021991148591041565
1774790031196619300,1.077619384765625,0.06475171446800232,0.07819075137376785,-0.04642575979232788
1774790031206720500,1.087720458984375,0.08796459436416626,0.09407325088977814,-0.09529497474431992
1774790031216760800,1.0977607421875,0.1014036312699318,0.10873401165008545,-0.15515977144241333
1774790031226831600,1.10783154296875,0.10262536257505417,0.11728613078594208,-0.2015855312347412
1774790031236872000,1.117871826171875,0.1014036312699318,0.11972958594560623,-0.21502456068992615
1774790031246912300,1.127912353515625,0.10262536257505417,0.12950342893600464,-0.18325957655906677
1774790031256952600,1.13795263671875,0.10018189996480942,0.13927727937698364,-0.12217304855585098
1774790031267053800,1.1480537109375,0.08918632566928864,0.15271630883216858,-0.06352998316287994
1774790031287195400,1.1681953125,0.051312681287527084,0.16982053220272064,-0.00366519158706069
1774790031297266200,1.17826611328125,0.02932153269648552,0.1661553531885147,-0.02076941914856434
1774790031307367700,1.18836767578125,0.00855211354792118,0.16371189057826996,-0.07208210229873657
1774790031317407700,1.19840771484375,-0.0024434609804302454,0.1661553531885147,-0.1270599663257599
1774790031327478800,1.208478759765625,0.00733038317412138,0.17348572611808777,-0.16493362188339233
1774790031337518800,1.218518798828125,0.03420845419168472,0.17837265133857727,-0.17470745742321014
1774790031347589600,1.228589599609375,0.06475171446800232,0.1722639948129654,-0.1466076523065567
1774790031357630000,1.2386298828125,0.08552113175392151,0.1612684279680252,-0.09162978827953339
1774790031397913300,1.278913330078125,0.15027284622192383,0.14294247329235077,0.1417207419872284
1774790031408014600,1.2890146484375,0.16982053220272064,0.1466076523065567,0.13805554807186127
1774790031418055000,1.299054931640625,0.18448130786418915,0.14416420459747314,0.10018189996480942
1774790031428156200,1.30915625,0.19425514340400696,0.13927727937698364,0.0403171069920063
1774790031438196500,1.319196533203125,0.19547687470912933,0.1270599663257599,-0.018325956538319588
1774790031458307600,1.3393076171875,0.20525072515010834,0.11484266817569733,-0.02076941914856434
1774790031468378400,1.34937841796875,0.2174680233001709,0.11484266817569733,0.024434609338641167
1774790031478418700,1.359418701171875,0.21868975460529327,0.11239920556545258,0.08796459436416626
1774790031488489500,1.369489501953125,0.2076941877603531,0.1160643994808197,0.14538592100143433
1774790031508569900,1.38956982421875,0.20036379992961884,0.12339477986097336,0.17837265133857727
1774790031518640600,1.399640625,0.2076941877603531,0.12217304855585098,0.13072516024112701
1774790031528711700,1.409711669921875,0.21380282938480377,0.1160643994808197,0.05253441259264946
1774790031538751700,1.419751708984375,0.21624629199504852,0.1014036312699318,-0.0354301854968071
1774790031548822500,1.429822509765625,0.21013765037059784,0.08429940044879913,-0.12095131725072861
1774790031558893600,1.4398935546875,0.21013765037059784,0.08429940044879913,-0.12095131725072861
1774790031568994800,1.449994873046875,0.1869247704744339,0.051312681287527084,-0.18570303916931152
1774790031589166800,1.470166748046875,0.09162978827953339,0.009773843921720982,-0.23579397797584534
1774790031599207200,1.480207275390625,0.045204028487205505,0.006108652334660292,-0.20402899384498596
1774790031609278000,1.49027783203125,0.0024434609804302454,0.02321287989616394,-0.14538592100143433
1774790031619348700,1.5003486328125,-0.03420845419168472,0.042760565876960754,-0.09162978827953339
1774790031629419500,1.51041943359375,-0.059864792972803116,0.05742133408784866,-0.0354301854968071
1774790031639459800,1.5204599609375,-0.06841690838336945,0.07696902006864548,0.00855211354792118
1774790031649561000,1.53056103515625,-0.06108652427792549,0.09162978827953339,0.030543262138962746
1774790031659601400,1.540601318359375,-0.04886921867728233,0.09285151958465576,0.03176499158143997
1774790031669672200,1.550672119140625,-0.0403171069920063,0.08552113175392151,0.03176499158143997
1774790031699793200,1.580793212890625,0.01710422709584236,0.08674286305904388,0.05619960278272629
1774790031709894400,1.590894287109375,0.0354301854968071,0.1014036312699318,0.05497787147760391
1774790031719904300,1.600904296875,0.059864792972803116,0.11972958594560623,0.0708603709936142
1774790031729975000,1.61097509765625,0.08918632566928864,0.11972958594560623,0.11239920556545258
1774790031740045800,1.6210458984375,0.10506882518529892,0.11239920556545258,0.1661553531885147
1774790031750116600,1.63111669921875,0.11362093687057495,0.10018189996480942,0.21380282938480377
1774790031760157000,1.641156982421875,0.13316862285137177,0.08552113175392151,0.2382374405860901
1774790031770227700,1.651227783203125,0.16859880089759827,0.06352998316287994,0.2382374405860901
1774790031810450000,1.691449951171875,0.24068090319633484,-0.045204028487205505,0.11362093687057495
1774790031820490200,1.701490234375,0.24434609711170197,-0.06108652427792549,0.10384709388017654
1774790031830591500,1.711591552734375,0.2382374405860901,-0.07696902006864548,0.1111774742603302
1774790031840631800,1.7216318359375,0.22357667982578278,-0.08552113175392151,0.11972958594560623
1774790031850672000,1.731672119140625,0.19914206862449646,-0.08918632566928864,0.1111774742603302
1774790031860712200,1.741712158203125,0.16737708449363708,-0.09407325088977814,0.08185594528913498
1774790031870752500,1.75175244140625,0.13805554807186127,-0.09407325088977814,0.04886921867728233
1774790031880762400,1.761762451171875,0.1160643994808197,-0.08796459436416626,0.03176499158143997
1774790031890863600,1.771863525390625,0.10751228034496307,-0.07696902006864548,0.03420845419168472
1774790031921015000,1.80201513671875,0.051312681287527084,-0.042760565876960754,0.039095375686883926
1774790031931085800,1.8120859375,0.039095375686883926,-0.0354301854968071,0.006108652334660292
1774790031941126100,1.822126220703125,0.03176499158143997,-0.021991148591041565,-0.025656340643763542
1774790031951197000,1.832197021484375,0.02076941914856434,-0.004886921960860491,-0.0403171069920063
1774790031961237200,1.8422373046875,0.00855211354792118,0.013439035043120384,-0.024434609338641167
1774790031971308000,1.85230810546875,-0.0024434609804302454,0.03176499158143997,0.00855211354792118
1774790031981348400,1.862348388671875,-0.006108652334660292,0.051312681287527084,0.028099801391363144
1774790032031702300,1.912702392578125,0.045204028487205505,0.1270599663257599,-0.059864792972803116
1774790032041742600,1.92274267578125,0.05497787147760391,0.13439035415649414,-0.07452555745840073
1774790032051783000,1.932782958984375,0.06719517707824707,0.13805554807186127,-0.06352998316287994
1774790032061823200,1.9428232421875,0.07941248267889023,0.14049901068210602,-0.03420845419168472
1774790032071894000,1.95289404296875,0.09162978827953339,0.1417207419872284,0.0024434609804302454
1774790032081934300,1.962934326171875,0.09896016865968704,0.13927727937698364,0.03420845419168472
1774790032092005000,1.973005126953125,0.1062905490398407,0.13316862285137177,0.04886921867728233
1774790032102045200,1.983045166015625,0.11484266817569733,0.12217304855585098,0.036651913076639175
1774790032112146700,1.993146728515625,0.11728613078594208,0.11239920556545258,-0.00366519158706069
1774790032122187000,2.00318701171875,0.1160643994808197,0.1062905490398407,-0.05253441259264946
1774790032132257800,2.0132578125,0.11239920556545258,0.09285151958465576,-0.09040805697441101
1774790032142328600,2.02332861328125,0.1062905490398407,0.08185594528913498,-0.1111774742603302
1774790032152399400,2.0333994140625,0.09896016865968704,0.0757472887635231,-0.10995574295520782
1774790032162470100,2.04347021484375,0.09040805697441101,0.0708603709936142,-0.09773843735456467
1774790032172541000,2.053541015625,0.08185594528913498,0.05742133408784866,-0.08552113175392151
1774790032182611700,2.06361181640625,0.06963863968849182,0.04153883829712868,-0.07452555745840073
1774790032222834000,2.103833984375,0.042760565876960754,0.0024434609804302454,-0.08307767659425735
1774790032232935200,2.11393505859375,0.03176499158143997,0.004886921960860491,-0.09651670604944229
1774790032242975500,2.1239755859375,0.024434609338641167,0.0024434609804302454,-0.10995574295520782
1774790032253015800,2.134015869140625,0.015882495790719986,-0.0024434609804302454,-0.12950342893600464
1774790032263086600,2.144086669921875,0.0012217304902151227,-0.013439035043120384,-0.1514945775270462
1774790032273187800,2.154187744140625,-0.010995574295520782,-0.019547687843441963,-0.14782938361167908
1774790032283258600,2.164258544921875,-0.01466076634824276,-0.02932153269648552,-0.09896016865968704
1774790032303400200,2.184400146484375,-0.00733038317412138,-0.03298672288656235,0.02321287989616394
1774790032343652900,2.22465283203125,-0.006108652334660292,-0.08307767659425735,-0.09407325088977814
1774790032363764000,2.244763916015625,-0.039095375686883926,-0.11972958594560623,-0.15027284622192383
1774790032373834800,2.254834716796875,-0.04642575979232788,-0.1160643994808197,-0.09651670604944229
1774790032383875000,2.264875,-0.051312681287527084,-0.10384709388017654,-0.00733038317412138
1774790032393945900,2.27494580078125,-0.05864306539297104,-0.09285151958465576,0.08185594528913498
1774790032434168000,2.31516796875,-0.1160643994808197,-0.1466076523065567,0.013439035043120384
1774790032444238800,2.32523876953125,-0.1258382350206375,-0.1661553531885147,0.00733038317412138
1774790032454340400,2.33534033203125,-0.13439035415649414,-0.1722639948129654,0.042760565876960754
1774790032464380400,2.34538037109375,-0.1466076523065567,-0.17592918872833252,0.09040805697441101
1774790032474451200,2.355451171875,-0.16004669666290283,-0.1820378452539444,0.12461651116609573
1774790032484522200,2.365522216796875,-0.1661553531885147,-0.1820378452539444,0.13072516024112701
1774790032494593000,2.375593017578125,-0.16004669666290283,-0.16737708449363708,0.09896016865968704
1774790032524744200,2.405744140625,-0.10873401165008545,-0.15760323405265808,-0.07208210229873657
1774790032534815000,2.41581494140625,-0.09896016865968704,-0.1563815027475357,-0.10262536257505417
1774790032544885800,2.4258857421875,-0.09773843735456467,-0.16371189057826996,-0.08552113175392151
1774790032554987300,2.4359873046875,-0.10384709388017654,-0.17592918872833252,-0.03298672288656235
1774790032565027600,2.446027587890625,-0.11850785464048386,-0.18081611394882202,0.019547687843441963
1774790032575067600,2.456067626953125,-0.14049901068210602,-0.1820378452539444,0.04153883829712868
1774790032585108000,2.46610791015625,-0.16249015927314758,-0.18448130786418915,0.039095375686883926
1774790032595209500,2.47620947265625,-0.17470745742321014,-0.17959438264369965,0.028099801391363144
1774790032605310700,2.486310791015625,-0.17837265133857727,-0.17104226350784302,0.013439035043120384
1774790032635523000,2.516523193359375,-0.19425514340400696,-0.15760323405265808,0.0354301854968071
1774790032645624300,2.526624267578125,-0.19425514340400696,-0.1612684279680252,0.07696902006864548
1774790032655695000,2.536695068359375,-0.2015855312347412,-0.16004669666290283,0.11362093687057495
1774790032665735400,2.5467353515625,-0.2125810980796814,-0.1466076523065567,0.14049901068210602
1774790032675775700,2.556775634765625,-0.22113321721553802,-0.11972958594560623,0.1514945775270462
1774790032685846500,2.566846435546875,-0.2223549485206604,-0.08307767659425735,0.1319468915462494
1774790032695917300,2.576917236328125,-0.21868975460529327,-0.04642575979232788,0.0806342139840126
1774790032705988000,2.586988037109375,-0.21380282938480377,-0.02321287989616394,0.024434609338641167
1774790032726099200,2.60709912109375,-0.20402899384498596,0.024434609338641167,-0.03787364438176155
1774790032756220200,2.63722021484375,-0.18325957655906677,0.09040805697441101,-0.01466076634824276
1774790032766291000,2.647291015625,-0.18081611394882202,0.10873401165008545,0.00733038317412138
1774790032776331300,2.657331298828125,-0.18814650177955627,0.11239920556545258,0.042760565876960754
1774790032786402000,2.667402099609375,-0.20525072515010834,0.11484266817569733,0.09896016865968704
1774790032796411600,2.67741162109375,-0.23090706765651703,0.1111774742603302,0.1563815027475357
1774790032806482700,2.687482666015625,-0.26633724570274353,0.10018189996480942,0.18081611394882202
1774790032836664300,2.717664306640625,-0.36651915311813354,0.028099801391363144,-0.0012217304902151227
1774790032846735400,2.7277353515625,-0.37751471996307373,0.01710422709584236,-0.05375614017248154
1774790032856836600,2.737836669921875,-0.38728857040405273,0.013439035043120384,-0.10018189996480942
1774790032866877000,2.747876953125,-0.3995058834552765,0.00733038317412138,-0.13316862285137177
1774790032876917200,2.757917236328125,-0.4105014503002167,-0.0012217304902151227,-0.14782938361167908
1774790032886988000,2.767988037109375,-0.4178318381309509,-0.0012217304902151227,-0.13439035415649414
1774790032897089300,2.77808935546875,-0.41172316670417786,0.0024434609804302454,-0.08552113175392151
1774790032907129600,2.788129638671875,-0.39095374941825867,0.02321287989616394,-0.018325956538319588
1774790032927210000,2.8082099609375,-0.3274237811565399,0.05864306539297104,0.05864306539297104
1774790032947321000,2.828321044921875,-0.2528982162475586,0.10018189996480942,0.045204028487205505
1774790032957361400,2.838361328125,-0.22113321721553802,0.10873401165008545,0.009773843921720982
1774790032967463000,2.848462890625,-0.19547687470912933,0.11728613078594208,-0.02321287989616394
1774790032977533700,2.85853369140625,-0.19547687470912933,0.11728613078594208,-0.02321287989616394
1774790032987573800,2.86857373046875,-0.13316862285137177,0.13927727937698364,-0.015882495790719986
1774790032997644800,2.878644775390625,-0.13316862285137177,0.13927727937698364,-0.015882495790719986
1774790033007715600,2.888715576171875,-0.09896016865968704,0.15271630883216858,0.0024434609804302454
1774790033047937500,2.9289375,-0.04398229718208313,0.14294247329235077,0.09162978827953339
1774790033057977900,2.938977783203125,-0.036651913076639175,0.1368338167667389,0.10995574295520782
1774790033068018200,2.94901806640625,-0.03176499158143997,0.1270599663257599,0.09529497474431992
1774790033078058500,2.95905859375,-0.02932153269648552,0.11484266817569733,0.05742133408784866
1774790033088129300,2.96912939453125,-0.03176499158143997,0.09162978827953339,-0.02076941914856434
1774790033098200000,2.979199951171875,-0.03176499158143997,0.09162978827953339,-0.02076941914856434
1774790033108270800,2.989270751953125,-0.024434609338641167,0.09529497474431992,-0.028099801391363144
1774790033118372000,2.9993720703125,-0.0012217304902151227,0.10262536257505417,0.012217304669320583
1774790033148554000,3.029553955078125,0.045204028487205505,0.11484266817569733,0.27977627515792847
1774790033158655500,3.039655517578125,0.05497787147760391,0.11484266817569733,0.32986724376678467
1774790033168665000,3.0496650390625,0.07208210229873657,0.12095131725072861,0.34208452701568604
1774790033178735900,3.05973583984375,0.08796459436416626,0.12828169763088226,0.3188716471195221
1774790033188806700,3.069806640625,0.09529497474431992,0.12828169763088226,0.2834414839744568
1774790033198877700,3.079877685546875,0.09773843735456467,0.13439035415649414,0.2638937830924988
1774790033208948500,3.089948486328125,0.09896016865968704,0.14538592100143433,0.25045475363731384
1774790033219019300,3.100019287109375,0.1111774742603302,0.16493362188339233,0.23457226157188416
1774790033239191300,3.12019140625,0.2431243658065796,0.1771509200334549,0.14782938361167908
1774790033269342700,3.1503427734375,0.36651915311813354,0.025656340643763542,-0.22968533635139465
1774790033279413500,3.16041357421875,0.34208452701568604,-0.021991148591041565,-0.38240164518356323
1774790033289453800,3.170453857421875,0.3335324227809906,-0.03787364438176155,-0.5277875661849976
1774790033299524600,3.180524658203125,0.33475416898727417,-0.01466076634824276,-0.6059783101081848
1774790033309595400,3.190595458984375,0.31642818450927734,0.02687807008624077,-0.5693264007568359
1774790033319635700,3.2006357421875,0.2626720666885376,0.059864792972803116,-0.4141666293144226
1774790033329706500,3.21070654296875,0.19058994948863983,0.09162978827953339,-0.18570303916931152
1774790033369928700,3.2509287109375,0.12828169763088226,0.1417207419872284,0.19914206862449646
1774790033400141000,3.28114111328125,0.3738495409488678,0.051312681287527084,0.10018189996480942
1774790033430323000,3.311322998046875,0.4813618063926697,-0.024434609338641167,0.012217304669320583
1774790033440393700,3.321393798828125,0.504574716091156,-0.03787364438176155,-0.07819075137376785
1774790033450464500,3.331464599609375,0.5167919993400574,-0.05375614017248154,-0.1661553531885147
1774790033470545200,3.351545166015625,0.504574716091156,-0.07208210229873657,-0.2174680233001709
1774790033490656300,3.37165625,0.44715335965156555,-0.07819075137376785,-0.09773843735456467
1774790033500727000,3.38172705078125,0.4129449129104614,-0.07941248267889023,-0.01466076634824276
1774790033510797800,3.3917978515625,0.3738495409488678,-0.07941248267889023,0.051312681287527084
1774790033520899000,3.401899169921875,0.32498031854629517,-0.08429940044879913,0.06230825558304787
1774790033530939400,3.411939453125,0.26511552929878235,-0.08918632566928864,0.015882495790719986
1774790033540979700,3.421979736328125,0.21013765037059784,-0.0806342139840126,-0.06352998316287994
1774790033551050500,3.432050537109375,0.1661553531885147,-0.06963863968849182,-0.13072516024112701
1774790033561121300,3.442121337890625,0.12095131725072861,-0.06108652427792549,-0.17470745742321014
1774790033591272700,3.472272705078125,0.02076941914856434,-0.01466076634824276,-0.13927727937698364
1774790033601343500,3.482343505859375,0.004886921960860491,-0.0024434609804302454,-0.09040805697441101
1774790033621454600,3.50245458984375,-0.03420845419168472,0.01466076634824276,0.0012217304902151227
1774790033631494700,3.51249462890625,-0.042760565876960754,0.024434609338641167,0.0403171069920063
1774790033641565700,3.522565673828125,-0.04642575979232788,0.025656340643763542,0.07330382615327835
1774790033691858400,3.5728583984375,-0.07696902006864548,0.02076941914856434,-0.09040805697441101
1774790033701929200,3.58292919921875,-0.10018189996480942,0.004886921960860491,-0.1014036312699318
1774790033711969500,3.592969482421875,-0.1160643994808197,0.0012217304902151227,-0.07941248267889023
1774790033722009900,3.603009765625,-0.12095131725072861,-0.013439035043120384,-0.0403171069920063
1774790033732050200,3.61305029296875,-0.12461651116609573,-0.025656340643763542,0
1774790033742121000,3.623120849609375,-0.12828169763088226,-0.04153883829712868,0.042760565876960754
1774790033752191700,3.633191650390625,-0.13561208546161652,-0.05253441259264946,0.06475171446800232
1774790033792444400,3.6734443359375,-0.1661553531885147,-0.1258382350206375,-0.021991148591041565
1774790033802484700,3.683484619140625,-0.17959438264369965,-0.14294247329235077,-0.019547687843441963
1774790033812555500,3.693555419921875,-0.18570303916931152,-0.15882496535778046,0.009773843921720982
1774790033822595800,3.703595947265625,-0.18325957655906677,-0.16493362188339233,0.04153883829712868
1774790033832666600,3.71366650390625,-0.1820378452539444,-0.17837265133857727,0.05619960278272629
1774790033842768000,3.723767822265625,-0.19303341209888458,-0.1966986060142517,0.05009094998240471
1774790033852808200,3.73380810546875,-0.21991148591041565,-0.21380282938480377,0.042760565876960754
1774790033862848500,3.7438486328125,-0.2577851414680481,-0.2272418737411499,0.05619960278272629
1774790033872919300,3.753919189453125,-0.294437050819397,-0.23579397797584534,0.09040805697441101
1774790033903131600,3.784131591796875,-0.3445279896259308,-0.18081611394882202,0.14905111491680145
1774790033913172000,3.794171875,-0.3017674386501312,-0.1466076523065567,0.06475171446800232
1774790033923273200,3.804273193359375,-0.22602014243602753,-0.12828169763088226,-0.06108652427792549
1774790033933313500,3.8143134765625,-0.1368338167667389,-0.1466076523065567,-0.16371189057826996
1774790033943384300,3.82438427734375,-0.08185594528913498,-0.1918116807937622,-0.20891591906547546
1774790033953455000,3.834455078125,-0.09773843735456467,-0.24678955972194672,-0.19303341209888458
1774790033963526100,3.844526123046875,-0.1661553531885147,-0.29077184200286865,-0.1417207419872284
1774790033993708000,3.8747080078125,-0.33719760179519653,-0.25534167885780334,0.030543262138962746
1774790034003809300,3.884809326171875,-0.41661009192466736,-0.2272418737411499,0.039095375686883926
1774790034013880000,3.894880126953125,-0.5253441333770752,-0.17592918872833252,-0.004886921960860491
1774790034023950800,3.904950927734375,-0.607200026512146,-0.11728613078594208,-0.08674286305904388
1774790034033991200,3.9149912109375,-0.626747727394104,-0.05497787147760391,-0.14294247329235077
1774790034054102300,3.935102294921875,-0.5595525503158569,0.059864792972803116,-0.06719517707824707
1774790034064173000,3.945173095703125,-0.513126790523529,0.07819075137376785,0.03298672288656235
1774790034084284200,3.9652841796875,-0.3799581825733185,0.1062905490398407,0.2480112910270691
1774790034104395300,3.985395263671875,-0.2687807083129883,0.11362093687057495,0.22113321721553802
1774790034114435300,3.995435302734375,-0.2480112910270691,0.10751228034496307,0.16737708449363708
1774790034124506400,4.00550634765625,-0.24678955972194672,0.10995574295520782,0.11972958594560623
1774790034134546400,4.01554638671875,-0.2577851414680481,0.1014036312699318,0.08552113175392151
1774790034144617200,4.0256171875,-0.2785545587539673,0.08552113175392151,0.05619960278272629
1774790034154657500,4.035657470703125,-0.3090978264808655,0.059864792972803116,0.02321287989616394
1774790034164728300,4.045728271484375,-0.32498031854629517,0.03787364438176155,-0.009773843921720982
1774790034174768600,4.0557685546875,-0.31520646810531616,0.021991148591041565,-0.021991148591041565
1774790034214960400,4.09596044921875,-0.19792033731937408,-0.0012217304902151227,-0.00366519158706069
1774790034225000700,4.106000732421875,-0.17837265133857727,0.00733038317412138,-0.03787364438176155
1774790034235071500,4.116071533203125,-0.15882496535778046,0.00733038317412138,-0.07696902006864548
1774790034245142300,4.126142333984375,-0.13439035415649414,0.012217304669320583,-0.08307767659425735
1774790034255182600,4.1361826171875,-0.1062905490398407,0.02321287989616394,-0.05742133408784866
1774790034265223000,4.146222900390625,-0.08185594528913498,0.04153883829712868,-0.028099801391363144
1774790034275293700,4.156293701171875,-0.051312681287527084,0.06352998316287994,-0.018325956538319588
1774790034285395000,4.16639501953125,-0.01466076634824276,0.0806342139840126,-0.02076941914856434
1774790034325678000,4.206677978515625,0.08307767659425735,0.16859880089759827,0.024434609338641167
1774790034345819600,4.226819580078125,0.10018189996480942,0.1869247704744339,0.0403171069920063
1774790034355860000,4.23685986328125,0.10018189996480942,0.18814650177955627,0.0403171069920063
1774790034365930800,4.2469306640625,0.1014036312699318,0.18814650177955627,0.05009094998240471
1774790034375971000,4.25697119140625,0.10995574295520782,0.20036379992961884,0.05742133408784866
1774790034386011400,4.267011474609375,0.12217304855585098,0.2064724564552307,0.05009094998240471
1774790034396051700,4.2770517578125,0.13439035415649414,0.20891591906547546,0.02932153269648552
1774790034426294500,4.30729443359375,0.15760323405265808,0.20525072515010834,-0.018325956538319588
1774790034436334800,4.3173349609375,0.16493362188339233,0.2028072625398636,-0.024434609338641167
1774790034446405600,4.327405517578125,0.1771509200334549,0.1918116807937622,-0.01466076634824276
1774790034456446000,4.337446044921875,0.19425514340400696,0.2015855312347412,0.015882495790719986
1774790034476587500,4.35758740234375,0.21868975460529327,0.22113321721553802,0.14416420459747314
1774790034486688800,4.367688720703125,0.21868975460529327,0.24434609711170197,0.1918116807937622
1774790034496729000,4.37772900390625,0.20036379992961884,0.2736676335334778,0.19547687470912933
1774790034537012200,4.41801220703125,0.16249015927314758,0.2871066629886627,0.2223549485206604
1774790034547113700,4.42811376953125,0.1918116807937622,0.31031954288482666,0.2590068578720093
1774790034557123300,4.438123291015625,0.2541199326515198,0.32620203495025635,0.26633724570274353
1774790034567224800,4.448224853515625,0.3530801236629486,0.32620203495025635,0.19425514340400696
1774790034577295600,4.458295654296875,0.4801400899887085,0.2883284091949463,0.06230825558304787
1774790034587366400,4.468366455078125,0.5900958180427551,0.2015855312347412,-0.07819075137376785
1774790034597406700,4.47840673828125,0.6438519954681396,0.11362093687057495,-0.22602014243602753
1774790034607508000,4.488508056640625,0.6597344875335693,0.03787364438176155,-0.38117989897727966
1774790034637629000,4.51862890625,0.618195652961731,-0.00733038317412138,-0.5363397002220154
1774790034647730200,4.528730224609375,0.5363397002220154,0.015882495790719986,-0.4239404797554016
1774790034657770500,4.5387705078125,0.4349360466003418,0.04886921867728233,-0.2370157092809677
1774790034667810800,4.548810791015625,0.34697145223617554,0.09162978827953339,-0.05375614017248154
1774790034677820400,4.5588203125,0.28955012559890747,0.13072516024112701,0.051312681287527084
1774790034687921700,4.568921630859375,0.2724458873271942,0.1466076523065567,0.07452555745840073
1774790034697962000,4.5789619140625,0.2993239760398865,0.1417207419872284,0.06352998316287994
1774790034708032800,4.58903271484375,0.3543018400669098,0.1270599663257599,0.05009094998240471
1774790034718012200,4.59901220703125,0.4080579876899719,0.09773843735456467,0.0403171069920063
1774790034748194000,4.629194091796875,0.4703662395477295,0.03298672288656235,0.028099801391363144
1774790034768274400,4.6492744140625,0.48380526900291443,0.03176499158143997,-0.10506882518529892
1774790034778314800,4.659314697265625,0.4605923891067505,0.015882495790719986,-0.1869247704744339
1774790034788385500,4.669385498046875,0.42149701714515686,0.006108652334660292,-0.2370157092809677
1774790034798395400,4.6793955078125,0.3787364661693573,-0.0024434609804302454,-0.23457226157188416
1774790034808496600,4.68949658203125,0.3445279896259308,-0.009773843921720982,-0.18936823308467865
1774790034818537000,4.699536865234375,0.3188716471195221,-0.012217304669320583,-0.13561208546161652
1774790034828607700,4.709607666015625,0.2919935882091522,-0.01466076634824276,-0.09162978827953339
1774790034858820000,4.739820068359375,0.16982053220272064,-0.03176499158143997,-0.11362093687057495
1774790034868891100,4.74989111328125,0.12828169763088226,-0.03420845419168472,-0.12828169763088226
1774790034878900700,4.759900634765625,0.09407325088977814,-0.02932153269648552,-0.11484266817569733
1774790034888941000,4.769941162109375,0.05742133408784866,-0.028099801391363144,-0.09529497474431992
1774790034899011800,4.78001171875,0.01466076634824276,-0.01710422709584236,-0.08307767659425735
1774790034909113000,4.790113037109375,-0.02321287989616394,-0.009773843921720982,-0.08674286305904388
1774790034919153400,4.8001533203125,-0.04764748737215996,-0.006108652334660292,-0.08307767659425735
1774790034929254700,4.810254638671875,-0.06230825558304787,-0.0024434609804302454,-0.04764748737215996
1774790034939295000,4.820294921875,-0.08185594528913498,-0.006108652334660292,0.009773843921720982
1774790034989679600,4.8706796875,-0.15393804013729095,-0.03176499158143997,0.018325956538319588
1774790034999720000,4.880719970703125,-0.15882496535778046,-0.042760565876960754,-0.00855211354792118
1774790035009790700,4.890790771484375,-0.17348572611808777,-0.05864306539297104,-0.03298672288656235
1774790035019861500,4.900861572265625,-0.1966986060142517,-0.0659734457731247,-0.0659734457731247
1774790035060114200,4.9411142578125,-0.24190263450145721,-0.08796459436416626,-0.036651913076639175
1774790035100366800,4.981366943359375,-0.18448130786418915,-0.10262536257505417,0.07330382615327835
1774790035120539000,5.001538818359375,-0.1869247704744339,-0.17592918872833252,0.05375614017248154
1774790035130640400,5.011640380859375,-0.2125810980796814,-0.21624629199504852,0.05742133408784866
1774790035140711200,5.021711181640625,-0.24678955972194672,-0.24434609711170197,0.06841690838336945
1774790035160883200,5.04188330078125,-0.3090978264808655,-0.2321287989616394,0.09162978827953339
1774790035170954000,5.0519541015625,-0.31154128909111023,-0.19425514340400696,0.06719517707824707
1774790035180994300,5.061994384765625,-0.294437050819397,-0.15515977144241333,-0.010995574295520782
1774790035191065000,5.072065185546875,-0.2528982162475586,-0.14416420459747314,-0.12095131725072861
1774790035201105400,5.08210546875,-0.1869247704744339,-0.1722639948129654,-0.2015855312347412
1774790035211176200,5.09217626953125,-0.14049901068210602,-0.21868975460529327,-0.20402899384498596
1774790035221216500,5.102216552734375,-0.16493362188339233,-0.26511552929878235,-0.13805554807186127
1774790035231317800,5.11231787109375,-0.24190263450145721,-0.2919935882091522,-0.0354301854968071
1774790035241327600,5.12232763671875,-0.3237585723400116,-0.28466320037841797,0.04764748737215996
1774790035251428900,5.132428955078125,-0.3933972120285034,-0.26511552929878235,0.05619960278272629
1774790035281641200,5.16264111328125,-0.6475171446800232,-0.1319468915462494,-0.2272418737411499
1774790035301752300,5.18275244140625,-0.7134906053543091,0.028099801391363144,-0.06963863968849182
1774790035321924400,5.20292431640625,-0.616973876953125,0.14782938361167908,0.24190263450145721
1774790035331995100,5.2129951171875,-0.5363397002220154,0.16982053220272064,0.3628539443016052
1774790035342035500,5.223035400390625,-0.4434881806373596,0.16371189057826996,0.4288274049758911
1774790035372187000,5.253186767578125,-0.28466320037841797,0.07819075137376785,0.059864792972803116
1774790035382227200,5.263227294921875,-0.2785545587539673,0.04642575979232788,-0.04642575979232788
1774790035392298000,5.273298095703125,-0.28588494658470154,0.030543262138962746,-0.04764748737215996
1774790035402368800,5.28336865234375,-0.3090978264808655,0.013439035043120384,0.0403171069920063
1774790035412470000,5.293469970703125,-0.3543018400669098,0.0024434609804302454,0.1417207419872284
1774790035422540800,5.303540771484375,-0.4080579876899719,-0.024434609338641167,0.18325957655906677
1774790035432642300,5.313642333984375,-0.44593164324760437,-0.05497787147760391,0.1417207419872284
1774790035442713000,5.323713134765625,-0.45204028487205505,-0.07941248267889023,0.02932153269648552
1774790035452814300,5.333814453125,-0.43249258399009705,-0.10262536257505417,-0.10506882518529892
1774790035482935300,5.363935302734375,-0.3628539443016052,-0.10262536257505417,-0.31031954288482666
1774790035493036500,5.37403662109375,-0.34086281061172485,-0.08674286305904388,-0.2577851414680481
1774790035503107300,5.384107421875,-0.3078760802745819,-0.06230825558304787,-0.17592918872833252
1774790035513208600,5.39420849609375,-0.27611109614372253,-0.04153883829712868,-0.09896016865968704
1774790035523249000,5.404248779296875,-0.24556782841682434,-0.028099801391363144,-0.05009094998240471
1774790035533350100,5.41435009765625,-0.2125810980796814,-0.01466076634824276,-0.019547687843441963
1774790035543390500,5.424390380859375,-0.1771509200334549,0.00733038317412138,-0.0012217304902151227
1774790035553461200,5.434461181640625,-0.13439035415649414,0.0354301854968071,0.013439035043120384
1774790035583643100,5.46464306640625,-0.013439035043120384,0.10018189996480942,0.06475171446800232
1774790035593744600,5.47474462890625,0.015882495790719986,0.12950342893600464,0.0806342139840126
1774790035603784700,5.48478466796875,0.04398229718208313,0.1514945775270462,0.09040805697441101
1774790035633997300,5.514997314453125,0.10384709388017654,0.18081611394882202,0.10018189996480942
1774790035644037400,5.525037353515625,0.12339477986097336,0.17959438264369965,0.11972958594560623
1774790035654077700,5.53507763671875,0.13072516024112701,0.1722639948129654,0.13316862285137177
1774790035664148500,5.5451484375,0.13561208546161652,0.17104226350784302,0.13927727937698364
1774790035674219300,5.55521923828125,0.14905111491680145,0.16982053220272064,0.16249015927314758
1774790035684259600,5.565259521484375,0.1661553531885147,0.16249015927314758,0.18570303916931152
1774790035704401200,5.585401123046875,0.18448130786418915,0.16004669666290283,0.16493362188339233
1774790035714502700,5.595502685546875,0.18325957655906677,0.15393804013729095,0.11972958594560623
1774790035724573400,5.605573486328125,0.1771509200334549,0.15882496535778046,0.05375614017248154
1774790035734674700,5.6156748046875,0.1722639948129654,0.1612684279680252,-0.021991148591041565
1774790035744715000,5.625715087890625,0.17348572611808777,0.17592918872833252,-0.09162978827953339
1774790035754785800,5.635785888671875,0.17470745742321014,0.1918116807937622,-0.1368338167667389
1774790035764826000,5.645826171875,0.17348572611808777,0.21380282938480377,-0.13561208546161652
1774790035784967700,5.6659677734375,0.15760323405265808,0.26145032048225403,0.0403171069920063
1774790035815180000,5.696179931640625,0.24678955972194672,0.3579670190811157,0.28099802136421204
1774790035825250800,5.706250732421875,0.3628539443016052,0.3579670190811157,0.18570303916931152
1774790035835321600,5.716321533203125,0.49724429845809937,0.3066543638706207,-0.013439035043120384
1774790035845392400,5.726392333984375,0.5937610268592834,0.21624629199504852,-0.24678955972194672
1774790035855463200,5.736463134765625,0.626747727394104,0.12950342893600464,-0.455705463886261
1774790035865503500,5.74650341796875,0.616973876953125,0.08552113175392151,-0.5876523852348328
1774790035885614600,5.766614501953125,0.6010913848876953,0.0708603709936142,-0.6047565937042236
1774790035895685400,5.776685302734375,0.5693264007568359,0.07330382615327835,-0.5192354321479797
1774790035905756200,5.786756103515625,0.44715335965156555,0.13561208546161652,-0.18325957655906677
1774790035946008800,5.8270087890625,0.3176499307155609,0.1368338167667389,0.24190263450145721
1774790035956110300,5.8371103515625,0.34697145223617554,0.11972958594560623,0.2773328125476837
1774790035986353200,5.867353271484375,0.513126790523529,-0.05864306539297104,0.02321287989616394
1774790036006464300,5.88746435546875,0.5766568183898926,-0.14782938361167908,-0.2125810980796814
1774790036097162500,5.97816259765625,0.36529740691185,-0.06963863968849182,-0.05864306539297104
1774790036107202800,5.988202880859375,0.304210901260376,-0.05864306539297104,-0.012217304669320583
1774790036117304000,5.998303955078125,0.251676470041275,-0.04764748737215996,0.04398229718208313
1774790036147425000,6.028425048828125,0.0708603709936142,-0.03176499158143997,0.05742133408784866
1774790036167597000,6.04859716796875,-0.05009094998240471,-0.03298672288656235,-0.06108652427792549
1774790036207941400,6.08894140625,-0.15027284622192383,-0.03298672288656235,-0.012217304669320583
1774790036218042600,6.099042724609375,-0.1563815027475357,-0.04398229718208313,0.01710422709584236
1774790036228083000,6.1090830078125,-0.1661553531885147,-0.05009094998240471,0.03176499158143997
1774790036238153700,6.11915380859375,-0.16737708449363708,-0.05742133408784866,0.04886921867728233
1774790036248224500,6.129224609375,-0.15882496535778046,-0.06841690838336945,0.06719517707824707
1774790036288507600,6.169507568359375,-0.15027284622192383,-0.13805554807186127,-0.05619960278272629
1774790036298578400,6.179578369140625,-0.15515977144241333,-0.15760323405265808,-0.10506882518529892
1774790036318689500,6.199689453125,-0.13439035415649414,-0.14905111491680145,-0.10384709388017654
1774790036328760300,6.20976025390625,-0.10506882518529892,-0.14294247329235077,-0.06352998316287994
1774790036358911700,6.239911865234375,-0.00855211354792118,-0.14782938361167908,-0.11484266817569733
1774790036399195000,6.28019482421875,0.0806342139840126,-0.2272418737411499,0.10751228034496307
1774790036409265700,6.290265625,0.06230825558304787,-0.24678955972194672,0.19792033731937408
1774790036419336400,6.30033642578125,0.028099801391363144,-0.26511552929878235,0.2431243658065796
1774790036439447600,6.320447509765625,-0.009773843921720982,-0.2626720666885376,0.12828169763088226
1774790036449518300,6.330518310546875,0.018325956538319588,-0.2272418737411499,-0.01466076634824276
1774790036459558700,6.34055859375,0.0806342139840126,-0.1869247704744339,-0.1722639948129654
1774790036479700200,6.3607001953125,0.21013765037059784,-0.21135938167572021,-0.3066543638706207
1774790036489771300,6.370771240234375,0.20891591906547546,-0.24678955972194672,-0.2223549485206604
1774790036499811300,6.380811279296875,0.15271630883216858,-0.2638937830924988,-0.0708603709936142
1774790036509851600,6.3908515625,0.07452555745840073,-0.27122417092323303,0.09285151958465576
1774790036519892000,6.40089208984375,-0.02076941914856434,-0.25045475363731384,0.20525072515010834
1774790036529993200,6.4109931640625,-0.1319468915462494,-0.2076941877603531,0.22479841113090515
1774790036540094700,6.4210947265625,-0.2577851414680481,-0.15760323405265808,0.16859880089759827
1774790036550134800,6.431134765625,-0.40194934606552124,-0.11484266817569733,0.04886921867728233
1774790036560175000,6.441175048828125,-0.5290092825889587,-0.0757472887635231,-0.09529497474431992
1774790036590448600,6.47144873046875,-0.5913175344467163,0.08552113175392151,-0.05864306539297104
1774790036610559700,6.491559814453125,-0.4300491213798523,0.12095131725072861,0.2577851414680481
1774790036620630500,6.501630615234375,-0.3494149148464203,0.12828169763088226,0.34574973583221436
1774790036630701300,6.511701416015625,-0.304210901260376,0.10751228034496307,0.3274237811565399
1774790036650812400,6.5318125,-0.28955012559890747,0.059864792972803116,0.1563815027475357
1774790036660883200,6.54188330078125,-0.3237585723400116,0.05253441259264946,0.0757472887635231
1774790036691095600,6.572095458984375,-0.5265658497810364,0.0403171069920063,-0.09773843735456467
1774790036701166300,6.582166259765625,-0.5619960427284241,0.05375614017248154,-0.15393804013729095
1774790036711237000,6.592237060546875,-0.5522221922874451,0.06352998316287994,-0.22602014243602753
1774790036721277400,6.60227734375,-0.5155702829360962,0.06475171446800232,-0.2871066629886627
1774790036731317800,6.61231787109375,-0.485027015209198,0.059864792972803116,-0.304210901260376
1774790036741358000,6.622358154296875,-0.46792277693748474,0.06230825558304787,-0.2590068578720093
1774790036751428900,6.632428955078125,-0.4447098970413208,0.0708603709936142,-0.1563815027475357
1774790036761499600,6.642499755859375,-0.4043927788734436,0.08796459436416626,-0.02687807008624077
1774790036781641200,6.66264111328125,-0.3188716471195221,0.12095131725072861,0.11362093687057495
1774790036791712000,6.6727119140625,-0.2871066629886627,0.14538592100143433,0.08674286305904388
1774790036801813200,6.682813232421875,-0.2541199326515198,0.1612684279680252,0.02687807008624077
1774790036811884300,6.69288427734375,-0.21380282938480377,0.16737708449363708,-0.024434609338641167
1774790036821955000,6.702955078125,-0.17959438264369965,0.16982053220272064,-0.05864306539297104
1774790036831995100,6.7129951171875,-0.15760323405265808,0.1722639948129654,-0.09285151958465576
1774790036842066200,6.723066162109375,-0.1368338167667389,0.17348572611808777,-0.12828169763088226
1774790036852137000,6.733136962890625,-0.10751228034496307,0.1820378452539444,-0.13439035415649414
1774790036862238200,6.74323828125,-0.06719517707824707,0.18570303916931152,-0.08429940044879913
1774790036872278500,6.753278564453125,-0.03298672288656235,0.18448130786418915,-0.006108652334660292
1774790036892389600,6.7733896484375,-0.012217304669320583,0.18814650177955627,0.13072516024112701
1774790036902491000,6.783490966796875,-0.006108652334660292,0.18936823308467865,0.19792033731937408
1774790036912561700,6.793561767578125,0,0.19058994948863983,0.2577851414680481
1774790036932703200,6.813703125,0.018325956538319588,0.18081611394882202,0.3274237811565399
1774790036942774000,6.82377392578125,0.02932153269648552,0.16737708449363708,0.31520646810531616
1774790036952844800,6.8338447265625,0.045204028487205505,0.1661553531885147,0.26022860407829285
1774790036962946300,6.8439462890625,0.0708603709936142,0.1563815027475357,0.1966986060142517
1774790036972986400,6.853986328125,0.10751228034496307,0.16371189057826996,0.15027284622192383
1774790036993097500,6.874097412109375,0.16982053220272064,0.15515977144241333,0.14905111491680145
1774790037003168300,6.884168212890625,0.18081611394882202,0.15760323405265808,0.16737708449363708
1774790037013208600,6.89420849609375,0.18325957655906677,0.1661553531885147,0.19058994948863983
1774790037023310000,6.90431005859375,0.19058994948863983,0.1722639948129654,0.22479841113090515
1774790037033350100,6.91435009765625,0.20036379992961884,0.17959438264369965,0.2687807083129883
1774790037043421000,6.9244208984375,0.21380282938480377,0.19914206862449646,0.2883284091949463
1774790037053461200,6.934461181640625,0.24923302233219147,0.22479841113090515,0.25045475363731384
1774790037063562800,6.944562744140625,0.3335324227809906,0.24556782841682434,0.14049901068210602
1774790037073633500,6.954633544921875,0.4764748811721802,0.2370157092809677,-0.02687807008624077
1774790037093775000,6.974775146484375,0.6866125464439392,0.09162978827953339,-0.35063666105270386
1774790037103876400,6.98487646484375,0.6707300543785095,0.010995574295520782,-0.4740314185619354
1774790037124018000,7.005017822265625,0.5839871764183044,-0.04153883829712868,-0.5229006409645081
1774790037134058200,7.015058349609375,0.5693264007568359,-0.009773843921720982,-0.4031710624694824
1774790037144159500,7.025159423828125,0.5729916095733643,0.024434609338641167,-0.18081611394882202
1774790037154199800,7.03519970703125,0.5644394755363464,0.04398229718208313,0.0806342139840126
1774790037164240100,7.045240234375,0.5229006409645081,0.04398229718208313,0.2968805134296417
1774790037174280400,7.055280517578125,0.4899139404296875,0.028099801391363144,0.3995058834552765
1774790037204462300,7.08546240234375,0.6646214127540588,-0.1258382350206375,0.15882496535778046
1774790037214533000,7.095533203125,0.7562511563301086,-0.17470745742321014,0.05864306539297104
1774790037224634400,7.10563427734375,0.8100073337554932,-0.20525072515010834,-0.04398229718208313
1774790037234674700,7.1156748046875,0.8026769161224365,-0.2223549485206604,-0.17959438264369965
1774790037244745500,7.125745361328125,0.7623597979545593,-0.2272418737411499,-0.3237585723400116
1774790037254816300,7.135816162109375,0.7183775305747986,-0.21624629199504852,-0.42638394236564636
1774790037264887000,7.145886962890625,0.6670648455619812,-0.2015855312347412,-0.4508185386657715
1774790037274927400,7.15592724609375,0.5962044596672058,-0.18814650177955627,-0.40194934606552124
1774790037284967700,7.1659677734375,0.5106833577156067,-0.1612684279680252,-0.3237585723400116
1774790037305078800,7.186078857421875,0.36651915311813354,-0.1014036312699318,-0.20891591906547546
1774790037315119000,7.196119140625,0.31520646810531616,-0.07941248267889023,-0.19303341209888458
1774790037325190000,7.20618994140625,0.2638937830924988,-0.05619960278272629,-0.19058994948863983
1774790037335230200,7.216230224609375,0.20891591906547546,-0.03176499158143997,-0.1771509200334549
1774790037345301000,7.226301025390625,0.16004669666290283,-0.01466076634824276,-0.13927727937698364
1774790037355371800,7.236371826171875,0.11728613078594208,-0.004886921960860491,-0.08796459436416626
1774790037365442600,7.246442626953125,0.07696902006864548,-0.004886921960860491,-0.05009094998240471
1774790037375483000,7.25648291015625,0.04153883829712868,0.0012217304902151227,-0.042760565876960754
1774790037385553700,7.2665537109375,0.01710422709584236,0.012217304669320583,-0.05253441259264946
1774790037415705000,7.296705078125,-0.00855211354792118,0.042760565876960754,-0.01710422709584236
1774790037425745200,7.3067451171875,-0.00855211354792118,0.042760565876960754,-0.01710422709584236
1774790037435785500,7.316785400390625,-0.01466076634824276,0.03787364438176155,0.02687807008624077
1774790037445856300,7.326856201171875,-0.018325956538319588,0.024434609338641167,0.06352998316287994
1774790037455896600,7.336896484375,-0.01466076634824276,-0.0024434609804302454,0.07696902006864548
1774790037465967400,7.34696728515625,-0.00733038317412138,-0.02687807008624077,0.05497787147760391
1774790037476007700,7.357007568359375,-0.0012217304902151227,-0.05009094998240471,0.0024434609804302454
1774790037486078500,7.367078369140625,0.006108652334660292,-0.07208210229873657,-0.042760565876960754
1774790037516230000,7.39722998046875,-0.039095375686883926,-0.14294247329235077,-0.04886921867728233
1774790037526300700,7.40730078125,-0.039095375686883926,-0.14294247329235077,-0.04886921867728233
1774790037546472700,7.42747265625,-0.10873401165008545,-0.14294247329235077,-0.1014036312699318
1774790037556482600,7.437482666015625,-0.13439035415649414,-0.1319468915462494,-0.11362093687057495
1774790037566553300,7.44755322265625,-0.16249015927314758,-0.1160643994808197,-0.10018189996480942
1774790037576624000,7.4576240234375,-0.18448130786418915,-0.10751228034496307,-0.05864306539297104
1774790037586756000,7.467756103515625,-0.1918116807937622,-0.09162978827953339,0.018325956538319588
1774790037596796200,7.477796142578125,-0.17959438264369965,-0.09162978827953339,0.12828169763088226
1774790037637018400,7.518018310546875,-0.24678955972194672,-0.21135938167572021,0.28955012559890747
1774790037647089200,7.528089111328125,-0.2773328125476837,-0.24556782841682434,0.2638937830924988
1774790037667261400,7.548261474609375,-0.35674530267715454,-0.2382374405860901,0.2480112910270691
1774790037677332200,7.558332275390625,-0.34208452701568604,-0.17104226350784302,0.21991148591041565
1774790037687403000,7.568403076171875,-0.2687807083129883,-0.11362093687057495,0.10262536257505417
1774790037697473800,7.578473876953125,-0.1466076523065567,-0.10262536257505417,-0.07941248267889023
1774790037707544600,7.588544677734375,-0.02932153269648552,-0.16249015927314758,-0.2028072625398636
1774790037737757000,7.6187568359375,-0.27000242471694946,-0.29565876722335815,0.03787364438176155
1774790037747827700,7.62882763671875,-0.34697145223617554,-0.2321287989616394,0.14416420459747314
1774790037757868000,7.638867919921875,-0.3995058834552765,-0.14782938361167908,0.11239920556545258
1774790037767969300,7.64896923828125,-0.4764748811721802,-0.06475171446800232,-0.04153883829712868
1774790037778009600,7.659009521484375,-0.5644394755363464,0.015882495790719986,-0.2015855312347412
1774790037788080400,7.669080322265625,-0.6194173693656921,0.0806342139840126,-0.22479841113090515
1774790037798151200,7.679151123046875,-0.6291912198066711,0.13561208546161652,-0.0757472887635231
1774790037808222000,7.689221923828125,-0.598647952079773,0.17837265133857727,0.17348572611808777
1774790037818293000,7.69929296875,-0.5412266254425049,0.20036379992961884,0.4129449129104614
1774790037838434600,7.7194345703125,-0.3995058834552765,0.18325957655906677,0.5448917746543884
1774790037848505300,7.72950537109375,-0.33108896017074585,0.15271630883216858,0.4544837474822998
1774790037858545700,7.739545654296875,-0.27611109614372253,0.11728613078594208,0.31031954288482666
1774790037868616400,7.749616455078125,-0.24678955972194672,0.07696902006864548,0.1258382350206375
1774790037878687200,7.759687255859375,-0.2638937830924988,0.04642575979232788,-0.028099801391363144
1774790037888788500,7.76978857421875,-0.3188716471195221,0.024434609338641167,-0.09773843735456467
1774790037898859300,7.779859375,-0.3787364661693573,0.009773843921720982,-0.08674286305904388
1774790037908930000,7.789929931640625,-0.4178318381309509,0.00855211354792118,-0.05375614017248154
1774790037919000800,7.800000732421875,-0.42149701714515686,-0.004886921960860491,-0.042760565876960754
1774790037949244000,7.830243896484375,-0.3176499307155609,-0.05497787147760391,-0.07208210229873657
1774790037959284000,7.840283935546875,-0.2932153046131134,-0.06352998316287994,-0.03176499158143997
1774790037969354800,7.850354736328125,-0.26633724570274353,-0.04886921867728233,0.03298672288656235
1774790037979395000,7.86039501953125,-0.2272418737411499,-0.025656340643763542,0.09040805697441101
1774790037989496600,7.87049658203125,-0.18448130786418915,-0.00366519158706069,0.12339477986097336
1774790037999536600,7.88053662109375,-0.14416420459747314,0.021991148591041565,0.11850785464048386
1774790038009607700,7.890607666015625,-0.10262536257505417,0.03787364438176155,0.0806342139840126
1774790038019678500,7.900678466796875,-0.05864306539297104,0.05497787147760391,0.02932153269648552
1774790038069971500,7.950971435546875,0.12339477986097336,0.0806342139840126,0.06108652427792549
1774790038080011500,7.961011474609375,0.1563815027475357,0.08796459436416626,0.08185594528913498
1774790038090082300,7.971082275390625,0.17837265133857727,0.08796459436416626,0.05497787147760391
1774790038100153300,7.9811533203125,0.18936823308467865,0.09040805697441101,0.006108652334660292
1774790038110224100,7.99122412109375,0.19792033731937408,0.09285151958465576,-0.025656340643763542
1774790038120203300,8.001203369140624,0.2028072625398636,0.08429940044879913,-0.009773843921720982
1774790038130274000,8.011274169921874,0.18936823308467865,0.07941248267889023,0.039095375686883926
1774790038150415600,8.03141552734375,0.15271630883216858,0.07330382615327835,0.1771509200334549
1774790038170496300,8.051496337890624,0.18325957655906677,0.10018189996480942,0.2431243658065796
1774790038190607400,8.071607421875,0.21502456068992615,0.09285151958465576,0.10018189996480942
1774790038200647700,8.081647705078124,0.21624629199504852,0.08307767659425735,-0.02321287989616394
1774790038210749000,8.0917490234375,0.21380282938480377,0.0708603709936142,-0.13316862285137177
1774790038220789200,8.101789306640624,0.21380282938480377,0.07208210229873657,-0.1918116807937622
1774790038230860000,8.111860107421874,0.21502456068992615,0.0806342139840126,-0.19425514340400696
1774790038250971100,8.13197119140625,0.2272418737411499,0.11484266817569733,-0.004886921960860491
1774790038261011500,8.142011474609374,0.2382374405860901,0.13927727937698364,0.15515977144241333
1774790038271082200,8.152082275390624,0.25045475363731384,0.17104226350784302,0.2822197377681732
1774790038291162600,8.17216259765625,0.35674530267715454,0.2382374405860901,0.27488934993743896
1774790038301203000,8.182202880859375,0.4996877610683441,0.24678955972194672,0.1368338167667389
1774790038311243300,8.1922431640625,0.6670648455619812,0.2015855312347412,-0.036651913076639175
1774790038321283600,8.20228369140625,0.7843509912490845,0.11728613078594208,-0.19303341209888458
1774790038331384800,8.212384765625,0.817337691783905,0.025656340643763542,-0.3176499307155609
1774790038351526400,8.2325263671875,0.7929030656814575,-0.0659734457731247,-0.4434881806373596
1774790038371637500,8.252637451171875,0.7782423496246338,-0.03176499158143997,-0.2932153046131134
1774790038381677800,8.262677734375,0.7391469478607178,-0.00855211354792118,-0.11728613078594208
1774790038391748600,8.27274853515625,0.6878342628479004,-0.006108652334660292,0.08552113175392151
1774790038401758500,8.282758544921874,0.6475171446800232,-0.0024434609804302454,0.26145032048225403
1774790038411859700,8.292859619140625,0.6401867866516113,-0.00733038317412138,0.35063666105270386
1774790038421930500,8.302930419921875,0.66584312915802,-0.02687807008624077,0.32986724376678467
1774790038432001300,8.313001220703125,0.7073819637298584,-0.05742133408784866,0.21991148591041565
1774790038442041600,8.32304150390625,0.7476990818977356,-0.08307767659425735,0.059864792972803116
1774790038462183200,8.34318310546875,0.7745771408081055,-0.1319468915462494,-0.22113321721553802
1774790038472284700,8.35328466796875,0.7538077235221863,-0.1258382350206375,-0.3066543638706207
1774790038482324700,8.36332470703125,0.7195992469787598,-0.10995574295520782,-0.3335324227809906
1774790038492426200,8.37342626953125,0.6670648455619812,-0.08674286305904388,-0.3176499307155609
1774790038502466600,8.383466552734374,0.607200026512146,-0.0708603709936142,-0.27977627515792847
1774790038512567800,8.39356787109375,0.5485569834709167,-0.05742133408784866,-0.2272418737411499
1774790038522638600,8.403638671875,0.504574716091156,-0.04398229718208313,-0.16371189057826996
1774790038532739800,8.41373974609375,0.4740314185619354,-0.02687807008624077,-0.10995574295520782
1774790038542780200,8.4237802734375,0.455705463886261,-0.009773843921720982,-0.08185594528913498
1774790038572992500,8.453992431640625,0.37629300355911255,0.018325956538319588,-0.09040805697441101
1774790038583032800,8.46403271484375,0.33719760179519653,0.030543262138962746,-0.08796459436416626
1774790038593134000,8.474134033203125,0.2993239760398865,0.039095375686883926,-0.059864792972803116
1774790038603174400,8.48417431640625,0.2687807083129883,0.05497787147760391,-0.01710422709584236
1774790038613275600,8.494275634765625,0.24068090319633484,0.06963863968849182,0.0403171069920063
1774790038623316000,8.50431591796875,0.20891591906547546,0.0806342139840126,0.08429940044879913
1774790038633386800,8.51438671875,0.17104226350784302,0.08796459436416626,0.10873401165008545
1774790038643427000,8.524427001953125,0.14294247329235077,0.09285151958465576,0.11850785464048386
1774790038673609000,8.55460888671875,0.1062905490398407,0.05375614017248154,0.042760565876960754
1774790038683649300,8.564649169921875,0.09407325088977814,0.030543262138962746,0.00366519158706069
1774790038693720000,8.574719970703125,0.07452555745840073,-0.004886921960860491,-0.03298672288656235
1774790038703790800,8.584790771484375,0.04764748737215996,-0.04642575979232788,-0.06230825558304787
1774790038723902000,8.60490185546875,0.004886921960860491,-0.11239920556545258,-0.04886921867728233
1774790038734003200,8.615003173828125,-0.01710422709584236,-0.12339477986097336,-0.0659734457731247
1774790038744043500,8.62504345703125,-0.05253441259264946,-0.1270599663257599,-0.11484266817569733
1774790038774256000,8.655256103515624,-0.17104226350784302,-0.11728613078594208,-0.19547687470912933
1774790038784327000,8.665326904296874,-0.2064724564552307,-0.11728613078594208,-0.15882496535778046
1774790038794367000,8.675366943359375,-0.24190263450145721,-0.10995574295520782,-0.1111774742603302
1774790038804407300,8.6854072265625,-0.2675589919090271,-0.09529497474431992,-0.051312681287527084
1774790038814478000,8.69547802734375,-0.2736676335334778,-0.0806342139840126,0.02076941914856434
1774790038824518400,8.705518310546875,-0.26633724570274353,-0.07696902006864548,0.08674286305904388
1774790038834589200,8.715589111328125,-0.26022860407829285,-0.07819075137376785,0.11362093687057495
1774790038844629500,8.72562939453125,-0.26633724570274353,-0.09285151958465576,0.10995574295520782
1774790038864740600,8.74574072265625,-0.2834414839744568,-0.11239920556545258,0.1014036312699318
1774790038884851700,8.765851806640624,-0.3494149148464203,-0.15393804013729095,0.15760323405265808
1774790038894922500,8.775922607421874,-0.38728857040405273,-0.16249015927314758,0.20402899384498596
1774790038904962800,8.785962890625,-0.4141666293144226,-0.16004669666290283,0.23457226157188416
1774790038915033600,8.79603369140625,-0.42149701714515686,-0.12828169763088226,0.21991148591041565
1774790038935175200,8.816175048828125,-0.31520646810531616,-0.045204028487205505,0.05375614017248154
1774790038955316700,8.836316650390625,-0.13439035415649414,-0.13561208546161652,-0.08307767659425735
1774790038985498600,8.86649853515625,-0.16371189057826996,-0.2638937830924988,0.16982053220272064
1774790038995569400,8.8765693359375,-0.2528982162475586,-0.26145032048225403,0.10262536257505417
1774790039005609700,8.886609619140625,-0.37629300355911255,-0.24068090319633484,-0.07819075137376785
1774790039015680500,8.896680419921875,-0.5057964324951172,-0.2125810980796814,-0.30543261766433716
1774790039025751300,8.906751220703125,-0.6316346526145935,-0.17837265133857727,-0.48380526900291443
1774790039035852800,8.916852783203124,-0.7586946487426758,-0.11850785464048386,-0.5180137157440186
1774790039045892900,8.926892822265625,-0.8637634515762329,-0.028099801391363144,-0.36529740691185
1774790039055933200,8.93693310546875,-0.9126327037811279,0.0708603709936142,-0.06963863968849182
1774790039086145500,8.9671455078125,-0.7648032903671265,0.23335053026676178,0.7318165898323059
1774790039096216600,8.977216552734374,-0.6707300543785095,0.2382374405860901,0.7855727076530457
1774790039106256600,8.987256591796875,-0.5778785347938538,0.22968533635139465,0.6829473376274109
1774790039116327400,8.997327392578125,-0.49357911944389343,0.20036379992961884,0.4740314185619354
1774790039126367700,9.00736767578125,-0.43615779280662537,0.1514945775270462,0.2638937830924988
1774790039136469200,9.01746923828125,-0.41661009192466736,0.11362093687057495,0.12461651116609573
1774790039146540000,9.0275400390625,-0.42638394236564636,0.09162978827953339,0.07452555745840073
1774790039156641300,9.037641357421874,-0.4398229718208313,0.0757472887635231,0.07330382615327835
1774790039166681600,9.047681640625,-0.44593164324760437,0.059864792972803116,0.07330382615327835
1774790039186792700,9.067792724609374,-0.4447098970413208,0.00366519158706069,-0.0012217304902151227
1774790039196863500,9.077863525390624,-0.42638394236564636,-0.02321287989616394,-0.05497787147760391
1774790039206934300,9.087934326171874,-0.3897320330142975,-0.04642575979232788,-0.08429940044879913
1774790039216974600,9.097974609375,-0.34208452701568604,-0.06352998316287994,-0.09040805697441101
1774790039227015000,9.108014892578124,-0.294437050819397,-0.07696902006864548,-0.08674286305904388
1774790039237116200,9.1181162109375,-0.2626720666885376,-0.08796459436416626,-0.08307767659425735
1774790039247187000,9.12818701171875,-0.2370157092809677,-0.09651670604944229,-0.0659734457731247
1774790039257288200,9.1382880859375,-0.21135938167572021,-0.10018189996480942,-0.02932153269648552
1774790039267328500,9.14832861328125,-0.1869247704744339,-0.09407325088977814,0.006108652334660292
1774790039287439600,9.168439697265624,-0.1466076523065567,-0.07696902006864548,0.006108652334660292
1774790039297480000,9.17847998046875,-0.12339477986097336,-0.05742133408784866,-0.036651913076639175
1774790039307550700,9.18855078125,-0.09407325088977814,-0.0403171069920063,-0.09162978827953339
1774790039317621500,9.19862158203125,-0.06108652427792549,-0.024434609338641167,-0.13439035415649414
1774790039327722800,9.20872265625,-0.028099801391363144,-0.009773843921720982,-0.14538592100143433
1774790039337824000,9.218823974609375,-0.00733038317412138,0.006108652334660292,-0.11362093687057495
1774790039347864300,9.2288642578125,0.009773843921720982,0.018325956538319588,-0.051312681287527084
1774790039357935000,9.23893505859375,0.03298672288656235,0.0403171069920063,0.03298672288656235
1774790039367975400,9.248975341796875,0.06352998316287994,0.045204028487205505,0.13561208546161652
1774790039398187800,9.279187744140625,0.09773843735456467,0.03298672288656235,0.2736676335334778
1774790039408228000,9.28922802734375,0.11850785464048386,0.03298672288656235,0.2528982162475586
1774790039418268400,9.299268310546875,0.15393804013729095,0.030543262138962746,0.22357667982578278
1774790039428339200,9.309339111328125,0.18570303916931152,0.018325956538319588,0.17470745742321014
1774790039438440400,9.3194404296875,0.2015855312347412,0.0012217304902151227,0.09040805697441101
1774790039448511500,9.329511474609374,0.2174680233001709,-0.01466076634824276,-0.0024434609804302454
1774790039458582300,9.339582275390624,0.2577851414680481,-0.02321287989616394,-0.045204028487205505
1774790039468622300,9.349622314453125,0.30543261766433716,-0.0354301854968071,-0.021991148591041565
1774790039488733400,9.3697333984375,0.3481931984424591,-0.059864792972803116,0.06841690838336945
1774790039508875300,9.389875244140624,0.36529740691185,-0.07696902006864548,0.06108652427792549
1774790039518976500,9.3999765625,0.375071257352829,-0.0757472887635231,0.05619960278272629
1774790039529016800,9.410016845703124,0.36529740691185,-0.051312681287527084,0.05497787147760391
1774790039539118000,9.4201181640625,0.3433062732219696,-0.025656340643763542,0.05375614017248154
1774790039549158400,9.430158447265624,0.32131510972976685,0,0.05375614017248154
1774790039559229200,9.440229248046874,0.3237585723400116,0.04886921867728233,0.06719517707824707
1774790039569300000,9.450300048828124,0.3738495409488678,0.11239920556545258,0.09285151958465576
1774790039599573500,9.480573486328124,0.7244861721992493,0.11972958594560623,0.0659734457731247
1774790039609613600,9.490613525390625,0.7721336483955383,0.05009094998240471,-0.0012217304902151227
1774790039619684400,9.500684326171875,0.7745771408081055,0.010995574295520782,-0.09529497474431992
1774790039629724700,9.510724609375,0.759916365146637,-0.024434609338641167,-0.16371189057826996
1774790039639795500,9.52079541015625,0.7232644557952881,-0.024434609338641167,-0.20891591906547546
1774790039649866200,9.5308662109375,0.6597344875335693,0.012217304669320583,-0.22357667982578278
1774790039659937300,9.540937255859374,0.5705481171607971,0.03420845419168472,-0.16859880089759827
1774790039669977300,9.550977294921875,0.4789183437824249,0.04764748737215996,-0.02932153269648552
1774790039680017700,9.561017578125,0.4092797040939331,0.0659734457731247,0.19547687470912933
1774790039710199600,9.591199462890625,0.3494149148464203,0.036651913076639175,0.5729916095733643
1774790039720270300,9.601270263671875,0.375071257352829,0.00733038317412138,0.5363397002220154
1774790039730310700,9.611310546875,0.4105014503002167,-0.03420845419168472,0.46181413531303406
1774790039740351000,9.62135107421875,0.4398229718208313,-0.0806342139840126,0.36163222789764404
1774790039750391300,9.631391357421874,0.4434881806373596,-0.1014036312699318,0.22113321721553802
1774790039760431600,9.641431640625,0.4288274049758911,-0.11484266817569733,0.059864792972803116
1774790039770502400,9.65150244140625,0.4202753007411957,-0.1319468915462494,-0.06230825558304787
1774790039800745200,9.6817451171875,0.28955012559890747,-0.19425514340400696,-0.05864306539297104
1774790039810846500,9.691846435546875,0.2541199326515198,-0.18936823308467865,-0.02687807008624077
1774790039820917500,9.70191748046875,0.22846360504627228,-0.17837265133857727,-0.00366519158706069
1774790039830927000,9.711927001953125,0.17837265133857727,-0.1661553531885147,-0.00366519158706069
1774790039840998000,9.721997802734375,0.09529497474431992,-0.15882496535778046,-0.039095375686883926
1774790039851099100,9.73209912109375,0.0024434609804302454,-0.15027284622192383,-0.07941248267889023
1774790039861170200,9.742170166015624,-0.0806342139840126,-0.1417207419872284,-0.09529497474431992
1774790039871241000,9.752240966796874,-0.14782938361167908,-0.12828169763088226,-0.07330382615327835
1774790039921534000,9.802533935546874,-0.4190535545349121,-0.09773843735456467,0.0757472887635231
1774790039931574000,9.812573974609375,-0.45692721009254456,-0.08552113175392151,0.06352998316287994
1774790039941675500,9.822675537109374,-0.48258355259895325,-0.08674286305904388,0.051312681287527084
1774790039951715800,9.8327158203125,-0.5021312236785889,-0.0806342139840126,0.0354301854968071
1774790039961756000,9.842755859375,-0.5253441333770752,-0.09162978827953339,-0.0012217304902151227
1774790039971826700,9.85282666015625,-0.5571091175079346,-0.09896016865968704,-0.06719517707824707
1774790039981897700,9.862897705078124,-0.5839871764183044,-0.1014036312699318,-0.1368338167667389
1774790039991968500,9.872968505859374,-0.6035348773002625,-0.1062905490398407,-0.17470745742321014
1774790040022180900,9.903180908203124,-0.6572909951210022,-0.1270599663257599,-0.1270599663257599
1774790040042261200,9.92326123046875,-0.7073819637298584,-0.13805554807186127,-0.07819075137376785
1774790040052362800,9.93336279296875,-0.7183775305747986,-0.12461651116609573,-0.028099801391363144
1774790040062464000,9.943464111328124,-0.7183775305747986,-0.11239920556545258,0.02321287989616394
1774790040072534800,9.95353466796875,-0.7171558141708374,-0.09407325088977814,0.06475171446800232
1774790040082575000,9.9635751953125,-0.7134906053543091,-0.08429940044879913,0.10506882518529892
1774790040092676400,9.97367626953125,-0.7086036801338196,-0.07452555745840073,0.12950342893600464
1774790040112818000,9.99381787109375,-0.6914994716644287,-0.07208210229873657,0.12095131725072861
1774790040122858200,10.003858154296875,-0.6805039048194885,-0.07452555745840073,0.1160643994808197
1774790040132929000,10.013928955078125,-0.6646214127540588,-0.07941248267889023,0.12950342893600464
1774790040173181700,10.054181640625,-0.7367035150527954,-0.19914206862449646,0.2125810980796814
1774790040183252500,10.06425244140625,-0.7574729323387146,-0.2015855312347412,0.2223549485206604
1774790040213404000,10.09440380859375,-0.6731734871864319,-0.11484266817569733,0.10262536257505417
1774790040233576200,10.114576171875,-0.4544837474822998,-0.2321287989616394,0.036651913076639175
1774790040243585800,10.124585693359375,-0.43737950921058655,-0.33108896017074585,0.09773843735456467
1774790040253626000,10.134626220703124,-0.5082398653030396,-0.41661009192466736,0.17959438264369965
1774790040263697000,10.14469677734375,-0.6035348773002625,-0.47280970215797424,0.19914206862449646
1774790040273737200,10.1547373046875,-0.6670648455619812,-0.48869219422340393,0.12828169763088226
1774790040283808000,10.16480810546875,-0.7244861721992493,-0.4764748811721802,0.00366519158706069
1774790040293848300,10.174848388671874,-0.8087855577468872,-0.4447098970413208,-0.09896016865968704
1774790040303888600,10.184888671875,-0.9236282706260681,-0.3897320330142975,-0.12339477986097336
1774790040334131500,10.21513134765625,-1.0103710889816284,-0.14538592100143433,0.1160643994808197
1774790040344202200,10.2252021484375,-0.9199630618095398,-0.11728613078594208,0.21013765037059784
1774790040354242600,10.23524267578125,-0.9199630618095398,-0.11728613078594208,0.21013765037059784
1774790040364283000,10.245282958984374,-0.8332201838493347,-0.11362093687057495,0.2968805134296417
1774790040374353700,10.255353759765624,-0.7550294399261475,-0.12950342893600464,0.38117989897727966
1774790040384394000,10.26539404296875,-0.6817256212234497,-0.13439035415649414,0.4056145250797272
1774790040394434300,10.275434326171874,-0.616973876953125,-0.14782938361167908,0.3237585723400116
1774790040404474600,10.285474609375,-0.5705481171607971,-0.1514945775270462,0.19425514340400696
1774790040444788200,10.325788330078124,-0.5180137157440186,-0.09896016865968704,-0.013439035043120384
1774790040454859000,10.33585888671875,-0.50335294008255,-0.10262536257505417,-0.0806342139840126
1774790040464960300,10.345960205078125,-0.4862487316131592,-0.10995574295520782,-0.19058994948863983
1774790040475000600,10.35600048828125,-0.46181413531303406,-0.11728613078594208,-0.2834414839744568
1774790040495111700,10.376111572265625,-0.39706242084503174,-0.08918632566928864,-0.2834414839744568
1774790040505182500,10.386182373046875,-0.3677408695220947,-0.06352998316287994,-0.24678955972194672
1774790040515222800,10.396222900390624,-0.3335324227809906,-0.028099801391363144,-0.21624629199504852
1774790040545435100,10.42643505859375,-0.2015855312347412,0.04764748737215996,-0.15882496535778046
1774790040555475500,10.436475341796875,-0.18081611394882202,0.05742133408784866,-0.1466076523065567
1774790040565546200,10.446546142578125,-0.15515977144241333,0.08307767659425735,-0.15271630883216858
1774790040575586600,10.456586669921874,-0.10995574295520782,0.11972958594560623,-0.17104226350784302
1774790040585657300,10.4666572265625,-0.04398229718208313,0.15027284622192383,-0.17837265133857727
1774790040595697700,10.47669775390625,0.019547687843441963,0.1661553531885147,-0.16371189057826996
1774790040605799000,10.486798828125,0.06108652427792549,0.18448130786418915,-0.15760323405265808
1774790040615839200,10.496839111328125,0.0806342139840126,0.1869247704744339,-0.16859880089759827
1774790040666132200,10.54713232421875,0.18936823308467865,0.23335053026676178,-0.04153883829712868
1774790040676203000,10.557203125,0.20036379992961884,0.2382374405860901,-0.024434609338641167
1774790040686304300,10.56730419921875,0.2076941877603531,0.2382374405860901,-0.02076941914856434
1774790040696375000,10.577375,0.21380282938480377,0.23457226157188416,-0.01466076634824276
1774790040706415400,10.587415283203125,0.22479841113090515,0.2382374405860901,0.006108652334660292
1774790040716486100,10.597486083984375,0.2370157092809677,0.23579397797584534,0.03298672288656235
1774790040726587600,10.607587646484374,0.2528982162475586,0.2321287989616394,0.05497787147760391
1774790040756738800,10.63773876953125,0.2968805134296417,0.22602014243602753,0.010995574295520782
1774790040776880600,10.657880615234374,0.3225368559360504,0.24678955972194672,-0.03420845419168472
1774790040786982000,10.66798193359375,0.34697145223617554,0.26145032048225403,-0.03176499158143997
1774790040797052700,10.678052734375,0.3640756905078888,0.27488934993743896,-0.01710422709584236
1774790040807093000,10.688093017578124,0.375071257352829,0.27977627515792847,0.01466076634824276
1774790040817163800,10.698163818359374,0.38240164518356323,0.28099802136421204,0.06841690838336945
1774790040827234600,10.708234619140624,0.39584067463874817,0.2932153046131134,0.13316862285137177
1774790040857447000,10.738447021484374,0.6352998614311218,0.39584067463874817,0.17348572611808777
1774790040877588500,10.75858837890625,0.9077457785606384,0.3530801236629486,-0.09896016865968704
1774790040887689700,10.768689697265625,0.9737191796302795,0.2883284091949463,-0.24923302233219147
1774790040897760500,10.778760498046875,0.9871582388877869,0.2321287989616394,-0.3579670190811157
1774790040907831600,10.78883154296875,0.9627236127853394,0.18936823308467865,-0.38117989897727966
1774790040917871600,10.79887158203125,0.9065240025520325,0.17470745742321014,-0.3127630054950714
1774790040927973000,10.80897314453125,0.836885392665863,0.18448130786418915,-0.1612684279680252
1774790040938013400,10.819013427734374,0.7721336483955383,0.2064724564552307,0.05619960278272629
1774790040968225800,10.849225830078124,0.5571091175079346,0.19425514340400696,0.5766568183898926
1774790040978296600,10.859296630859374,0.5070181488990784,0.1612684279680252,0.5766568183898926
1774790040988397800,10.869397705078125,0.5057964324951172,0.12339477986097336,0.49724429845809937
1774790040998438100,10.879438232421874,0.5412266254425049,0.08185594528913498,0.3579670190811157
1774790041008509000,10.889509033203124,0.5754350423812866,0.021991148591041565,0.18814650177955627
1774790041018549200,10.89954931640625,0.5864306092262268,-0.03176499158143997,0.010995574295520782
1774790041028620000,10.9096201171875,0.5754350423812866,-0.07330382615327835,-0.1368338167667389
1774790041038690800,10.91969091796875,0.5558874011039734,-0.09285151958465576,-0.22113321721553802
1774790041048792000,10.9297919921875,0.5387831330299377,-0.10262536257505417,-0.22602014243602753
1774790041058862800,10.93986279296875,0.5229006409645081,-0.10384709388017654,-0.1771509200334549
1774790041089075500,10.970075439453124,0.3982841372489929,-0.0708603709936142,-0.024434609338641167
1774790041129297400,11.01029736328125,0.21135938167572021,-0.04642575979232788,-0.2174680233001709
1774790041139368200,11.0203681640625,0.14905111491680145,-0.0354301854968071,-0.25045475363731384
1774790041149439200,11.030439208984374,0.08674286305904388,-0.03298672288656235,-0.25534167885780334
1774790041159479300,11.040479248046875,0.03176499158143997,-0.019547687843441963,-0.25534167885780334
1774790041169550000,11.050550048828125,-0.015882495790719986,0.0024434609804302454,-0.26145032048225403
1774790041179620900,11.060620849609375,-0.059864792972803116,0.02076941914856434,-0.26145032048225403
1774790041189692000,11.07069189453125,-0.10262536257505417,0.03298672288656235,-0.24678955972194672
1774790041199732000,11.08073193359375,-0.14538592100143433,0.03420845419168472,-0.20891591906547546
1774790041209802800,11.090802734375,-0.18325957655906677,0.02687807008624077,-0.14416420459747314
1774790041219873800,11.100873779296874,-0.21502456068992615,0.013439035043120384,-0.06352998316287994
1774790041240015400,11.121015380859374,-0.24556782841682434,-0.010995574295520782,0.08429940044879913
1774790041270197200,11.151197265625,-0.23090706765651703,-0.07696902006864548,-0.03787364438176155
1774790041280237600,11.161237548828124,-0.2321287989616394,-0.11850785464048386,-0.13439035415649414
1774790041290308400,11.171308349609374,-0.2382374405860901,-0.1514945775270462,-0.1820378452539444
1774790041300348400,11.181348388671875,-0.2541199326515198,-0.17959438264369965,-0.1661553531885147
1774790041310419500,11.19141943359375,-0.28466320037841797,-0.2028072625398636,-0.11484266817569733
1774790041320490200,11.201490234375,-0.31031954288482666,-0.20402899384498596,-0.06352998316287994
1774790041330561000,11.21156103515625,-0.31642818450927734,-0.19425514340400696,-0.0354301854968071
1774790041340631800,11.2216318359375,-0.3066543638706207,-0.18325957655906677,-0.04642575979232788
1774790041350733000,11.231733154296874,-0.30054569244384766,-0.17592918872833252,-0.08918632566928864
1774790041390955300,11.271955322265624,-0.24556782841682434,-0.1612684279680252,-0.08185594528913498
1774790041411096800,11.292096923828124,-0.2382374405860901,-0.1820378452539444,-0.010995574295520782
1774790041421137200,11.30213720703125,-0.24068090319633484,-0.19547687470912933,-0.00366519158706069
1774790041441217800,11.3222177734375,-0.2773328125476837,-0.2370157092809677,-0.004886921960860491
1774790041451319000,11.332319091796874,-0.3225368559360504,-0.2541199326515198,-0.00366519158706069
1774790041461389800,11.342389892578124,-0.37751471996307373,-0.26145032048225403,-0.004886921960860491
1774790041481470500,11.362470458984374,-0.44837507605552673,-0.2015855312347412,-0.039095375686883926
1774790041491571700,11.37257177734375,-0.42760565876960754,-0.14294247329235077,-0.07330382615327835
1774790041511682800,11.392682861328124,-0.24556782841682434,-0.05497787147760391,-0.16249015927314758
1774790041531824400,11.412824462890624,-0.15393804013729095,-0.12461651116609573,-0.019547687843441963
1774790041541895200,11.422895263671874,-0.2272418737411499,-0.16493362188339233,0.12095131725072861
1774790041551966000,11.432966064453124,-0.3139847218990326,-0.18081611394882202,0.24923302233219147
1774790041562006300,11.44300634765625,-0.37751471996307373,-0.16737708449363708,0.32131510972976685
1774790041622492200,11.5034921875,-0.7195992469787598,0.10384709388017654,0.22602014243602753
1774790041632532500,11.513532470703124,-0.675616979598999,0.12828169763088226,0.3494149148464203
1774790041642542000,11.5235419921875,-0.6023131608963013,0.1319468915462494,0.4337143301963806
1774790041662714400,11.54371435546875,-0.4862487316131592,0.10751228034496307,0.294437050819397
1774790041672815600,11.553815673828124,-0.46792277693748474,0.09040805697441101,0.11850785464048386
1774790041692926700,11.5739267578125,-0.47769662737846375,0.06475171446800232,-0.09162978827953339
1774790041702967000,11.583967041015624,-0.5094616413116455,0.07696902006864548,-0.08796459436416626
1774790041713037800,11.594037841796874,-0.5595525503158569,0.08796459436416626,-0.05742133408784866
1774790041723047400,11.60404736328125,-0.6206390857696533,0.08796459436416626,-0.05375614017248154
1774790041733149000,11.61414892578125,-0.6670648455619812,0.08552113175392151,-0.08918632566928864
1774790041743219700,11.6242197265625,-0.6805039048194885,0.08307767659425735,-0.1319468915462494
1774790041753321000,11.634321044921874,-0.6609562039375305,0.0806342139840126,-0.1514945775270462
1774790041763300000,11.644300048828125,-0.6243042945861816,0.08552113175392151,-0.13439035415649414
1774790041813654300,11.694654296875,-0.4080579876899719,0.08307767659425735,-0.021991148591041565
1774790041823694600,11.704694580078124,-0.3701843321323395,0.09162978827953339,-0.05253441259264946
1774790041833795800,11.7147958984375,-0.3237585723400116,0.09773843735456467,-0.0659734457731247
1774790041843805400,11.724805419921875,-0.27122417092323303,0.10384709388017654,-0.05742133408784866
1774790041853907000,11.734906982421874,-0.27122417092323303,0.10384709388017654,-0.05742133408784866
1774790041863977700,11.744977783203124,-0.21991148591041565,0.11728613078594208,-0.04398229718208313
1774790041874079000,11.755078857421875,-0.17104226350784302,0.12217304855585098,-0.059864792972803116
1774790041894220500,11.775220458984375,-0.08552113175392151,0.11850785464048386,-0.15271630883216858
1774790041904291300,11.785291259765625,-0.04398229718208313,0.11362093687057495,-0.16249015927314758
1774790041914362000,11.795362060546875,-0.004886921960860491,0.1258382350206375,-0.11850785464048386
1774790041924402400,11.80540234375,0.02076941914856434,0.13439035415649414,-0.03298672288656235
1774790041934473200,11.81547314453125,0.03420845419168472,0.1417207419872284,0.06352998316287994
1774790041944544000,11.8255439453125,0.042760565876960754,0.15515977144241333,0.23335053026676178
1774790041954614800,11.83561474609375,0.042760565876960754,0.15515977144241333,0.23335053026676178
1774790041964655000,11.845655029296875,0.05009094998240471,0.15393804013729095,0.2736676335334778
1774790041974756600,11.855756591796874,0.05864306539297104,0.16004669666290283,0.2565633952617645
1774790041984827400,11.865827392578124,0.06230825558304787,0.15882496535778046,0.17837265133857727
1774790041994928600,11.8759287109375,0.06841690838336945,0.1417207419872284,0.07452555745840073
1774790042004999400,11.88599951171875,0.0806342139840126,0.1270599663257599,-0.01466076634824276
1774790042015070200,11.8960703125,0.10018189996480942,0.12461651116609573,-0.0806342139840126
1774790042025141000,11.90614111328125,0.11362093687057495,0.12461651116609573,-0.13561208546161652
1774790042045313000,11.92631298828125,0.13805554807186127,0.1514945775270462,-0.18814650177955627
1774790042055383800,11.9363837890625,0.15515977144241333,0.1722639948129654,-0.14294247329235077
1774790042065424100,11.946424072265625,0.16859880089759827,0.19303341209888458,-0.039095375686883926
1774790042156061400,12.0370615234375,0.8063421249389648,0.16249015927314758,-0.3885102868080139
1774790042176203000,12.057203125,0.8344419002532959,0.03420845419168472,-0.6352998614311218
1774790042196314000,12.077314208984374,0.797789990901947,0.0354301854968071,-0.4740314185619354
1774790042206354400,12.0873544921875,0.7660250067710876,0.06475171446800232,-0.27488934993743896
1774790042216455700,12.09745556640625,0.7122688889503479,0.09285151958465576,-0.030543262138962746
1774790042226526500,12.1075263671875,0.6475171446800232,0.10995574295520782,0.1966986060142517
1774790042236627700,12.117627685546875,0.5998696684837341,0.1111774742603302,0.33719760179519653
1774790042246698800,12.12769873046875,0.5864306092262268,0.09773843735456467,0.35674530267715454
1774790042256769500,12.13776953125,0.6023131608963013,0.06352998316287994,0.2590068578720093
1774790042266840300,12.14784033203125,0.6377432942390442,0.028099801391363144,0.07696902006864548
1774790042276880400,12.15788037109375,0.685390830039978,-0.01710422709584236,-0.11728613078594208
1774790042286920700,12.167920654296875,0.7342600226402283,-0.06475171446800232,-0.2736676335334778
1774790042327234600,12.208234619140624,0.7110471725463867,-0.1014036312699318,-0.21624629199504852
1774790042337305300,12.218305419921874,0.6805039048194885,-0.09285151958465576,-0.13805554807186127
1774790042347376000,12.228376220703124,0.6389650702476501,-0.08796459436416626,-0.10995574295520782
1774790042357477400,12.238477294921875,0.5852088928222656,-0.08307767659425735,-0.14294247329235077
1774790042367548200,12.248548095703125,0.5326744914054871,-0.07696902006864548,-0.19792033731937408
1774790042377619000,12.258618896484375,0.48869219422340393,-0.07819075137376785,-0.21868975460529327
1774790042387659300,12.2686591796875,0.4434881806373596,-0.0806342139840126,-0.19425514340400696
1774790042427881500,12.308881591796874,0.2028072625398636,-0.07941248267889023,0.1612684279680252
1774790042447992600,12.32899267578125,0.12217304855585098,-0.04886921867728233,0.24678955972194672
1774790042458063400,12.3390634765625,0.07208210229873657,-0.03420845419168472,0.18814650177955627
1774790042468103700,12.349103759765624,0.025656340643763542,-0.010995574295520782,0.10262536257505417
1774790042478174500,12.359174560546874,0,0.018325956538319588,0.028099801391363144
1774790042488214800,12.36921484375,-0.01466076634824276,0.04398229718208313,-0.013439035043120384
1774790042528467500,12.409467529296874,-0.06108652427792549,0.06963863968849182,-0.07941248267889023
1774790042538538200,12.419538330078124,-0.08307767659425735,0.0659734457731247,-0.07330382615327835
1774790042548578600,12.42957861328125,-0.08429940044879913,0.0708603709936142,0.010995574295520782
1774790042558649300,12.4396494140625,-0.07696902006864548,0.0757472887635231,0.14905111491680145
1774790042568689700,12.449689697265624,-0.08796459436416626,0.08552113175392151,0.25045475363731384
1774790042578730000,12.45972998046875,-0.1258382350206375,0.10262536257505417,0.2638937830924988
1774790042588800800,12.46980078125,-0.1661553531885147,0.11362093687057495,0.18814650177955627
1774790042598902000,12.479902099609374,-0.18936823308467865,0.1160643994808197,0.06841690838336945
1774790042639185200,12.52018505859375,-0.2883284091949463,0.09162978827953339,-0.13561208546161652
1774790042649225500,12.5302255859375,-0.27488934993743896,0.09407325088977814,-0.025656340643763542
1774790042659326700,12.54032666015625,-0.2370157092809677,0.08918632566928864,0.13561208546161652
1774790042669367000,12.550366943359375,-0.21502456068992615,0.0659734457731247,0.28466320037841797
1774790042679437800,12.560437744140625,-0.2223549485206604,0.03420845419168472,0.36529740691185
1774790042699488000,12.580488037109374,-0.24678955972194672,-0.030543262138962746,0.34208452701568604
1774790042709558800,12.590558837890624,-0.2480112910270691,-0.0403171069920063,0.2724458873271942
1774790042769892000,12.65089208984375,0.036651913076639175,-0.16249015927314758,-0.26633724570274353
1774790042830194700,12.711194580078125,-0.5742133259773254,-0.08918632566928864,-0.0806342139840126
1774790042850336300,12.731336181640625,-0.720820963382721,-0.015882495790719986,-0.11850785464048386
1774790042880579300,12.761579345703124,-0.6682865619659424,0.05009094998240471,0.15515977144241333
1774790042940821000,12.821821044921874,-0.4911356568336487,-0.00855211354792118,-0.07819075137376785
1774790043011194400,12.8921943359375,-0.4031710624694824,-0.025656340643763542,-0.21502456068992615
1774790043041407000,12.922406982421874,-0.28588494658470154,0.006108652334660292,-0.07452555745840073
1774790043051386000,12.93238623046875,-0.2480112910270691,0.018325956538319588,-0.03298672288656235
1774790043061487400,12.9424873046875,-0.2015855312347412,0.03176499158143997,-0.0024434609804302454
1774790043071527700,12.952527587890625,-0.1514945775270462,0.03298672288656235,0.021991148591041565
1774790043081568000,12.962568115234374,-0.12217304855585098,0.025656340643763542,0.02321287989616394
1774790043091638800,12.972638671875,-0.10995574295520782,0.01466076634824276,-0.004886921960860491
1774790043101740000,12.982739990234375,-0.08918632566928864,0.004886921960860491,-0.039095375686883926
1774790043141962200,13.022962158203125,0.09529497474431992,0.042760565876960754,-0.042760565876960754
1774790043182215000,13.06321484375,0.17837265133857727,0.06475171446800232,0.2125810980796814
1774790043222528800,13.10352880859375,0.2321287989616394,0.06352998316287994,0.32498031854629517
1774790043232569000,13.113569091796874,0.24068090319633484,0.06352998316287994,0.26633724570274353
1774790043252710700,13.133710693359374,0.24556782841682434,0.07696902006864548,0.09040805697441101
1774790043323206100,13.2042060546875,0.2968805134296417,0.20036379992961884,0.3066543638706207
1774790043353479700,13.234479736328124,0.5522221922874451,0.34574973583221436,0.36651915311813354
1774790043363520000,13.24452001953125,0.5522221922874451,0.34574973583221436,0.36651915311813354
1774790043373621200,13.254621337890624,0.6988298296928406,0.30054569244384766,0.20402899384498596
1774790043383722500,13.264722412109375,0.7855727076530457,0.21502456068992615,0.013439035043120384
1774790043393793300,13.274793212890625,0.799011766910553,0.13439035415649414,-0.17959438264369965
1774790043403833600,13.28483349609375,0.788016140460968,0.07452555745840073,-0.32620203495025635
1774790043413934800,13.294934814453125,0.7733554244041443,0.05375614017248154,-0.37751471996307373
1774790043454218200,13.33521826171875,0.5619960427284241,0.1062905490398407,0.059864792972803116
1774790043464258600,13.345258544921874,0.504574716091156,0.10751228034496307,0.17837265133857727
1774790043474298600,13.355298583984375,0.48869219422340393,0.11484266817569733,0.304210901260376
1774790043484308500,13.36530859375,0.5204572081565857,0.10995574295520782,0.40194934606552124
1774790043494379300,13.375379150390625,0.5852088928222656,0.08307767659425735,0.4337143301963806
1774790043504450000,13.385449951171875,0.6548475623130798,0.0403171069920063,0.3897320330142975
1774790043514460000,13.3954599609375,0.7049384713172913,-0.006108652334660292,0.2736676335334778
1774790043524530700,13.40553076171875,0.7342600226402283,-0.05619960278272629,0.1111774742603302
1774790043544733200,13.425733154296875,0.7513642311096191,-0.11728613078594208,-0.18448130786418915
1774790043554804200,13.43580419921875,0.7391469478607178,-0.12950342893600464,-0.2480112910270691
1774790043574976300,13.455976318359374,0.6633996367454529,-0.13439035415649414,-0.18936823308467865
1774790043585077500,13.466077392578125,0.6120869517326355,-0.13561208546161652,-0.11362093687057495
1774790043595148300,13.476148193359375,0.5619960427284241,-0.13316862285137177,-0.05253441259264946
1774790043605158100,13.486158203125,0.5155702829360962,-0.13439035415649414,-0.02321287989616394
1774790043615229000,13.49622900390625,0.47769662737846375,-0.13316862285137177,-0.025656340643763542
1774790043625330200,13.506330078125,0.44226643443107605,-0.12828169763088226,-0.04153883829712868
1774790043655481600,13.536481689453124,0.2773328125476837,-0.11239920556545258,-0.15027284622192383
1774790043675592700,13.5565927734375,0.16371189057826996,-0.06108652427792549,-0.1722639948129654
1774790043685633000,13.566633056640624,0.12461651116609573,-0.02321287989616394,-0.1417207419872284
1774790043695734300,13.576734375,0.09162978827953339,0.006108652334660292,-0.09162978827953339
1774790043705774600,13.586774658203124,0.05864306539297104,0.021991148591041565,-0.03420845419168472
1774790043715845400,13.596845458984374,0.025656340643763542,0.039095375686883926,0.013439035043120384
1774790043725885700,13.6068857421875,-0.009773843921720982,0.05375614017248154,0.03298672288656235
1774790043735956500,13.61695654296875,-0.036651913076639175,0.05619960278272629,0.030543262138962746
1774790043756037000,13.637037109375,-0.051312681287527084,0.05009094998240471,0.0403171069920063
1774790043766138400,13.647138427734374,-0.06352998316287994,0.0354301854968071,0.05497787147760391
1774790043776209200,13.657209228515624,-0.0757472887635231,0.02321287989616394,0.0708603709936142
1774790043786249500,13.66724951171875,-0.08429940044879913,0.0024434609804302454,0.08796459436416626
1774790043796320300,13.6773203125,-0.10018189996480942,-0.02076941914856434,0.09407325088977814
1774790043806360600,13.687360595703124,-0.12828169763088226,-0.039095375686883926,0.07696902006864548
1774790043816431400,13.697431396484374,-0.16004669666290283,-0.051312681287527084,0.04642575979232788
1774790043826502100,13.707502197265624,-0.18448130786418915,-0.05619960278272629,0.012217304669320583
1774790043836542500,13.71754248046875,-0.2064724564552307,-0.06841690838336945,-0.02321287989616394
1774790043856684000,13.73768408203125,-0.22113321721553802,-0.0806342139840126,-0.05375614017248154
1774790043876795100,13.757795166015624,-0.22968533635139465,-0.12461651116609573,0.019547687843441963
1774790043886835500,13.76783544921875,-0.24068090319633484,-0.14416420459747314,0.07452555745840073
1774790043896906200,13.77790625,-0.2382374405860901,-0.16004669666290283,0.12339477986097336
1774790043906977000,13.78797705078125,-0.2272418737411499,-0.17837265133857727,0.14294247329235077
1774790043916986600,13.797986572265625,-0.22357667982578278,-0.1966986060142517,0.10506882518529892
1774790043927057400,13.808057373046875,-0.23457226157188416,-0.21624629199504852,0.024434609338641167
1774790043937097700,13.81809765625,-0.24678955972194672,-0.2382374405860901,-0.05009094998240471
1774790043977320000,13.85831982421875,-0.32620203495025635,-0.1612684279680252,-0.15393804013729095
1774790043987390700,13.868390625,-0.2919935882091522,-0.09896016865968704,-0.2125810980796814
1774790043997461500,13.87846142578125,-0.21135938167572021,-0.06963863968849182,-0.2541199326515198
1774790044007532300,13.8885322265625,-0.1258382350206375,-0.08552113175392151,-0.2272418737411499
1774790044017603000,13.89860302734375,-0.11972958594560623,-0.11239920556545258,-0.1368338167667389
1774790044027704600,13.90870458984375,-0.2064724564552307,-0.1319468915462494,0.00366519158706069
1774790044037745000,13.918744873046874,-0.3176499307155609,-0.1270599663257599,0.15271630883216858
1774790044067896000,13.94889599609375,-0.5681046843528748,-0.028099801391363144,-0.05253441259264946
1774790044077936400,13.958936279296875,-0.685390830039978,0.00855211354792118,-0.24434609711170197
1774790044087976700,13.968976806640624,-0.8026769161224365,0.06719517707824707,-0.3139847218990326
1774790044098017000,13.97901708984375,-0.8869763612747192,0.14294247329235077,-0.2174680233001709
1774790044108118300,13.9891181640625,-0.9101892113685608,0.21624629199504852,-0.00733038317412138
1774790044118189000,13.99918896484375,-0.8686503767967224,0.2785545587539673,0.23579397797584534
1774790044138300200,14.019300048828125,-0.6914994716644287,0.3127630054950714,0.5705481171607971
1774790044148371000,14.029370849609375,-0.6243042945861816,0.294437050819397,0.5729916095733643
1774790044178522400,14.0595224609375,-0.5363397002220154,0.2174680233001709,0.13316862285137177
1774790044198633500,14.079633544921874,-0.5461135506629944,0.17837265133857727,0.0024434609804302454
1774790044208704300,14.089704345703124,-0.5656611919403076,0.1612684279680252,0.03298672288656235
1774790044218775000,14.099775146484374,-0.5815436840057373,0.1417207419872284,0.0659734457731247
1774790044228876300,14.109876220703125,-0.5803219676017761,0.1160643994808197,0.05864306539297104
1774790044238916600,14.11991650390625,-0.5522221922874451,0.08918632566928864,0.010995574295520782
1774790044248987400,14.1299873046875,-0.49846604466438293,0.07208210229873657,-0.059864792972803116
1774790044259027700,14.14002783203125,-0.43615779280662537,0.05742133408784866,-0.1111774742603302
1774790044289240000,14.170239990234375,-0.32131510972976685,0.02932153269648552,-0.10506882518529892
1774790044299310800,14.180310791015625,-0.2981022298336029,0.030543262138962746,-0.07941248267889023
1774790044309381600,14.190381591796875,-0.2675589919090271,0.0354301854968071,-0.05742133408784866
1774790044319452400,14.200452392578125,-0.23090706765651703,0.04398229718208313,-0.0354301854968071
1774790044329492700,14.21049267578125,-0.2028072625398636,0.04886921867728233,-0.024434609338641167
1774790044339563500,14.2205634765625,-0.1820378452539444,0.05009094998240471,-0.02321287989616394
1774790044349603800,14.230603759765625,-0.1563815027475357,0.045204028487205505,-0.03298672288656235
1774790044359644200,14.24064404296875,-0.12339477986097336,0.03787364438176155,-0.05375614017248154
1774790044379724800,14.260724853515624,-0.042760565876960754,0.028099801391363144,-0.10751228034496307
1774790044399836000,14.2808359375,0.02076941914856434,0.042760565876960754,-0.16859880089759827
1774790044409906700,14.29090673828125,0.039095375686883926,0.05253441259264946,-0.1722639948129654
1774790044419916300,14.300916259765625,0.04764748737215996,0.06719517707824707,-0.14049901068210602
1774790044430017800,14.311017822265624,0.06352998316287994,0.08185594528913498,-0.05497787147760391
1774790044440058000,14.32105810546875,0.07819075137376785,0.08918632566928864,0.06475171446800232
1774790044450098200,14.33109814453125,0.08185594528913498,0.09773843735456467,0.1722639948129654
1774790044460169000,14.3411689453125,0.07941248267889023,0.10262536257505417,0.24556782841682434
1774790044470270500,14.3512705078125,0.08307767659425735,0.10018189996480942,0.2736676335334778
1774790044490350800,14.371350830078125,0.1258382350206375,0.07696902006864548,0.16737708449363708
1774790044500422000,14.381421875,0.14782938361167908,0.06230825558304787,0.06108652427792549
1774790044510462000,14.3914619140625,0.16982053220272064,0.05253441259264946,-0.02321287989616394
1774790044520502300,14.401502197265625,0.19425514340400696,0.051312681287527084,-0.06230825558304787
1774790044530573000,14.411572998046875,0.21624629199504852,0.06475171446800232,-0.0659734457731247
1774790044540583000,14.4215830078125,0.23945917189121246,0.08552113175392151,-0.03420845419168472
1774790044550684200,14.43168408203125,0.2675589919090271,0.1062905490398407,0.039095375686883926
1774790044560755000,14.4417548828125,0.29565876722335815,0.13072516024112701,0.15027284622192383
1774790044570856400,14.4518564453125,0.3127630054950714,0.15027284622192383,0.2724458873271942
1774790044590967600,14.471967529296874,0.33108896017074585,0.19914206862449646,0.41661009192466736
1774790044601038300,14.482038330078124,0.3677408695220947,0.23090706765651703,0.4031710624694824
1774790044611139600,14.4921396484375,0.45326200127601624,0.25534167885780334,0.33719760179519653
1774790044621180000,14.502179931640624,0.5815436840057373,0.24556782841682434,0.22968533635139465
1774790044631250700,14.512250732421874,0.7037167549133301,0.19058994948863983,0.08918632566928864
1774790044641291000,14.522291015625,0.769690215587616,0.11239920556545258,-0.08307767659425735
1774790044651361800,14.53236181640625,0.7782423496246338,0.04764748737215996,-0.26511552929878235
1774790044661371400,14.542371337890625,0.7733554244041443,0.012217304669320583,-0.39706242084503174
1774790044671473000,14.552472900390624,0.7721336483955383,0.0012217304902151227,-0.42760565876960754
1774790044701654800,14.58265478515625,0.6279694437980652,0.0659734457731247,-0.08429940044879913
1774790044721826800,14.602826904296874,0.5302310585975647,0.1014036312699318,0.2932153046131134
1774790044731897600,14.612897705078124,0.5400048494338989,0.10873401165008545,0.4300491213798523
1774790044741938000,14.62293798828125,0.5400048494338989,0.10873401165008545,0.4300491213798523
1774790044752008700,14.6330087890625,0.5827654600143433,0.08918632566928864,0.4691445231437683
1774790044762018600,14.6430185546875,0.6401867866516113,-0.02932153269648552,0.22113321721553802
1774790044772089300,14.65308935546875,0.6401867866516113,-0.02932153269648552,0.22113321721553802
1774790044792200400,14.673200439453124,0.675616979598999,-0.12461651116609573,-0.006108652334660292
1774790044802210000,14.6832099609375,0.6939429044723511,-0.1368338167667389,-0.03420845419168472
1774790044812280800,14.69328076171875,0.6927211880683899,-0.14294247329235077,-0.0659734457731247
1774790044822351600,14.7033515625,0.6646214127540588,-0.16004669666290283,-0.12217304855585098
1774790044832422400,14.71342236328125,0.6218608021736145,-0.17959438264369965,-0.1918116807937622
1774790044842462700,14.723462646484375,0.588874101638794,-0.19914206862449646,-0.2431243658065796
1774790044852533500,14.733533447265625,0.5778785347938538,-0.21013765037059784,-0.27000242471694946
1774790044862573800,14.74357373046875,0.5681046843528748,-0.2125810980796814,-0.2968805134296417
1774790044872644600,14.75364453125,0.5436700582504272,-0.2028072625398636,-0.33475416898727417
1774790044902796000,14.783796142578124,0.4251621961593628,-0.14049901068210602,-0.34574973583221436
1774790044912836400,14.79383642578125,0.38240164518356323,-0.11850785464048386,-0.2638937830924988
1774790044922907100,14.8039072265625,0.33597588539123535,-0.09162978827953339,-0.16982053220272064
1774790044932978000,14.81397802734375,0.28466320037841797,-0.0708603709936142,-0.09529497474431992
1774790044942987800,14.82398779296875,0.2370157092809677,-0.05497787147760391,-0.04764748737215996
1774790044953089000,14.834089111328124,0.19547687470912933,-0.039095375686883926,-0.02321287989616394
1774790044963099000,14.844098876953124,0.16493362188339233,-0.025656340643763542,-0.01710422709584236
1774790044973169700,14.854169677734374,0.14049901068210602,-0.009773843921720982,-0.02076941914856434
1774790044983240400,14.864240478515624,0.11728613078594208,0.0024434609804302454,-0.02076941914856434
1774790045003351600,14.8843515625,0.04398229718208313,0.00366519158706069,-0.03787364438176155
1774790045013422300,14.89442236328125,0.0012217304902151227,0.00733038317412138,-0.06108652427792549
1774790045023462700,14.904462646484374,-0.025656340643763542,0.01466076634824276,-0.07208210229873657
1774790045033564000,14.91456396484375,-0.0403171069920063,0.009773843921720982,-0.06963863968849182
1774790045043604200,14.924604248046874,-0.059864792972803116,-0.0024434609804302454,-0.06352998316287994
1774790045053705500,14.93470556640625,-0.09773843735456467,-0.02321287989616394,-0.059864792972803116
1774790045063745800,14.944745849609374,-0.15027284622192383,-0.05375614017248154,-0.042760565876960754
1774790045073816600,14.954816650390624,-0.2064724564552307,-0.0708603709936142,0.0012217304902151227
1774790045083887400,14.964887451171874,-0.2541199326515198,-0.0757472887635231,0.0659734457731247
1774790045114069200,14.9950693359375,-0.34208452701568604,-0.06230825558304787,0.1771509200334549
1774790045124140000,15.00514013671875,-0.36163222789764404,-0.07330382615327835,0.1466076523065567
1774790045134210800,15.0152109375,-0.3836233615875244,-0.09651670604944229,0.09285151958465576
1774790045144281600,15.025281494140625,-0.40072759985923767,-0.11972958594560623,0.04764748737215996
1774790045154322000,15.035322021484374,-0.4031710624694824,-0.1258382350206375,0.05497787147760391
1774790045164392700,15.045392822265624,-0.384845107793808,-0.12217304855585098,0.1062905490398407
1774790045174494000,15.055493896484375,-0.3628539443016052,-0.12950342893600464,0.16249015927314758
1774790045204675800,15.08567578125,-0.3787364661693573,-0.19792033731937408,0.1466076523065567
1774790045214746600,15.09574658203125,-0.39706242084503174,-0.2064724564552307,0.10018189996480942
1774790045224787000,15.105786865234375,-0.4153883755207062,-0.17959438264369965,0.04764748737215996
1774790045234857700,15.115857666015625,-0.41661009192466736,-0.10873401165008545,-0.025656340643763542
1774790045244837000,15.125837158203124,-0.3787364661693573,-0.01466076634824276,-0.10506882518529892
1774790045254908000,15.135907958984374,-0.30054569244384766,0.04153883829712868,-0.14294247329235077
1774790045264978700,15.145978759765624,-0.21502456068992615,0.04398229718208313,-0.11850785464048386
1774790045275080000,15.156079833984375,-0.19425514340400696,0.013439035043120384,-0.025656340643763542
1774790045295191000,15.17619091796875,-0.37140607833862305,-0.03420845419168472,0.20402899384498596
1774790045315302100,15.19630224609375,-0.5827654600143433,-0.013439035043120384,0.15760323405265808
1774790045325312000,15.20631201171875,-0.6768386960029602,0.03787364438176155,0.04153883829712868
1774790045335413200,15.216413330078124,-0.7562511563301086,0.1062905490398407,-0.06475171446800232
1774790045345484000,15.226484130859374,-0.8148942589759827,0.18325957655906677,-0.10873401165008545
1774790045355585300,15.236585205078125,-0.8552113175392151,0.2590068578720093,-0.07819075137376785
1774790045365564700,15.246564697265624,-0.8710938692092896,0.31520646810531616,0.019547687843441963
1774790045375666000,15.256666015625,-0.8332201838493347,0.3494149148464203,0.18325957655906677
1774790045385706200,15.266706298828124,-0.7428121566772461,0.3677408695220947,0.3640756905078888
1774790045405787000,15.286786865234374,-0.504574716091156,0.3225368559360504,0.5387831330299377
1774790045425959000,15.306958984375,-0.39217549562454224,0.2480112910270691,0.36651915311813354
1774790045435999200,15.316999267578124,-0.3689626157283783,0.21991148591041565,0.2272418737411499
1774790045446008800,15.3270087890625,-0.36651915311813354,0.19914206862449646,0.09651670604944229
1774790045456110300,15.3371103515625,-0.394618958234787,0.1771509200334549,0.0012217304902151227
1774790045466181000,15.34718115234375,-0.43615779280662537,0.16371189057826996,-0.05375614017248154
1774790045476282400,15.357282470703124,-0.4642575979232788,0.1563815027475357,-0.08307767659425735
1774790045486292200,15.367292236328124,-0.45692721009254456,0.1563815027475357,-0.1160643994808197
1774790045496363000,15.377363037109374,-0.42149701714515686,0.14782938361167908,-0.15271630883216858
1774790045506433800,15.387433837890624,-0.38117989897727966,0.1319468915462494,-0.1722639948129654
1774790045516535000,15.39753515625,-0.35185837745666504,0.11484266817569733,-0.14782938361167908
1774790045526575400,15.407575439453124,-0.33108896017074585,0.09651670604944229,-0.05742133408784866
1774790045536676600,15.417676513671875,-0.31031954288482666,0.08185594528913498,0.1014036312699318
1774790045546747400,15.427747314453125,-0.28955012559890747,0.0806342139840126,0.2638937830924988
1774790045556787700,15.43778759765625,-0.26511552929878235,0.08307767659425735,0.38117989897727966
1774790045566797600,15.447797607421874,-0.2321287989616394,0.09162978827953339,0.4300491213798523
1774790045576868400,15.457868408203124,-0.1966986060142517,0.1111774742603302,0.394618958234787
1774790045586939100,15.467939208984374,-0.15882496535778046,0.1270599663257599,0.27611109614372253
1774790045596979500,15.4779794921875,-0.11972958594560623,0.13927727937698364,0.11850785464048386
1774790045627131000,15.508130859375,0.0024434609804302454,0.15515977144241333,-0.14782938361167908
1774790045637171000,15.5181708984375,0.039095375686883926,0.16737708449363708,-0.11484266817569733
1774790045647241700,15.52824169921875,0.07819075137376785,0.17348572611808777,-0.021991148591041565
1774790045657312800,15.538312744140624,0.11850785464048386,0.18081611394882202,0.10751228034496307
1774790045667383600,15.548383544921874,0.14538592100143433,0.18448130786418915,0.24923302233219147
1774790045677484800,15.55848486328125,0.15515977144241333,0.18936823308467865,0.3591887652873993
1774790045687555600,15.5685556640625,0.14905111491680145,0.19425514340400696,0.38728857040405273
1774790045697626400,15.57862646484375,0.1368338167667389,0.1966986060142517,0.33719760179519653
1774790045727747300,15.608747314453124,0.12828169763088226,0.17470745742321014,0.16004669666290283
1774790045737848600,15.6188486328125,0.1270599663257599,0.1661553531885147,0.14294247329235077
1774790045747889000,15.628888916015624,0.13439035415649414,0.15393804013729095,0.12828169763088226
1774790045757959700,15.638959716796874,0.14538592100143433,0.13927727937698364,0.1014036312699318
1774790045768030500,15.649030517578124,0.16371189057826996,0.12095131725072861,0.07452555745840073
1774790045778101200,15.659101318359374,0.18448130786418915,0.10384709388017654,0.05253441259264946
1774790045788141600,15.6691416015625,0.19792033731937408,0.09529497474431992,0.03298672288656235
1774790045798212400,15.67921240234375,0.2015855312347412,0.09162978827953339,0.028099801391363144
1774790045838526000,15.71952587890625,0.16249015927314758,0.1160643994808197,0.2321287989616394
1774790045848596700,15.7295966796875,0.19792033731937408,0.14538592100143433,0.2638937830924988
1774790045858667500,15.73966748046875,0.2736676335334778,0.17959438264369965,0.21624629199504852
1774790045868707800,15.749707763671875,0.38728857040405273,0.18081611394882202,0.09896016865968704
1774790045878748200,15.759748046875,0.513126790523529,0.13316862285137177,-0.03176499158143997
1774790045888819000,15.76981884765625,0.6120869517326355,0.05253441259264946,-0.14905111491680145
1774790045898859300,15.779859375,0.6609562039375305,-0.030543262138962746,-0.2724458873271942
1774790045908930000,15.789929931640625,0.6817256212234497,-0.09285151958465576,-0.38728857040405273
1774790045949152300,15.83015234375,0.636521577835083,-0.15515977144241333,-0.35063666105270386
1774790045959223000,15.84022314453125,0.5681046843528748,-0.14294247329235077,-0.251676470041275
1774790045969263400,15.850263427734374,0.513126790523529,-0.1258382350206375,-0.13316862285137177
1774790045979303700,15.8603037109375,0.4996877610683441,-0.10262536257505417,-0.019547687843441963
1774790045989374500,15.87037451171875,0.5351179838180542,-0.09407325088977814,0.05619960278272629
1774790045999445200,15.8804453125,0.5937610268592834,-0.10751228034496307,0.08552113175392151
1774790046009516000,15.89051611328125,0.6487388610839844,-0.13561208546161652,0.06719517707824707
