time,seconds_elapsed,z,y,x
1774790028887290600,-1.23170947265625,9.198522567749023,2.0183119773864746,-2.3056161403656006
1774790028897261300,-1.22173876953125,9.133879661560059,2.1332337856292725,-2.293645143508911
1774790028907132200,-1.211867919921875,9.074024200439453,2.229001760482788,-2.185906171798706
1774790028917033500,-1.201966552734375,9.093177795410156,2.3319525718688965,-2.2816741466522217
1774790028927104300,-1.191895751953125,9.21288776397705,2.3032219409942627,-2.2864625453948975
1774790028937175000,-1.181824951171875,9.160215377807617,2.2625205516815186,-2.300827741622925
1774790028947245800,-1.171754150390625,9.14345645904541,2.250549554824829,-2.346317768096924
1774790028957347000,-1.16165283203125,9.205705642700195,2.207453966140747,-2.2361843585968018
1774790028967417900,-1.15158203125,9.217676162719727,2.1140801906585693,-2.279279947280884
1774790028977488600,-1.141511474609375,9.289502143859863,2.10210919380188,-2.3367409706115723
1774790028987529000,-1.131470947265625,9.217676162719727,2.1284453868865967,-2.4372973442077637
1774790028997569300,-1.1214306640625,9.155426979064941,2.145204782485962,-2.4468741416931152
1774790029037852400,-1.081147705078125,8.995016098022461,2.2840683460235596,-2.2170307636260986
1774790029057963500,-1.061036376953125,9.196128845214844,2.2026655673980713,-2.2888567447662354
1774790029088176000,-1.030823974609375,9.157821655273438,1.9177556037902832,-2.3487119674682617
1774790029098247000,-1.020753173828125,9.078812599182129,1.9728221893310547,-2.322375535964966
1774790029108287000,-1.010713134765625,9.050082206726074,2.0590133666992188,-2.2840683460235596
1774790029118327300,-1.000672607421875,9.074024200439453,2.209848165512085,-2.2673089504241943
1774790029128367600,-0.99063232421875,9.05247688293457,2.470816135406494,-2.2385785579681396
1774790029138438400,-0.9805615234375,9.057265281677246,2.470816135406494,-2.2026655673980713
1774790029148478700,-0.970521240234375,9.165003776550293,2.449268341064453,-2.2888567447662354
1774790029158549500,-0.960450439453125,9.174580574035645,2.434903144836426,-2.2194249629974365
1774790029168620300,-0.950379638671875,9.095572471618652,2.255337953567505,-2.3343467712402344
1774790029178721800,-0.9402783203125,9.033323287963867,2.2673089504241943,-2.3343467712402344
1774790029188792600,-0.93020751953125,8.980650901794434,2.190694570541382,-2.322375535964966
1774790029198863400,-0.92013671875,8.951920509338379,2.2577321529388428,-2.248155355453491
1774790029208903700,-0.910096435546875,9.004592895507812,2.2816741466522217,-2.231395959854126
1774790029249156400,-0.86984375,8.959102630615234,2.33913516998291,-2.279279947280884
1774790029259227100,-0.85977294921875,8.920795440673828,2.5067291259765625,-2.3271639347076416
1774790029269298000,-0.8497021484375,8.892065048217773,2.492363929748535,-2.3104045391082764
1774790029279399200,-0.839600830078125,8.983044624328613,2.5234885215759277,-2.2864625453948975
1774790029289439500,-0.829560546875,8.98543930053711,2.408566951751709,-2.3798365592956543
1774790029299479800,-0.819520263671875,9.100360870361328,2.319981336593628,-2.360682964324951
1774790029309520100,-0.80947998046875,9.124302864074707,2.207453966140747,-2.4181437492370605
1774790029319591000,-0.7994091796875,9.124302864074707,2.207453966140747,-2.4181437492370605
1774790029329600500,-0.7893994140625,9.050082206726074,2.0398597717285156,-2.427720546722412
1774790029349742000,-0.7692578125,8.999804496765137,1.9512743949890137,-2.5043349266052246
1774790029359843600,-0.759156494140625,9.071630477905273,2.0614075660705566,-2.4803929328918457
1774790029369884000,-0.7491162109375,9.011775016784668,2.2146365642547607,-2.4803929328918457
1774790029379924000,-0.739075927734375,9.141061782836914,2.252943754196167,-2.4372973442077637
1774790029389964300,-0.72903564453125,9.14585018157959,2.2649147510528564,-2.382230758666992
1774790029400035000,-0.71896484375,9.155426979064941,2.1523873805999756,-2.3056161403656006
1774790029410075400,-0.708924560546875,9.042900085449219,2.030282974243164,-2.3271639347076416
1774790029420176600,-0.6988232421875,8.959102630615234,2.0159177780151367,-2.2242133617401123
1774790029440287700,-0.678712158203125,9.131484985351562,2.0039467811584473,-2.2002713680267334
1774790029450358500,-0.668641357421875,9.272743225097656,1.9488801956176758,-2.229001760482788
1774790029460429300,-0.65857080078125,9.311050415039062,1.9536685943603516,-2.2625205516815186
1774790029470500400,-0.648499755859375,9.418789863586426,2.121262788772583,-2.2816741466522217
1774790029480601600,-0.6383984375,9.244012832641602,2.2194249629974365,-2.229001760482788
1774790029490642000,-0.628358154296875,9.196128845214844,2.1954829692840576,-2.2170307636260986
1774790029500712700,-0.618287353515625,9.20091724395752,2.2912509441375732,-2.145204782485962
1774790029510783500,-0.608216552734375,9.162610054016113,2.3487119674682617,-2.1499931812286377
1774790029520854300,-0.598145751953125,9.299078941345215,2.33913516998291,-2.164358377456665
1774790029530894600,-0.58810546875,9.306262016296387,2.209848165512085,-2.212242364883423
1774790029541026300,-0.5779736328125,9.344569206237793,2.1739351749420166,-2.3032219409942627
1774790029571177700,-0.547822265625,9.23443603515625,2.276885747909546,-2.231395959854126
1774790029601390000,-0.51760986328125,9.17936897277832,2.451662540435791,-2.319981336593628
1774790029641673200,-0.477326904296875,9.107542991638184,2.1763293743133545,-2.31758713722229
1774790029651713500,-0.467286376953125,8.973467826843262,2.051830768585205,-2.3774423599243164
1774790029661815000,-0.45718505859375,9.05487060546875,2.1571757793426514,-2.38462495803833
1774790029671885800,-0.4471142578125,9.042900085449219,2.2170307636260986,-2.4444799423217773
1774790029691997000,-0.427003173828125,9.107542991638184,2.27209734916687,-2.477998733520508
1774790029702067700,-0.416932373046875,9.059659004211426,2.2625205516815186,-2.5450363159179688
1774790029712108000,-0.40689208984375,9.062053680419922,2.142810583114624,-2.607285737991333
1774790029722178800,-0.3968212890625,8.990227699279785,2.1045033931732178,-2.5761611461639404
1774790029732249600,-0.38675048828125,9.011775016784668,2.1787235736846924,-2.6216509342193604
1774790029762462000,-0.3565380859375,9.069235801696777,2.1930887699127197,-2.3487119674682617
1774790029772502300,-0.346497802734375,9.074024200439453,2.2433669567108154,-2.2697031497955322
1774790029782603500,-0.336396484375,9.121908187866211,2.1763293743133545,-2.2649147510528564
1774790029792674300,-0.32632568359375,9.129091262817383,2.1523873805999756,-2.3511061668395996
1774790029802775600,-0.316224365234375,9.074024200439453,2.1284453868865967,-2.2433669567108154
1774790029812816000,-0.30618408203125,9.047688484191895,2.1715409755706787,-2.296039342880249
1774790029822917000,-0.296082763671875,9.050082206726074,2.31758713722229,-2.1787235736846924
1774790029832957400,-0.28604248046875,9.126696586608887,2.432508945465088,-2.075772762298584
1774790029843059000,-0.275941162109375,9.191340446472168,2.387019157409668,-2.0398597717285156
1774790029853129700,-0.265870361328125,9.35654067993164,2.31758713722229,-2.0661959648132324
1774790029863200500,-0.255799560546875,9.337387084960938,2.118868589401245,-2.2194249629974365
1774790029873240800,-0.24575927734375,9.282320022583008,2.0039467811584473,-2.2433669567108154
1774790029883311600,-0.2356884765625,9.184157371520996,1.9847931861877441,-2.2385785579681396
1774790029893382400,-0.22561767578125,9.23443603515625,2.0829553604125977,-2.123656988143921
1774790029903453200,-0.215546875,9.138668060302734,2.382230758666992,-2.1140801906585693
1774790029913462800,-0.205537109375,9.265560150146484,2.4636335372924805,-2.185906171798706
1774790029923564300,-0.195435791015625,9.320627212524414,2.432508945465088,-2.1763293743133545
1774790029933635000,-0.185364990234375,9.337387084960938,2.403778553009033,-2.315192937850952
1774790029953685000,-0.16531494140625,9.126696586608887,2.1787235736846924,-2.1092917919158936
1774790029963786500,-0.155213623046875,9.141061782836914,2.1284453868865967,-2.03507137298584
1774790029973826600,-0.14517333984375,9.059659004211426,2.3343467712402344,-1.946485996246338
1774790029983928000,-0.135072021484375,9.196128845214844,2.4468741416931152,-1.9776105880737305
1774790029993937700,-0.125062255859375,9.148244857788086,2.3750481605529785,-2.0207061767578125
1774790030004039200,-0.1149609375,9.272743225097656,2.52109432220459,-2.0901381969451904
1774790030014110000,-0.10489013671875,9.172186851501465,2.365471363067627,-2.1571757793426514
1774790030024211200,-0.094788818359375,9.141061782836914,2.4468741416931152,-2.126051187515259
1774790030034251500,-0.08474853515625,8.980650901794434,2.540247917175293,-2.1308395862579346
1774790030044322300,-0.074677734375,8.992621421813965,2.6575639247894287,-2.1523873805999756
1774790030054362600,-0.064637451171875,8.987833023071289,2.58813214302063,-2.145204782485962
1774790030084575000,-0.034425048828125,8.858546257019043,2.8227639198303223,-2.0207061767578125
1774790030144877600,0.025877685546875,8.803479194641113,2.4636335372924805,-2.145204782485962
1774790030154887400,0.035887451171875,8.825027465820312,2.5665841102600098,-2.1787235736846924
1774790030205241300,0.086241455078125,8.935160636901855,2.4444799423217773,-2.22660756111145
1774790030225322000,0.106322021484375,8.827422142028809,2.4372973442077637,-2.099714994430542
1774790030235331800,0.116331787109375,8.798690795898438,2.403778553009033,-1.9536685943603516
1774790030245433000,0.12643310546875,8.916007041931152,2.2601263523101807,-1.8602946996688843
1774790030255473400,0.136473388671875,8.892065048217773,2.1499931812286377,-1.9321208000183105
1774790030325908000,0.206907958984375,9.220070838928223,2.583343744277954,-2.1045033931732178
1774790030356059400,0.237059326171875,9.260771751403809,2.896984100341797,-2.051830768585205
1774790030366130200,0.247130126953125,9.387664794921875,2.9041666984558105,-2.0925323963165283
1774790030406443800,0.28744384765625,9.289502143859863,2.873042106628418,-1.9512743949890137
1774790030456767200,0.337767333984375,9.239224433898926,2.827552318572998,-1.7262194156646729
1774790030486979800,0.367979736328125,9.186552047729492,3.0119056701660156,-1.6543933153152466
1774790030497050600,0.378050537109375,9.20091724395752,2.913743495941162,-1.6687586307525635
1774790030507152000,0.38815185546875,9.181763648986816,2.698265314102173,-1.723825216293335
1774790030517222700,0.39822265625,9.26795482635498,2.5929205417633057,-1.7334020137786865
1774790030527293400,0.40829345703125,9.32302188873291,2.4851813316345215,-1.9033904075622559
1774790030537333800,0.418333740234375,9.35893440246582,2.5953147411346436,-1.9967641830444336
1774790030547374000,0.4283740234375,9.368511199951172,2.7509377002716064,-1.965639591217041
1774790030557444900,0.43844482421875,9.311050415039062,2.9328970909118652,-1.946485996246338
1774790030587626800,0.468626708984375,9.208099365234375,2.6240451335906982,-1.9369091987609863
1774790030597667000,0.4786669921875,9.097966194152832,2.607285737991333,-1.9369091987609863
1774790030607737900,0.48873779296875,9.011775016784668,2.6216509342193604,-1.900996208190918
1774790030617778200,0.498778076171875,8.9064302444458,2.647987127304077,-1.8148049116134644
1774790030627879400,0.50887939453125,8.832210540771484,2.8634653091430664,-1.8100165128707886
1774790030637919700,0.518919677734375,8.789113998413086,2.9281086921691895,-1.7190368175506592
1774790030658091800,0.539091796875,8.698134422302246,3.0885202884674072,-1.5705963373184204
1774790030668193000,0.549193115234375,8.65743350982666,3.095702886581421,-1.4628572463989258
1774790030678233300,0.5592333984375,8.69095230102539,3.043030261993408,-1.4748282432556152
1774790030688304000,0.56930419921875,8.791508674621582,2.999934673309326,-1.4891934394836426
1774790030698375000,0.579375,8.83699893951416,2.7748796939849854,-1.4748282432556152
1774790030708415200,0.589415283203125,8.841787338256836,2.5785553455352783,-1.4508862495422363
1774790030718486000,0.599486083984375,8.954314231872559,2.5546131134033203,-1.482010841369629
1774790030728556800,0.609556884765625,8.87051773071289,2.5067291259765625,-1.3958195447921753
1774790030738597000,0.61959716796875,8.882488250732422,2.5306711196899414,-1.316810965538025
1774790030748637400,0.629637451171875,8.93037223815918,2.7676970958709717,-1.2545616626739502
1774790030788890000,0.66989013671875,9.17936897277832,2.762908697128296,-1.1635819673538208
1774790030798900000,0.67989990234375,9.17936897277832,2.762908697128296,-1.1635819673538208
1774790030808970800,0.689970703125,9.133879661560059,2.693476915359497,-1.1444283723831177
1774790030819041500,0.70004150390625,9.169792175292969,2.7317841053009033,-1.161187767982483
1774790030829142800,0.710142822265625,9.14345645904541,2.7892448902130127,-1.1635819673538208
1774790030838897700,0.719897705078125,9.124302864074707,2.832340717315674,-1.0989385843276978
1774790030848399000,0.729399169921875,9.17936897277832,2.8395233154296875,-1.0797849893569946
1774790030857839400,0.73883935546875,9.191340446472168,2.8419175148010254,-0.9624691009521484
1774790030867340500,0.748340576171875,9.23682975769043,2.920926094055176,-0.8547300100326538
1774790030876750300,0.757750244140625,9.284713745117188,2.999934673309326,-0.9385270476341248
1774790030886251800,0.767251708984375,9.258378028869629,2.9927520751953125,-1.0079588890075684
1774790030895922400,0.77692236328125,9.184157371520996,2.9903578758239746,-1.0007762908935547
1774790030905593300,0.78659326171875,9.102754592895508,3.026270866394043,-0.9696516990661621
1774790030915372500,0.79637255859375,8.987833023071289,3.1028854846954346,-0.9289502501487732
1774790030925273900,0.80627392578125,9.097966194152832,3.047818660736084,-0.8619126081466675
1774790030935114200,0.8161142578125,9.172186851501465,2.978386878967285,-0.8595184087753296
1774790030945215500,0.826215576171875,9.265560150146484,2.8802247047424316,-0.8643068075180054
1774790030955225300,0.836225341796875,9.433155059814453,2.7988216876983643,-0.8738836050033569
1774790031035700000,0.916699951171875,9.583989143371582,2.497152328491211,-1.3742717504501343
1774790031045771000,0.92677099609375,9.619902610778809,2.3726539611816406,-1.3862427473068237
1774790031055841800,0.936841796875,9.567230224609375,2.6024973392486572,-1.3335703611373901
1774790031065943000,0.946943115234375,9.442731857299805,2.652775526046753,-1.280897855758667
1774790031075953000,0.956952880859375,9.258378028869629,2.8562827110290527,-1.292868971824646
1774790031086054100,0.96705419921875,9.035717010498047,3.0119056701660156,-1.3623007535934448
1774790031096094500,0.977094482421875,8.98543930053711,3.095702886581421,-1.3024457693099976
1774790031106165200,0.987165283203125,8.966285705566406,3.0310592651367188,-1.2210428714752197
1774790031136316700,1.017316650390625,8.93037223815918,2.6408045291900635,-1.1635819673538208
1774790031146387500,1.027387451171875,8.880094528198242,2.4612393379211426,-1.2066776752471924
1774790031156397000,1.03739697265625,8.741230010986328,2.4636335372924805,-1.2952631711959839
1774790031166467800,1.0474677734375,8.698134422302246,2.425326347351074,-1.2066776752471924
1774790031176508200,1.057508056640625,8.734047889709473,2.655169725418091,-1.05105459690094
1774790031186579000,1.067578857421875,8.791508674621582,2.7126305103302,-1.0965443849563599
1774790031196619300,1.077619384765625,8.89445972442627,2.7437551021575928,-1.170764684677124
1774790031206720500,1.087720458984375,9.107542991638184,2.561795711517334,-1.2617442607879639
1774790031216760800,1.0977607421875,9.208099365234375,2.2385785579681396,-1.4101848602294922
1774790031226831600,1.10783154296875,9.339780807495117,1.9560627937316895,-1.3886369466781616
1774790031236872000,1.117871826171875,9.294290542602539,1.9273324012756348,-1.4269442558288574
1774790031246912300,1.127912353515625,9.337387084960938,1.8339585065841675,-1.4628572463989258
1774790031256952600,1.13795263671875,9.361329078674316,1.9153614044189453,-1.5466543436050415
1774790031267053800,1.1480537109375,9.296685218811035,2.0805611610412598,-1.6687586307525635
1774790031287195400,1.1681953125,9.20091724395752,2.6216509342193604,-1.680729627609253
1774790031297266200,1.17826611328125,9.131484985351562,2.8562827110290527,-1.6136919260025024
1774790031307367700,1.18836767578125,9.08838939666748,2.9759926795959473,-1.4460978507995605
1774790031317407700,1.19840771484375,9.045293807983398,2.9328970909118652,-1.2521674633026123
1774790031327478800,1.208478759765625,9.105149269104004,2.868253707885742,-1.2976573705673218
1774790031337518800,1.218518798828125,9.0859956741333,2.782062292098999,-1.4724340438842773
1774790031347589600,1.228589599609375,9.141061782836914,2.652775526046753,-1.414973258972168
1774790031357630000,1.2386298828125,9.07641887664795,2.5761611461639404,-1.4293384552001953
1774790031367700700,1.24870068359375,8.920795440673828,2.5929205417633057,-1.2497732639312744
1774790031397913300,1.278913330078125,8.990227699279785,3.1196448802948,-1.072602391242981
1774790031408014600,1.2890146484375,9.030928611755371,3.2106244564056396,-1.0845733880996704
1774790031418055000,1.299054931640625,9.186552047729492,3.1962592601776123,-1.137245774269104
1774790031428156200,1.30915625,9.241618156433105,3.0119056701660156,-1.0678139925003052
1774790031438196500,1.319196533203125,9.282320022583008,2.7892448902130127,-1.1180921792984009
1774790031458307600,1.3393076171875,9.457097053527832,2.516305923461914,-1.0247182846069336
1774790031468378400,1.34937841796875,9.586383819580078,2.427720546722412,-1.0558429956436157
1774790031478418700,1.359418701171875,9.66539192199707,2.4396915435791016,-1.1228805780410767
1774790031488489500,1.369489501953125,9.797073364257812,2.5546131134033203,-1.1683704853057861
1774790031508569900,1.38956982421875,10.146626472473145,2.853888511657715,-1.1420341730117798
1774790031518640600,1.399640625,10.295066833496094,2.9281086921691895,-1.2880805730819702
1774790031528711700,1.409711669921875,10.500968933105469,2.980781078338623,-1.4915876388549805
1774790031538751700,1.419751708984375,10.54645824432373,2.9927520751953125,-1.7046716213226318
1774790031548822500,1.429822509765625,10.54645824432373,2.9927520751953125,-1.7046716213226318
1774790031558893600,1.4398935546875,10.527304649353027,2.9065608978271484,-1.9177556037902832
1774790031568994800,1.449994873046875,10.20648193359375,2.894589900970459,-2.011129379272461
1774790031579065600,1.460065673828125,10.125079154968262,2.628833532333374,-1.968033790588379
1774790031589166800,1.470166748046875,9.737217903137207,2.604891538619995,-1.8507179021835327
1774790031599207200,1.480207275390625,9.653421401977539,2.497152328491211,-1.7286136150360107
1774790031609278000,1.49027783203125,9.552865028381348,2.4899697303771973,-1.6950948238372803
1774790031619348700,1.5003486328125,9.454702377319336,2.4851813316345215,-1.6519991159439087
1774790031629419500,1.51041943359375,9.330204010009766,2.4420857429504395,-1.7573440074920654
1774790031639459800,1.5204599609375,9.275136947631836,2.33913516998291,-1.9321208000183105
1774790031649561000,1.53056103515625,9.246406555175781,2.346317768096924,-2.0398597717285156
1774790031659601400,1.540601318359375,9.124302864074707,2.27209734916687,-2.123656988143921
1774790031669672200,1.550672119140625,8.932766914367676,2.2577321529388428,-2.0446481704711914
1774790031699793200,1.580793212890625,9.07641887664795,2.164358377456665,-1.742978811264038
1774790031709894400,1.590894287109375,9.102754592895508,2.126051187515259,-1.821987509727478
1774790031719904300,1.600904296875,9.244012832641602,2.0422539710998535,-2.0015525817871094
1774790031729975000,1.61097509765625,9.32541561126709,1.9057846069335938,-2.142810583114624
1774790031740045800,1.6210458984375,9.361329078674316,1.9752163887023926,-2.145204782485962
1774790031750116600,1.63111669921875,9.437943458557129,1.9584569931030273,-2.296039342880249
1774790031760157000,1.641156982421875,9.430760383605957,2.011129379272461,-2.4181437492370605
1774790031770227700,1.651227783203125,9.330204010009766,2.0183119773864746,-2.5498247146606445
1774790031780268000,1.66126806640625,9.418789863586426,1.8315643072128296,-2.779668092727661
1774790031810450000,1.691449951171875,9.35654067993164,1.37906014919281,-3.090914487838745
1774790031820490200,1.701490234375,9.375694274902344,1.359906554222107,-3.162740468978882
1774790031830591500,1.711591552734375,9.308655738830566,1.436521053314209,-3.1866824626922607
1774790031840631800,1.7216318359375,9.339780807495117,1.4317326545715332,-3.1004912853240967
1774790031850672000,1.731672119140625,9.346963882446289,1.41257905960083,-2.9712042808532715
1774790031860712200,1.741712158203125,9.27034854888916,1.3838485479354858,-2.786850690841675
1774790031870752500,1.75175244140625,9.14585018157959,1.4101848602294922,-2.6575639247894287
1774790031880762400,1.761762451171875,8.860940933227539,1.5275006294250488,-2.6815059185028076
1774790031890863600,1.771863525390625,8.791508674621582,1.7118542194366455,-2.8131868839263916
1774790031921015000,1.80201513671875,8.583212852478027,2.1954829692840576,-2.5330653190612793
1774790031931085800,1.8120859375,8.5903959274292,2.2673089504241943,-2.5282769203186035
1774790031941126100,1.822126220703125,8.470685958862305,2.250549554824829,-2.4636335372924805
1774790031951197000,1.832197021484375,8.501810073852539,2.3127987384796143,-2.3558945655822754
1774790031961237200,1.8422373046875,8.391676902770996,2.4660277366638184,-2.2026655673980713
1774790031971308000,1.85230810546875,8.305485725402832,2.492363929748535,-2.1116859912872314
1774790031981348400,1.862348388671875,8.286332130432129,2.52109432220459,-2.1763293743133545
1774790031991419100,1.872419189453125,8.327033042907715,2.7748796939849854,-2.1068975925445557
1774790032031702300,1.912702392578125,8.571242332458496,2.7509377002716064,-2.011129379272461
1774790032041742600,1.92274267578125,8.62391471862793,2.63362193107605,-2.027888774871826
1774790032051783000,1.932782958984375,8.611943244934082,2.5689783096313477,-2.0159177780151367
1774790032061823200,1.9428232421875,8.722076416015625,2.497152328491211,-2.1068975925445557
1774790032071894000,1.95289404296875,8.743624687194824,2.5953147411346436,-2.1763293743133545
1774790032081934300,1.962934326171875,8.80587387084961,2.652775526046753,-2.233790159225464
1774790032092005000,1.973005126953125,8.858546257019043,2.827552318572998,-2.2026655673980713
1774790032102045200,1.983045166015625,8.83699893951416,2.7892448902130127,-2.2385785579681396
1774790032112146700,1.993146728515625,8.78193187713623,2.8347349166870117,-2.2601263523101807
1774790032122187000,2.00318701171875,8.741230010986328,2.717418909072876,-2.2170307636260986
1774790032132257800,2.0132578125,8.827422142028809,2.6886885166168213,-2.209848165512085
1774790032142328600,2.02332861328125,8.877699851989746,2.626439332962036,-2.1284453868865967
1774790032152399400,2.0333994140625,8.786720275878906,2.564189910888672,-2.279279947280884
1774790032162470100,2.04347021484375,8.932766914367676,2.6431987285614014,-2.3056161403656006
1774790032172541000,2.053541015625,8.937555313110352,2.5905263423919678,-2.2433669567108154
1774790032182611700,2.06361181640625,8.734047889709473,2.7054479122161865,-2.075772762298584
1774790032192713000,2.073712890625,8.655038833618164,2.784456491470337,-1.9752163887023926
1774790032222834000,2.103833984375,8.561665534973145,2.983175277709961,-1.7741034030914307
1774790032232935200,2.11393505859375,8.767566680908203,3.0789434909820557,-1.6687586307525635
1774790032242975500,2.1239755859375,8.841787338256836,3.112462282180786,-1.6950948238372803
1774790032253015800,2.134015869140625,8.966285705566406,2.937685489654541,-1.721431016921997
1774790032263086600,2.144086669921875,8.942343711853027,2.892195701599121,-1.721431016921997
1774790032273187800,2.154187744140625,8.853757858276367,2.846705913543701,-1.7501614093780518
1774790032283258600,2.164258544921875,8.81784439086914,2.9735984802246094,-1.6663644313812256
1774790032293360000,2.174360107421875,8.908824920654297,3.138798475265503,-1.6639702320098877
1774790032303400200,2.184400146484375,8.882488250732422,3.4332852363586426,-1.6376339197158813
1774790032343652900,2.22465283203125,9.217676162719727,3.471592426300049,-1.7525556087493896
1774790032353754400,2.23475439453125,9.210494041442871,3.2632968425750732,-1.577778935432434
1774790032363764000,2.244763916015625,9.232041358947754,2.999934673309326,-1.5610195398330688
1774790032373834800,2.254834716796875,9.20091724395752,3.047818660736084,-1.6663644313812256
1774790032383875000,2.264875,9.294290542602539,3.117250680923462,-1.678335428237915
1774790032393945900,2.27494580078125,9.423578262329102,3.378218650817871,-1.6711528301239014
1774790032434168000,2.31516796875,9.938331604003906,3.069366693496704,-1.764526605606079
1774790032444238800,2.32523876953125,9.849745750427246,2.964021682739258,-1.8914192914962769
1774790032454340400,2.33534033203125,9.849745750427246,3.0142998695373535,-1.8555063009262085
1774790032464380400,2.34538037109375,9.84256362915039,3.1220390796661377,-1.8411411046981812
1774790032474451200,2.355451171875,9.763554573059082,3.2297780513763428,-1.766920804977417
1774790032484522200,2.365522216796875,9.861717224121094,3.3016040325164795,-1.7717092037200928
1774790032494593000,2.375593017578125,10.06043529510498,3.2824504375457764,-1.7118542194366455
1774790032504633000,2.385633056640625,10.220847129821777,3.2130186557769775,-1.7070658206939697
1774790032524744200,2.405744140625,10.453084945678711,2.762908697128296,-1.9057846069335938
1774790032534815000,2.41581494140625,10.438719749450684,2.5258827209472656,-2.0254945755004883
1774790032544885800,2.4258857421875,10.321403503417969,2.47560453414917,-2.1787235736846924
1774790032554987300,2.4359873046875,10.15141487121582,2.513911724090576,-2.145204782485962
1774790032565027600,2.446027587890625,10.065223693847656,2.6240451335906982,-2.049436569213867
1774790032575067600,2.456067626953125,9.967061996459961,2.6001031398773193,-1.886630892753601
1774790032585108000,2.46610791015625,9.8784761428833,2.6791117191314697,-1.6328455209732056
1774790032595209500,2.47620947265625,9.892841339111328,2.5115175247192383,-1.5682021379470825
1774790032605310700,2.486310791015625,9.794678688049316,2.3726539611816406,-1.6089035272598267
1774790032635523000,2.516523193359375,9.306262016296387,1.9512743949890137,-1.53707754611969
1774790032645624300,2.526624267578125,9.150638580322266,1.7549498081207275,-1.5538369417190552
1774790032655695000,2.536695068359375,8.927978515625,1.8387469053268433,-1.3024457693099976
1774790032665735400,2.5467353515625,8.80587387084961,1.8938134908676147,-0.9672574996948242
1774790032675775700,2.556775634765625,8.757989883422852,1.7956513166427612,-0.7206547260284424
1774790032685846500,2.566846435546875,8.832210540771484,1.7525556087493896,-0.6416460275650024
1774790032695917300,2.576917236328125,8.999804496765137,1.5442601442337036,-0.49559974670410156
1774790032705988000,2.586988037109375,9.078812599182129,1.259350061416626,-0.586579442024231
1774790032726099200,2.60709912109375,9.124302864074707,0.8379706144332886,-0.6177040338516235
1774790032756220200,2.63722021484375,9.493009567260742,0.2346317619085312,-0.6655880808830261
1774790032766291000,2.647291015625,9.639056205749512,0.29209262132644653,-0.7972691655158997
1774790032776331300,2.657331298828125,9.696516990661621,0.3495534360408783,-1.0007762908935547
1774790032786402000,2.667402099609375,9.627084732055664,0.44532153010368347,-1.290474772453308
1774790032796411600,2.67741162109375,9.715670585632324,0.8523358106613159,-1.436521053314209
1774790032806482700,2.687482666015625,9.641449928283691,1.070208191871643,-1.5921441316604614
1774790032836664300,2.717664306640625,8.942343711853027,1.7477672100067139,-1.3215993642807007
1774790032846735400,2.7277353515625,8.959102630615234,1.9177556037902832,-1.237802267074585
1774790032856836600,2.737836669921875,8.887276649475098,2.027888774871826,-1.2042834758758545
1774790032866877000,2.747876953125,8.686163902282715,2.030282974243164,-1.2042834758758545
1774790032876917200,2.757917236328125,8.51138687133789,1.944091796875,-1.0319008827209473
1774790032886988000,2.767988037109375,8.382100105285645,2.0207061767578125,-0.9409212470054626
1774790032897089300,2.77808935546875,8.212111473083496,2.0685901641845703,-0.8307880163192749
1774790032907129600,2.788129638671875,8.195352554321289,2.1930887699127197,-0.7398083209991455
1774790032937281000,2.818281005859375,8.183381080627441,2.513911724090576,-0.7757213711738586
1774790032947321000,2.828321044921875,8.145073890686035,2.6431987285614014,-0.9481038451194763
1774790032957361400,2.838361328125,8.178592681884766,2.449268341064453,-0.9145850539207458
1774790032967463000,2.848462890625,8.35097599029541,2.387019157409668,-0.9361328482627869
1774790032977533700,2.85853369140625,8.35097599029541,2.387019157409668,-0.9361328482627869
1774790032987573800,2.86857373046875,8.389283180236816,2.3319525718688965,-0.9409212470054626
1774790032997644800,2.878644775390625,8.604761123657227,2.1499931812286377,-1.039083480834961
1774790033007715600,2.888715576171875,8.779537200927734,2.073378562927246,-1.0654197931289673
1774790033047937500,2.9289375,9.069235801696777,2.205059766769409,-1.2689268589019775
1774790033057977900,2.938977783203125,9.040505409240723,2.43011474609375,-1.3096283674240112
1774790033068018200,2.94901806640625,9.08838939666748,2.585737943649292,-1.3263877630233765
1774790033078058500,2.95905859375,9.258378028869629,2.6862943172454834,-1.1300631761550903
1774790033088129300,2.96912939453125,9.390059471130371,2.612074136734009,-1.1037269830703735
1774790033098200000,2.979199951171875,9.643844604492188,2.5282769203186035,-1.039083480834961
1774790033108270800,2.989270751953125,9.751583099365234,2.3774423599243164,-1.0845733880996704
1774790033118372000,2.9993720703125,9.919178009033203,2.229001760482788,-1.278503656387329
1774790033128412400,3.009412353515625,10.022128105163574,2.27209734916687,-1.4269442558288574
1774790033148554000,3.029553955078125,10.170568466186523,2.738966703414917,-1.5873557329177856
1774790033158655500,3.039655517578125,10.187328338623047,2.959233283996582,-1.6615760326385498
1774790033168665000,3.0496650390625,10.182539939880371,3.0597896575927734,-1.8363527059555054
1774790033178735900,3.05973583984375,10.412383079528809,3.112462282180786,-1.9536685943603516
1774790033188806700,3.069806640625,10.551246643066406,3.0597896575927734,-2.099714994430542
1774790033198877700,3.079877685546875,10.742782592773438,2.87064790725708,-2.126051187515259
1774790033208948500,3.089948486328125,10.991780281066895,2.698265314102173,-2.0039467811584473
1774790033219019300,3.100019287109375,11.348516464233398,2.738966703414917,-1.9943699836730957
1774790033229090000,3.110090087890625,11.580753326416016,2.9233202934265137,-2.403778553009033
1774790033239191300,3.12019140625,11.35809326171875,3.0573954582214355,-3.136404275894165
1774790033269342700,3.1503427734375,10.101137161254883,2.7102363109588623,-3.512293815612793
1774790033279413500,3.16041357421875,10.086771965026855,2.3343467712402344,-2.9544448852539062
1774790033289453800,3.170453857421875,10.285490036010742,1.7836803197860718,-2.786850690841675
1774790033299524600,3.180524658203125,10.287884712219238,1.4197616577148438,-2.806004285812378
1774790033309595400,3.190595458984375,10.232817649841309,1.1971008777618408,-2.942473888397217
1774790033319635700,3.2006357421875,10.141838073730469,1.1228805780410767,-2.978386878967285
1774790033329706500,3.21070654296875,10.103530883789062,1.4173674583435059,-2.8562827110290527
1774790033339746800,3.220746826171875,9.799467086791992,1.7334020137786865,-2.801215887069702
1774790033369928700,3.2509287109375,9.050082206726074,2.2409727573394775,-3.0597896575927734
1774790033400141000,3.28114111328125,8.80587387084961,2.1045033931732178,-3.1938650608062744
1774790033430323000,3.311322998046875,8.729259490966797,2.049436569213867,-2.4588451385498047
1774790033440393700,3.321393798828125,8.916007041931152,1.8411411046981812,-2.341529369354248
1774790033450464500,3.331464599609375,8.868123054504395,1.5969325304031372,-2.274491548538208
1774790033470545200,3.351545166015625,9.074024200439453,1.0319008827209473,-2.1356279850006104
1774790033490656300,3.37165625,8.935160636901855,1.0103530883789062,-2.1475989818573
1774790033500727000,3.38172705078125,8.688557624816895,1.2401964664459229,-2.1978771686553955
1774790033510797800,3.3917978515625,8.564059257507324,1.5658079385757446,-2.099714994430542
1774790033520899000,3.401899169921875,8.38449478149414,1.8148049116134644,-1.9345149993896484
1774790033530939400,3.411939453125,8.288725852966309,1.9512743949890137,-1.802833914756775
1774790033540979700,3.421979736328125,8.26478385925293,2.0614075660705566,-1.5945383310317993
1774790033551050500,3.432050537109375,8.226476669311523,1.9823989868164062,-1.4676456451416016
1774790033561121300,3.442121337890625,8.149862289428711,1.9321208000183105,-1.4867992401123047
1774790033591272700,3.472272705078125,7.939172744750977,2.0661959648132324,-1.53707754611969
1774790033601343500,3.482343505859375,7.869740962982178,2.075772762298584,-1.4077905416488647
1774790033611383800,3.4923837890625,7.802703380584717,2.1547815799713135,-1.414973258972168
1774790033621454600,3.50245458984375,7.735665798187256,2.1811177730560303,-1.434126853942871
1774790033631494700,3.51249462890625,7.802703380584717,2.2697031497955322,-1.5107412338256836
1774790033641565700,3.522565673828125,7.723694801330566,2.513911724090576,-1.5203180313110352
1774790033651636500,3.532636474609375,7.690176010131836,2.5905263423919678,-1.5394717454910278
1774790033691858400,3.5728583984375,8.238448143005371,2.403778553009033,-1.5610195398330688
1774790033701929200,3.58292919921875,8.523358345031738,2.341529369354248,-1.53707754611969
1774790033711969500,3.592969482421875,8.702922821044922,2.3487119674682617,-1.5849615335464478
1774790033722009900,3.603009765625,8.769960403442383,2.4420857429504395,-1.6543933153152466
1774790033732050200,3.61305029296875,8.7268648147583,2.7557260990142822,-1.6903064250946045
1774790033742121000,3.623120849609375,8.71489429473877,2.868253707885742,-1.6759412288665771
1774790033752191700,3.633191650390625,8.789113998413086,3.0095114707946777,-1.6280571222305298
1774790033762232000,3.643232177734375,8.956708908081055,3.071760892868042,-1.6208745241165161
1774790033792444400,3.6734443359375,9.658209800720215,2.6862943172454834,-1.6208745241165161
1774790033802484700,3.683484619140625,9.909601211547852,2.7030537128448486,-1.623268723487854
1774790033812555500,3.693555419921875,9.99339771270752,2.6886885166168213,-1.6687586307525635
1774790033822595800,3.703595947265625,10.110713958740234,2.741360902786255,-1.7357962131500244
1774790033832666600,3.71366650390625,10.196905136108398,2.738966703414917,-1.9081788063049316
1774790033842768000,3.723767822265625,10.316615104675293,2.626439332962036,-2.03507137298584
1774790033852808200,3.73380810546875,10.45547866821289,2.5282769203186035,-1.9584569931030273
1774790033862848500,3.7438486328125,10.498574256896973,2.564189910888672,-2.0183119773864746
1774790033872919300,3.753919189453125,10.484209060668945,2.6431987285614014,-1.8818424940109253
1774790033903131600,3.784131591796875,11.044452667236328,2.4899697303771973,-1.4197616577148438
1774790033913172000,3.794171875,11.465831756591797,2.387019157409668,-1.5969325304031372
1774790033923273200,3.804273193359375,11.626243591308594,2.2912509441375732,-2.0805611610412598
1774790033933313500,3.8143134765625,11.654973983764648,2.032677173614502,-2.652775526046753
1774790033943384300,3.82438427734375,11.597513198852539,1.7166426181793213,-2.8131868839263916
1774790033953455000,3.834455078125,11.312602996826172,1.3694833517074585,-2.717418909072876
1774790033963526100,3.844526123046875,10.836156845092773,1.3000515699386597,-2.427720546722412
1774790033973566200,3.854566162109375,10.383652687072754,1.5107412338256836,-2.075772762298584
1774790033993708000,3.8747080078125,9.514557838439941,2.1092917919158936,-1.802833914756775
1774790034003809300,3.884809326171875,9.131484985351562,2.027888774871826,-1.280897855758667
1774790034013880000,3.894880126953125,9.081207275390625,1.7741034030914307,-0.8427590131759644
1774790034023950800,3.904950927734375,9.41400146484375,1.3958195447921753,-0.5195417404174805
1774790034033991200,3.9149912109375,9.593565940856934,1.0223240852355957,-0.5027823448181152
1774790034054102300,3.935102294921875,9.696516990661621,0.2944868206977844,-0.790086567401886
1774790034064173000,3.945173095703125,9.454702377319336,0.3878606855869293,-0.8427590131759644
1774790034074243800,3.955243896484375,9.351752281188965,0.5195417404174805,-0.9672574996948242
1774790034084284200,3.9652841796875,9.220070838928223,0.6584054827690125,-1.0319008827209473
1774790034104395300,3.985395263671875,9.215282440185547,0.9050082564353943,-1.4844050407409668
1774790034114435300,3.995435302734375,9.265560150146484,1.1013327836990356,-1.721431016921997
1774790034124506400,4.00550634765625,9.373299598693848,0.9600749015808105,-1.9297266006469727
1774790034134546400,4.01554638671875,9.521739959716797,0.9385270476341248,-2.0254945755004883
1774790034144617200,4.0256171875,9.607931137084961,0.7805097699165344,-2.0470423698425293
1774790034154657500,4.035657470703125,9.552865028381348,0.7996633648872375,-2.0398597717285156
1774790034164728300,4.045728271484375,9.306262016296387,0.7398083209991455,-2.1045033931732178
1774790034174768600,4.0557685546875,8.925583839416504,0.8475474119186401,-2.0422539710998535
1774790034184839400,4.06583935546875,8.652645111083984,1.0199298858642578,-1.9728221893310547
1774790034214960400,4.09596044921875,8.090007781982422,1.7477672100067139,-1.558625340461731
1774790034225000700,4.106000732421875,8.01339340209961,1.699883222579956,-1.4891934394836426
1774790034235071500,4.116071533203125,7.833827972412109,1.721431016921997,-1.3886369466781616
1774790034245142300,4.126142333984375,7.8745293617248535,1.7310078144073486,-1.237802267074585
1774790034255182600,4.1361826171875,7.817068576812744,1.7357962131500244,-1.161187767982483
1774790034265223000,4.146222900390625,7.6566572189331055,1.8770540952682495,-1.1204863786697388
1774790034275293700,4.156293701171875,7.671022415161133,1.8411411046981812,-1.0342950820922852
1774790034285395000,4.16639501953125,7.637503623962402,1.8722656965255737,-0.9672574996948242
1774790034295465700,4.1764658203125,7.680599212646484,1.7836803197860718,-0.8475474119186401
1774790034325678000,4.206677978515625,8.44434928894043,1.742978811264038,-1.1252747774124146
1774790034345819600,4.226819580078125,8.667010307312012,1.8363527059555054,-1.2282254695892334
1774790034355860000,4.23685986328125,8.736441612243652,2.013523578643799,-1.216254472732544
1774790034365930800,4.2469306640625,8.801085472106934,2.2218191623687744,-1.2689268589019775
1774790034375971000,4.25697119140625,8.844181060791016,2.4229321479797363,-1.2449848651885986
1774790034386011400,4.267011474609375,8.844181060791016,2.4229321479797363,-1.2449848651885986
1774790034396051700,4.2770517578125,8.937555313110352,2.535459518432617,-1.2880805730819702
1774790034406122500,4.28712255859375,9.167398452758789,2.6839001178741455,-1.4173674583435059
1774790034426294500,4.30729443359375,9.734824180603027,2.43011474609375,-1.3742717504501343
1774790034436334800,4.3173349609375,9.940725326538086,2.2457611560821533,-1.4317326545715332
1774790034446405600,4.327405517578125,10.010157585144043,2.073378562927246,-1.3718775510787964
1774790034456446000,4.337446044921875,10.089165687561035,2.0254945755004883,-1.4748282432556152
1774790034466516700,4.347516845703125,10.11789608001709,2.0805611610412598,-1.4437036514282227
1774790034476587500,4.35758740234375,10.156203269958496,2.2816741466522217,-1.4628572463989258
1774790034486688800,4.367688720703125,10.3549222946167,2.4636335372924805,-1.6112977266311646
1774790034496729000,4.37772900390625,10.627861022949219,2.513911724090576,-1.7980455160140991
1774790034506830300,4.387830322265625,10.72841739654541,2.5115175247192383,-1.9584569931030273
1774790034537012200,4.41801220703125,11.049241065979004,2.473210334777832,-2.1523873805999756
1774790034547113700,4.42811376953125,11.429919242858887,2.4444799423217773,-2.166752576828003
1774790034557123300,4.438123291015625,11.626243591308594,2.387019157409668,-2.5043349266052246
1774790034567224800,4.448224853515625,11.669339179992676,2.4851813316345215,-3.3518824577331543
1774790034577295600,4.458295654296875,11.250353813171387,2.427720546722412,-4.046200752258301
1774790034587366400,4.468366455078125,10.922348022460938,2.2242133617401123,-4.151545524597168
1774790034597406700,4.47840673828125,10.721235275268555,1.9273324012756348,-4.050989151000977
1774790034607508000,4.488508056640625,10.541669845581055,1.556231141090393,-3.9240965843200684
1774790034617548300,4.49854833984375,10.378864288330078,1.1659762859344482,-3.8570590019226074
1774790034637629000,4.51862890625,10.110713958740234,0.45250412821769714,-3.88818359375
1774790034647730200,4.528730224609375,9.96945571899414,0.6416460275650024,-3.6367924213409424
1774790034657770500,4.5387705078125,9.828198432922363,0.9552865028381348,-3.155557870864868
1774790034667810800,4.548810791015625,9.818621635437012,1.2234370708465576,-3.026270866394043
1774790034677820400,4.5588203125,9.837775230407715,1.4628572463989258,-2.875436305999756
1774790034687921700,4.568921630859375,9.720458984375,1.5897499322891235,-3.0358476638793945
1774790034697962000,4.5789619140625,9.552865028381348,1.6831238269805908,-3.294421434402466
1774790034708032800,4.58903271484375,9.354146003723145,1.6639702320098877,-3.471592426300049
1774790034718012200,4.59901220703125,9.05247688293457,1.7381904125213623,-3.4739866256713867
1774790034728083000,4.6090830078125,8.89445972442627,1.9153614044189453,-3.1028854846954346
1774790034758173200,4.639173095703125,8.834604263305664,2.3056161403656006,-2.190694570541382
1774790034768274400,4.6492744140625,8.892065048217773,2.2218191623687744,-1.9704279899597168
1774790034778314800,4.659314697265625,8.834604263305664,1.965639591217041,-1.8818424940109253
1774790034788385500,4.669385498046875,8.746018409729004,1.7334020137786865,-1.7812861204147339
1774790034798395400,4.6793955078125,8.556877136230469,1.5634137392044067,-1.6974890232086182
1774790034818537000,4.699536865234375,8.214506149291992,1.6831238269805908,-1.5059528350830078
1774790034828607700,4.709607666015625,8.006210327148438,1.8842366933822632,-1.4053963422775269
1774790034838648000,4.71964794921875,8.121131896972656,1.821987509727478,-1.3646949529647827
1774790034858820000,4.739820068359375,7.795520782470703,1.7262194156646729,-1.3766659498214722
1774790034868891100,4.74989111328125,7.632715225219727,1.7381904125213623,-1.2473790645599365
1774790034878900700,4.759900634765625,7.632715225219727,1.7310078144073486,-1.1468225717544556
1774790034888941000,4.769941162109375,7.560888767242432,1.721431016921997,-1.072602391242981
1774790034899011800,4.78001171875,7.68538761138916,1.766920804977417,-0.9840168952941895
1774790034909113000,4.790113037109375,7.6351094245910645,1.7118542194366455,-1.0223240852355957
1774790034919153400,4.8001533203125,7.711723804473877,1.7477672100067139,-1.2497732639312744
1774790034929254700,4.810254638671875,7.747636795043945,1.802833914756775,-1.359906554222107
1774790034989679600,4.8706796875,8.058882713317871,2.3942017555236816,-1.86508309841156
1774790034999720000,4.880719970703125,8.226476669311523,2.4372973442077637,-1.889025092124939
1774790035009790700,4.890790771484375,8.360552787780762,2.425326347351074,-1.8842366933822632
1774790035019861500,4.900861572265625,8.645462036132812,2.4372973442077637,-1.7717092037200928
1774790035029932300,4.910932373046875,8.954314231872559,2.432508945465088,-1.6136919260025024
1774790035060114200,4.9411142578125,9.667786598205566,2.33913516998291,-1.5945383310317993
1774790035100366800,4.981366943359375,11.042057991027832,2.425326347351074,-2.2625205516815186
1774790035120539000,5.001538818359375,11.281478881835938,2.33913516998291,-2.5905263423919678
1774790035130640400,5.011640380859375,11.224017143249512,2.3726539611816406,-2.7126305103302
1774790035140711200,5.021711181640625,11.092336654663086,2.5115175247192383,-2.5977089405059814
1774790035160883200,5.04188330078125,11.523292541503906,2.585737943649292,-2.2577321529388428
1774790035170954000,5.0519541015625,12.138602256774902,2.3271639347076416,-2.0877439975738525
1774790035180994300,5.061994384765625,12.751518249511719,1.98958158493042,-2.1475989818573
1774790035191065000,5.072065185546875,12.880805015563965,1.7573440074920654,-2.671929121017456
1774790035201105400,5.08210546875,12.607866287231445,1.3910311460494995,-3.1483752727508545
1774790035211176200,5.09217626953125,12.102689743041992,1.2665326595306396,-3.3494882583618164
1774790035221216500,5.102216552734375,11.310209274291992,1.3527239561080933,-3.045424461364746
1774790035231317800,5.11231787109375,10.579977035522461,1.7357962131500244,-2.5761611461639404
1774790035241327600,5.12232763671875,10.146626472473145,2.2433669567108154,-2.1092917919158936
1774790035251428900,5.132428955078125,9.691728591918945,2.341529369354248,-1.6089035272598267
1774790035281641200,5.16264111328125,9.387664794921875,0.9050082564353943,-0.2992752194404602
1774790035301752300,5.18275244140625,9.643844604492188,-0.3064578175544739,-0.2346317619085312
1774790035321924400,5.20292431640625,9.646238327026367,-0.38067805767059326,-0.7182605266571045
1774790035331995100,5.2129951171875,9.519346237182617,-0.1412578970193863,-0.9911994934082031
1774790035342035500,5.223035400390625,9.459490776062012,-0.021547814831137657,-1.0989385843276978
1774790035352106200,5.233106201171875,9.485827445983887,-0.13407529890537262,-1.3934253454208374
1774790035372187000,5.253186767578125,9.306262016296387,-0.6200982332229614,-1.968033790588379
1774790035382227200,5.263227294921875,9.344569206237793,-0.7637503147125244,-2.1715409755706787
1774790035392298000,5.273298095703125,9.423578262329102,-0.9026140570640564,-2.4229321479797363
1774790035402368800,5.28336865234375,9.318233489990234,-0.7709329724311829,-2.5689783096313477
1774790035412470000,5.293469970703125,9.284713745117188,-0.47165772318840027,-2.6024973392486572
1774790035422540800,5.303540771484375,9.114726066589355,-0.0694318488240242,-2.5019407272338867
1774790035432642300,5.313642333984375,8.7484130859375,0.363918662071228,-2.3080103397369385
1774790035442713000,5.323713134765625,8.47547435760498,0.6607996821403503,-2.0685901641845703
1774790035452814300,5.333814453125,8.185775756835938,0.8571242094039917,-1.8100165128707886
1774790035482935300,5.363935302734375,7.642292022705078,0.9696516990661621,-1.4437036514282227
1774790035493036500,5.37403662109375,7.539340972900391,1.0749965906143188,-1.2713210582733154
1774790035503107300,5.384107421875,7.55131196975708,1.2090718746185303,-1.2186486721038818
1774790035513208600,5.39420849609375,7.65186882019043,1.3886369466781616,-1.0630255937576294
1774790035523249000,5.404248779296875,7.599195957183838,1.4293384552001953,-0.828393816947937
1774790035533350100,5.41435009765625,7.536946773529053,1.4748282432556152,-0.790086567401886
1774790035543390500,5.424390380859375,7.544129371643066,1.7046716213226318,-0.8044517636299133
1774790035553461200,5.434461181640625,7.671022415161133,1.7956513166427612,-0.7445967197418213
1774790035563501600,5.44450146484375,7.615955829620361,1.7932571172714233,-0.7565677165985107
1774790035583643100,5.46464306640625,7.936778545379639,1.7094600200653076,-0.7374141216278076
1774790035593744600,5.47474462890625,8.317456245422363,1.6400281190872192,-0.8188169598579407
1774790035603784700,5.48478466796875,8.492233276367188,1.5514427423477173,-0.8619126081466675
1774790035633997300,5.514997314453125,9.150638580322266,1.3910311460494995,-1.2066776752471924
1774790035644037400,5.525037353515625,9.296685218811035,1.2258312702178955,-1.2713210582733154
1774790035654077700,5.53507763671875,9.375694274902344,1.3862427473068237,-1.3958195447921753
1774790035664148500,5.5451484375,9.5624418258667,1.4987702369689941,-1.3718775510787964
1774790035674219300,5.55521923828125,9.627084732055664,1.6974890232086182,-1.4628572463989258
1774790035684259600,5.565259521484375,9.75637149810791,1.7956513166427612,-1.5849615335464478
1774790035704401200,5.585401123046875,9.830592155456543,2.03507137298584,-1.824381709098816
1774790035714502700,5.595502685546875,9.897629737854004,2.161964178085327,-1.7812861204147339
1774790035724573400,5.605573486328125,10.02452278137207,2.2242133617401123,-1.7334020137786865
1774790035734674700,5.6156748046875,10.1753568649292,2.1787235736846924,-1.6519991159439087
1774790035744715000,5.625715087890625,10.398017883300781,2.0422539710998535,-1.6328455209732056
1774790035754785800,5.635785888671875,10.515334129333496,1.920149803161621,-1.7094600200653076
1774790035764826000,5.645826171875,10.730812072753906,1.6639702320098877,-1.9488801956176758
1774790035784967700,5.6659677734375,10.936713218688965,1.656787633895874,-2.142810583114624
1774790035815180000,5.696179931640625,11.765107154846191,2.2002713680267334,-2.8802247047424316
1774790035825250800,5.706250732421875,11.772290229797363,2.4229321479797363,-3.6320040225982666
1774790035835321600,5.716321533203125,11.66694450378418,2.319981336593628,-4.175487995147705
1774790035845392400,5.726392333984375,11.535264015197754,1.9512743949890137,-4.462791919708252
1774790035855463200,5.736463134765625,11.310209274291992,1.5059528350830078,-4.388571739196777
1774790035865503500,5.74650341796875,11.101913452148438,0.9409212470054626,-4.158728122711182
1774790035875574300,5.75657421875,11.101913452148438,0.9409212470054626,-4.158728122711182
1774790035885614600,5.766614501953125,11.24795913696289,0.4429273009300232,-3.9025487899780273
1774790035895685400,5.776685302734375,11.209651947021484,0.181959331035614,-3.7469255924224854
1774790035905756200,5.786756103515625,11.216835021972656,0.1173158809542656,-3.529053211212158
1774790035946008800,5.8270087890625,10.290278434753418,1.173158884048462,-3.2632968425750732
1774790035956110300,5.8371103515625,9.84256362915039,1.403002142906189,-3.3423056602478027
1774790035986353200,5.867353271484375,8.664615631103516,1.6639702320098877,-3.1723172664642334
1774790036016535000,5.89753515625,8.279149055480957,1.2282254695892334,-2.188300371170044
1774790036097162500,5.97816259765625,7.955932140350342,0.6871358752250671,-1.3239935636520386
1774790036107202800,5.988202880859375,7.929595947265625,0.7805097699165344,-1.2689268589019775
1774790036127314000,6.00831396484375,7.692570209503174,1.2282254695892334,-1.2545616626739502
1774790036147425000,6.028425048828125,7.55131196975708,1.400607943534851,-1.3862427473068237
1774790036167597000,6.04859716796875,7.575253963470459,1.314416766166687,-1.1204863786697388
1774790036197840000,6.07883984375,7.802703380584717,1.5442601442337036,-1.2545616626739502
1774790036207941400,6.08894140625,7.781155586242676,1.6639702320098877,-1.3694833517074585
1774790036218042600,6.099042724609375,7.659051418304443,1.702277421951294,-1.4652514457702637
1774790036228083000,6.1090830078125,7.805097579956055,1.8339585065841675,-1.4460978507995605
1774790036238153700,6.11915380859375,7.915230751037598,1.968033790588379,-1.455674648284912
1774790036248224500,6.129224609375,8.066065788269043,2.1380221843719482,-1.4891934394836426
1774790036258325800,6.13932568359375,8.276755332946777,2.298433542251587,-1.5275006294250488
1774790036288507600,6.169507568359375,8.633491516113281,2.2409727573394775,-1.678335428237915
1774790036298578400,6.179578369140625,8.796297073364258,2.296039342880249,-1.6089035272598267
1774790036318689500,6.199689453125,9.32302188873291,2.8227639198303223,-1.6280571222305298
1774790036328760300,6.20976025390625,9.75397777557373,3.0382418632507324,-1.7310078144073486
1774790036348871400,6.229871337890625,10.84094524383545,2.7437551021575928,-2.0398597717285156
1774790036358911700,6.239911865234375,11.267112731933594,2.4899697303771973,-2.1978771686553955
1774790036399195000,6.28019482421875,11.422736167907715,2.734178304672241,-2.942473888397217
1774790036409265700,6.290265625,11.456254959106445,3.1292216777801514,-2.7054479122161865
1774790036419336400,6.30033642578125,11.288661003112793,3.287238836288452,-2.229001760482788
1774790036439447600,6.320447509765625,11.60948371887207,2.82515811920166,-1.4245500564575195
1774790036449518300,6.330518310546875,12.15296745300293,2.10210919380188,-1.2473790645599365
1774790036459558700,6.34055859375,12.521675109863281,1.3407529592514038,-1.4676456451416016
1774790036469629400,6.35062939453125,12.564770698547363,0.5722141861915588,-2.03507137298584
1774790036479700200,6.3607001953125,11.882423400878906,-0.12449848651885986,-2.5067291259765625
1774790036489771300,6.370771240234375,11.21444034576416,-0.43095630407333374,-2.5450363159179688
1774790036499811300,6.380811279296875,10.599130630493164,-0.3519476354122162,-2.0614075660705566
1774790036509851600,6.3908515625,9.998186111450195,0.14604631066322327,-1.4724340438842773
1774790036519892000,6.40089208984375,9.550470352172852,0.7134721279144287,-1.1085153818130493
1774790036529993200,6.4109931640625,9.418789863586426,1.2976573705673218,-0.7038952708244324
1774790036540094700,6.4210947265625,9.552865028381348,1.1180921792984009,-0.2944868206977844
1774790036550134800,6.431134765625,9.653421401977539,0.646434485912323,0.07900865375995636
1774790036560175000,6.441175048828125,9.78989028930664,-0.011971008032560349,0.17717093229293823
1774790036570246000,6.451245849609375,9.80904483795166,-0.6440402865409851,0.06703764945268631
1774790036590448600,6.47144873046875,9.90241813659668,-1.1659762859344482,-0.47405192255973816
1774790036610559700,6.491559814453125,9.926360130310059,-1.0223240852355957,-0.9552865028381348
1774790036620630500,6.501630615234375,9.732429504394531,-0.9074024558067322,-1.1755530834197998
1774790036630701300,6.511701416015625,9.62947940826416,-0.6057330369949341,-1.3766659498214722
1774790036650812400,6.5318125,9.244012832641602,-0.047884032130241394,-1.8602946996688843
1774790036660883200,6.54188330078125,9.17936897277832,0.10295066982507706,-1.9991583824157715
1774790036670954000,6.5519541015625,9.074024200439453,0.304063618183136,-2.0901381969451904
1774790036691095600,6.572095458984375,8.44434928894043,0.8188169598579407,-1.8986018896102905
1774790036701166300,6.582166259765625,8.327033042907715,0.8930372595787048,-1.7501614093780518
1774790036711237000,6.592237060546875,8.192957878112793,0.8331822156906128,-1.764526605606079
1774790036721277400,6.60227734375,8.054094314575195,0.5482721924781799,-1.7357962131500244
1774790036731317800,6.61231787109375,7.9176249504089355,0.22505496442317963,-1.8507179021835327
1774790036741358000,6.622358154296875,7.613561630249023,0.10295066982507706,-1.7381904125213623
1774790036751428900,6.632428955078125,7.419631004333496,0.3663128614425659,-1.6065093278884888
1774790036761499600,6.642499755859375,7.328651428222656,0.6440402865409851,-1.3551181554794312
1774790036771570400,6.6525703125,7.156269073486328,0.871489405632019,-1.1516109704971313
1774790036781641200,6.66264111328125,6.981492042541504,1.1109095811843872,-1.0678139925003052
1774790036791712000,6.6727119140625,7.096413612365723,1.2665326595306396,-1.1109095811843872
1774790036801813200,6.682813232421875,7.108384609222412,1.41257905960083,-1.1013327836990356
1774790036811884300,6.69288427734375,7.280767440795898,1.4724340438842773,-1.070208191871643
1774790036821955000,6.702955078125,7.491456985473633,1.4197616577148438,-0.9744400978088379
1774790036831995100,6.7129951171875,7.690176010131836,1.3000515699386597,-0.8451532125473022
1774790036842066200,6.723066162109375,7.91283655166626,1.2425906658172607,-0.8786720037460327
1774790036852137000,6.733136962890625,8.224082946777344,1.290474772453308,-0.8810662031173706
1774790036862238200,6.74323828125,8.518569946289062,1.3024457693099976,-0.8068459630012512
1774790036872278500,6.753278564453125,8.678980827331543,1.1971008777618408,-0.8858546018600464
1774790036892389600,6.7733896484375,9.126696586608887,1.3000515699386597,-1.072602391242981
1774790036902491000,6.783490966796875,9.370905876159668,1.4077905416488647,-1.2521674633026123
1774790036912561700,6.793561767578125,9.531316757202148,1.482010841369629,-1.3623007535934448
1774790036932703200,6.813703125,9.979032516479492,1.7094600200653076,-1.4532804489135742
1774790036942774000,6.82377392578125,10.144232749938965,1.699883222579956,-1.53707754611969
1774790036952844800,6.8338447265625,10.436325073242188,1.766920804977417,-1.5897499322891235
1774790036962946300,6.8439462890625,10.414777755737305,1.7525556087493896,-1.680729627609253
1774790036993097500,6.874097412109375,10.867281913757324,1.45806884765625,-1.98958158493042
1774790037003168300,6.884168212890625,11.018115997314453,1.4532804489135742,-2.0805611610412598
1774790037013208600,6.89420849609375,11.207258224487305,1.4915876388549805,-2.233790159225464
1774790037023310000,6.90431005859375,11.434707641601562,1.659181833267212,-2.3487119674682617
1774790037033350100,6.91435009765625,11.530475616455078,1.766920804977417,-2.4133553504943848
1774790037043421000,6.9244208984375,11.78904914855957,1.7525556087493896,-2.3487119674682617
1774790037053461200,6.934461181640625,12.09311294555664,1.889025092124939,-2.367865562438965
1774790037063562800,6.944562744140625,12.102689743041992,2.185906171798706,-3.0190882682800293
1774790037073633500,6.954633544921875,11.75553035736084,2.343923568725586,-3.8355112075805664
1774790037093775000,6.974775146484375,10.972626686096191,1.6304513216018677,-4.331110954284668
1774790037103876400,6.98487646484375,10.773907661437988,0.8858546018600464,-4.050989151000977
1774790037124018000,7.005017822265625,10.958261489868164,-0.12210428714752197,-3.627215623855591
1774790037134058200,7.015058349609375,11.018115997314453,-0.10055647045373917,-3.641580820083618
1774790037144159500,7.025159423828125,11.070788383483887,-0.014365210197865963,-3.6846764087677
1774790037154199800,7.03519970703125,11.190498352050781,0.2585737705230713,-3.6535518169403076
1774790037164240100,7.045240234375,10.927136421203613,0.5793967843055725,-3.598485231399536
1774790037174280400,7.055280517578125,10.65898609161377,0.7757213711738586,-3.529053211212158
1774790037184351200,7.065351318359375,10.35252857208252,1.1204863786697388,-3.6750996112823486
1774790037204462300,7.08546240234375,9.332598686218262,1.3503297567367554,-3.866635799407959
1774790037214533000,7.095533203125,9.074024200439453,1.3263877630233765,-3.6750996112823486
1774790037224634400,7.10563427734375,8.93037223815918,1.290474772453308,-3.2968156337738037
1774790037234674700,7.1156748046875,8.779537200927734,1.213860273361206,-2.82515811920166
1774790037244745500,7.125745361328125,8.78432559967041,1.0630255937576294,-2.3989901542663574
1774790037254816300,7.135816162109375,8.746018409729004,0.7948749661445618,-2.1930887699127197
1774790037264887000,7.145886962890625,8.547300338745117,0.5722141861915588,-1.8722656965255737
1774790037274927400,7.15592724609375,8.322244644165039,0.545877993106842,-1.5442601442337036
1774790037284967700,7.1659677734375,8.14028549194336,0.751779317855835,-1.2497732639312744
1774790037305078800,7.186078857421875,7.90086555480957,0.9385270476341248,-0.8906430602073669
1774790037315119000,7.196119140625,7.747636795043945,0.950498104095459,-0.7733271718025208
1774790037325190000,7.20618994140625,7.642292022705078,0.9528923034667969,-0.6775590777397156
1774790037335230200,7.216230224609375,7.527369976043701,0.9552865028381348,-0.7493851184844971
1774790037345301000,7.226301025390625,7.307103633880615,1.1899182796478271,-0.7972691655158997
1774790037355371800,7.236371826171875,7.2783732414245605,1.2114660739898682,-0.7948749661445618
1774790037365442600,7.246442626953125,7.0988078117370605,1.338358759880066,-0.6967126727104187
1774790037375483000,7.25648291015625,7.096413612365723,1.4173674583435059,-0.5841852426528931
1774790037385553700,7.2665537109375,7.103596210479736,1.290474772453308,-0.5746083855628967
1774790037415705000,7.296705078125,7.457938194274902,1.137245774269104,-0.7589619159698486
1774790037425745200,7.3067451171875,7.675810813903809,1.05105459690094,-0.9361328482627869
1774790037435785500,7.316785400390625,7.869740962982178,1.137245774269104,-1.1516109704971313
1774790037445856300,7.326856201171875,8.015787124633789,1.213860273361206,-1.3048399686813354
1774790037455896600,7.336896484375,8.157045364379883,1.4317326545715332,-1.4389152526855469
1774790037465967400,7.34696728515625,8.259995460510254,1.5131354331970215,-1.6950948238372803
1774790037476007700,7.357007568359375,8.221688270568848,1.5107412338256836,-1.9560627937316895
1774790037486078500,7.367078369140625,8.396465301513672,1.6879122257232666,-2.032677173614502
1774790037496118800,7.377118896484375,8.449137687683105,1.6903064250946045,-2.123656988143921
1774790037516230000,7.39722998046875,8.75080680847168,1.8626888990402222,-1.9153614044189453
1774790037526300700,7.40730078125,8.966285705566406,1.9967641830444336,-1.7549498081207275
1774790037546472700,7.42747265625,9.440337181091309,2.123656988143921,-1.4724340438842773
1774790037556482600,7.437482666015625,9.792284965515137,2.03507137298584,-1.4077905416488647
1774790037566553300,7.44755322265625,10.096348762512207,1.8770540952682495,-1.3886369466781616
1774790037576624000,7.4576240234375,10.36449909210205,1.845929503440857,-1.50355863571167
1774790037586756000,7.467756103515625,10.498574256896973,1.8315643072128296,-1.6496049165725708
1774790037596796200,7.477796142578125,10.72602367401123,1.9249382019042969,-1.8579005002975464
1774790037637018400,7.518018310546875,11.279084205627441,1.9273324012756348,-1.8315643072128296
1774790037647089200,7.528089111328125,11.283872604370117,1.8171991109848022,-1.5753847360610962
1774790037667261400,7.548261474609375,11.827356338500977,1.659181833267212,-0.6105214357376099
1774790037677332200,7.558332275390625,12.591106414794922,1.4437036514282227,-0.3447650372982025
1774790037687403000,7.568403076171875,12.85207462310791,1.3718775510787964,-1.0438719987869263
1774790037697473800,7.578473876953125,12.658143997192383,1.0247182846069336,-2.22660756111145
1774790037707544600,7.588544677734375,12.042834281921387,0.3256114423274994,-2.9903578758239746
1774790037717585000,7.5985849609375,11.245565414428711,-0.019153613597154617,-2.96162748336792
1774790037737757000,7.6187568359375,10.105925559997559,0.7613561153411865,-0.9864110946655273
1774790037747827700,7.62882763671875,10.146626472473145,1.1659762859344482,-0.2082955539226532
1774790037757868000,7.638867919921875,10.390835762023926,0.9864110946655273,0.27054479718208313
1774790037767969300,7.64896923828125,10.620678901672363,0.4141969084739685,0.30885201692581177
1774790037778009600,7.659009521484375,10.730812072753906,-0.13407529890537262,0.004788403399288654
1774790037788080400,7.669080322265625,10.608707427978516,-0.7924807667732239,-0.4381389021873474
1774790037798151200,7.679151123046875,10.515334129333496,-1.0055646896362305,-0.6584054827690125
1774790037808222000,7.689221923828125,10.508151054382324,-1.0199298858642578,-0.9528923034667969
1774790037818293000,7.69929296875,10.38604736328125,-0.8307880163192749,-1.256955862045288
1774790037838434600,7.7194345703125,9.959878921508789,-0.16519992053508759,-1.8602946996688843
1774790037848505300,7.72950537109375,9.569623947143555,0.21787235140800476,-2.0207061767578125
1774790037858545700,7.739545654296875,9.390059471130371,0.31364041566848755,-2.2912509441375732
1774790037868616400,7.749616455078125,9.253589630126953,0.40222588181495667,-2.2409727573394775
1774790037878687200,7.759687255859375,9.038111686706543,0.35673606395721436,-2.190694570541382
1774790037888788500,7.76978857421875,8.875306129455566,0.3232172429561615,-2.094926595687866
1774790037898859300,7.779859375,8.633491516113281,0.26575639843940735,-1.9776105880737305
1774790037908930000,7.789929931640625,8.449137687683105,0.20350714027881622,-1.8962076902389526
1774790037919000800,7.800000732421875,8.303091049194336,0.2346317619085312,-1.7980455160140991
1774790037929102000,7.81010205078125,8.123526573181152,0.21308395266532898,-1.6687586307525635
1774790037949244000,7.830243896484375,7.750030994415283,0.3280056416988373,-1.280897855758667
1774790037959284000,7.840283935546875,7.383718013763428,0.4812345504760742,-1.0462661981582642
1774790037969354800,7.850354736328125,7.15387487411499,0.6703764796257019,-1.0223240852355957
1774790037979395000,7.86039501953125,6.876147270202637,0.8643068075180054,-0.9241618514060974
1774790037989496600,7.87049658203125,6.828263282775879,1.1276689767837524,-0.8954314589500427
1774790037999536600,7.88053662109375,6.856993675231934,1.3239935636520386,-0.8236053586006165
1774790038009607700,7.890607666015625,7.218518257141113,1.338358759880066,-0.6919242739677429
1774790038019678500,7.900678466796875,7.393294811248779,1.2234370708465576,-0.5937620401382446
1774790038029718500,7.910718505859375,7.560888767242432,1.015141487121582,-0.6775590777397156
1774790038069971500,7.950971435546875,7.9176249504089355,1.3000515699386597,-0.8810662031173706
1774790038080011500,7.961011474609375,8.010998725891113,1.45806884765625,-0.8978256583213806
1774790038090082300,7.971082275390625,8.336610794067383,1.4389152526855469,-0.8355764150619507
1774790038100153300,7.9811533203125,8.71489429473877,1.381454348564148,-0.7876923680305481
1774790038110224100,7.99122412109375,9.14585018157959,1.1085153818130493,-0.9050082564353943
1774790038120203300,8.001203369140624,9.418789863586426,0.871489405632019,-1.139639973640442
1774790038130274000,8.011274169921874,9.476250648498535,0.7086837291717529,-1.094150185585022
1774790038150415600,8.03141552734375,9.830592155456543,1.235408067703247,-0.871489405632019
1774790038170496300,8.051496337890624,10.065223693847656,2.051830768585205,-1.3000515699386597
1774790038190607400,8.071607421875,10.146626472473145,2.212242364883423,-1.6328455209732056
1774790038200647700,8.081647705078124,10.268731117248535,2.0254945755004883,-1.556231141090393
1774790038210749000,8.0917490234375,10.486603736877441,1.7932571172714233,-1.4963760375976562
1774790038220789200,8.101789306640624,10.704475402832031,1.5610195398330688,-1.50355863571167
1774790038230860000,8.111860107421874,10.836156845092773,1.3862427473068237,-1.5538369417190552
1774790038240870000,8.121869873046874,10.927136421203613,1.316810965538025,-1.7286136150360107
1774790038250971100,8.13197119140625,11.137825965881348,1.455674648284912,-1.742978811264038
1774790038261011500,8.142011474609374,11.21444034576416,1.534683346748352,-1.8914192914962769
1774790038271082200,8.152082275390624,11.580753326416016,1.599326729774475,-1.7573440074920654
1774790038291162600,8.17216259765625,12.33253288269043,1.9488801956176758,-2.432508945465088
1774790038301203000,8.182202880859375,12.140996932983398,2.054224967956543,-3.3207578659057617
1774790038311243300,8.1922431640625,11.652579307556152,1.9632453918457031,-4.067748546600342
1774790038321283600,8.20228369140625,11.192893028259277,1.5514427423477173,-4.180276393890381
1774790038331384800,8.212384765625,10.922348022460938,1.2234370708465576,-3.8714241981506348
1774790038341425200,8.222425048828125,10.991780281066895,0.7182605266571045,-3.533841609954834
1774790038351526400,8.2325263671875,10.970232009887695,0.15801730751991272,-3.31118106842041
1774790038371637500,8.252637451171875,11.061211585998535,-0.4884171485900879,-3.5266590118408203
1774790038381677800,8.262677734375,10.96544361114502,-0.4668693244457245,-3.4955344200134277
1774790038391748600,8.27274853515625,10.912771224975586,-0.1628057211637497,-3.40216064453125
1774790038401758500,8.282758544921874,10.745177268981934,0.2298433631658554,-3.315969467163086
1774790038411859700,8.292859619140625,10.522516250610352,0.6536170840263367,-3.378218650817871
1774790038421930500,8.302930419921875,10.074800491333008,0.9552865028381348,-3.450044631958008
1774790038432001300,8.313001220703125,9.588777542114258,1.2306196689605713,-3.6128504276275635
1774790038442041600,8.32304150390625,9.320627212524414,1.2018892765045166,-3.3446998596191406
1774790038462183200,8.34318310546875,8.827422142028809,1.3287819623947144,-2.5330653190612793
1774790038472284700,8.35328466796875,8.81784439086914,1.2401964664459229,-2.1571757793426514
1774790038482324700,8.36332470703125,8.762778282165527,1.137245774269104,-1.800439715385437
1774790038492426200,8.37342626953125,8.650250434875488,1.05105459690094,-1.5538369417190552
1774790038502466600,8.383466552734374,8.564059257507324,0.9816226959228516,-1.2042834758758545
1774790038512567800,8.39356787109375,8.42040729522705,1.094150185585022,-1.015141487121582
1774790038522638600,8.403638671875,8.106766700744629,1.2186486721038818,-0.8403648138046265
1774790038532739800,8.41373974609375,7.929595947265625,1.4293384552001953,-0.7541735172271729
1774790038542780200,8.4237802734375,7.7213006019592285,1.5155296325683594,-0.7182605266571045
1774790038572992500,8.453992431640625,7.501033782958984,1.256955862045288,-0.507570743560791
1774790038583032800,8.46403271484375,7.539340972900391,1.1635819673538208,-0.3974374830722809
1774790038593134000,8.474134033203125,7.534552574157715,1.1228805780410767,-0.33518823981285095
1774790038603174400,8.48417431640625,7.738059997558594,1.0271124839782715,-0.272938996553421
1774790038613275600,8.494275634765625,7.694964408874512,1.036689281463623,-0.3758896589279175
1774790038623316000,8.50431591796875,7.714118003845215,1.0630255937576294,-0.4668693244457245
1774790038633386800,8.51438671875,7.673416614532471,1.2234370708465576,-0.6129156351089478
1774790038643427000,8.524427001953125,7.637503623962402,1.3527239561080933,-0.790086567401886
1774790038673609000,8.55460888671875,8.212111473083496,1.2713210582733154,-1.2880805730819702
1774790038683649300,8.564649169921875,8.473079681396484,1.194706678390503,-1.4245500564575195
1774790038693720000,8.574719970703125,8.65743350982666,1.0438719987869263,-1.580173134803772
1774790038703790800,8.584790771484375,8.616731643676758,1.1899182796478271,-1.4652514457702637
1774790038723902000,8.60490185546875,8.377311706542969,1.656787633895874,-1.280897855758667
1774790038734003200,8.615003173828125,8.370129585266113,1.802833914756775,-1.1659762859344482
1774790038744043500,8.62504345703125,8.418013572692871,1.9752163887023926,-1.137245774269104
1774790038754114300,8.6351142578125,8.671798706054688,1.9752163887023926,-1.1061211824417114
1774790038774256000,8.655256103515624,9.253589630126953,1.8148049116134644,-1.0127472877502441
1774790038784327000,8.665326904296874,9.493009567260742,1.7405846118927002,-0.933738648891449
1774790038794367000,8.675366943359375,9.653421401977539,1.8387469053268433,-0.8547300100326538
1774790038804407300,8.6854072265625,9.904812812805176,2.0039467811584473,-0.8427590131759644
1774790038814478000,8.69547802734375,10.18493366241455,2.183511972427368,-0.8523358106613159
1774790038824518400,8.705518310546875,10.412383079528809,2.2433669567108154,-0.9696516990661621
1774790038834589200,8.715589111328125,10.572794914245605,2.3080103397369385,-1.2066776752471924
1774790038844629500,8.72562939453125,10.675745010375977,2.255337953567505,-1.3192051649093628
1774790038854700300,8.7357001953125,10.896012306213379,2.1356279850006104,-1.3192051649093628
1774790038864740600,8.74574072265625,10.896012306213379,2.1356279850006104,-1.3192051649093628
1774790038884851700,8.765851806640624,11.116278648376465,2.1308395862579346,-1.2042834758758545
1774790038894922500,8.775922607421874,11.283872604370117,2.140416383743286,-0.9576807022094727
1774790038904962800,8.785962890625,11.374852180480957,2.10210919380188,-0.5746083855628967
1774790038915033600,8.79603369140625,12.064382553100586,1.8914192914962769,-0.22266076505184174
1774790038935175200,8.816175048828125,13.498509407043457,0.8451532125473022,-0.7757213711738586
1774790038955316700,8.836316650390625,12.868834495544434,0.2992752194404602,-2.1547815799713135
1774790038985498600,8.86649853515625,10.72602367401123,1.625662922859192,-1.6687586307525635
1774790038995569400,8.8765693359375,10.036493301391602,2.0374655723571777,-1.3479355573654175
1774790039005609700,8.886609619140625,9.646238327026367,1.9800047874450684,-1.0414776802062988
1774790039015680500,8.896680419921875,9.66539192199707,1.3742717504501343,-0.586579442024231
1774790039025751300,8.906751220703125,9.481039047241211,0.5554547905921936,-0.23942017555236816
1774790039035852800,8.916852783203124,9.406818389892578,-0.31603461503982544,-0.004788403399288654
1774790039045892900,8.926892822265625,9.433155059814453,-0.9720458984375,-0.002394201699644327
1774790039055933200,8.93693310546875,9.5408935546875,-1.3551181554794312,-0.016759412363171577
1774790039065973500,8.946973388671875,9.607931137084961,-1.460463047027588,-0.07900865375995636
1774790039086145500,8.9671455078125,9.576807022094727,-0.5554547905921936,-0.2944868206977844
1774790039096216600,8.977216552734374,9.50737476348877,-0.19393034279346466,-0.4692635238170624
1774790039106256600,8.987256591796875,9.378087997436523,-0.10055647045373917,-0.8523358106613159
1774790039116327400,8.997327392578125,9.205705642700195,0.031124621629714966,-1.1851298809051514
1774790039126367700,9.00736767578125,9.097966194152832,-0.1364694982767105,-1.4221558570861816
1774790039136469200,9.01746923828125,8.983044624328613,-0.12449848651885986,-1.4652514457702637
1774790039146540000,9.0275400390625,8.951920509338379,-0.038307227194309235,-1.4772224426269531
1774790039156641300,9.037641357421874,9.023746490478516,-0.0933738648891449,-1.5275006294250488
1774790039166681600,9.047681640625,8.968679428100586,0.10534487664699554,-1.644816517829895
1774790039186792700,9.067792724609374,8.810662269592285,0.10773907601833344,-1.5634137392044067
1774790039196863500,9.077863525390624,8.640673637390137,0.0454898327589035,-1.4221558570861816
1774790039206934300,9.087934326171874,8.473079681396484,0.1364694982767105,-1.158793568611145
1774790039216974600,9.097974609375,8.389283180236816,0.14604631066322327,-1.0869675874710083
1774790039227015000,9.108014892578124,8.26478385925293,0.12689268589019775,-1.139639973640442
1774790039237116200,9.1181162109375,8.056488990783691,0.2561795711517334,-1.1659762859344482
1774790039247187000,9.12818701171875,8.075642585754395,0.5626373887062073,-1.1516109704971313
1774790039257288200,9.1382880859375,7.881711959838867,0.8092401623725891,-1.0462661981582642
1774790039267328500,9.14832861328125,7.843404769897461,0.9720458984375,-0.871489405632019
1774790039287439600,9.168439697265624,7.63989782333374,1.5466543436050415,-0.5889736413955688
1774790039297480000,9.17847998046875,7.740454196929932,1.6974890232086182,-0.524330198764801
1774790039307550700,9.18855078125,7.759607791900635,1.7597382068634033,-0.45489832758903503
1774790039317621500,9.19862158203125,7.891288757324219,1.6041151285171509,-0.4381389021873474
1774790039327722800,9.20872265625,8.202534675598145,1.2832920551300049,-0.3232172429561615
1774790039337824000,9.218823974609375,8.425195693969727,0.950498104095459,-0.304063618183136
1774790039347864300,9.2288642578125,8.621520042419434,0.8403648138046265,-0.49559974670410156
1774790039357935000,9.23893505859375,8.83699893951416,0.8427590131759644,-0.5650315880775452
1774790039367975400,9.248975341796875,8.93037223815918,1.1204863786697388,-0.5602431893348694
1774790039398187800,9.279187744140625,8.966285705566406,1.845929503440857,-0.33758243918418884
1774790039408228000,9.28922802734375,9.062053680419922,1.9081788063049316,-0.3471592366695404
1774790039418268400,9.299268310546875,9.35893440246582,1.9057846069335938,-0.2968810200691223
1774790039428339200,9.309339111328125,9.63187313079834,1.745373010635376,-0.13407529890537262
1774790039438440400,9.3194404296875,9.854534149169922,1.534683346748352,-0.07422025501728058
1774790039448511500,9.329511474609374,9.955090522766113,1.3886369466781616,-0.21308395266532898
1774790039458582300,9.339582275390624,10.091560363769531,1.2306196689605713,-0.3519476354122162
1774790039468622300,9.349622314453125,10.290278434753418,1.1779472827911377,-0.5363011956214905
1774790039488733400,9.3697333984375,10.54406452178955,1.5179238319396973,-0.6344634294509888
1774790039508875300,9.389875244140624,10.551246643066406,2.1045033931732178,-0.8044517636299133
1774790039518976500,9.3999765625,10.666168212890625,2.2912509441375732,-0.9145850539207458
1774790039529016800,9.410016845703124,10.879252433776855,2.209848165512085,-1.0342950820922852
1774790039539118000,9.4201181640625,11.226411819458008,2.0853497982025146,-1.139639973640442
1774790039549158400,9.430158447265624,11.583148002624512,1.86508309841156,-1.0055646896362305
1774790039559229200,9.440229248046874,12.251130104064941,1.6831238269805908,-1.1444283723831177
1774790039569300000,9.450300048828124,12.715604782104492,1.659181833267212,-1.6208745241165161
1774790039579370800,9.460370849609374,12.701239585876465,1.7357962131500244,-2.3774423599243164
1774790039599573500,9.480573486328124,12.02846908569336,1.7286136150360107,-3.3638534545898438
1774790039609613600,9.490613525390625,11.429919242858887,1.6759412288665771,-3.287238836288452
1774790039619684400,9.500684326171875,10.900800704956055,1.6903064250946045,-2.983175277709961
1774790039629724700,9.510724609375,10.666168212890625,1.2521674633026123,-2.5546131134033203
1774790039639795500,9.52079541015625,10.675745010375977,0.7972691655158997,-2.126051187515259
1774790039649866200,9.5308662109375,10.869675636291504,0.26096799969673157,-1.821987509727478
1774790039659937300,9.540937255859374,11.14500904083252,-0.09816227108240128,-1.7549498081207275
1774790039669977300,9.550977294921875,11.18092155456543,-0.1843535304069519,-1.7142484188079834
1774790039680017700,9.561017578125,10.893617630004883,-0.2346317619085312,-1.6304513216018677
1774790039710199600,9.591199462890625,9.318233489990234,0.47644615173339844,-1.577778935432434
1774790039720270300,9.601270263671875,8.99740982055664,0.8834604024887085,-1.3934253454208374
1774790039730310700,9.611310546875,8.810662269592285,1.1516109704971313,-0.9481038451194763
1774790039740351000,9.62135107421875,8.705317497253418,1.1875240802764893,-0.48602294921875
1774790039750391300,9.631391357421874,8.738836288452148,1.1348515748977661,-0.1867477297782898
1774790039760431600,9.641431640625,8.89445972442627,1.0199298858642578,-0.10534487664699554
1774790039770502400,9.65150244140625,8.875306129455566,0.9433154463768005,-0.14844051003456116
1774790039800745200,9.6817451171875,8.238448143005371,0.9097966551780701,0.6200982332229614
1774790039810846500,9.691846435546875,8.1139497756958,1.2689268589019775,0.6320692300796509
1774790039820917500,9.70191748046875,8.022970199584961,1.3192051649093628,0.5817909836769104
1774790039830927000,9.711927001953125,7.94635534286499,1.359906554222107,0.5123591423034668
1774790039840998000,9.721997802734375,7.943961143493652,1.4317326545715332,0.29209262132644653
1774790039851099100,9.73209912109375,7.91283655166626,1.259350061416626,0.20350714027881622
1774790039861170200,9.742170166015624,7.812280178070068,1.1994950771331787,0.09816227108240128
1774790039871241000,9.752240966796874,7.86734676361084,1.0414776802062988,-0.05746084079146385
1774790039881311700,9.762311767578124,7.888894557952881,0.9097966551780701,-0.2346317619085312
1774790039921534000,9.802533935546874,8.094796180725098,1.2856862545013428,-0.3232172429561615
1774790039931574000,9.812573974609375,7.955932140350342,1.3407529592514038,-0.3902548849582672
1774790039941675500,9.822675537109374,8.073247909545898,1.522712230682373,-0.4812345504760742
1774790039951715800,9.8327158203125,8.135497093200684,1.7357962131500244,-0.5817909836769104
1774790039961756000,9.842755859375,8.274360656738281,1.7118542194366455,-0.569819986820221
1774790039971826700,9.85282666015625,8.305485725402832,1.6376339197158813,-0.5339069962501526
1774790039981897700,9.862897705078124,8.501810073852539,1.6041151285171509,-0.4836287498474121
1774790040022180900,9.903180908203124,8.607154846191406,1.8195933103561401,-0.19393034279346466
1774790040042261200,9.92326123046875,8.611943244934082,2.032677173614502,-0.047884032130241394
1774790040052362800,9.93336279296875,8.676587104797363,1.9823989868164062,0.12689268589019775
1774790040062464000,9.943464111328124,8.949525833129883,2.1380221843719482,0.16519992053508759
1774790040072534800,9.95353466796875,9.169792175292969,2.2361843585968018,0.090979665517807
1774790040082575000,9.9635751953125,9.368511199951172,2.1739351749420166,-0.028730420395731926
1774790040092676400,9.97367626953125,9.627084732055664,2.2457611560821533,-0.09816227108240128
1774790040102747100,9.9837470703125,9.9000244140625,2.126051187515259,-0.1149216815829277
1774790040122858200,10.003858154296875,10.433931350708008,2.056619167327881,-0.3758896589279175
1774790040132929000,10.013928955078125,10.754754066467285,2.0254945755004883,-0.6512228846549988
1774790040142999800,10.023999755859375,11.077971458435059,1.8531121015548706,-0.8571242094039917
1774790040173181700,10.054181640625,11.410765647888184,2.1045033931732178,-0.40222588181495667
1774790040183252500,10.06425244140625,11.66694450378418,2.0183119773864746,-0.019153613597154617
1774790040193292800,10.074292724609375,12.397176742553711,1.845929503440857,0.5123591423034668
1774790040213404000,10.09440380859375,14.089877128601074,1.192312479019165,0.016759412363171577
1774790040233576200,10.114576171875,13.175292015075684,0.5650315880775452,-1.6280571222305298
1774790040243585800,10.124585693359375,12.236764907836914,0.47644615173339844,-1.4437036514282227
1774790040253626000,10.134626220703124,11.259930610656738,0.9074024558067322,-0.7086837291717529
1774790040263697000,10.14469677734375,10.532093048095703,1.2737152576446533,-0.016759412363171577
1774790040273737200,10.1547373046875,10.0580415725708,1.53707754611969,0.2968810200691223
1774790040283808000,10.16480810546875,9.715670585632324,1.599326729774475,0.31364041566848755
1774790040293848300,10.174848388671874,9.433155059814453,1.2952631711959839,0.35434186458587646
1774790040303888600,10.184888671875,9.354146003723145,0.8762778043746948,0.5171475410461426
1774790040313959400,10.19495947265625,9.397241592407227,0.4596867263317108,0.6272808313369751
1774790040334131500,10.21513134765625,9.852140426635742,-0.08619125932455063,0.47884035110473633
1774790040344202200,10.2252021484375,10.182539939880371,-0.5482721924781799,0.10055647045373917
1774790040354242600,10.23524267578125,10.182539939880371,-0.5482721924781799,-0.36152446269989014
1774790040364283000,10.245282958984374,9.986215591430664,-0.4118026793003082,-0.6919242739677429
1774790040374353700,10.255353759765624,9.617507934570312,-0.1388636976480484,-0.8044517636299133
1774790040384394000,10.26539404296875,9.287108421325684,0.0694318488240242,-0.9959878921508789
1774790040394434300,10.275434326171874,8.971074104309082,0.24899697303771973,-1.170764684677124
1774790040404474600,10.285474609375,8.607154846191406,0.4189853072166443,-1.400607943534851
1774790040414545400,10.29554541015625,8.47547435760498,0.5674257874488831,-1.4963760375976562
1774790040444788200,10.325788330078124,8.56884765625,1.1492167711257935,-1.41257905960083
1774790040454859000,10.33585888671875,8.49941635131836,0.9193734526634216,-1.4077905416488647
1774790040464960300,10.345960205078125,8.276755332946777,0.7613561153411865,-1.3718775510787964
1774790040475000600,10.35600048828125,7.996633529663086,0.7422025203704834,-1.256955862045288
1774790040495111700,10.376111572265625,7.536946773529053,0.849941611289978,-0.6847416758537292
1774790040505182500,10.386182373046875,7.5417351722717285,1.0749965906143188,-0.42856210470199585
1774790040515222800,10.396222900390624,7.510610580444336,1.1683704853057861,-0.40462008118629456
1774790040545435100,10.42643505859375,7.817068576812744,1.2210428714752197,-0.009576806798577309
1774790040555475500,10.436475341796875,7.6997528076171875,1.3048399686813354,0.3495534360408783
1774790040565546200,10.446546142578125,7.666234016418457,1.3551181554794312,0.5027823448181152
1774790040575586600,10.456586669921874,7.7643961906433105,1.3934253454208374,0.5027823448181152
1774790040585657300,10.4666572265625,7.814674377441406,1.4891934394836426,0.33518823981285095
1774790040595697700,10.47669775390625,8.022970199584961,1.5322890281677246,0.08379705995321274
1774790040605799000,10.486798828125,8.17141056060791,1.4413094520568848,0.05027823522686958
1774790040615839200,10.496839111328125,8.310274124145508,1.3718775510787964,-0.002394201699644327
1774790040625940500,10.5069404296875,8.485051155090332,1.314416766166687,0.12928688526153564
1774790040666132200,10.54713232421875,9.186552047729492,1.7477672100067139,0.035913024097681046
1774790040676203000,10.557203125,9.397241592407227,1.7405846118927002,-0.028730420395731926
1774790040686304300,10.56730419921875,9.622296333312988,1.7764976024627686,-0.040701430290937424
1774790040696375000,10.577375,9.792284965515137,1.8100165128707886,-0.12689268589019775
1774790040706415400,10.587415283203125,9.998186111450195,1.9704279899597168,-0.06464344263076782
1774790040716486100,10.597486083984375,10.113107681274414,2.0661959648132324,0.06464344263076782
1774790040726587600,10.607587646484374,10.254365921020508,2.1930887699127197,0.05746084079146385
1774790040756738800,10.63773876953125,10.359710693359375,2.3582887649536133,0.06703764945268631
1774790040776880600,10.657880615234374,10.632649421691895,2.1715409755706787,0.06224924325942993
1774790040786982000,10.66798193359375,10.886435508728027,1.9560627937316895,-0.11252748221158981
1774790040797052700,10.678052734375,11.185709953308105,1.8171991109848022,-0.38307225704193115
1774790040807093000,10.688093017578124,11.532869338989258,1.7621324062347412,-0.5171475410461426
1774790040817163800,10.698163818359374,11.621455192565918,1.8267759084701538,-0.5027823448181152
1774790040827234600,10.708234619140624,11.745953559875488,1.8986018896102905,-0.5195417404174805
1774790040857447000,10.738447021484374,12.69405746459961,2.3127987384796143,-1.8938134908676147
1774790040877588500,10.75858837890625,12.131420135498047,2.030282974243164,-3.136404275894165
1774790040887689700,10.768689697265625,11.889605522155762,1.460463047027588,-3.069366693496704
1774790040897760500,10.778760498046875,11.8441162109375,0.8595184087753296,-2.626439332962036
1774790040907831600,10.78883154296875,11.650185585021973,0.21547815203666687,-2.140416383743286
1774790040917871600,10.79887158203125,11.413159370422363,-0.33039984107017517,-1.965639591217041
1774790040927973000,10.80897314453125,11.233593940734863,-0.47884035110473633,-1.922544002532959
1774790040938013400,10.819013427734374,11.173739433288574,-0.395043283700943,-1.8914192914962769
1774790040948084200,10.829084228515624,10.975020408630371,-0.1867477297782898,-1.941697597503662
1774790040968225800,10.849225830078124,10.41956615447998,0.33279404044151306,-1.8818424940109253
1774790040978296600,10.859296630859374,9.943120002746582,0.7086837291717529,-1.8100165128707886
1774790040988397800,10.869397705078125,9.521739959716797,1.091755986213684,-1.7621324062347412
1774790040998438100,10.879438232421874,9.208099365234375,1.2258312702178955,-1.6352397203445435
1774790041008509000,10.889509033203124,8.746018409729004,1.1540051698684692,-1.3838485479354858
1774790041018549200,10.89954931640625,8.561665534973145,0.9265560507774353,-1.1420341730117798
1774790041028620000,10.9096201171875,8.31985092163086,0.5147533416748047,-0.9600749015808105
1774790041038690800,10.91969091796875,8.202534675598145,0.2298433631658554,-0.6751648783683777
1774790041048792000,10.9297919921875,8.212111473083496,0.0933738648891449,-0.5171475410461426
1774790041058862800,10.93986279296875,8.200140953063965,0.13168109953403473,-0.3208230137825012
1774790041089075500,10.970075439453124,8.26239013671875,0.5506663918495178,0.24181437492370605
1774790041119226600,11.0002265625,7.666234016418457,0.9624691009521484,0.2777273952960968
1774790041129297400,11.01029736328125,7.479485988616943,1.1492167711257935,0.090979665517807
1774790041139368200,11.0203681640625,7.522581577301025,1.1803414821624756,0.12928688526153564
1774790041149439200,11.030439208984374,7.424419403076172,1.2737152576446533,0.24181437492370605
1774790041159479300,11.040479248046875,7.536946773529053,1.3024457693099976,0.35673606395721436
1774790041169550000,11.050550048828125,7.6111674308776855,1.335964560508728,0.3495534360408783
1774790041179620900,11.060620849609375,7.829039573669434,1.1324573755264282,0.22026655077934265
1774790041189692000,11.07069189453125,8.020575523376465,1.0199298858642578,0.07422025501728058
1774790041199732000,11.08073193359375,8.329427719116211,0.8331822156906128,-0.16759411990642548
1774790041209802800,11.090802734375,8.379706382751465,0.7972691655158997,-0.3280056416988373
1774790041219873800,11.100873779296874,8.480262756347656,0.8451532125473022,-0.42856210470199585
1774790041240015400,11.121015380859374,8.370129585266113,1.5203180313110352,-0.4357447028160095
1774790041250116600,11.13111669921875,8.465897560119629,1.7836803197860718,-0.45010992884635925
1774790041270197200,11.151197265625,8.69334602355957,1.821987509727478,-0.6799532771110535
1774790041280237600,11.161237548828124,8.856152534484863,1.6663644313812256,-0.8236053586006165
1774790041290308400,11.171308349609374,8.851364135742188,1.403002142906189,-0.912190854549408
1774790041300348400,11.181348388671875,8.908824920654297,1.259350061416626,-0.8092401623725891
1774790041310419500,11.19141943359375,8.925583839416504,1.3311761617660522,-0.5889736413955688
1774790041320490200,11.201490234375,8.951920509338379,1.6136919260025024,-0.47644615173339844
1774790041330561000,11.21156103515625,9.198522567749023,1.8387469053268433,-0.31842881441116333
1774790041340631800,11.2216318359375,9.485827445983887,1.9488801956176758,-0.38546648621559143
1774790041350733000,11.231733154296874,9.586383819580078,1.8267759084701538,-0.3734954595565796
1774790041390955300,11.271955322265624,10.6925048828125,1.6089035272598267,-0.5961562395095825
1774790041411096800,11.292096923828124,10.958261489868164,1.7501614093780518,-0.871489405632019
1774790041421137200,11.30213720703125,11.025299072265625,1.7717092037200928,-0.9672574996948242
1774790041441217800,11.3222177734375,11.092336654663086,2.145204782485962,-0.8355764150619507
1774790041451319000,11.332319091796874,11.106701850891113,2.1978771686553955,-0.6488286852836609
1774790041461389800,11.342389892578124,11.111490249633789,2.2242133617401123,-0.26575639843940735
1774790041471430100,11.35243017578125,11.15697956085205,2.0446481704711914,0.12210428714752197
1774790041481470500,11.362470458984374,11.635820388793945,1.7812861204147339,0.646434485912323
1774790041491571700,11.37257177734375,12.09311294555664,1.4987702369689941,0.7350199222564697
1774790041511682800,11.392682861328124,12.473791122436523,0.8403648138046265,-0.49559974670410156
1774790041531824400,11.412824462890624,11.623848915100098,0.06703764945268631,-0.6560112833976746
1774790041541895200,11.422895263671874,11.0300874710083,0.12210428714752197,-0.26096799969673157
1774790041551966000,11.432966064453124,10.527304649353027,0.3734954595565796,0.17956513166427612
1774790041562006300,11.44300634765625,10.180145263671875,0.5267243981361389,0.3447650372982025
1774790041572107500,11.453107421875,10.036493301391602,0.5291185975074768,0.47884035110473633
1774790041622492200,11.5034921875,10.369287490844727,-1.1851298809051514,-0.23702596127986908
1774790041632532500,11.513532470703124,10.29746150970459,-0.9385270476341248,-0.4213795065879822
1774790041642542000,11.5235419921875,10.067618370056152,-0.6727706789970398,-0.586579442024231
1774790041662714400,11.54371435546875,9.641449928283691,-0.4908113479614258,-0.9385270476341248
1774790041672815600,11.553815673828124,9.351752281188965,-0.35673606395721436,-1.0438719987869263
1774790041692926700,11.5739267578125,8.932766914367676,-0.11013327538967133,-0.9768342971801758
1774790041702967000,11.583967041015624,8.767566680908203,0.19632454216480255,-0.8738836050033569
1774790041713037800,11.594037841796874,8.564059257507324,0.42616790533065796,-0.9433154463768005
1774790041723047400,11.60404736328125,8.418013572692871,0.5267243981361389,-0.8259995579719543
1774790041733149000,11.61414892578125,8.243236541748047,0.6200982332229614,-0.7972691655158997
1774790041743219700,11.6242197265625,8.090007781982422,0.5003881454467773,-0.6272808313369751
1774790041753321000,11.634321044921874,7.908048152923584,0.363918662071228,-0.5530605912208557
1774790041763300000,11.644300048828125,7.819462776184082,0.4812345504760742,-0.43095630407333374
1774790041773401600,11.654401611328124,7.6566572189331055,0.6847416758537292,-0.3663128614425659
1774790041823694600,11.704694580078124,7.489062786102295,0.9409212470054626,-0.12689268589019775
1774790041833795800,11.7147958984375,7.489062786102295,0.9409212470054626,-0.12689268589019775
1774790041843805400,11.724805419921875,7.55131196975708,1.0271124839782715,-0.15562310814857483
1774790041853907000,11.734906982421874,7.666234016418457,1.1324573755264282,-0.16759411990642548
1774790041863977700,11.744977783203124,7.7213006019592285,1.37906014919281,-0.19632454216480255
1774790041874079000,11.755078857421875,7.910442352294922,1.4269442558288574,-0.2059013396501541
1774790041894220500,11.775220458984375,8.178592681884766,1.2545616626739502,-0.0071826050989329815
1774790041904291300,11.785291259765625,8.365341186523438,0.9744400978088379,0
1774790041914362000,11.795362060546875,8.731653213500977,0.7206547260284424,-0.019153613597154617
1774790041924402400,11.80540234375,8.966285705566406,0.6823474764823914,-0.009576806798577309
1774790041934473200,11.81547314453125,9.14585018157959,0.7948749661445618,-0.1173158809542656
1774790041944544000,11.8255439453125,9.29189682006836,0.9983820915222168,-0.19393034279346466
1774790041954614800,11.83561474609375,9.445125579833984,1.4772224426269531,-0.2777273952960968
1774790041964655000,11.845655029296875,9.564835548400879,1.6711528301239014,-0.3663128614425659
1774790041974756600,11.855756591796874,9.682151794433594,1.723825216293335,-0.3711012601852417
1774790041984827400,11.865827392578124,9.952696800231934,1.8746598958969116,-0.5386953949928284
1774790041994928600,11.8759287109375,9.909601211547852,1.8746598958969116,-0.5171475410461426
1774790042004999400,11.88599951171875,10.170568466186523,1.778891921043396,-0.5602431893348694
1774790042015070200,11.8960703125,10.342951774597168,1.599326729774475,-0.42616790533065796
1774790042025141000,11.90614111328125,10.357316970825195,1.5155296325683594,-0.47405192255973816
1774790042045313000,11.92631298828125,10.924742698669434,1.1468225717544556,-0.6153098344802856
1774790042055383800,11.9363837890625,11.094730377197266,1.01753568649292,-0.646434485912323
1774790042065424100,11.946424072265625,11.319786071777344,0.9217676520347595,-0.8403648138046265
1774790042075495000,11.956494873046875,11.44907283782959,0.9097966551780701,-0.9840168952941895
1774790042156061400,12.0370615234375,11.571176528930664,1.5275006294250488,-3.4835634231567383
1774790042176203000,12.057203125,11.17852783203125,0.23942017555236816,-2.8347349166870117
1774790042186273800,12.067273681640625,11.092336654663086,-0.38067805767059326,-2.7437551021575928
1774790042196314000,12.077314208984374,10.888829231262207,-0.6727706789970398,-2.738966703414917
1774790042206354400,12.0873544921875,10.718840599060059,-0.6248866319656372,-2.7892448902130127
1774790042216455700,12.09745556640625,10.627861022949219,-0.3519476354122162,-2.8850131034851074
1774790042226526500,12.1075263671875,10.433931350708008,0.10295066982507706,-2.8227639198303223
1774790042236627700,12.117627685546875,10.285490036010742,0.5650315880775452,-2.631227731704712
1774790042246698800,12.12769873046875,10.110713958740234,0.9600749015808105,-2.4420857429504395
1774790042256769500,12.13776953125,9.797073364257812,1.1276689767837524,-2.229001760482788
1774790042266840300,12.14784033203125,9.543288230895996,1.2449848651885986,-2.0661959648132324
1774790042276880400,12.15788037109375,9.306262016296387,1.0678139925003052,-1.9369091987609863
1774790042286920700,12.167920654296875,9.05247688293457,0.7565677165985107,-1.8794482946395874
1774790042297022200,12.178022216796874,8.89685344696045,0.5027823448181152,-1.6639702320098877
1774790042327234600,12.208234619140624,8.863334655761719,0.40462008118629456,-0.9744400978088379
1774790042337305300,12.218305419921874,8.755595207214355,0.5985504388809204,-0.6488286852836609
1774790042347376000,12.228376220703124,8.743624687194824,0.7493851184844971,-0.49320554733276367
1774790042357477400,12.238477294921875,8.678980827331543,0.8667010068893433,-0.3734954595565796
1774790042367548200,12.248548095703125,8.616731643676758,0.7757213711738586,-0.2849099934101105
1774790042377619000,12.258618896484375,8.585607528686523,0.768538773059845,-0.4165911078453064
1774790042387659300,12.2686591796875,8.576030731201172,0.4644751250743866,-0.44532153010368347
1774790042397699600,12.278699462890625,8.439560890197754,0.272938996553421,-0.3974374830722809
1774790042427881500,12.308881591796874,7.869740962982178,0.8379706144332886,-0.1628057211637497
1774790042437952300,12.3189521484375,7.7213006019592285,1.1516109704971313,-0.08619125932455063
1774790042447992600,12.32899267578125,7.546523571014404,1.3670891523361206,-0.05506663769483566
1774790042458063400,12.3390634765625,7.462726593017578,1.4748282432556152,-0.05027823522686958
1774790042468103700,12.349103759765624,7.371747016906738,1.4413094520568848,-0.14365209639072418
1774790042478174500,12.359174560546874,7.508216381072998,1.4269442558288574,-0.31603461503982544
1774790042488214800,12.36921484375,7.661445617675781,1.4293384552001953,-0.4118026793003082
1774790042498285600,12.37928564453125,7.766790390014648,1.5131354331970215,-0.5099649429321289
1774790042528467500,12.409467529296874,8.238448143005371,0.790086567401886,-0.7781155705451965
1774790042538538200,12.419538330078124,8.317456245422363,0.6224924325942993,-0.8930372595787048
1774790042548578600,12.42957861328125,8.437167167663574,0.8307880163192749,-1.1013327836990356
1774790042558649300,12.4396494140625,8.540117263793945,1.290474772453308,-0.9888052940368652
1774790042568689700,12.449689697265624,8.755595207214355,1.745373010635376,-0.9265560507774353
1774790042578730000,12.45972998046875,8.995016098022461,2.2194249629974365,-1.015141487121582
1774790042588800800,12.46980078125,9.239224433898926,2.387019157409668,-1.1300631761550903
1774790042598902000,12.479902099609374,9.581595420837402,2.454056739807129,-1.192312479019165
1774790042608942300,12.4899423828125,9.871294021606445,2.142810583114624,-1.235408067703247
1774790042639185200,12.52018505859375,10.721235275268555,1.1563993692398071,-0.871489405632019
1774790042649225500,12.5302255859375,10.83855152130127,1.2066776752471924,-1.01753568649292
1774790042659326700,12.54032666015625,10.948684692382812,1.3239935636520386,-1.2330138683319092
1774790042669367000,12.550366943359375,11.010933876037598,1.5418659448623657,-1.137245774269104
1774790042679437800,12.560437744140625,11.044452667236328,1.886630892753601,-1.0295066833496094
1774790042699488000,12.580488037109374,10.994174003601074,2.3535003662109375,-0.667982280254364
1774790042709558800,12.590558837890624,11.317391395568848,2.279279947280884,-0.27054479718208313
1774790042719599000,12.60059912109375,11.824962615966797,1.9369091987609863,0.17477671802043915
1774790042769892000,12.65089208984375,11.494562149047852,-0.5793967843055725,-1.4245500564575195
1774790042800074000,12.681073974609374,9.66299819946289,0.24420857429504395,-0.16759411990642548
1774790042830194700,12.711194580078125,9.830592155456543,-0.11971008777618408,0.2082955539226532
1774790042850336300,12.731336181640625,10.163386344909668,-1.158793568611145,0.019153613597154617
1774790042880579300,12.761579345703124,10.11789608001709,-1.015141487121582,-0.9888052940368652
1774790042930719700,12.8117197265625,9.344569206237793,-0.08379705995321274,-1.821987509727478
1774790043001184800,12.882184814453124,8.10437297821045,0.37828385829925537,-1.3096283674240112
1774790043041407000,12.922406982421874,7.647080421447754,0.6177040338516235,-0.7924807667732239
1774790043051386000,12.93238623046875,7.769184589385986,0.7876923680305481,-0.7086837291717529
1774790043061487400,12.9424873046875,7.843404769897461,0.9433154463768005,-0.7972691655158997
1774790043071527700,12.952527587890625,7.757213592529297,0.8786720037460327,-0.7829039692878723
1774790043081568000,12.962568115234374,7.773972988128662,1.0031704902648926,-0.706289529800415
1774790043091638800,12.972638671875,7.838616371154785,1.0797849893569946,-0.5554547905921936
1774790043101740000,12.982739990234375,7.769184589385986,1.2401964664459229,-0.363918662071228
1774790043111780400,12.9927802734375,7.953537940979004,1.290474772453308,-0.33039984107017517
1774790043152033000,13.033032958984375,8.975862503051758,0.6584054827690125,-0.26096799969673157
1774790043182215000,13.06321484375,9.610325813293457,0.5051765441894531,-0.44532153010368347
1774790043192285700,13.07328564453125,9.734824180603027,0.7565677165985107,-0.507570743560791
1774790043222528800,13.10352880859375,10.010157585144043,1.314416766166687,-1.0007762908935547
1774790043232569000,13.113569091796874,10.074800491333008,1.3623007535934448,-1.036689281463623
1774790043252710700,13.133710693359374,10.335768699645996,1.335964560508728,-0.8331822156906128
1774790043323206100,13.2042060546875,11.35809326171875,0.9097966551780701,-1.0534487962722778
1774790043353479700,13.234479736328124,12.682085990905762,1.50355863571167,-1.7764976024627686
1774790043363520000,13.24452001953125,12.610260009765625,1.6543933153152466,-2.827552318572998
1774790043373621200,13.254621337890624,12.174515724182129,1.5322890281677246,-3.576937437057495
1774790043383722500,13.264722412109375,11.827356338500977,1.4197616577148438,-3.6152446269989014
1774790043393793300,13.274793212890625,11.554417610168457,1.1875240802764893,-3.35667085647583
1774790043403833600,13.28483349609375,11.099518775939941,0.9313444495201111,-3.0526070594787598
1774790043413934800,13.294934814453125,11.027692794799805,0.6727706789970398,-2.9257144927978516
1774790043424036400,13.305036376953124,10.90558910369873,0.3447650372982025,-2.832340717315674
1774790043454218200,13.33521826171875,10.721235275268555,0.028730420395731926,-2.6431987285614014
1774790043464258600,13.345258544921874,10.589553833007812,0.13168109953403473,-2.626439332962036
1774790043474298600,13.355298583984375,10.3549222946167,0.3711012601852417,-2.5258827209472656
1774790043484308500,13.36530859375,10.079588890075684,0.586579442024231,-2.717418909072876
1774790043494379300,13.375379150390625,9.619902610778809,0.667982280254364,-2.7293899059295654
1774790043504450000,13.385449951171875,9.433155059814453,0.8810662031173706,-2.736572504043579
1774790043514460000,13.3954599609375,9.138668060302734,0.8954314589500427,-2.5713725090026855
1774790043524530700,13.40553076171875,8.884882926940918,0.8858546018600464,-2.161964178085327
1774790043534632000,13.4156318359375,8.99740982055664,0.6536170840263367,-1.742978811264038
1774790043554804200,13.43580419921875,9.05247688293457,0.21787235140800476,-1.1013327836990356
1774790043574976300,13.455976318359374,8.846575736999512,0.12210428714752197,-0.7541735172271729
1774790043585077500,13.466077392578125,8.645462036132812,0.363918662071228,-0.6488286852836609
1774790043595148300,13.476148193359375,8.523358345031738,0.5291185975074768,-0.4620809257030487
1774790043605158100,13.486158203125,8.279149055480957,0.8547300100326538,-0.3734954595565796
1774790043615229000,13.49622900390625,8.04691219329834,1.1492167711257935,-0.4429273009300232
1774790043625330200,13.506330078125,7.812280178070068,1.235408067703247,-0.47405192255973816
1774790043655481600,13.536481689453124,7.378929615020752,1.2114660739898682,-0.028730420395731926
1774790043675592700,13.5565927734375,7.443572998046875,1.2952631711959839,0.05985504388809204
1774790043685633000,13.566633056640624,7.496245384216309,1.403002142906189,0.023942016065120697
1774790043695734300,13.576734375,7.5632829666137695,1.4772224426269531,-0.08140286058187485
1774790043705774600,13.586774658203124,7.469909191131592,1.5155296325683594,-0.17956513166427612
1774790043715845400,13.596845458984374,7.601590633392334,1.4173674583435059,-0.29209262132644653
1774790043725885700,13.6068857421875,7.692570209503174,1.359906554222107,-0.49320554733276367
1774790043735956500,13.61695654296875,7.8745293617248535,1.359906554222107,-0.5961562395095825
1774790043756037000,13.637037109375,8.219294548034668,1.2114660739898682,-0.8092401623725891
1774790043776209200,13.657209228515624,8.473079681396484,1.5275006294250488,-0.8738836050033569
1774790043786249500,13.66724951171875,8.504204750061035,1.6041151285171509,-0.9050082564353943
1774790043796320300,13.6773203125,8.564059257507324,1.7190368175506592,-0.8762778043746948
1774790043806360600,13.687360595703124,8.62391471862793,1.922544002532959,-0.7781155705451965
1774790043816431400,13.697431396484374,8.856152534484863,1.9704279899597168,-0.6871358752250671
1774790043826502100,13.707502197265624,9.17936897277832,1.7980455160140991,-0.5578489899635315
1774790043836542500,13.71754248046875,9.421183586120605,1.766920804977417,-0.49320554733276367
1774790043856684000,13.73768408203125,10.019734382629395,1.4460978507995605,-0.6488286852836609
1774790043876795100,13.757795166015624,10.194510459899902,1.359906554222107,-0.7230489253997803
1774790043886835500,13.76783544921875,10.340557098388672,1.4532804489135742,-0.7158663272857666
1774790043896906200,13.77790625,10.414777755737305,1.5849615335464478,-0.7110779285430908
1774790043906977000,13.78797705078125,10.496180534362793,1.6879122257232666,-0.7637503147125244
1774790043916986600,13.797986572265625,10.56800651550293,1.7908629179000854,-0.8068459630012512
1774790043927057400,13.808057373046875,10.599130630493164,1.8602946996688843,-0.8906430602073669
1774790043937097700,13.81809765625,10.582371711730957,1.867477297782898,-0.8954314589500427
1774790043977320000,13.85831982421875,11.932701110839844,0.9097966551780701,0.43335050344467163
1774790043987390700,13.868390625,12.392388343811035,0.6248866319656372,-0.004788403399288654
1774790043997461500,13.87846142578125,12.382811546325684,0.31124621629714966,-0.8188169598579407
1774790044007532300,13.8885322265625,12.078747749328613,-0.19871874153614044,-1.5466543436050415
1774790044017603000,13.89860302734375,11.724405288696289,-0.24899697303771973,-1.6519991159439087
1774790044027704600,13.90870458984375,11.168951034545898,0.40222588181495667,-1.1420341730117798
1774790044037745000,13.918744873046874,10.666168212890625,1.113303780555725,-0.4572925269603729
1774790044067896000,13.94889599609375,10.189722061157227,1.1635819673538208,0.011971008032560349
1774790044077936400,13.958936279296875,10.101137161254883,0.40222588181495667,0.2825157940387726
1774790044087976700,13.968976806640624,10.259154319763184,-0.4357447028160095,0.3734954595565796
1774790044098017000,13.97901708984375,10.412383079528809,-1.072602391242981,0.4596867263317108
1774790044108118300,13.9891181640625,10.556035041809082,-1.256955862045288,0.22026655077934265
1774790044118189000,13.99918896484375,10.575188636779785,-1.05105459690094,-0.21787235140800476
1774790044138300200,14.019300048828125,10.223240852355957,-0.26336219906806946,-0.9696516990661621
1774790044148371000,14.029370849609375,9.93354320526123,0.22026655077934265,-1.0319008827209473
1774790044158411300,14.039411376953124,9.763554573059082,0.45489832758903503,-1.0342950820922852
1774790044188562700,14.069562744140624,9.440337181091309,0.2346317619085312,-1.4748282432556152
1774790044208704300,14.089704345703124,9.169792175292969,0.2777273952960968,-1.580173134803772
1774790044218775000,14.099775146484374,9.05487060546875,0.3471592366695404,-1.3551181554794312
1774790044228876300,14.109876220703125,8.734047889709473,0.4668693244457245,-1.1851298809051514
1774790044238916600,14.11991650390625,8.377311706542969,0.5386953949928284,-1.1252747774124146
1774790044248987400,14.1299873046875,8.063671112060547,0.586579442024231,-1.015141487121582
1774790044259027700,14.14002783203125,7.778761386871338,0.4620809257030487,-1.0965443849563599
1774790044279169300,14.160169189453125,7.448361396789551,0.45489832758903503,-0.9385270476341248
1774790044289240000,14.170239990234375,7.383718013763428,0.38546648621559143,-0.7398083209991455
1774790044299310800,14.180310791015625,7.465120792388916,0.4884171485900879,-0.5386953949928284
1774790044309381600,14.190381591796875,7.524975776672363,0.4644751250743866,-0.4357447028160095
1774790044319452400,14.200452392578125,7.627926826477051,0.5410895943641663,-0.44532153010368347
1774790044329492700,14.21049267578125,7.620744228363037,0.4572925269603729,-0.47165772318840027
1774790044339563500,14.2205634765625,7.8098859786987305,0.6536170840263367,-0.5602431893348694
1774790044349603800,14.230603759765625,7.752425193786621,0.727837324142456,-0.5841852426528931
1774790044359644200,14.24064404296875,7.819462776184082,0.9576807022094727,-0.5578489899635315
1774790044379724800,14.260724853515624,7.85537576675415,1.2066776752471924,-0.43335050344467163
1774790044399836000,14.2808359375,8.458714485168457,1.0462661981582642,-0.23702596127986908
1774790044409906700,14.29090673828125,8.676587104797363,0.811634361743927,-0.24660277366638184
1774790044419916300,14.300916259765625,8.939949035644531,0.6991068720817566,-0.21787235140800476
1774790044430017800,14.311017822265624,9.265560150146484,0.6177040338516235,-0.33039984107017517
1774790044440058000,14.32105810546875,9.315838813781738,0.7445967197418213,-0.4668693244457245
1774790044450098200,14.33109814453125,9.481039047241211,1.0414776802062988,-0.5291185975074768
1774790044460169000,14.3411689453125,9.785101890563965,1.436521053314209,-0.5339069962501526
1774790044470270500,14.3512705078125,9.921571731567383,1.7142484188079834,-0.5889736413955688
1774790044490350800,14.371350830078125,10.165780067443848,1.8555063009262085,-0.828393816947937
1774790044500422000,14.381421875,10.105925559997559,1.7860745191574097,-0.8667010068893433
1774790044510462000,14.3914619140625,10.244789123535156,1.6424223184585571,-0.8738836050033569
1774790044520502300,14.401502197265625,10.290278434753418,1.3886369466781616,-0.6823474764823914
1774790044530573000,14.411572998046875,10.54406452178955,1.1851298809051514,-0.6344634294509888
1774790044540583000,14.4215830078125,10.864887237548828,1.0319008827209473,-0.7158663272857666
1774790044550684200,14.43168408203125,11.130643844604492,0.8858546018600464,-0.8762778043746948
1774790044560755000,14.4417548828125,11.305420875549316,0.8068459630012512,-1.0534487962722778
1774790044590967600,14.471967529296874,12.045228958129883,1.2976573705673218,-1.3886369466781616
1774790044601038300,14.482038330078124,12.437877655029297,1.5897499322891235,-1.599326729774475
1774790044611139600,14.4921396484375,12.679692268371582,1.8171991109848022,-2.3702597618103027
1774790044621180000,14.502179931640624,12.437877655029297,1.9105730056762695,-3.1268274784088135
1774790044631250700,14.512250732421874,12.145785331726074,1.699883222579956,-3.5697548389434814
1774790044641291000,14.522291015625,11.91354751586914,1.4532804489135742,-3.6535518169403076
1774790044651361800,14.53236181640625,11.590330123901367,1.1444283723831177,-3.423708438873291
1774790044661371400,14.542371337890625,11.441889762878418,0.8044517636299133,-3.1651346683502197
1774790044701654800,14.58265478515625,11.022904396057129,-0.4357447028160095,-2.492363929748535
1774790044721826800,14.602826904296874,10.47942066192627,0.08140286058187485,-2.5450363159179688
1774790044731897600,14.612897705078124,10.436325073242188,0.4572925269603729,-2.6671407222747803
1774790044741938000,14.62293798828125,10.436325073242188,0.4572925269603729,-2.6671407222747803
1774790044752008700,14.6330087890625,10.134655952453613,0.5626373887062073,-2.7700912952423096
1774790044762018600,14.6430185546875,9.93354320526123,0.667982280254364,-2.7700912952423096
1774790044772089300,14.65308935546875,9.399636268615723,0.6943184733390808,-2.6599581241607666
1774790044782099000,14.663098876953125,9.02135181427002,0.8355764150619507,-2.3702597618103027
1774790044792200400,14.673200439453124,8.765172004699707,0.9193734526634216,-2.097320795059204
1774790044802210000,14.6832099609375,8.772355079650879,0.9169792532920837,-1.9991583824157715
1774790044812280800,14.69328076171875,8.681375503540039,0.9074024558067322,-1.7932571172714233
1774790044822351600,14.7033515625,8.604761123657227,0.9409212470054626,-1.5873557329177856
1774790044832422400,14.71342236328125,8.449137687683105,1.039083480834961,-1.2521674633026123
1774790044842462700,14.723462646484375,8.255207061767578,1.1348515748977661,-0.9433154463768005
1774790044852533500,14.733533447265625,8.003816604614258,1.235408067703247,-0.6129156351089478
1774790044862573800,14.74357373046875,7.762001991271973,1.173158884048462,-0.40462008118629456
1774790044872644600,14.75364453125,7.532158374786377,1.1013327836990356,-0.2561795711517334
1774790044902796000,14.783796142578124,7.2568254470825195,0.8978256583213806,-0.09576806426048279
1774790044912836400,14.79383642578125,7.299921035766602,0.730231523513794,0.0071826050989329815
1774790044922907100,14.8039072265625,7.417236804962158,0.7206547260284424,0.07182604819536209
1774790044932978000,14.81397802734375,7.443572998046875,0.8834604024887085,0.21547815203666687
1774790044942987800,14.82398779296875,7.529764175415039,0.8690952062606812,0.272938996553421
1774790044953089000,14.834089111328124,7.524975776672363,1.05105459690094,0.36152446269989014
1774790044963099000,14.844098876953124,7.65186882019043,1.1994950771331787,0.2825157940387726
1774790044973169700,14.854169677734374,7.675810813903809,1.2425906658172607,0.08858546614646912
1774790044983240400,14.864240478515624,7.668628215789795,1.2665326595306396,-0.09816227108240128
1774790045003351600,14.8843515625,7.850587368011475,1.1492167711257935,-0.2849099934101105
1774790045013422300,14.89442236328125,8.190564155578613,1.1971008777618408,-0.3208230137825012
1774790045023462700,14.904462646484374,8.59997272491455,1.2234370708465576,-0.3998316824436188
1774790045033564000,14.91456396484375,8.851364135742188,1.2114660739898682,-0.5267243981361389
1774790045043604200,14.924604248046874,9.167398452758789,1.1659762859344482,-0.6200982332229614
1774790045053705500,14.93470556640625,9.157821655273438,1.0438719987869263,-0.5937620401382446
1774790045063745800,14.944745849609374,9.191340446472168,0.9840168952941895,-0.5315127968788147
1774790045073816600,14.954816650390624,9.074024200439453,1.161187767982483,-0.47405192255973816
1774790045114069200,14.9950693359375,10.002974510192871,2.1164743900299072,-0.4189853072166443
1774790045124140000,15.00514013671875,10.192116737365723,1.9800047874450684,-0.4405331015586853
1774790045134210800,15.0152109375,10.426748275756836,1.6903064250946045,-0.4405331015586853
1774790045144281600,15.025281494140625,10.500968933105469,1.4700398445129395,-0.3208230137825012
1774790045154322000,15.035322021484374,10.577583312988281,1.4077905416488647,-0.4884171485900879
1774790045164392700,15.045392822265624,10.793061256408691,1.4508862495422363,-0.6248866319656372
1774790045174494000,15.055493896484375,10.898406028747559,1.6496049165725708,-0.6967126727104187
1774790045184534300,15.0655341796875,10.886435508728027,1.8076223134994507,-0.8523358106613159
1774790045204675800,15.08567578125,10.72841739654541,2.1284453868865967,-0.6967126727104187
1774790045214746600,15.09574658203125,10.704475402832031,1.968033790588379,-0.3064578175544739
1774790045224787000,15.105786865234375,11.063606262207031,1.577778935432434,0.11013327538967133
1774790045234857700,15.115857666015625,11.777078628540039,0.9528923034667969,0.22505496442317963
1774790045244837000,15.125837158203124,12.445060729980469,0.3711012601852417,-0.33997663855552673
1774790045254908000,15.135907958984374,12.725181579589844,-0.040701430290937424,-1.3192051649093628
1774790045264978700,15.145978759765624,12.301408767700195,-0.5386953949928284,-2.1164743900299072
1774790045275080000,15.156079833984375,11.81059741973877,-0.49559974670410156,-2.252943754196167
1774790045285089800,15.16608984375,11.274295806884766,0.031124621629714966,-1.7741034030914307
1774790045295191000,15.17619091796875,10.527304649353027,0.7541735172271729,-1.091755986213684
1774790045315302100,15.19630224609375,9.557653427124023,1.656787633895874,-0.2059013396501541
1774790045325312000,15.20631201171875,9.531316757202148,1.403002142906189,0.1628057211637497
1774790045335413200,15.216413330078124,9.763554573059082,0.730231523513794,0.2777273952960968
1774790045345484000,15.226484130859374,10.11550235748291,-0.20350714027881622,0.08140286058187485
1774790045355585300,15.236585205078125,10.338163375854492,-0.8762778043746948,-0.26096799969673157
1774790045365564700,15.246564697265624,10.56800651550293,-1.1085153818130493,-0.5123591423034668
1774790045375666000,15.256666015625,10.704475402832031,-1.0773907899856567,-0.7422025203704834
1774790045385706200,15.266706298828124,10.733205795288086,-0.8092401623725891,-0.9241618514060974
1774790045405787000,15.286786865234374,10.232817649841309,-0.42856210470199585,-1.400607943534851
1774790045425959000,15.306958984375,9.715670585632324,-0.031124621629714966,-2.054224967956543
1774790045435999200,15.316999267578124,9.591172218322754,0.16759411990642548,-2.1332337856292725
1774790045446008800,15.3270087890625,9.397241592407227,0.3495534360408783,-2.1140801906585693
1774790045456110300,15.3371103515625,9.255983352661133,0.35913026332855225,-1.9297266006469727
1774790045466181000,15.34718115234375,8.87291145324707,0.5650315880775452,-1.886630892753601
1774790045476282400,15.357282470703124,8.609549522399902,0.524330198764801,-1.7549498081207275
1774790045486292200,15.367292236328124,8.480262756347656,0.4884171485900879,-1.721431016921997
1774790045496363000,15.377363037109374,8.374917984008789,0.19393034279346466,-1.5705963373184204
1774790045506433800,15.387433837890624,8.271966934204102,-0.028730420395731926,-1.6089035272598267
1774790045516535000,15.39753515625,8.283937454223633,-0.19632454216480255,-1.4101848602294922
1774790045526575400,15.407575439453124,8.027758598327637,-0.28969839215278625,-1.3910311460494995
1774790045536676600,15.417676513671875,7.762001991271973,-0.05746084079146385,-1.290474772453308
1774790045546747400,15.427747314453125,7.534552574157715,0.44532153010368347,-1.194706678390503
1774790045556787700,15.43778759765625,7.220912456512451,0.9169792532920837,-1.091755986213684
1774790045566797600,15.447797607421874,6.897695064544678,1.45806884765625,-0.9816226959228516
1774790045576868400,15.457868408203124,6.840234279632568,1.7405846118927002,-0.8906430602073669
1774790045586939100,15.467939208984374,7.010222434997559,1.9608511924743652,-0.8044517636299133
1774790045596979500,15.4779794921875,7.134721279144287,2.013523578643799,-0.7230489253997803
1774790045627131000,15.508130859375,7.860164165496826,0.8930372595787048,-0.5722141861915588
1774790045637171000,15.5181708984375,8.149862289428711,0.5817909836769104,-0.6943184733390808
1774790045647241700,15.52824169921875,8.310274124145508,0.6488286852836609,-0.9433154463768005
1774790045657312800,15.538312744140624,8.571242332458496,0.7254431247711182,-0.8834604024887085
1774790045667383600,15.548383544921874,8.762778282165527,1.048660397529602,-0.8595184087753296
1774790045677484800,15.55848486328125,9.047688484191895,1.434126853942871,-0.8571242094039917
