time,seconds_elapsed,z,y,x
1774790028897261300,-1.22173876953125,9.276338577270508,2.1665031909942627,-2.3294193744659424
1774790028907132200,-1.211867919921875,9.263142585754395,2.1836845874786377,-2.365607261657715
1774790028917033500,-1.201966552734375,9.242942810058594,2.213169574737549,-2.416668653488159
1774790028927104300,-1.191895751953125,9.253122329711914,2.1867001056671143,-2.4017605781555176
1774790028937175000,-1.181824951171875,9.265475273132324,2.157231569290161,-2.3806960582733154
1774790028947245800,-1.171754150390625,9.265308380126953,2.15799617767334,-2.38065242767334
1774790028957347000,-1.16165283203125,9.265337944030762,2.1579267978668213,-2.3805994987487793
1774790028967417900,-1.15158203125,9.265462875366211,2.157599687576294,-2.380408763885498
1774790028977488600,-1.141511474609375,9.265856742858887,2.156968116760254,-2.379451036453247
1774790028987529000,-1.131470947265625,9.265839576721191,2.1578190326690674,-2.378742218017578
1774790029037852400,-1.081147705078125,9.265131950378418,2.171422243118286,-2.3691043853759766
1774790029057963500,-1.061036376953125,9.265985488891602,2.1706151962280273,-2.366502285003662
1774790029088176000,-1.030823974609375,9.269275665283203,2.1626241207122803,-2.360928773880005
1774790029098247000,-1.020753173828125,9.269535064697266,2.162109613418579,-2.3603789806365967
1774790029118327300,-1.000672607421875,9.266559600830078,2.1780519485473633,-2.3574037551879883
1774790029128367600,-0.99063232421875,9.263581275939941,2.191401481628418,-2.3567371368408203
1774790029138438400,-0.9805615234375,9.261857986450195,2.199331283569336,-2.3561227321624756
1774790029148478700,-0.970521240234375,9.258594512939453,2.2132787704467773,-2.355889320373535
1774790029158549500,-0.960450439453125,9.256028175354004,2.223649263381958,-2.3562073707580566
1774790029168620300,-0.950379638671875,9.25601577758789,2.2227418422698975,-2.357114553451538
1774790029178721800,-0.9402783203125,9.256284713745117,2.2210681438446045,-2.3576321601867676
1774790029188792600,-0.93020751953125,9.257555961608887,2.2147955894470215,-2.35854434967041
1774790029198863400,-0.92013671875,9.258400917053223,2.2100307941436768,-2.35969614982605
1774790029208903700,-0.910096435546875,9.257872581481934,2.209226608276367,-2.3625192642211914
1774790029249156400,-0.86984375,9.250608444213867,2.230037212371826,-2.371405601501465
1774790029259227100,-0.85977294921875,9.247867584228516,2.2386224269866943,-2.37400484085083
1774790029269298000,-0.8497021484375,9.246292114257812,2.2437727451324463,-2.3752784729003906
1774790029279399200,-0.839600830078125,9.243450164794922,2.252933979034424,-2.37766695022583
1774790029289439500,-0.829560546875,9.24113941192627,2.2592620849609375,-2.3806445598602295
1774790029299479800,-0.819520263671875,9.240092277526855,2.2610080242156982,-2.3830490112304688
1774790029309520100,-0.80947998046875,9.240395545959473,2.2575595378875732,-2.385141372680664
1774790029329600500,-0.7893994140625,9.242901802062988,2.243859052658081,-2.388357400894165
1774790029349742000,-0.7692578125,9.243452072143555,2.238298177719116,-2.391441822052002
1774790029359843600,-0.759156494140625,9.242776870727539,2.2396178245544434,-2.3928186893463135
1774790029369884000,-0.7491162109375,9.241568565368652,2.2437305450439453,-2.393629550933838
1774790029379924000,-0.739075927734375,9.239215850830078,2.2529854774475098,-2.3940224647521973
1774790029389964300,-0.72903564453125,9.238410949707031,2.2562649250030518,-2.3940372467041016
1774790029400035000,-0.71896484375,9.237458229064941,2.26141095161438,-2.3928582668304443
1774790029410075400,-0.708924560546875,9.237347602844238,2.262918472290039,-2.391860246658325
1774790029420176600,-0.6988232421875,9.238449096679688,2.259652614593506,-2.390692710876465
1774790029440287700,-0.678712158203125,9.242676734924316,2.24235463142395,-2.390641450881958
1774790029450358500,-0.668641357421875,9.24405288696289,2.2373404502868652,-2.390016794204712
1774790029460429300,-0.65857080078125,9.24374008178711,2.234534502029419,-2.393850326538086
1774790029470500400,-0.648499755859375,9.243607521057129,2.234386920928955,-2.3944973945617676
1774790029480601600,-0.6383984375,9.242039680480957,2.2380001544952393,-2.397172451019287
1774790029490642000,-0.628358154296875,9.239681243896484,2.2426598072052,-2.401909112930298
1774790029500712700,-0.618287353515625,9.239298820495605,2.2449257373809814,-2.4012603759765625
1774790029510783500,-0.608216552734375,9.237712860107422,2.2492640018463135,-2.403303384780884
1774790029520854300,-0.598145751953125,9.235456466674805,2.2548232078552246,-2.4067623615264893
1774790029541026300,-0.5779736328125,9.234368324279785,2.2566347122192383,-2.409240484237671
1774790029571177700,-0.547822265625,9.230988502502441,2.265176773071289,-2.414170265197754
1774790029601390000,-0.51760986328125,9.22071647644043,2.2979061603546143,-2.422478199005127
1774790029641673200,-0.477326904296875,9.21452808380127,2.327162027359009,-2.418093681335449
1774790029651713500,-0.467286376953125,9.214546203613281,2.328542709350586,-2.416693925857544
1774790029661815000,-0.45718505859375,9.214177131652832,2.333855152130127,-2.412975549697876
1774790029671885800,-0.4471142578125,9.212294578552246,2.3461382389068604,-2.408245325088501
1774790029681926100,-0.437073974609375,9.211350440979004,2.350893974304199,-2.407219886779785
1774790029702067700,-0.416932373046875,9.208651542663574,2.368378162384033,-2.4003968238830566
1774790029712108000,-0.40689208984375,9.208528518676758,2.368411064147949,-2.400838613510132
1774790029722178800,-0.3968212890625,9.21053695678711,2.366785764694214,-2.39473032951355
1774790029762462000,-0.3565380859375,9.214065551757812,2.3685359954833984,-2.3793716430664062
1774790029772502300,-0.346497802734375,9.215380668640137,2.3701796531677246,-2.3726351261138916
1774790029782603500,-0.336396484375,9.217658042907715,2.3703434467315674,-2.363607406616211
1774790029792674300,-0.32632568359375,9.218650817871094,2.368856430053711,-2.3612277507781982
1774790029802775600,-0.316224365234375,9.219895362854004,2.3693642616271973,-2.355848550796509
1774790029812816000,-0.30618408203125,9.219849586486816,2.3752307891845703,-2.350116729736328
1774790029822917000,-0.296082763671875,9.21981430053711,2.3780956268310547,-2.347353935241699
1774790029843059000,-0.275941162109375,9.218460083007812,2.394989013671875,-2.335467576980591
1774790029853129700,-0.265870361328125,9.219521522521973,2.397106170654297,-2.3290963172912598
1774790029863200500,-0.255799560546875,9.221471786499023,2.3930790424346924,-2.325515031814575
1774790029873240800,-0.24575927734375,9.223371505737305,2.3875017166137695,-2.3237144947052
1774790029883311600,-0.2356884765625,9.224870681762695,2.383756637573242,-2.321608304977417
1774790029893382400,-0.22561767578125,9.225728988647461,2.3840107917785645,-2.317931652069092
1774790029903453200,-0.215546875,9.224030494689941,2.39375638961792,-2.3146414756774902
1774790029913462800,-0.205537109375,9.220995903015137,2.4089369773864746,-2.3109872341156006
1774790029923564300,-0.195435791015625,9.215919494628906,2.4324684143066406,-2.306579351425171
1774790029953685000,-0.16531494140625,9.211877822875977,2.459994077682495,-2.293494939804077
1774790029963786500,-0.155213623046875,9.212745666503906,2.4611310958862305,-2.2887845039367676
1774790029973826600,-0.14517333984375,9.212627410888672,2.468665361404419,-2.281135082244873
1774790029983928000,-0.135072021484375,9.211864471435547,2.4796342849731445,-2.272301197052002
1774790029993937700,-0.125062255859375,9.20991325378418,2.4933054447174072,-2.2652394771575928
1774790030004039200,-0.1149609375,9.205020904541016,2.5202419757843018,-2.2552990913391113
1774790030014110000,-0.10489013671875,9.20378589630127,2.5276939868927,-2.2519919872283936
1774790030024211200,-0.094788818359375,9.200202941894531,2.5456466674804688,-2.2464041709899902
1774790030034251500,-0.08474853515625,9.197154998779297,2.5618999004364014,-2.240402936935425
1774790030054362600,-0.064637451171875,9.19205093383789,2.5919766426086426,-2.226712465286255
1774790030074443000,-0.044556884765625,9.18939208984375,2.6177918910980225,-2.2074034214019775
1774790030094615300,-0.024384765625,9.190152168273926,2.626495599746704,-2.1938564777374268
1774790030144877600,0.025877685546875,9.200486183166504,2.618652582168579,-2.1596524715423584
1774790030154887400,0.035887451171875,9.20201587677002,2.6198384761810303,-2.151684284210205
1774790030195140000,0.07614013671875,9.207423210144043,2.622411012649536,-2.125255823135376
1774790030225322000,0.106322021484375,9.21234130859375,2.618032932281494,-2.1092782020568848
1774790030235331800,0.116331787109375,9.213526725769043,2.6166975498199463,-2.105757713317871
1774790030255473400,0.136473388671875,9.217632293701172,2.6118814945220947,-2.0937328338623047
1774790030325908000,0.206907958984375,9.196967124938965,2.700976610183716,-2.0714504718780518
1774790030346049500,0.227049560546875,9.194694519042969,2.710310220718384,-2.0693464279174805
1774790030356059400,0.237059326171875,9.194208145141602,2.7147817611694336,-2.0656425952911377
1774790030396342500,0.277342529296875,9.202493667602539,2.7051918506622314,-2.0411853790283203
1774790030456767200,0.337767333984375,9.2269287109375,2.689716100692749,-1.9492549896240234
1774790030497050600,0.378050537109375,9.228790283203125,2.7353744506835938,-1.8755087852478027
1774790030507152000,0.38815185546875,9.229907989501953,2.740978956222534,-1.8617769479751587
1774790030517222700,0.39822265625,9.231541633605957,2.740917205810547,-1.8537498712539673
1774790030527293400,0.40829345703125,9.233689308166504,2.739957809448242,-1.8444520235061646
1774790030547374000,0.4283740234375,9.232739448547363,2.756349802017212,-1.8246796131134033
1774790030557444900,0.43844482421875,9.230202674865723,2.7698874473571777,-1.8169975280761719
1774790030577556000,0.458555908203125,9.226423263549805,2.790091037750244,-1.8052388429641724
1774790030597667000,0.4786669921875,9.227418899536133,2.7927803993225098,-1.7959668636322021
1774790030607737900,0.48873779296875,9.228055953979492,2.7954366207122803,-1.788551926612854
1774790030617778200,0.498778076171875,9.226775169372559,2.807361602783203,-1.7764370441436768
1774790030627879400,0.50887939453125,9.223831176757812,2.821331739425659,-1.7695777416229248
1774790030637919700,0.518919677734375,9.221785545349121,2.8301517963409424,-1.7661532163619995
1774790030658091800,0.539091796875,9.211466789245605,2.875026226043701,-1.7474253177642822
1774790030668193000,0.549193115234375,9.208287239074707,2.8903346061706543,-1.7389090061187744
1774790030678233300,0.5592333984375,9.20605754852295,2.9023327827453613,-1.7307076454162598
1774790030688304000,0.56930419921875,9.205094337463379,2.9082114696502686,-1.725956678390503
1774790030698375000,0.579375,9.2044038772583,2.916706085205078,-1.7152729034423828
1774790030708415200,0.589415283203125,9.204915046691895,2.9175777435302734,-1.7110451459884644
1774790030718486000,0.599486083984375,9.205852508544922,2.9185173511505127,-1.704383134841919
1774790030728556800,0.609556884765625,9.206376075744629,2.9206883907318115,-1.6978241205215454
1774790030738597000,0.61959716796875,9.20580768585205,2.925934076309204,-1.6918690204620361
1774790030788890000,0.66989013671875,9.197196006774902,2.963796377182007,-1.6726852655410767
1774790030798900000,0.67989990234375,9.197672843933105,2.9604222774505615,-1.6760369539260864
1774790030808970800,0.689970703125,9.198933601379395,2.955695867538452,-1.677461862564087
1774790030819041500,0.70004150390625,9.20090389251709,2.9485251903533936,-1.679270625114441
1774790030829142800,0.710142822265625,9.202635765075684,2.9442403316497803,-1.6772985458374023
1774790030838897700,0.719897705078125,9.20458698272705,2.9369568824768066,-1.6793596744537354
1774790030848399000,0.729399169921875,9.206921577453613,2.9293060302734375,-1.6799259185791016
1774790030867340500,0.748340576171875,9.213194847106934,2.912599563598633,-1.6745736598968506
1774790030876750300,0.757750244140625,9.21738338470459,2.9045755863189697,-1.6654330492019653
1774790030886251800,0.767251708984375,9.22136116027832,2.8946869373321533,-1.6606258153915405
1774790030895922400,0.77692236328125,9.224943161010742,2.8837873935699463,-1.6596946716308594
1774790030905593300,0.78659326171875,9.227917671203613,2.8737874031066895,-1.6605045795440674
1774790030915372500,0.79637255859375,9.231135368347168,2.859466791152954,-1.6673272848129272
1774790030925273900,0.80627392578125,9.233036994934082,2.8563156127929688,-1.6621899604797363
1774790030935114200,0.8161142578125,9.23629379272461,2.8469510078430176,-1.660164475440979
1774790030945215500,0.826215576171875,9.240442276000977,2.8360183238983154,-1.655781626701355
1774790030955225300,0.836225341796875,9.246207237243652,2.8172335624694824,-1.6556689739227295
1774790031035700000,0.916699951171875,9.269426345825195,2.7463560104370117,-1.6448895931243896
1774790031045771000,0.92677099609375,9.27418327331543,2.7298429012298584,-1.645559549331665
1774790031055841800,0.936841796875,9.277887344360352,2.717724084854126,-1.6447371244430542
1774790031065943000,0.946943115234375,9.280856132507324,2.7095415592193604,-1.641491413116455
1774790031075953000,0.956952880859375,9.281831741333008,2.708669424057007,-1.6374061107635498
1774790031096094500,0.977094482421875,9.28079891204834,2.713226795196533,-1.6357157230377197
1774790031136316700,1.017316650390625,9.291144371032715,2.684764862060547,-1.6239055395126343
1774790031146387500,1.027387451171875,9.293844223022461,2.6764261722564697,-1.622218370437622
1774790031156397000,1.03739697265625,9.298074722290039,2.662156105041504,-1.6214532852172852
1774790031166467800,1.0474677734375,9.301040649414062,2.652340888977051,-1.6205312013626099
1774790031176508200,1.057508056640625,9.30237865447998,2.648667097091675,-1.6188589334487915
1774790031186579000,1.067578857421875,9.302677154541016,2.6480634212493896,-1.6181305646896362
1774790031196619300,1.077619384765625,9.302517890930176,2.647987127304077,-1.6191695928573608
1774790031206720500,1.087720458984375,9.303162574768066,2.644443988800049,-1.621254801750183
1774790031216760800,1.0977607421875,9.306695938110352,2.6270768642425537,-1.6291906833648682
1774790031226831600,1.10783154296875,9.31045913696289,2.613389492034912,-1.6297065019607544
1774790031236872000,1.117871826171875,9.317840576171875,2.5805130004882812,-1.639875054359436
1774790031246912300,1.127912353515625,9.322172164916992,2.563524007797241,-1.6419017314910889
1774790031256952600,1.13795263671875,9.327106475830078,2.5403687953948975,-1.649847149848938
1774790031267053800,1.1480537109375,9.329265594482422,2.525362968444824,-1.6606388092041016
1774790031287195400,1.1681953125,9.32419490814209,2.5212764739990234,-1.6949777603149414
1774790031297266200,1.17826611328125,9.321638107299805,2.526386260986328,-1.701416015625
1774790031307367700,1.18836767578125,9.318309783935547,2.5308244228363037,-1.7130142450332642
1774790031317407700,1.19840771484375,9.317004203796387,2.528742790222168,-1.7231582403182983
1774790031327478800,1.208478759765625,9.317153930664062,2.5210793018341064,-1.7335468530654907
1774790031337518800,1.218518798828125,9.318557739257812,2.5012354850769043,-1.7546181678771973
1774790031347589600,1.228589599609375,9.319684982299805,2.489081382751465,-1.7658792734146118
1774790031357630000,1.2386298828125,9.320216178894043,2.4841558933258057,-1.7700084447860718
1774790031367700700,1.24870068359375,9.319931983947754,2.478480339050293,-1.7794328927993774
1774790031397913300,1.278913330078125,9.305137634277344,2.5190274715423584,-1.7998038530349731
1774790031408014600,1.2890146484375,9.301518440246582,2.535391092300415,-1.7955355644226074
1774790031418055000,1.299054931640625,9.29215145111084,2.570611000061035,-1.7939521074295044
1774790031428156200,1.30915625,9.290334701538086,2.5847535133361816,-1.7830060720443726
1774790031438196500,1.319196533203125,9.28835678100586,2.5950965881347656,-1.778282642364502
1774790031458307600,1.3393076171875,9.291205406188965,2.5966711044311523,-1.7610198259353638
1774790031468378400,1.34937841796875,9.29334831237793,2.5945844650268555,-1.75276780128479
1774790031478418700,1.359418701171875,9.292963027954102,2.598154067993164,-1.749520182609558
1774790031488489500,1.369489501953125,9.287314414978027,2.6173598766326904,-1.7508834600448608
1774790031508569900,1.38956982421875,9.27592658996582,2.655557870864868,-1.7537331581115723
1774790031518640600,1.399640625,9.27023983001709,2.6734273433685303,-1.7566523551940918
1774790031528711700,1.409711669921875,9.26608943939209,2.6854751110076904,-1.7601698637008667
1774790031538751700,1.419751708984375,9.2646484375,2.689516305923462,-1.761587142944336
1774790031548822500,1.429822509765625,9.264988899230957,2.68599009513855,-1.7651697397232056
1774790031558893600,1.4398935546875,9.266079902648926,2.681718111038208,-1.7659351825714111
1774790031568994800,1.449994873046875,9.267865180969238,2.6738831996917725,-1.7684459686279297
1774790031589166800,1.470166748046875,9.281792640686035,2.626716375350952,-1.766090989112854
1774790031599207200,1.480207275390625,9.2882080078125,2.605443000793457,-1.7638713121414185
1774790031609278000,1.49027783203125,9.291680335998535,2.594301700592041,-1.762008547782898
1774790031619348700,1.5003486328125,9.29685115814209,2.5742321014404297,-1.7641640901565552
1774790031629419500,1.51041943359375,9.298513412475586,2.564444065093994,-1.7696529626846313
1774790031639459800,1.5204599609375,9.298006057739258,2.5585861206054688,-1.7807592153549194
1774790031649561000,1.53056103515625,9.297074317932129,2.5553112030029297,-1.7903043031692505
1774790031659601400,1.540601318359375,9.293194770812988,2.555483341217041,-1.8100930452346802
1774790031669672200,1.550672119140625,9.290635108947754,2.556182384490967,-1.8222018480300903
1774790031699793200,1.580793212890625,9.284830093383789,2.5623772144317627,-1.8429718017578125
1774790031709894400,1.590894287109375,9.281022071838379,2.5674967765808105,-1.8549888134002686
1774790031719904300,1.600904296875,9.280647277832031,2.56416654586792,-1.861456274986267
1774790031729975000,1.61097509765625,9.275961875915527,2.567208766937256,-1.880520224571228
1774790031750116600,1.63111669921875,9.270615577697754,2.5684638023376465,-1.9050133228302002
1774790031760157000,1.641156982421875,9.259908676147461,2.595320463180542,-1.9206221103668213
1774790031770227700,1.651227783203125,9.252466201782227,2.6115434169769287,-1.934453010559082
1774790031810450000,1.691449951171875,9.23654556274414,2.6392104625701904,-1.9726098775863647
1774790031820490200,1.701490234375,9.235280990600586,2.64013409614563,-1.9772863388061523
1774790031830591500,1.711591552734375,9.233541488647461,2.6472833156585693,-1.9758517742156982
1774790031840631800,1.7216318359375,9.232961654663086,2.647569417953491,-1.9781785011291504
1774790031850672000,1.731672119140625,9.233131408691406,2.645629644393921,-1.9799801111221313
1774790031860712200,1.741712158203125,9.23523235321045,2.6309268474578857,-1.9897451400756836
1774790031870752500,1.75175244140625,9.236604690551758,2.629577875137329,-1.9851521253585815
1774790031880762400,1.761762451171875,9.237703323364258,2.6304447650909424,-1.9788841009140015
1774790031890863600,1.771863525390625,9.238520622253418,2.630589485168457,-1.9748716354370117
1774790031921015000,1.80201513671875,9.236650466918945,2.645965576171875,-1.9630440473556519
1774790031931085800,1.8120859375,9.235901832580566,2.6472747325897217,-1.9648008346557617
1774790031941126100,1.822126220703125,9.235918998718262,2.647815227508545,-1.9639922380447388
1774790031951197000,1.832197021484375,9.236557960510254,2.6454997062683105,-1.964105486869812
1774790031961237200,1.8422373046875,9.237217903137207,2.6424343585968018,-1.965129017829895
1774790031971308000,1.85230810546875,9.237164497375488,2.640748977661133,-1.9676454067230225
1774790031981348400,1.862348388671875,9.235770225524902,2.642042875289917,-1.9724446535110474
1774790032031702300,1.912702392578125,9.222640037536621,2.6542935371398926,-2.0169317722320557
1774790032041742600,1.92274267578125,9.221207618713379,2.650543689727783,-2.0283830165863037
1774790032051783000,1.932782958984375,9.219560623168945,2.643035411834717,-2.0455939769744873
1774790032061823200,1.9428232421875,9.218708992004395,2.6407737731933594,-2.0523412227630615
1774790032071894000,1.95289404296875,9.216110229492188,2.639881134033203,-2.065122365951538
1774790032081934300,1.962934326171875,9.210334777832031,2.6456708908081055,-2.0834009647369385
1774790032092005000,1.973005126953125,9.207111358642578,2.651036500930786,-2.0908119678497314
1774790032102045200,1.983045166015625,9.201787948608398,2.6600217819213867,-2.1028003692626953
1774790032112146700,1.993146728515625,9.196887016296387,2.668390989303589,-2.1136116981506348
1774790032122187000,2.00318701171875,9.193791389465332,2.671884298324585,-2.122645139694214
1774790032132257800,2.0132578125,9.19222354888916,2.6705639362335205,-2.1310806274414062
1774790032142328600,2.02332861328125,9.19236946105957,2.6650633811950684,-2.137331247329712
1774790032152399400,2.0333994140625,9.193678855895996,2.653219699859619,-2.146411180496216
1774790032162470100,2.04347021484375,9.194000244140625,2.646378993988037,-2.153468132019043
1774790032172541000,2.053541015625,9.194559097290039,2.6399850845336914,-2.1589229106903076
1774790032182611700,2.06361181640625,9.194620132446289,2.6383326053619385,-2.16068172454834
1774790032192713000,2.073712890625,9.195250511169434,2.6348791122436523,-2.1622138023376465
1774790032222834000,2.103833984375,9.199810981750488,2.622074842453003,-2.1583752632141113
1774790032232935200,2.11393505859375,9.200419425964355,2.623400926589966,-2.154170274734497
1774790032242975500,2.1239755859375,9.202226638793945,2.6208536624908447,-2.149545431137085
1774790032253015800,2.134015869140625,9.206713676452637,2.60964035987854,-2.143965721130371
1774790032263086600,2.144086669921875,9.208410263061523,2.6074578762054443,-2.139328956604004
1774790032273187800,2.154187744140625,9.212553024291992,2.5963637828826904,-2.134979248046875
1774790032283258600,2.164258544921875,9.216516494750977,2.586578369140625,-2.129746437072754
1774790032303400200,2.184400146484375,9.218324661254883,2.5931990146636963,-2.1138086318969727
1774790032343652900,2.22465283203125,9.210775375366211,2.6482110023498535,-2.078218698501587
1774790032363764000,2.244763916015625,9.224123001098633,2.634937286376953,-2.0354490280151367
1774790032373834800,2.254834716796875,9.22923755645752,2.631044626235962,-2.0172181129455566
1774790032383875000,2.264875,9.231091499328613,2.6322929859161377,-2.0070791244506836
1774790032393945900,2.27494580078125,9.232484817504883,2.636600971221924,-1.9949826002120972
1774790032434168000,2.31516796875,9.230511665344238,2.6774423122406006,-1.949190616607666
1774790032444238800,2.32523876953125,9.231851577758789,2.677557945251465,-1.9426754713058472
1774790032454340400,2.33534033203125,9.234929084777832,2.6767077445983887,-1.9291739463806152
1774790032464380400,2.34538037109375,9.236948013305664,2.6795976161956787,-1.9154484272003174
1774790032474451200,2.355451171875,9.237564086914062,2.687556028366089,-1.901275396347046
1774790032484522200,2.365522216796875,9.237269401550293,2.7028555870056152,-1.880908727645874
1774790032494593000,2.375593017578125,9.237360000610352,2.7119617462158203,-1.8673090934753418
1774790032524744200,2.405744140625,9.243608474731445,2.712141275405884,-1.8358583450317383
1774790032534815000,2.41581494140625,9.249095916748047,2.7014245986938477,-1.8239842653274536
1774790032544885800,2.4258857421875,9.255204200744629,2.68791127204895,-1.812928557395935
1774790032554987300,2.4359873046875,9.260902404785156,2.6760942935943604,-1.8012776374816895
1774790032565027600,2.446027587890625,9.26525592803955,2.669691801071167,-1.7883455753326416
1774790032575067600,2.456067626953125,9.268461227416992,2.667757034301758,-1.7745659351348877
1774790032585108000,2.46610791015625,9.271303176879883,2.6679811477661133,-1.7593188285827637
1774790032595209500,2.47620947265625,9.2747163772583,2.6663243770599365,-1.743774652481079
1774790032605310700,2.486310791015625,9.279942512512207,2.661182165145874,-1.7237054109573364
1774790032635523000,2.516523193359375,9.294856071472168,2.6324291229248047,-1.6871132850646973
1774790032645624300,2.526624267578125,9.299064636230469,2.627566337585449,-1.6714340448379517
1774790032655695000,2.536695068359375,9.300726890563965,2.6292521953582764,-1.6594843864440918
1774790032665735400,2.5467353515625,9.301984786987305,2.6300384998321533,-1.651167869567871
1774790032675775700,2.556775634765625,9.30229377746582,2.6367342472076416,-1.6387041807174683
1774790032685846500,2.566846435546875,9.301066398620605,2.6481266021728516,-1.6272579431533813
1774790032695917300,2.576917236328125,9.302800178527832,2.647026300430298,-1.6191167831420898
1774790032705988000,2.586988037109375,9.304776191711426,2.6435065269470215,-1.6135075092315674
1774790032726099200,2.60709912109375,9.312355995178223,2.6191577911376953,-1.6094814538955688
1774790032756220200,2.63722021484375,9.332198143005371,2.5483739376068115,-1.6081851720809937
1774790032766291000,2.647291015625,9.342668533325195,2.5113632678985596,-1.605608582496643
1774790032776331300,2.657331298828125,9.352886199951172,2.468808650970459,-1.6121069192886353
1774790032786402000,2.667402099609375,9.361557960510254,2.435886859893799,-1.6118559837341309
1774790032796411600,2.67741162109375,9.363654136657715,2.416016101837158,-1.6294900178909302
1774790032806482700,2.687482666015625,9.369096755981445,2.391204357147217,-1.6347973346710205
1774790032836664300,2.717664306640625,9.361515045166016,2.39005970954895,-1.679297685623169
1774790032846735400,2.7277353515625,9.36235237121582,2.384744882583618,-1.6821802854537964
1774790032856836600,2.737836669921875,9.364176750183105,2.3720145225524902,-1.690009355545044
1774790032866877000,2.747876953125,9.366863250732422,2.355363607406616,-1.6983897686004639
1774790032876917200,2.757917236328125,9.372175216674805,2.324939250946045,-1.710953712463379
1774790032886988000,2.767988037109375,9.375931739807129,2.304441452026367,-1.7180935144424438
1774790032897089300,2.77808935546875,9.378836631774902,2.2870211601257324,-1.7254996299743652
1774790032907129600,2.788129638671875,9.380131721496582,2.2799723148345947,-1.727783441543579
1774790032927210000,2.8082099609375,9.379091262817383,2.270739793777466,-1.7455029487609863
1774790032947321000,2.828321044921875,9.373907089233398,2.274961471557617,-1.7677093744277954
1774790032957361400,2.838361328125,9.371200561523438,2.276150703430176,-1.7804838418960571
1774790032967463000,2.848462890625,9.368465423583984,2.2715418338775635,-1.8006483316421509
1774790032977533700,2.85853369140625,9.367116928100586,2.2671334743499756,-1.8131775856018066
1774790032987573800,2.86857373046875,9.365549087524414,2.2634592056274414,-1.825823426246643
1774790032997644800,2.878644775390625,9.3650484085083,2.2618563175201416,-1.830370545387268
1774790033007715600,2.888715576171875,9.362300872802734,2.2570364475250244,-1.850268840789795
1774790033047937500,2.9289375,9.354434967041016,2.261202335357666,-1.8846484422683716
1774790033057977900,2.938977783203125,9.350317001342773,2.2712366580963135,-1.8929983377456665
1774790033068018200,2.94901806640625,9.343375205993652,2.2890737056732178,-1.9057440757751465
1774790033078058500,2.95905859375,9.340787887573242,2.302568197250366,-1.9021681547164917
1774790033088129300,2.96912939453125,9.342771530151367,2.313542604446411,-1.8789699077606201
1774790033098200000,2.979199951171875,9.343852996826172,2.3129124641418457,-1.8743627071380615
1774790033108270800,2.989270751953125,9.345010757446289,2.310161590576172,-1.8719842433929443
1774790033118372000,2.9993720703125,9.344688415527344,2.3058700561523438,-1.8788670301437378
1774790033148554000,3.029553955078125,9.3350248336792,2.335456609725952,-1.8903263807296753
1774790033158655500,3.039655517578125,9.3211669921875,2.38071608543396,-1.902212142944336
1774790033168665000,3.0496650390625,9.310627937316895,2.4152939319610596,-1.910223364830017
1774790033178735900,3.05973583984375,9.305046081542969,2.433666467666626,-1.9140982627868652
1774790033188806700,3.069806640625,9.28977108001709,2.4803824424743652,-1.9282764196395874
1774790033198877700,3.079877685546875,9.280437469482422,2.507814645767212,-1.937709927558899
1774790033208948500,3.089948486328125,9.276182174682617,2.5204389095306396,-1.9417030811309814
1774790033219019300,3.100019287109375,9.267341613769531,2.5451433658599854,-1.9516716003417969
1774790033239191300,3.12019140625,9.248888969421387,2.5912530422210693,-1.978342890739441
1774790033269342700,3.1503427734375,9.23729419708252,2.6132421493530273,-2.0034332275390625
1774790033279413500,3.16041357421875,9.244917869567871,2.5894877910614014,-1.9991092681884766
1774790033289453800,3.170453857421875,9.257920265197754,2.548860549926758,-1.9911339282989502
1774790033299524600,3.180524658203125,9.273871421813965,2.4958856105804443,-1.9839997291564941
1774790033309595400,3.190595458984375,9.282625198364258,2.4629387855529785,-1.9842350482940674
1774790033319635700,3.2006357421875,9.297036170959473,2.407414197921753,-1.9849077463150024
1774790033329706500,3.21070654296875,9.306405067443848,2.367131471633911,-1.9894487857818604
1774790033369928700,3.2509287109375,9.277292251586914,2.3862056732177734,-2.0995848178863525
1774790033390039800,3.271039794921875,9.251773834228516,2.4259650707244873,-2.165588855743408
1774790033410181400,3.291181396484375,9.240647315979004,2.446721315383911,-2.1896040439605713
1774790033430323000,3.311322998046875,9.23487377166748,2.478137969970703,-2.178605556488037
1774790033440393700,3.321393798828125,9.23574161529541,2.4852027893066406,-2.1668503284454346
1774790033450464500,3.331464599609375,9.242223739624023,2.481297254562378,-2.143556833267212
1774790033470545200,3.351545166015625,9.256447792053223,2.4503321647644043,-2.117647647857666
1774790033490656300,3.37165625,9.273850440979004,2.4145638942718506,-2.0822978019714355
1774790033500727000,3.38172705078125,9.278826713562012,2.409668207168579,-2.065736770629883
1774790033520899000,3.401899169921875,9.282020568847656,2.424955129623413,-2.033240556716919
1774790033530939400,3.411939453125,9.282424926757812,2.436588764190674,-2.017427921295166
1774790033540979700,3.421979736328125,9.284116744995117,2.443047046661377,-2.001772165298462
1774790033551050500,3.432050537109375,9.28768253326416,2.4407687187194824,-1.9879616498947144
1774790033561121300,3.442121337890625,9.292623519897461,2.431272268295288,-1.9764742851257324
1774790033591272700,3.472272705078125,9.309281349182129,2.3841800689697266,-1.9553415775299072
1774790033601343500,3.482343505859375,9.313015937805176,2.371680974960327,-1.952754259109497
1774790033611383800,3.4923837890625,9.315694808959961,2.3614659309387207,-1.9523561000823975
1774790033621454600,3.50245458984375,9.316126823425293,2.359708547592163,-1.952422857284546
1774790033631494700,3.51249462890625,9.315719604492188,2.3598341941833496,-1.9542111158370972
1774790033641565700,3.522565673828125,9.312891960144043,2.3670575618743896,-1.9589486122131348
1774790033691858400,3.5728583984375,9.304405212402344,2.3851096630096436,-1.977293610572815
1774790033701929200,3.58292919921875,9.306314468383789,2.3759734630584717,-1.9793052673339844
1774790033711969500,3.592969482421875,9.308866500854492,2.3653833866119385,-1.9799919128417969
1774790033722009900,3.603009765625,9.3107271194458,2.3572936058044434,-1.9808874130249023
1774790033732050200,3.61305029296875,9.311188697814941,2.35552978515625,-1.9808155298233032
1774790033742121000,3.623120849609375,9.310705184936523,2.3585267066955566,-1.9795253276824951
1774790033752191700,3.633191650390625,9.308952331542969,2.3692879676818848,-1.9749095439910889
1774790033792444400,3.6734443359375,9.307648658752441,2.407797336578369,-1.9340550899505615
1774790033802484700,3.683484619140625,9.311153411865234,2.403651475906372,-1.922308087348938
1774790033812555500,3.693555419921875,9.314865112304688,2.3991353511810303,-1.9099299907684326
1774790033822595800,3.703595947265625,9.317941665649414,2.397343635559082,-1.897127628326416
1774790033832666600,3.71366650390625,9.320131301879883,2.3983733654022217,-1.885033130645752
1774790033842768000,3.723767822265625,9.32223129272461,2.400061845779419,-1.8724552392959595
1774790033852808200,3.73380810546875,9.325044631958008,2.4004077911376953,-1.8579497337341309
1774790033862848500,3.7438486328125,9.328205108642578,2.3997409343719482,-1.8428822755813599
1774790033872919300,3.753919189453125,9.331281661987305,2.4000260829925537,-1.8268691301345825
1774790033903131600,3.784131591796875,9.335724830627441,2.418372631072998,-1.7793527841567993
1774790033913172000,3.794171875,9.336533546447754,2.425161838531494,-1.765822410583496
1774790033923273200,3.804273193359375,9.337504386901855,2.4239718914031982,-1.7623168230056763
1774790033933313500,3.8143134765625,9.344826698303223,2.403339147567749,-1.7517322301864624
1774790033943384300,3.82438427734375,9.35264778137207,2.3811981678009033,-1.7401938438415527
1774790033953455000,3.834455078125,9.35743522644043,2.3666884899139404,-1.734238862991333
1774790033963526100,3.844526123046875,9.367259979248047,2.3413522243499756,-1.7154849767684937
1774790033993708000,3.8747080078125,9.390148162841797,2.2920849323272705,-1.6558566093444824
1774790034003809300,3.884809326171875,9.394828796386719,2.287446975708008,-1.6355922222137451
1774790034013880000,3.894880126953125,9.399696350097656,2.280978202819824,-1.616552710533142
1774790034023950800,3.904950927734375,9.409765243530273,2.252854347229004,-1.5972923040390015
1774790034033991200,3.9149912109375,9.42001724243164,2.224332571029663,-1.5767086744308472
1774790034054102300,3.935102294921875,9.448424339294434,2.1134274005889893,-1.5591919422149658
1774790034064173000,3.945173095703125,9.454522132873535,2.0799598693847656,-1.5672181844711304
1774790034084284200,3.9652841796875,9.451847076416016,2.0667495727539062,-1.6004750728607178
1774790034104395300,3.985395263671875,9.445972442626953,2.0755133628845215,-1.623647928237915
1774790034114435300,3.995435302734375,9.441383361816406,2.082170248031616,-1.641715407371521
1774790034124506400,4.00550634765625,9.43858814239502,2.0786147117614746,-1.6621659994125366
1774790034134546400,4.01554638671875,9.43666934967041,2.0605337619781494,-1.6952482461929321
1774790034144617200,4.0256171875,9.439472198486328,2.0340704917907715,-1.7115229368209839
1774790034154657500,4.035657470703125,9.441356658935547,1.9996659755706787,-1.741408348083496
1774790034164728300,4.045728271484375,9.44257640838623,1.9836156368255615,-1.7531126737594604
1774790034174768600,4.0557685546875,9.442907333374023,1.9666669368743896,-1.7703441381454468
1774790034214960400,4.09596044921875,9.443276405334473,1.943854808807373,-1.7934151887893677
1774790034225000700,4.106000732421875,9.443666458129883,1.9366803169250488,-1.7991178035736084
1774790034235071500,4.116071533203125,9.443968772888184,1.9335116147994995,-1.800937533378601
1774790034245142300,4.126142333984375,9.446094512939453,1.9184130430221558,-1.8059314489364624
1774790034255182600,4.1361826171875,9.446870803833008,1.9135903120040894,-1.8069863319396973
1774790034265223000,4.146222900390625,9.447575569152832,1.9068111181259155,-1.8104580640792847
1774790034275293700,4.156293701171875,9.447434425354004,1.903218150138855,-1.8149714469909668
1774790034285395000,4.16639501953125,9.446711540222168,1.9011555910110474,-1.8208880424499512
1774790034325678000,4.206677978515625,9.438619613647461,1.9023603200912476,-1.8611470460891724
1774790034345819600,4.226819580078125,9.433751106262207,1.9108268022537231,-1.8770915269851685
1774790034355860000,4.23685986328125,9.429903030395508,1.9179795980453491,-1.8890939950942993
1774790034365930800,4.2469306640625,9.425782203674316,1.9266551733016968,-1.9007947444915771
1774790034375971000,4.25697119140625,9.421300888061523,1.9380513429641724,-1.9113945960998535
1774790034386011400,4.267011474609375,9.41644287109375,1.950253963470459,-1.9228907823562622
1774790034396051700,4.2770517578125,9.411444664001465,1.9636919498443604,-1.9336503744125366
1774790034426294500,4.30729443359375,9.397334098815918,2.011559009552002,-1.952979326248169
1774790034436334800,4.3173349609375,9.394957542419434,2.013923168182373,-1.96195650100708
1774790034446405600,4.327405517578125,9.39314079284668,2.0150015354156494,-1.9695351123809814
1774790034456446000,4.337446044921875,9.390717506408691,2.0177841186523438,-1.9782179594039917
1774790034476587500,4.35758740234375,9.381628036499023,2.041053295135498,-1.9973846673965454
1774790034486688800,4.367688720703125,9.37402057647705,2.062530517578125,-2.0109944343566895
1774790034496729000,4.37772900390625,9.369915008544922,2.0745270252227783,-2.017773151397705
1774790034537012200,4.41801220703125,9.331924438476562,2.161874294281006,-2.1004457473754883
1774790034547113700,4.42811376953125,9.321353912353516,2.185697317123413,-2.1226112842559814
1774790034557123300,4.438123291015625,9.309221267700195,2.213364601135254,-2.147047758102417
1774790034567224800,4.448224853515625,9.29601764678955,2.24312686920166,-2.173205852508545
1774790034577295600,4.458295654296875,9.283805847167969,2.268329620361328,-2.199094295501709
1774790034587366400,4.468366455078125,9.273834228515625,2.286518096923828,-2.222212314605713
1774790034597406700,4.47840673828125,9.271764755249023,2.287278890609741,-2.230048894882202
1774790034607508000,4.488508056640625,9.273883819580078,2.2769246101379395,-2.23183536529541
1774790034637629000,4.51862890625,9.311582565307617,2.1427090167999268,-2.207625150680542
1774790034647730200,4.528730224609375,9.317460060119629,2.1137216091156006,-2.2107698917388916
1774790034657770500,4.5387705078125,9.326375007629395,2.0750973224639893,-2.209770441055298
1774790034667810800,4.548810791015625,9.329793930053711,2.055473566055298,-2.213679075241089
1774790034677820400,4.5588203125,9.32931900024414,2.05061674118042,-2.2201738357543945
1774790034687921700,4.568921630859375,9.322151184082031,2.063206911087036,-2.2385406494140625
1774790034697962000,4.5789619140625,9.317811965942383,2.0652427673339844,-2.254669666290283
1774790034708032800,4.58903271484375,9.310181617736816,2.072603940963745,-2.2793030738830566
1774790034718012200,4.59901220703125,9.297603607177734,2.0846571922302246,-2.319300651550293
1774790034748194000,4.629194091796875,9.285414695739746,2.123155355453491,-2.3331682682037354
1774790034768274400,4.6492744140625,9.283430099487305,2.149744749069214,-2.3166592121124268
1774790034778314800,4.659314697265625,9.28576946258545,2.150634527206421,-2.306433916091919
1774790034788385500,4.669385498046875,9.29047679901123,2.1421990394592285,-2.2953059673309326
1774790034798395400,4.6793955078125,9.2988862991333,2.121417999267578,-2.2804996967315674
1774790034808496600,4.68949658203125,9.304306030273438,2.1084797382354736,-2.2703723907470703
1774790034818537000,4.699536865234375,9.308568954467773,2.1002931594848633,-2.260464906692505
1774790034828607700,4.709607666015625,9.311644554138184,2.0967936515808105,-2.2510247230529785
1774790034858820000,4.739820068359375,9.318410873413086,2.0911271572113037,-2.2281785011291504
1774790034868891100,4.74989111328125,9.321806907653809,2.0843276977539062,-2.2203352451324463
1774790034878900700,4.759900634765625,9.32558822631836,2.075234889984131,-2.212961196899414
1774790034888941000,4.769941162109375,9.328968048095703,2.0666463375091553,-2.20674467086792
1774790034899011800,4.78001171875,9.33199691772461,2.0591208934783936,-2.200962543487549
1774790034909113000,4.790113037109375,9.334512710571289,2.051644802093506,-2.1972739696502686
1774790034919153400,4.8001533203125,9.337735176086426,2.038715124130249,-2.1956164836883545
1774790034929254700,4.810254638671875,9.339412689208984,2.031571865081787,-2.195103406906128
1774790034989679600,4.8706796875,9.336417198181152,2.0427114963531494,-2.1975033283233643
1774790034999720000,4.880719970703125,9.336569786071777,2.042598247528076,-2.1969640254974365
1774790035009790700,4.890790771484375,9.337563514709473,2.040071487426758,-2.1950886249542236
1774790035019861500,4.900861572265625,9.33823013305664,2.040496349334717,-2.191854238510132
1774790035050073900,4.931073974609375,9.35438346862793,2.0134572982788086,-2.147529363632202
1774790035100366800,4.981366943359375,9.364114761352539,2.009392023086548,-2.1085710525512695
1774790035120539000,5.001538818359375,9.366462707519531,2.0136208534240723,-2.094059467315674
1774790035130640400,5.011640380859375,9.368939399719238,2.014653205871582,-2.0819528102874756
1774790035140711200,5.021711181640625,9.373931884765625,2.01666259765625,-2.0573911666870117
1774790035160883200,5.04188330078125,9.379061698913574,2.0205559730529785,-2.0300076007843018
1774790035170954000,5.0519541015625,9.382282257080078,2.0224030017852783,-2.0132200717926025
1774790035180994300,5.061994384765625,9.386932373046875,2.0179443359375,-1.995941162109375
1774790035191065000,5.072065185546875,9.391555786132812,2.004958152770996,-1.9872627258300781
1774790035201105400,5.08210546875,9.398133277893066,1.9835938215255737,-1.9775822162628174
1774790035211176200,5.09217626953125,9.401939392089844,1.9700075387954712,-1.9730665683746338
1774790035221216500,5.102216552734375,9.414278984069824,1.9370673894882202,-1.9466633796691895
1774790035231317800,5.11231787109375,9.421344757080078,1.922791600227356,-1.9265342950820923
1774790035241327600,5.12232763671875,9.42641830444336,1.9191898107528687,-1.9051883220672607
1774790035281641200,5.16264111328125,9.461370468139648,1.8610634803771973,-1.78585946559906
1774790035301752300,5.18275244140625,9.48910903930664,1.7619655132293701,-1.7385857105255127
1774790035321924400,5.20292431640625,9.5064058303833,1.6695963144302368,-1.7352466583251953
1774790035331995100,5.2129951171875,9.509438514709473,1.6522324085235596,-1.7352513074874878
1774790035342035500,5.223035400390625,9.505593299865723,1.657764196395874,-1.750971794128418
1774790035372187000,5.253186767578125,9.494793891906738,1.6587642431259155,-1.8077020645141602
1774790035382227200,5.263227294921875,9.496837615966797,1.620548963546753,-1.8314709663391113
1774790035392298000,5.273298095703125,9.50290584564209,1.5586845874786377,-1.853555679321289
1774790035402368800,5.28336865234375,9.505749702453613,1.5089988708496094,-1.879903793334961
1774790035412470000,5.293469970703125,9.505949020385742,1.4822756052017212,-1.9000487327575684
1774790035422540800,5.303540771484375,9.50548267364502,1.4710956811904907,-1.911039113998413
1774790035432642300,5.313642333984375,9.50332260131836,1.475326657295227,-1.9185032844543457
1774790035442713000,5.323713134765625,9.502872467041016,1.4747416973114014,-1.9211825132369995
1774790035482935300,5.363935302734375,9.52220630645752,1.3671001195907593,-1.9049961566925049
1774790035503107300,5.384107421875,9.530603408813477,1.317631721496582,-1.8978502750396729
1774790035513208600,5.39420849609375,9.534224510192871,1.2953901290893555,-1.8949693441390991
1774790035523249000,5.404248779296875,9.536467552185059,1.2813807725906372,-1.893210768699646
1774790035533350100,5.41435009765625,9.537824630737305,1.2725772857666016,-1.8923108577728271
1774790035543390500,5.424390380859375,9.53847599029541,1.2678335905075073,-1.8922094106674194
1774790035553461200,5.434461181640625,9.538092613220215,1.2651748657226562,-1.8959221839904785
1774790035583643100,5.46464306640625,9.535080909729004,1.273760199546814,-1.9052977561950684
1774790035593744600,5.47474462890625,9.532777786254883,1.2815117835998535,-1.9116142988204956
1774790035603784700,5.48478466796875,9.52987003326416,1.2911378145217896,-1.9196155071258545
1774790035633997300,5.514997314453125,9.519881248474121,1.324613332748413,-1.946189284324646
1774790035644037400,5.525037353515625,9.51432991027832,1.34242844581604,-1.961071252822876
1774790035654077700,5.53507763671875,9.510933876037598,1.3579095602035522,-1.9668774604797363
1774790035664148500,5.5451484375,9.509066581726074,1.3770109415054321,-1.9626189470291138
1774790035674219300,5.55521923828125,9.50830364227295,1.3913816213607788,-1.9561710357666016
1774790035684259600,5.565259521484375,9.503483772277832,1.4147242307662964,-1.9628398418426514
1774790035704401200,5.585401123046875,9.491622924804688,1.4678081274032593,-1.9811667203903198
1774790035714502700,5.595502685546875,9.485785484313965,1.4930157661437988,-1.9902652502059937
1774790035724573400,5.605573486328125,9.48089599609375,1.5130975246429443,-1.99838387966156
1774790035734674700,5.6156748046875,9.475683212280273,1.5263751745224,-2.0129587650299072
1774790035744715000,5.625715087890625,9.47365951538086,1.5266367197036743,-2.022263288497925
1774790035754785800,5.635785888671875,9.47219467163086,1.5205610990524292,-2.033665895462036
1774790035784967700,5.6659677734375,9.466024398803711,1.502566933631897,-2.0753471851348877
1774790035815180000,5.696179931640625,9.44003677368164,1.5570229291915894,-2.1521542072296143
1774790035825250800,5.706250732421875,9.427227020263672,1.5898112058639526,-2.184096574783325
1774790035835321600,5.716321533203125,9.415517807006836,1.6160091161727905,-2.215158700942993
1774790035845392400,5.726392333984375,9.408045768737793,1.6257156133651733,-2.239670515060425
1774790035855463200,5.736463134765625,9.406343460083008,1.6147912740707397,-2.2546730041503906
1774790035865503500,5.74650341796875,9.413716316223145,1.5627132654190063,-2.260586977005005
1774790035885614600,5.766614501953125,9.423864364624023,1.4926483631134033,-2.2656502723693848
1774790035895685400,5.776685302734375,9.433932304382324,1.4266420602798462,-2.2662768363952637
1774790035905756200,5.786756103515625,9.436771392822266,1.4041266441345215,-2.2685163021087646
1774790035946008800,5.8270087890625,9.425726890563965,1.40762197971344,-2.311854362487793
1774790035956110300,5.8371103515625,9.413606643676758,1.4544920921325684,-2.332131862640381
1774790035986353200,5.867353271484375,9.386303901672363,1.5377274751663208,-2.388115406036377
1774790036006464300,5.88746435546875,9.389717102050781,1.557446002960205,-2.361769914627075
1774790036097162500,5.97816259765625,9.445281982421875,1.4998798370361328,-2.169651985168457
1774790036107202800,5.988202880859375,9.447745323181152,1.5026590824127197,-2.1569693088531494
1774790036127314000,6.00831396484375,9.449477195739746,1.5145165920257568,-2.14103102684021
1774790036147425000,6.028425048828125,9.448654174804688,1.5386860370635986,-2.127383232116699
1774790036167597000,6.04859716796875,9.450467109680176,1.541961431503296,-2.1169376373291016
1774790036207941400,6.08894140625,9.457597732543945,1.5096113681793213,-2.108391284942627
1774790036218042600,6.099042724609375,9.458462715148926,1.50632905960083,-2.1068568229675293
1774790036228083000,6.1090830078125,9.459089279174805,1.5062130689620972,-2.1041221618652344
1774790036238153700,6.11915380859375,9.459573745727539,1.5078445672988892,-2.1007773876190186
1774790036248224500,6.129224609375,9.460047721862793,1.5135565996170044,-2.0945255756378174
1774790036288507600,6.169507568359375,9.463532447814941,1.5369199514389038,-2.061509609222412
1774790036298578400,6.179578369140625,9.46728515625,1.5336077213287354,-2.0466954708099365
1774790036318689500,6.199689453125,9.470580101013184,1.5574475526809692,-2.013167142868042
1774790036328760300,6.20976025390625,9.473652839660645,1.5590487718582153,-1.9974089860916138
1774790036358911700,6.239911865234375,9.483475685119629,1.5522228479385376,-1.9556808471679688
1774790036399195000,6.28019482421875,9.500702857971191,1.5270999670028687,-1.8907698392868042
1774790036409265700,6.290265625,9.503336906433105,1.5520141124725342,-1.8569421768188477
1774790036419336400,6.30033642578125,9.50340747833252,1.5660288333892822,-1.844773292541504
1774790036439447600,6.320447509765625,9.5067777633667,1.6229242086410522,-1.7769829034805298
1774790036449518300,6.330518310546875,9.508567810058594,1.6289814710617065,-1.7617989778518677
1774790036459558700,6.34055859375,9.513428688049316,1.626381516456604,-1.7377983331680298
1774790036479700200,6.3607001953125,9.532660484313965,1.5653674602508545,-1.6877225637435913
1774790036489771300,6.370771240234375,9.537784576416016,1.5440603494644165,-1.67837393283844
1774790036499811300,6.380811279296875,9.547203063964844,1.5130078792572021,-1.6529079675674438
1774790036509851600,6.3908515625,9.55674934387207,1.4874546527862549,-1.6206213235855103
1774790036519892000,6.40089208984375,9.56432056427002,1.492767572402954,-1.570290446281433
1774790036529993200,6.4109931640625,9.567486763000488,1.5094718933105469,-1.5346286296844482
1774790036540094700,6.4210947265625,9.572558403015137,1.518186330795288,-1.493859887123108
1774790036550134800,6.431134765625,9.581602096557617,1.5058237314224243,-1.4476827383041382
1774790036560175000,6.441175048828125,9.599946022033691,1.448879361152649,-1.3828179836273193
1774790036590448600,6.47144873046875,9.641022682189941,1.2391042709350586,-1.2983438968658447
1774790036610559700,6.491559814453125,9.64814567565918,1.1609759330749512,-1.3174996376037598
1774790036620630500,6.501630615234375,9.652972221374512,1.1171932220458984,-1.3200010061264038
1774790036630701300,6.511701416015625,9.651721000671387,1.107779622077942,-1.3369709253311157
1774790036650812400,6.5318125,9.644537925720215,1.1244969367980957,-1.374327540397644
1774790036660883200,6.54188330078125,9.641926765441895,1.126326084136963,-1.3910529613494873
1774790036681024800,6.562024658203125,9.638774871826172,1.1148654222488403,-1.4217873811721802
1774790036691095600,6.572095458984375,9.638429641723633,1.1025198698043823,-1.4337071180343628
1774790036701166300,6.582166259765625,9.638628959655762,1.0852419137954712,-1.4454973936080933
1774790036711237000,6.592237060546875,9.639242172241211,1.0618622303009033,-1.4587112665176392
1774790036721277400,6.60227734375,9.640533447265625,1.0309348106384277,-1.4723024368286133
1774790036731317800,6.61231787109375,9.642363548278809,0.9940850138664246,-1.4855979681015015
1774790036741358000,6.622358154296875,9.645140647888184,0.9401819705963135,-1.5025628805160522
1774790036751428900,6.632428955078125,9.645808219909668,0.9235313534736633,-1.5085934400558472
1774790036761499600,6.642499755859375,9.646119117736816,0.9014309644699097,-1.5199352502822876
1774790036781641200,6.66264111328125,9.642715454101562,0.8949623107910156,-1.5451421737670898
1774790036791712000,6.6727119140625,9.639735221862793,0.9017369151115417,-1.5597325563430786
1774790036801813200,6.682813232421875,9.636566162109375,0.906585156917572,-1.5764093399047852
1774790036811884300,6.69288427734375,9.63367748260498,0.9062918424606323,-1.5941402912139893
1774790036821955000,6.702955078125,9.630061149597168,0.8973925709724426,-1.620801329612732
1774790036831995100,6.7129951171875,9.62801742553711,0.8884676098823547,-1.6377700567245483
1774790036842066200,6.723066162109375,9.626250267028809,0.8765266537666321,-1.654506802558899
1774790036852137000,6.733136962890625,9.624621391296387,0.8634978532791138,-1.6707558631896973
1774790036862238200,6.74323828125,9.624053955078125,0.8583419322967529,-1.6766706705093384
1774790036872278500,6.753278564453125,9.62210464477539,0.8511680960655212,-1.6914507150650024
1774790036892389600,6.7733896484375,9.616584777832031,0.863420844078064,-1.7164490222930908
1774790036902491000,6.783490966796875,9.61278247833252,0.8839473128318787,-1.72726309299469
1774790036912561700,6.793561767578125,9.60824966430664,0.9168062210083008,-1.7353379726409912
1774790036932703200,6.813703125,9.593087196350098,1.0055122375488281,-1.7697503566741943
1774790036942774000,6.82377392578125,9.589864730834961,1.02715265750885,-1.7747762203216553
1774790036952844800,6.8338447265625,9.583645820617676,1.0620057582855225,-1.7878113985061646
1774790036962946300,6.8439462890625,9.57528305053711,1.1018164157867432,-1.8084088563919067
1774790036993097500,6.874097412109375,9.563536643981934,1.1483732461929321,-1.841304898262024
1774790037003168300,6.884168212890625,9.558911323547363,1.166303277015686,-1.854009747505188
1774790037013208600,6.89420849609375,9.553899765014648,1.1861368417739868,-1.8672099113464355
1774790037023310000,6.90431005859375,9.548325538635254,1.2085131406784058,-1.8813174962997437
1774790037033350100,6.91435009765625,9.542115211486816,1.2344577312469482,-1.8959290981292725
1774790037043421000,6.9244208984375,9.535261154174805,1.264452576637268,-1.9105873107910156
1774790037053461200,6.934461181640625,9.527689933776855,1.2966302633285522,-1.9267200231552124
1774790037063562800,6.944562744140625,9.51626968383789,1.336526870727539,-1.9556835889816284
1774790037093775000,6.974775146484375,9.505632400512695,1.3399869203567505,-2.00443959236145
1774790037103876400,6.98487646484375,9.508875846862793,1.3120356798171997,-2.007540702819824
1774790037124018000,7.005017822265625,9.518523216247559,1.2471933364868164,-2.0031535625457764
1774790037134058200,7.015058349609375,9.525327682495117,1.2039408683776855,-1.9972572326660156
1774790037144159500,7.025159423828125,9.529825210571289,1.1721899509429932,-1.9946893453598022
1774790037154199800,7.03519970703125,9.530882835388184,1.1630243062973022,-1.9950008392333984
1774790037164240100,7.045240234375,9.526000022888184,1.1988495588302612,-1.9971201419830322
1774790037174280400,7.055280517578125,9.522692680358887,1.2157318592071533,-2.002678394317627
1774790037204462300,7.08546240234375,9.498974800109863,1.3471500873565674,-2.031022548675537
1774790037214533000,7.095533203125,9.488587379455566,1.3764989376068115,-2.0596933364868164
1774790037224634400,7.10563427734375,9.485818862915039,1.3974980115890503,-2.0583062171936035
1774790037234674700,7.1156748046875,9.48859977722168,1.409191608428955,-2.0374112129211426
1774790037244745500,7.125745361328125,9.494903564453125,1.406591773033142,-2.0096497535705566
1774790037254816300,7.135816162109375,9.509014129638672,1.3745304346084595,-1.9646137952804565
1774790037264887000,7.145886962890625,9.51439094543457,1.3581554889678955,-1.9499127864837646
1774790037274927400,7.15592724609375,9.524807929992676,1.325884222984314,-1.9210560321807861
1774790037284967700,7.1659677734375,9.534077644348145,1.2978838682174683,-1.8940048217773438
1774790037305078800,7.186078857421875,9.550004959106445,1.253013014793396,-1.8432966470718384
1774790037315119000,7.196119140625,9.55259895324707,1.2462291717529297,-1.8344371318817139
1774790037325190000,7.20618994140625,9.556801795959473,1.233384132385254,-1.821178674697876
1774790037335230200,7.216230224609375,9.56182861328125,1.2131826877593994,-1.8083146810531616
1774790037345301000,7.226301025390625,9.564327239990234,1.2016494274139404,-1.8027938604354858
1774790037355371800,7.236371826171875,9.565442085266113,1.1967885494232178,-1.8001103401184082
1774790037365442600,7.246442626953125,9.566701889038086,1.1910054683685303,-1.7972522974014282
1774790037375483000,7.25648291015625,9.567769050598145,1.1865419149398804,-1.7945154905319214
1774790037385553700,7.2665537109375,9.568373680114746,1.182970643043518,-1.7936533689498901
1774790037415705000,7.296705078125,9.569116592407227,1.1721317768096924,-1.796804666519165
1774790037425745200,7.3067451171875,9.568758964538574,1.170513391494751,-1.7997647523880005
1774790037435785500,7.316785400390625,9.568327903747559,1.1691235303878784,-1.8029557466506958
1774790037445856300,7.326856201171875,9.566781997680664,1.1750069856643677,-1.807327389717102
1774790037455896600,7.336896484375,9.565642356872559,1.1829527616500854,-1.8081737756729126
1774790037465967400,7.34696728515625,9.564811706542969,1.1885795593261719,-1.808881163597107
1774790037476007700,7.357007568359375,9.564413070678711,1.1959549188613892,-1.8061223030090332
1774790037486078500,7.367078369140625,9.563838958740234,1.1995704174041748,-1.8067649602890015
1774790037516230000,7.39722998046875,9.567434310913086,1.1992824077606201,-1.787819743156433
1774790037526300700,7.40730078125,9.569087028503418,1.2034848928451538,-1.776116967201233
1774790037546472700,7.42747265625,9.57214069366455,1.2334727048873901,-1.7386926412582397
1774790037556482600,7.437482666015625,9.577322006225586,1.2266452312469482,-1.7148308753967285
1774790037566553300,7.44755322265625,9.580881118774414,1.2195643186569214,-1.6999287605285645
1774790037576624000,7.4576240234375,9.58376693725586,1.2127981185913086,-1.6884653568267822
1774790037586756000,7.467756103515625,9.584884643554688,1.2115817070007324,-1.6829841136932373
1774790037596796200,7.477796142578125,9.58583927154541,1.217665672302246,-1.6731313467025757
1774790037637018400,7.518018310546875,9.58080005645752,1.3034993410110474,-1.6369316577911377
1774790037647089200,7.528089111328125,9.580550193786621,1.3282564878463745,-1.6183891296386719
1774790037667261400,7.548261474609375,9.583230018615723,1.3779670000076294,-1.5599020719528198
1774790037677332200,7.558332275390625,9.5841064453125,1.3863539695739746,-1.547034502029419
1774790037687403000,7.568403076171875,9.584274291992188,1.4042904376983643,-1.5297200679779053
1774790037697473800,7.578473876953125,9.584561347961426,1.40579354763031,-1.5265355110168457
1774790037707544600,7.588544677734375,9.587251663208008,1.3928781747817993,-1.5214768648147583
1774790037737757000,7.6187568359375,9.610252380371094,1.3150006532669067,-1.4436808824539185
1774790037747827700,7.62882763671875,9.615501403808594,1.3117096424102783,-1.411364197731018
1774790037757868000,7.638867919921875,9.620370864868164,1.3163132667541504,-1.3733774423599243
1774790037767969300,7.64896923828125,9.624387741088867,1.3136171102523804,-1.3475713729858398
1774790037778009600,7.659009521484375,9.630257606506348,1.2786742448806763,-1.3392219543457031
1774790037788080400,7.669080322265625,9.63489818572998,1.2489938735961914,-1.3338401317596436
1774790037798151200,7.679151123046875,9.639579772949219,1.1926074028015137,-1.3515079021453857
1774790037808222000,7.689221923828125,9.642024040222168,1.1669527292251587,-1.356462836265564
1774790037818293000,7.69929296875,9.640080451965332,1.1576905250549316,-1.3780351877212524
1774790037838434600,7.7194345703125,9.626605987548828,1.1997038125991821,-1.435115933418274
1774790037848505300,7.72950537109375,9.617959022521973,1.2174850702285767,-1.477491855621338
1774790037858545700,7.739545654296875,9.606462478637695,1.2525924444198608,-1.5222634077072144
1774790037868616400,7.749616455078125,9.601644515991211,1.258927345275879,-1.5472291707992554
1774790037878687200,7.759687255859375,9.599935531616211,1.2556443214416504,-1.5604419708251953
1774790037888788500,7.76978857421875,9.599418640136719,1.2429847717285156,-1.5736985206604004
1774790037898859300,7.779859375,9.600229263305664,1.2242381572723389,-1.5834227800369263
1774790037908930000,7.789929931640625,9.601171493530273,1.206288456916809,-1.591467261314392
1774790037919000800,7.800000732421875,9.601737976074219,1.1916093826293945,-1.5990872383117676
1774790037949244000,7.830243896484375,9.60519027709961,1.1510472297668457,-1.6080371141433716
1774790037959284000,7.840283935546875,9.607032775878906,1.1383956670761108,-1.6060395240783691
1774790037969354800,7.850354736328125,9.608702659606934,1.1298185586929321,-1.6021053791046143
1774790037979395000,7.86039501953125,9.608948707580566,1.1293232440948486,-1.6009787321090698
1774790037989496600,7.87049658203125,9.608345031738281,1.13473379611969,-1.6007746458053589
1774790037999536600,7.88053662109375,9.606138229370117,1.1487780809402466,-1.6039961576461792
1774790038009607700,7.890607666015625,9.605341911315918,1.1539974212646484,-1.6050186157226562
1774790038019678500,7.900678466796875,9.603316307067871,1.1615914106369019,-1.6116443872451782
1774790038069971500,7.950971435546875,9.599522590637207,1.1574585437774658,-1.6370242834091187
1774790038080011500,7.961011474609375,9.598616600036621,1.162808895111084,-1.6385409832000732
1774790038090082300,7.971082275390625,9.596487998962402,1.1748967170715332,-1.642387866973877
1774790038100153300,7.9811533203125,9.594229698181152,1.1866999864578247,-1.6470848321914673
1774790038110224100,7.99122412109375,9.594781875610352,1.1883295774459839,-1.6426904201507568
1774790038120203300,8.001203369140624,9.595540046691895,1.1848722696304321,-1.6407564878463745
1774790038150415600,8.03141552734375,9.600360870361328,1.1927947998046875,-1.606456995010376
1774790038170496300,8.051496337890624,9.593505859375,1.2511156797409058,-1.6030402183532715
1774790038190607400,8.071607421875,9.583270072937012,1.3138293027877808,-1.6140509843826294
1774790038200647700,8.081647705078124,9.58008861541748,1.3314266204833984,-1.618512749671936
1774790038210749000,8.0917490234375,9.579117774963379,1.3348175287246704,-1.621463656425476
1774790038220789200,8.101789306640624,9.580032348632812,1.325914740562439,-1.6233631372451782
1774790038230860000,8.111860107421874,9.581758499145508,1.3104209899902344,-1.6257554292678833
1774790038250971100,8.13197119140625,9.583431243896484,1.285595178604126,-1.6356892585754395
1774790038261011500,8.142011474609374,9.581609725952148,1.2889653444290161,-1.6436877250671387
1774790038271082200,8.152082275390624,9.577407836914062,1.3079313039779663,-1.6531656980514526
1774790038291162600,8.17216259765625,9.562783241271973,1.375603199005127,-1.682645559310913
1774790038301203000,8.182202880859375,9.554389953613281,1.4085034132003784,-1.7029825448989868
1774790038311243300,8.1922431640625,9.547252655029297,1.430721402168274,-1.724351406097412
1774790038321283600,8.20228369140625,9.543109893798828,1.4384838342666626,-1.740748643875122
1774790038331384800,8.212384765625,9.54267406463623,1.4323819875717163,-1.7481557130813599
1774790038351526400,8.2325263671875,9.555849075317383,1.3684617280960083,-1.727264642715454
1774790038371637500,8.252637451171875,9.56552791595459,1.315130591392517,-1.7150801420211792
1774790038381677800,8.262677734375,9.569677352905273,1.2933704853057861,-1.7084670066833496
1774790038391748600,8.27274853515625,9.570990562438965,1.2885855436325073,-1.7047228813171387
1774790038401758500,8.282758544921874,9.569382667541504,1.3032567501068115,-1.7025983333587646
1774790038411859700,8.292859619140625,9.562542915344238,1.3579630851745605,-1.6982614994049072
1774790038421930500,8.302930419921875,9.556053161621094,1.3987170457839966,-1.701714038848877
1774790038432001300,8.313001220703125,9.54869556427002,1.4354665279388428,-1.7123732566833496
1774790038442041600,8.32304150390625,9.541525840759277,1.4582654237747192,-1.7329542636871338
1774790038462183200,8.34318310546875,9.53864574432373,1.4715697765350342,-1.7375556230545044
1774790038472284700,8.35328466796875,9.54672908782959,1.454795479774475,-1.7070209980010986
1774790038482324700,8.36332470703125,9.549898147583008,1.4453505277633667,-1.6972910165786743
1774790038492426200,8.37342626953125,9.556739807128906,1.4242424964904785,-1.6764942407608032
1774790038502466600,8.383466552734374,9.56572437286377,1.3952195644378662,-1.6494433879852295
1774790038512567800,8.39356787109375,9.570760726928711,1.3797560930252075,-1.6331554651260376
1774790038522638600,8.403638671875,9.573101043701172,1.3734155893325806,-1.624760627746582
1774790038532739800,8.41373974609375,9.577249526977539,1.3650696277618408,-1.6072542667388916
1774790038542780200,8.4237802734375,9.578977584838867,1.3641680479049683,-1.5976959466934204
1774790038572992500,8.453992431640625,9.582563400268555,1.3630608320236206,-1.5770035982131958
1774790038583032800,8.46403271484375,9.583316802978516,1.3617680072784424,-1.57353675365448
1774790038593134000,8.474134033203125,9.584449768066406,1.3580931425094604,-1.569806456565857
1774790038603174400,8.48417431640625,9.584990501403809,1.3573054075241089,-1.5671813488006592
1774790038613275600,8.494275634765625,9.584736824035645,1.3596786260604858,-1.5666742324829102
1774790038623316000,8.50431591796875,9.583439826965332,1.3671668767929077,-1.5680999755859375
1774790038633386800,8.51438671875,9.5812349319458,1.3787686824798584,-1.571406364440918
1774790038643427000,8.524427001953125,9.576886177062988,1.3992177248001099,-1.5798226594924927
1774790038673609000,8.55460888671875,9.570048332214355,1.4303754568099976,-1.5932940244674683
1774790038683649300,8.564649169921875,9.56834602355957,1.4367656707763672,-1.5977615118026733
1774790038693720000,8.574719970703125,9.568426132202148,1.4352763891220093,-1.5986219644546509
1774790038703790800,8.584790771484375,9.56876277923584,1.433734655380249,-1.5979889631271362
1774790038723902000,8.60490185546875,9.572360038757324,1.4255390167236328,-1.5837126970291138
1774790038734003200,8.615003173828125,9.574640274047852,1.4234015941619873,-1.5718109607696533
1774790038744043500,8.62504345703125,9.578999519348145,1.4144079685211182,-1.5532573461532593
1774790038774256000,8.655256103515624,9.589459419250488,1.3859599828720093,-1.5138581991195679
1774790038784327000,8.665326904296874,9.597036361694336,1.3631069660186768,-1.4863433837890625
1774790038794367000,8.675366943359375,9.600386619567871,1.36574387550354,-1.4620872735977173
1774790038804407300,8.6854072265625,9.603976249694824,1.3594342470169067,-1.444287896156311
1774790038814478000,8.69547802734375,9.606199264526367,1.3569974899291992,-1.4317365884780884
1774790038824518400,8.705518310546875,9.606975555419922,1.3625322580337524,-1.4212372303009033
1774790038834589200,8.715589111328125,9.6063814163208,1.3730416297912598,-1.4151227474212646
1774790038844629500,8.72562939453125,9.605709075927734,1.3838847875595093,-1.4091172218322754
1774790038864740600,8.74574072265625,9.605517387390137,1.4009875059127808,-1.393432855606079
1774790038884851700,8.765851806640624,9.60573959350586,1.4144641160964966,-1.3782013654708862
1774790038894922500,8.775922607421874,9.605782508850098,1.4264156818389893,-1.3655282258987427
1774790038904962800,8.785962890625,9.605498313903809,1.4420058727264404,-1.351076364517212
1774790038915033600,8.79603369140625,9.604849815368652,1.4589670896530151,-1.337409496307373
1774790038935175200,8.816175048828125,9.604195594787598,1.4728991985321045,-1.3267978429794312
1774790038955316700,8.836316650390625,9.60783863067627,1.4568102359771729,-1.3181512355804443
1774790038985498600,8.86649853515625,9.6135835647583,1.4543755054473877,-1.2783539295196533
1774790038995569400,8.8765693359375,9.613531112670898,1.4741092920303345,-1.25595223903656
1774790039005609700,8.886609619140625,9.614213943481445,1.4918644428253174,-1.2294774055480957
1774790039015680500,8.896680419921875,9.621832847595215,1.475496530532837,-1.1889644861221313
1774790039025751300,8.906751220703125,9.632448196411133,1.4281963109970093,-1.1604257822036743
1774790039035852800,8.916852783203124,9.645977973937988,1.3548697233200073,-1.1357066631317139
1774790039045892900,8.926892822265625,9.660073280334473,1.2681740522384644,-1.1158369779586792
1774790039055933200,8.93693310546875,9.67104721069336,1.2010891437530518,-1.0948152542114258
1774790039086145500,8.9671455078125,9.680277824401855,1.1128921508789062,-1.1063772439956665
1774790039096216600,8.977216552734374,9.67794418334961,1.1276932954788208,-1.1117916107177734
1774790039106256600,8.987256591796875,9.668127059936523,1.183321475982666,-1.13905930519104
1774790039116327400,8.997327392578125,9.65831470489502,1.2333552837371826,-1.1688354015350342
1774790039126367700,9.00736767578125,9.650965690612793,1.2635513544082642,-1.1969484090805054
1774790039136469200,9.01746923828125,9.646551132202148,1.275429129600525,-1.2197203636169434
1774790039146540000,9.0275400390625,9.644232749938965,1.2748068571090698,-1.2385565042495728
1774790039156641300,9.037641357421874,9.642912864685059,1.2678608894348145,-1.2558400630950928
1774790039186792700,9.067792724609374,9.639469146728516,1.2494041919708252,-1.300007939338684
1774790039196863500,9.077863525390624,9.63985538482666,1.2388393878936768,-1.3072329759597778
1774790039206934300,9.087934326171874,9.641263961791992,1.2245768308639526,-1.310275673866272
1774790039216974600,9.097974609375,9.643318176269531,1.208274483680725,-1.3102980852127075
1774790039227015000,9.108014892578124,9.645559310913086,1.1924004554748535,-1.3083364963531494
1774790039237116200,9.1181162109375,9.647801399230957,1.1782732009887695,-1.3046047687530518
1774790039247187000,9.12818701171875,9.65002155303955,1.1657588481903076,-1.2994186878204346
1774790039257288200,9.1382880859375,9.652920722961426,1.1529760360717773,-1.2892487049102783
1774790039267328500,9.14832861328125,9.653786659240723,1.1502668857574463,-1.2851780652999878
1774790039287439600,9.168439697265624,9.655713081359863,1.1499038934707642,-1.2709521055221558
1774790039297480000,9.17847998046875,9.656601905822754,1.1501665115356445,-1.2639375925064087
1774790039307550700,9.18855078125,9.657733917236328,1.1467688083648682,-1.2583656311035156
1774790039317621500,9.19862158203125,9.659337043762207,1.1381404399871826,-1.2538872957229614
1774790039327722800,9.20872265625,9.661422729492188,1.1251246929168701,-1.2495571374893188
1774790039337824000,9.218823974609375,9.663655281066895,1.1103394031524658,-1.2455166578292847
1774790039347864300,9.2288642578125,9.665511131286621,1.096055030822754,-1.2437646389007568
1774790039357935000,9.23893505859375,9.665858268737793,1.094435691833496,-1.2424914836883545
1774790039367975400,9.248975341796875,9.665959358215332,1.0967658758163452,-1.2396448850631714
1774790039398187800,9.279187744140625,9.658846855163574,1.171496033668518,-1.2266438007354736
1774790039408228000,9.28922802734375,9.655477523803711,1.20577073097229,-1.2199451923370361
1774790039418268400,9.299268310546875,9.6527099609375,1.2414580583572388,-1.2059694528579712
1774790039428339200,9.309339111328125,9.651379585266113,1.2877426147460938,-1.167468786239624
1774790039438440400,9.3194404296875,9.652641296386719,1.3004463911056519,-1.1426887512207031
1774790039448511500,9.329511474609374,9.653592109680176,1.312744140625,-1.1203738451004028
1774790039458582300,9.339582275390624,9.65579891204834,1.3109835386276245,-1.103294014930725
1774790039468622300,9.349622314453125,9.657326698303223,1.308127522468567,-1.093266248703003
1774790039488733400,9.3697333984375,9.659347534179688,1.3145674467086792,-1.0673893690109253
1774790039508875300,9.389875244140624,9.658679962158203,1.3407825231552124,-1.0404800176620483
1774790039518976500,9.3999765625,9.65826416015625,1.3495254516601562,-1.033008098602295
1774790039529016800,9.410016845703124,9.657914161682129,1.3664976358413696,-1.0137947797775269
1774790039539118000,9.4201181640625,9.657458305358887,1.3770902156829834,-1.003746747970581
1774790039549158400,9.430158447265624,9.656596183776855,1.3903772830963135,-0.9936720132827759
1774790039559229200,9.440229248046874,9.65628433227539,1.3943111896514893,-0.9911914467811584
1774790039569300000,9.450300048828124,9.653619766235352,1.4100760221481323,-0.9948386549949646
1774790039599573500,9.480573486328124,9.64418888092041,1.4544259309768677,-1.0220776796340942
1774790039609613600,9.490613525390625,9.642391204833984,1.4613760709762573,-1.029107689857483
1774790039619684400,9.500684326171875,9.641596794128418,1.4689303636550903,-1.0257843732833862
1774790039629724700,9.510724609375,9.641552925109863,1.466805338859558,-1.0292342901229858
1774790039639795500,9.52079541015625,9.645787239074707,1.4482063055038452,-1.015815019607544
1774790039649866200,9.5308662109375,9.647991180419922,1.4352686405181885,-1.0132416486740112
1774790039659937300,9.540937255859374,9.651822090148926,1.4133597612380981,-1.0075430870056152
1774790039669977300,9.550977294921875,9.654590606689453,1.396803617477417,-1.0040961503982544
1774790039680017700,9.561017578125,9.653863906860352,1.4004852771759033,-1.005948781967163
1774790039710199600,9.591199462890625,9.643351554870605,1.4541555643081665,-1.0303304195404053
1774790039720270300,9.601270263671875,9.634581565856934,1.5098336935043335,-1.0322908163070679
1774790039730310700,9.611310546875,9.62645149230957,1.5641870498657227,-1.0272001028060913
1774790039740351000,9.62135107421875,9.619945526123047,1.611600399017334,-1.0147826671600342
1774790039750391300,9.631391357421874,9.614298820495605,1.6618388891220093,-0.9868835210800171
1774790039760431600,9.641431640625,9.614090919494629,1.6714874505996704,-0.972510814666748
1774790039770502400,9.65150244140625,9.616480827331543,1.6768110990524292,-0.9391427636146545
1774790039800745200,9.6817451171875,9.6285400390625,1.6522213220596313,-0.855429470539093
1774790039810846500,9.691846435546875,9.630370140075684,1.6499989032745361,-0.8389623165130615
1774790039820917500,9.70191748046875,9.632800102233887,1.6490973234176636,-0.8124181628227234
1774790039830927000,9.711927001953125,9.635302543640137,1.6508489847183228,-0.7784740924835205
1774790039840998000,9.721997802734375,9.636208534240723,1.6513272523880005,-0.7661576271057129
1774790039851099100,9.73209912109375,9.639540672302246,1.6439764499664307,-0.7395821809768677
1774790039861170200,9.742170166015624,9.642266273498535,1.6347872018814087,-0.7242704033851624
1774790039871241000,9.752240966796874,9.643794059753418,1.6291569471359253,-0.7165818810462952
1774790039921534000,9.802533935546874,9.647531509399414,1.621527910232544,-0.682765007019043
1774790039931574000,9.812573974609375,9.646787643432617,1.627426266670227,-0.6792284846305847
1774790039941675500,9.822675537109374,9.646383285522461,1.6301950216293335,-0.6783288717269897
1774790039951715800,9.8327158203125,9.646060943603516,1.632133960723877,-0.6782533526420593
1774790039961756000,9.842755859375,9.645843505859375,1.6332123279571533,-0.6787539720535278
1774790039971826700,9.85282666015625,9.647247314453125,1.6251606941223145,-0.6781243681907654
1774790039981897700,9.862897705078124,9.649519920349121,1.6119999885559082,-0.6772032380104065
1774790040012110000,9.893110107421874,9.657526969909668,1.5662181377410889,-0.6704599261283875
1774790040032221200,9.91322119140625,9.6629638671875,1.5364971160888672,-0.6608262062072754
1774790040042261200,9.92326123046875,9.666377067565918,1.5182445049285889,-0.6530581116676331
1774790040052362800,9.93336279296875,9.667882919311523,1.511588215827942,-0.6461650729179382
1774790040062464000,9.943464111328124,9.66812515258789,1.5136314630508423,-0.6377048492431641
1774790040072534800,9.95353466796875,9.667545318603516,1.5211759805679321,-0.6284719109535217
1774790040082575000,9.9635751953125,9.66580867767334,1.5361013412475586,-0.6187998652458191
1774790040092676400,9.97367626953125,9.663625717163086,1.5550724267959595,-0.605371356010437
1774790040112818000,9.99381787109375,9.659589767456055,1.5818284749984741,-0.6004515886306763
1774790040122858200,10.003858154296875,9.657877922058105,1.591615915298462,-0.6021193861961365
1774790040132929000,10.013928955078125,9.656272888183594,1.599959373474121,-0.6057227849960327
1774790040173181700,10.054181640625,9.647696495056152,1.6532832384109497,-0.5991630554199219
1774790040183252500,10.06425244140625,9.64669418334961,1.6613118648529053,-0.5930577516555786
1774790040213404000,10.09440380859375,9.639575958251953,1.7081620693206787,-0.5754474401473999
1774790040233576200,10.114576171875,9.640120506286621,1.7085691690444946,-0.5650257468223572
1774790040243585800,10.124585693359375,9.64098834991455,1.705431580543518,-0.5596639513969421
1774790040253626000,10.134626220703124,9.641465187072754,1.7153373956680298,-0.5197519063949585
1774790040263697000,10.14469677734375,9.642098426818848,1.718115210533142,-0.498409628868103
1774790040273737200,10.1547373046875,9.64219856262207,1.7353966236114502,-0.43219971656799316
1774790040283808000,10.16480810546875,9.644050598144531,1.7354495525360107,-0.38845089077949524
1774790040293848300,10.174848388671874,9.647229194641113,1.7274670600891113,-0.3423655033111572
1774790040303888600,10.184888671875,9.652308464050293,1.706583857536316,-0.301486611366272
1774790040334131500,10.21513134765625,9.675606727600098,1.5849958658218384,-0.20199941098690033
1774790040344202200,10.2252021484375,9.677472114562988,1.5738855600357056,-0.19951120018959045
1774790040354242600,10.23524267578125,9.678336143493652,1.5679271221160889,-0.2044375240802765
1774790040364283000,10.245282958984374,9.679383277893066,1.5598807334899902,-0.21608133614063263
1774790040374353700,10.255353759765624,9.678496360778809,1.5635466575622559,-0.22892920672893524
1774790040384394000,10.26539404296875,9.674452781677246,1.5872870683670044,-0.23636524379253387
1774790040394434300,10.275434326171874,9.669968605041504,1.6137793064117432,-0.2404540628194809
1774790040404474600,10.285474609375,9.668046951293945,1.624632716178894,-0.24460330605506897
1774790040444788200,10.325788330078124,9.66518497467041,1.6396138668060303,-0.2573835253715515
1774790040454859000,10.33585888671875,9.666411399841309,1.6316325664520264,-0.26204538345336914
1774790040464960300,10.345960205078125,9.667417526245117,1.625040054321289,-0.26583346724510193
1774790040475000600,10.35600048828125,9.670947074890137,1.6038247346878052,-0.26629605889320374
1774790040495111700,10.376111572265625,9.68111515045166,1.5421355962753296,-0.2611853778362274
1774790040505182500,10.386182373046875,9.687685012817383,1.50072181224823,-0.25882086157798767
1774790040515222800,10.396222900390624,9.689604759216309,1.4882475137710571,-0.25896990299224854
1774790040545435100,10.42643505859375,9.699211120605469,1.4211173057556152,-0.2758951783180237
1774790040555475500,10.436475341796875,9.700263977050781,1.4134548902511597,-0.2782500982284546
1774790040565546200,10.446546142578125,9.702169418334961,1.3990193605422974,-0.28468531370162964
1774790040575586600,10.456586669921874,9.704033851623535,1.3843063116073608,-0.2929500341415405
1774790040585657300,10.4666572265625,9.705979347229004,1.3680604696273804,-0.3045581877231598
1774790040595697700,10.47669775390625,9.707837104797363,1.3515764474868774,-0.31864866614341736
1774790040605799000,10.486798828125,9.710174560546875,1.3288793563842773,-0.34204044938087463
1774790040615839200,10.496839111328125,9.711627960205078,1.31398344039917,-0.3579429090023041
1774790040666132200,10.54713232421875,9.715713500976562,1.2659132480621338,-0.41563141345977783
1774790040676203000,10.557203125,9.714611053466797,1.2700740098953247,-0.4285326600074768
1774790040686304300,10.56730419921875,9.712224960327148,1.2827847003936768,-0.4444478750228882
1774790040696375000,10.577375,9.71052074432373,1.2912592887878418,-0.45698919892311096
1774790040706415400,10.587415283203125,9.708786010742188,1.2993043661117554,-0.47081831097602844
1774790040716486100,10.597486083984375,9.70761489868164,1.3069205284118652,-0.47388145327568054
1774790040726587600,10.607587646484374,9.705472946166992,1.3176265954971313,-0.4879026710987091
1774790040756738800,10.63773876953125,9.69815731048584,1.35550856590271,-0.5279464721679688
1774790040776880600,10.657880615234374,9.695151329040527,1.3664166927337646,-0.5543816685676575
1774790040786982000,10.66798193359375,9.694137573242188,1.3667964935302734,-0.5709265470504761
1774790040797052700,10.678052734375,9.692304611206055,1.3668327331542969,-0.6011451482772827
1774790040807093000,10.688093017578124,9.691588401794434,1.3674637079238892,-0.6111853718757629
1774790040817163800,10.698163818359374,9.689626693725586,1.3717119693756104,-0.6323923468589783
1774790040827234600,10.708234619140624,9.684940338134766,1.3892122507095337,-0.6651378273963928
1774790040857447000,10.738447021484374,9.669251441955566,1.45612370967865,-0.7454279661178589
1774790040877588500,10.75858837890625,9.661783218383789,1.4792689085006714,-0.7950531840324402
1774790040887689700,10.768689697265625,9.66002368927002,1.476349115371704,-0.8214126825332642
1774790040897760500,10.778760498046875,9.661202430725098,1.458133578300476,-0.8398810029029846
1774790040907831600,10.78883154296875,9.664695739746094,1.4275988340377808,-0.8520591855049133
1774790040917871600,10.79887158203125,9.6690673828125,1.392378807067871,-0.8607015609741211
1774790040927973000,10.80897314453125,9.672881126403809,1.3580714464187622,-0.8725817203521729
1774790040938013400,10.819013427734374,9.673839569091797,1.3463540077209473,-0.8800802826881409
1774790040968225800,10.849225830078124,9.658151626586914,1.4220176935195923,-0.9318602085113525
1774790040978296600,10.859296630859374,9.648098945617676,1.4729443788528442,-0.9565674662590027
1774790040988397800,10.869397705078125,9.636794090270996,1.5249156951904297,-0.9885403513908386
1774790040998438100,10.879438232421874,9.624019622802734,1.5953240394592285,-1.001790165901184
1774790041008509000,10.889509033203124,9.620662689208984,1.6136806011199951,-1.004624843597412
1774790041018549200,10.89954931640625,9.617596626281738,1.6355479955673218,-0.9986013770103455
1774790041028620000,10.9096201171875,9.619668006896973,1.6358994245529175,-0.9778589606285095
1774790041038690800,10.91969091796875,9.62401294708252,1.6209373474121094,-0.9598521590232849
1774790041048792000,10.9297919921875,9.626962661743164,1.6094043254852295,-0.9496318101882935
1774790041058862800,10.93986279296875,9.634210586547852,1.5830658674240112,-0.9199305772781372
1774790041089075500,10.970075439453124,9.641942024230957,1.5642285346984863,-0.8697909712791443
1774790041119226600,11.0002265625,9.647869110107422,1.5523974895477295,-0.8240581154823303
1774790041129297400,11.01029736328125,9.652900695800781,1.5289642810821533,-0.808800995349884
1774790041139368200,11.0203681640625,9.654908180236816,1.5191596746444702,-0.8032973408699036
1774790041149439200,11.030439208984374,9.659122467041016,1.496105432510376,-0.7958692312240601
1774790041159479300,11.040479248046875,9.66530704498291,1.4598793983459473,-0.7880203723907471
1774790041169550000,11.050550048828125,9.66740608215332,1.4478191137313843,-0.7845235466957092
1774790041179620900,11.060620849609375,9.671385765075684,1.4220631122589111,-0.7825727462768555
1774790041189692000,11.07069189453125,9.676793098449707,1.3832104206085205,-0.785359799861908
1774790041199732000,11.08073193359375,9.680031776428223,1.3588063716888428,-0.7880527377128601
1774790041209802800,11.090802734375,9.682519912719727,1.3388937711715698,-0.7915563583374023
1774790041219873800,11.100873779296874,9.684054374694824,1.3258421421051025,-0.7947478890419006
1774790041229975000,11.11097509765625,9.684420585632324,1.3216227293014526,-0.7973102927207947
1774790041240015400,11.121015380859374,9.684211730957031,1.3229104280471802,-0.7977139949798584
1774790041270197200,11.151197265625,9.680903434753418,1.348091721534729,-0.7956950664520264
1774790041280237600,11.161237548828124,9.680947303771973,1.3484339714050293,-0.7945979833602905
1774790041290308400,11.171308349609374,9.683372497558594,1.3348462581634521,-0.7879488468170166
1774790041300348400,11.181348388671875,9.686861991882324,1.3156614303588867,-0.7772546410560608
1774790041310419500,11.19141943359375,9.690397262573242,1.298372745513916,-0.7621131539344788
1774790041320490200,11.201490234375,9.693161010742188,1.2881218194961548,-0.7441591620445251
1774790041330561000,11.21156103515625,9.69497299194336,1.286359429359436,-0.7233104109764099
1774790041340631800,11.2216318359375,9.695475578308105,1.2948884963989258,-0.7010059356689453
1774790041360803800,11.241803955078124,9.697466850280762,1.3021689653396606,-0.6586833596229553
1774790041390955300,11.271955322265624,9.705168724060059,1.264697551727295,-0.616959810256958
1774790041411096800,11.292096923828124,9.708222389221191,1.253010630607605,-0.5922658443450928
1774790041421137200,11.30213720703125,9.709701538085938,1.2512754201889038,-0.5713009834289551
1774790041441217800,11.3222177734375,9.711318016052246,1.2531038522720337,-0.5389047265052795
1774790041451319000,11.332319091796874,9.712268829345703,1.2541369199752808,-0.5190095901489258
1774790041461389800,11.342389892578124,9.713316917419434,1.2550146579742432,-0.4967745244503021
1774790041481470500,11.362470458984374,9.716084480285645,1.250096082687378,-0.45315587520599365
1774790041491571700,11.37257177734375,9.717004776000977,1.2468602657318115,-0.44221338629722595
1774790041511682800,11.392682861328124,9.721943855285645,1.2132971286773682,-0.4267328381538391
1774790041531824400,11.412824462890624,9.725735664367676,1.184454321861267,-0.4213310182094574
1774790041541895200,11.422895263671874,9.727325439453125,1.1755915880203247,-0.4092652499675751
1774790041551966000,11.432966064453124,9.727760314941406,1.1788609027862549,-0.3890271484851837
1774790041562006300,11.44300634765625,9.727096557617188,1.192604422569275,-0.36287668347358704
1774790041622492200,11.5034921875,9.7260103225708,1.2109999656677246,-0.3295227289199829
1774790041632532500,11.513532470703124,9.727128028869629,1.1993566751480103,-0.3389820456504822
1774790041642542000,11.5235419921875,9.722759246826172,1.2245475053787231,-0.37259507179260254
1774790041662714400,11.54371435546875,9.723505020141602,1.2018905878067017,-0.4234451651573181
1774790041672815600,11.553815673828124,9.721050262451172,1.2128857374191284,-0.447750061750412
1774790041692926700,11.5739267578125,9.720917701721191,1.2005559206008911,-0.4825078547000885
1774790041702967000,11.583967041015624,9.722396850585938,1.179642677307129,-0.5038108825683594
1774790041713037800,11.594037841796874,9.722982406616211,1.1674811840057373,-0.5205621719360352
1774790041723047400,11.60404736328125,9.723267555236816,1.1573890447616577,-0.5374996066093445
1774790041733149000,11.61414892578125,9.72339153289795,1.1520514488220215,-0.5466450452804565
1774790041743219700,11.6242197265625,9.724557876586914,1.130111575126648,-0.5711458921432495
1774790041753321000,11.634321044921874,9.725186347961426,1.120505928993225,-0.5793209075927734
1774790041763300000,11.644300048828125,9.726495742797852,1.1010348796844482,-0.5944623947143555
1774790041823694600,11.704694580078124,9.7264986038208,1.052943468093872,-0.6759545803070068
1774790041833795800,11.7147958984375,9.726465225219727,1.0410735607147217,-0.6945734024047852
1774790041843805400,11.724805419921875,9.726418495178223,1.0333362817764282,-0.7066672444343567
1774790041853907000,11.734906982421874,9.726351737976074,1.030116319656372,-0.7122734785079956
1774790041863977700,11.744977783203124,9.725942611694336,1.0207024812698364,-0.7311536073684692
1774790041874079000,11.755078857421875,9.7255277633667,1.0155730247497559,-0.743720531463623
1774790041894220500,11.775220458984375,9.725823402404785,0.9959532022476196,-0.7660427093505859
1774790041904291300,11.785291259765625,9.726318359375,0.9885592460632324,-0.7693321108818054
1774790041914362000,11.795362060546875,9.7275390625,0.9657214283943176,-0.7827907204627991
1774790041924402400,11.80540234375,9.728219985961914,0.9585944414138794,-0.783081591129303
1774790041934473200,11.81547314453125,9.727225303649902,0.9579039216041565,-0.7961782217025757
1774790041944544000,11.8255439453125,9.726892471313477,0.9619525671005249,-0.7953545451164246
1774790041954614800,11.83561474609375,9.723372459411621,0.9929688572883606,-0.8002648949623108
1774790041964655000,11.845655029296875,9.717174530029297,1.0444599390029907,-0.8099467754364014
1774790041974756600,11.855756591796874,9.714339256286621,1.0769912004470825,-0.8013089299201965
1774790041984827400,11.865827392578124,9.707876205444336,1.1212013959884644,-0.8188067674636841
1774790041994928600,11.8759287109375,9.704499244689941,1.144157886505127,-0.8270328044891357
1774790042004999400,11.88599951171875,9.702699661254883,1.1532658338546753,-0.835456371307373
1774790042015070200,11.8960703125,9.702311515808105,1.1559090614318848,-0.8363060355186462
1774790042025141000,11.90614111328125,9.702554702758789,1.1450750827789307,-0.8483110666275024
1774790042045313000,11.92631298828125,9.704655647277832,1.113282561302185,-0.8664059042930603
1774790042055383800,11.9363837890625,9.704955101013184,1.112135648727417,-0.8645200133323669
1774790042065424100,11.946424072265625,9.705608367919922,1.0958613157272339,-0.8778617978096008
1774790042075495000,11.956494873046875,9.704501152038574,1.085958480834961,-0.9020696878433228
1774790042145960200,12.026960205078124,9.657745361328125,1.331650733947754,-1.0606768131256104
1774790042176203000,12.057203125,9.668941497802734,1.2189522981643677,-1.0936684608459473
1774790042196314000,12.077314208984374,9.679468154907227,1.1287723779678345,-1.097336769104004
1774790042206354400,12.0873544921875,9.684261322021484,1.0827765464782715,-1.1013883352279663
1774790042216455700,12.09745556640625,9.685772895812988,1.059287428855896,-1.1108999252319336
1774790042226526500,12.1075263671875,9.684648513793945,1.0556387901306152,-1.1240997314453125
1774790042236627700,12.117627685546875,9.680187225341797,1.0782616138458252,-1.1409214735031128
1774790042246698800,12.12769873046875,9.671112060546875,1.137281060218811,-1.1604217290878296
1774790042256769500,12.13776953125,9.666268348693848,1.1578338146209717,-1.1802804470062256
1774790042266840300,12.14784033203125,9.658273696899414,1.1927686929702759,-1.210558533668518
1774790042276880400,12.15788037109375,9.656217575073242,1.205442190170288,-1.214398741722107
1774790042286920700,12.167920654296875,9.656413078308105,1.2008908987045288,-1.2173420190811157
1774790042327234600,12.208234619140624,9.678566932678223,1.0889458656311035,-1.1445152759552002
1774790042337305300,12.218305419921874,9.680829048156738,1.0805346965789795,-1.133306860923767
1774790042347376000,12.228376220703124,9.683856964111328,1.0736325979232788,-1.113831639289856
1774790042357477400,12.238477294921875,9.686473846435547,1.0694811344146729,-1.0949074029922485
1774790042367548200,12.248548095703125,9.69087028503418,1.054336667060852,-1.0704232454299927
1774790042377619000,12.258618896484375,9.694271087646484,1.038709044456482,-1.054789423942566
1774790042387659300,12.2686591796875,9.69627857208252,1.0287882089614868,-1.0460190773010254
1774790042427881500,12.308881591796874,9.70421028137207,1.013497233390808,-0.9856574535369873
1774790042437952300,12.3189521484375,9.702950477600098,1.0355585813522339,-0.9750726819038391
1774790042458063400,12.3390634765625,9.69991683959961,1.0753101110458374,-0.9621447920799255
1774790042468103700,12.349103759765624,9.697680473327637,1.100413203239441,-0.9562781453132629
1774790042478174500,12.359174560546874,9.696893692016602,1.1078898906707764,-0.9556291699409485
1774790042488214800,12.36921484375,9.696606636047363,1.1103227138519287,-0.9557194113731384
1774790042528467500,12.409467529296874,9.695296287536621,1.1027721166610718,-0.9775095582008362
1774790042538538200,12.419538330078124,9.695594787597656,1.0933033227920532,-0.9851531386375427
1774790042548578600,12.42957861328125,9.69566535949707,1.084938645362854,-0.9936599731445312
1774790042558649300,12.4396494140625,9.694578170776367,1.086784839630127,-1.0022224187850952
1774790042568689700,12.449689697265624,9.691583633422852,1.105377197265625,-1.0108122825622559
1774790042578730000,12.45972998046875,9.68629264831543,1.1411277055740356,-1.0217310190200806
1774790042588800800,12.46980078125,9.67900562286377,1.1878100633621216,-1.037467360496521
1774790042598902000,12.479902099609374,9.671805381774902,1.229743242263794,-1.0556074380874634
1774790042639185200,12.52018505859375,9.669232368469238,1.207910180091858,-1.10330331325531
1774790042649225500,12.5302255859375,9.669747352600098,1.1880033016204834,-1.120278239250183
1774790042659326700,12.54032666015625,9.66940689086914,1.1850931644439697,-1.1262775659561157
1774790042669367000,12.550366943359375,9.666775703430176,1.1963711977005005,-1.136901617050171
1774790042679437800,12.560437744140625,9.662452697753906,1.2237075567245483,-1.1445260047912598
1774790042699488000,12.580488037109374,9.652304649353027,1.2975186109542847,-1.1488518714904785
1774790042709558800,12.590558837890624,9.648353576660156,1.3303202390670776,-1.1445066928863525
1774790042719599000,12.60059912109375,9.644791603088379,1.3608298301696777,-1.1386483907699585
1774790042769892000,12.65089208984375,9.659006118774414,1.270003318786621,-1.1229760646820068
1774790042830194700,12.711194580078125,9.699532508850098,1.122600793838501,-0.9106211066246033
1774790042880579300,12.761579345703124,9.721525192260742,0.9347671270370483,-0.8879972696304321
1774790042920740400,12.801740234375,9.716404914855957,0.904509961605072,-0.9714545607566833
1774790043001184800,12.882184814453124,9.720541000366211,0.7587735056877136,-1.0515415668487549
1774790043041407000,12.922406982421874,9.7258939743042,0.6770885586738586,-1.0577914714813232
1774790043051386000,12.93238623046875,9.72611141204834,0.6724568009376526,-1.0587457418441772
1774790043061487400,12.9424873046875,9.726094245910645,0.6674341559410095,-1.0620802640914917
1774790043071527700,12.952527587890625,9.725738525390625,0.6657159328460693,-1.0664010047912598
1774790043081568000,12.962568115234374,9.724995613098145,0.6676562428474426,-1.071955680847168
1774790043091638800,12.972638671875,9.724722862243652,0.6684479713439941,-1.0739299058914185
1774790043101740000,12.982739990234375,9.724799156188965,0.666647732257843,-1.07435941696167
1774790043141962200,13.022962158203125,9.72646713256836,0.650018572807312,-1.0694390535354614
1774790043182215000,13.06321484375,9.725667953491211,0.6804305911064148,-1.057734489440918
1774790043222528800,13.10352880859375,9.715895652770996,0.8252399563789368,-1.0443774461746216
1774790043232569000,13.113569091796874,9.713775634765625,0.8479117155075073,-1.0459377765655518
1774790043252710700,13.133710693359374,9.708345413208008,0.9042111039161682,-1.0491958856582642
1774790043313105000,13.19410498046875,9.697785377502441,0.9534838199615479,-1.1019134521484375
1774790043353479700,13.234479736328124,9.67542839050293,1.0919551849365234,-1.1679558753967285
1774790043363520000,13.24452001953125,9.666865348815918,1.1346452236175537,-1.1977821588516235
1774790043373621200,13.254621337890624,9.657869338989258,1.1770638227462769,-1.2290157079696655
1774790043383722500,13.264722412109375,9.651005744934082,1.2056788206100464,-1.2549192905426025
1774790043393793300,13.274793212890625,9.647473335266113,1.21639883518219,-1.271620512008667
1774790043403833600,13.28483349609375,9.64726448059082,1.2077362537384033,-1.2814239263534546
1774790043413934800,13.294934814453125,9.649670600891113,1.1837671995162964,-1.2856699228286743
1774790043454218200,13.33521826171875,9.655921936035156,1.104701280593872,-1.3088902235031128
1774790043464258600,13.345258544921874,9.65349006652832,1.1118745803833008,-1.3207032680511475
1774790043474298600,13.355298583984375,9.649476051330566,1.1300528049468994,-1.3345340490341187
1774790043484308500,13.36530859375,9.64314079284668,1.16093111038208,-1.3536802530288696
1774790043494379300,13.375379150390625,9.634103775024414,1.198485255241394,-1.3849393129348755
1774790043504450000,13.385449951171875,9.622560501098633,1.2409230470657349,-1.4271726608276367
1774790043514460000,13.3954599609375,9.61468505859375,1.2839374542236328,-1.4421240091323853
1774790043524530700,13.40553076171875,9.610395431518555,1.318224549293518,-1.439780592918396
1774790043544733200,13.425733154296875,9.612728118896484,1.334723711013794,-1.4086705446243286
1774790043554804200,13.43580419921875,9.618163108825684,1.3199909925460815,-1.3852620124816895
1774790043574976300,13.455976318359374,9.630815505981445,1.2793431282043457,-1.33456552028656
1774790043585077500,13.466077392578125,9.635884284973145,1.266336441040039,-1.3101531267166138
1774790043595148300,13.476148193359375,9.64102554321289,1.2620254755020142,-1.2760504484176636
1774790043605158100,13.486158203125,9.643644332885742,1.2643762826919556,-1.253739356994629
1774790043615229000,13.49622900390625,9.645838737487793,1.268391489982605,-1.23262357711792
1774790043625330200,13.506330078125,9.647995948791504,1.2711868286132812,-1.2126973867416382
1774790043655481600,13.536481689453124,9.65453052520752,1.2651052474975586,-1.1661611795425415
1774790043675592700,13.5565927734375,9.661311149597168,1.2399245500564575,-1.1366819143295288
1774790043685633000,13.566633056640624,9.664267539978027,1.2257366180419922,-1.1268950700759888
1774790043695734300,13.576734375,9.666356086730957,1.2142621278762817,-1.1213889122009277
1774790043705774600,13.586774658203124,9.667444229125977,1.2073404788970947,-1.1194874048233032
1774790043715845400,13.596845458984374,9.667654991149902,1.2055355310440063,-1.1196070909500122
1774790043725885700,13.6068857421875,9.666559219360352,1.209472894668579,-1.124807596206665
1774790043756037000,13.637037109375,9.664031028747559,1.2180700302124023,-1.1371859312057495
1774790043776209200,13.657209228515624,9.661599159240723,1.2294583320617676,-1.1455638408660889
1774790043786249500,13.66724951171875,9.660189628601074,1.2379764318466187,-1.1482722759246826
1774790043796320300,13.6773203125,9.658734321594238,1.2487714290618896,-1.1488269567489624
1774790043806360600,13.687360595703124,9.657355308532715,1.2614206075668335,-1.1466021537780762
1774790043816431400,13.697431396484374,9.656370162963867,1.2735686302185059,-1.1414554119110107
1774790043826502100,13.707502197265624,9.65654182434082,1.282193899154663,-1.1302939653396606
1774790043856684000,13.73768408203125,9.661375045776367,1.28733491897583,-1.08212411403656
1774790043876795100,13.757795166015624,9.665545463562012,1.2743916511535645,-1.0599758625030518
1774790043886835500,13.76783544921875,9.666996002197266,1.2744998931884766,-1.046532392501831
1774790043896906200,13.77790625,9.667746543884277,1.2807525396347046,-1.031855821609497
1774790043906977000,13.78797705078125,9.66783618927002,1.2923303842544556,-1.0164704322814941
1774790043916986600,13.797986572265625,9.667683601379395,1.3062409162521362,-1.0000038146972656
1774790043927057400,13.808057373046875,9.66893196105957,1.3169167041778564,-0.973591148853302
1774790043937097700,13.81809765625,9.671034812927246,1.316084384918213,-0.9536216855049133
1774790043977320000,13.85831982421875,9.685395240783691,1.2704497575759888,-0.865717351436615
1774790043987390700,13.868390625,9.689287185668945,1.2503786087036133,-0.8512586951255798
1774790043997461500,13.87846142578125,9.69320297241211,1.224379062652588,-0.8444522619247437
1774790044007532300,13.8885322265625,9.697294235229492,1.1936298608779907,-0.8414973020553589
1774790044017603000,13.89860302734375,9.702414512634277,1.1582108736038208,-0.8319225311279297
1774790044027704600,13.90870458984375,9.704641342163086,1.1461015939712524,-0.8226671814918518
1774790044037745000,13.918744873046874,9.705244064331055,1.1504377126693726,-0.8093922734260559
1774790044067896000,13.94889599609375,9.704146385192871,1.184694528579712,-0.7722925543785095
1774790044077936400,13.958936279296875,9.70763111114502,1.1671457290649414,-0.7550239562988281
1774790044087976700,13.968976806640624,9.71391487121582,1.1188950538635254,-0.7472025156021118
1774790044098017000,13.97901708984375,9.720198631286621,1.061982274055481,-0.7485429644584656
1774790044108118300,13.9891181640625,9.724101066589355,1.01577889919281,-0.7618671655654907
1774790044118189000,13.99918896484375,9.724669456481934,0.9916492104530334,-0.7860222458839417
1774790044138300200,14.019300048828125,9.716214179992676,1.0149976015090942,-0.8575243949890137
1774790044148371000,14.029370849609375,9.704591751098633,1.0742084980010986,-0.9150745272636414
1774790044178522400,14.0595224609375,9.688017845153809,1.1256424188613892,-1.0225615501403809
1774790044198633500,14.079633544921874,9.684834480285645,1.1030864715576172,-1.075909972190857
1774790044208704300,14.089704345703124,9.682987213134766,1.0905803442001343,-1.1048942804336548
1774790044218775000,14.099775146484374,9.68106746673584,1.0825799703598022,-1.1293100118637085
1774790044228876300,14.109876220703125,9.678894996643066,1.0798652172088623,-1.1503348350524902
1774790044238916600,14.11991650390625,9.676997184753418,1.0774765014648438,-1.1683961153030396
1774790044248987400,14.1299873046875,9.675901412963867,1.0712509155273438,-1.1831101179122925
1774790044259027700,14.14002783203125,9.675724983215332,1.058704137802124,-1.1957757472991943
1774790044289240000,14.170239990234375,9.678142547607422,1.007023811340332,-1.2205930948257446
1774790044299310800,14.180310791015625,9.678977012634277,0.9923542141914368,-1.2259819507598877
1774790044309381600,14.190381591796875,9.679560661315918,0.9804056286811829,-1.2309725284576416
1774790044319452400,14.200452392578125,9.679862022399902,0.9711053967475891,-1.2359644174575806
1774790044329492700,14.21049267578125,9.679656028747559,0.9617865085601807,-1.2448341846466064
1774790044339563500,14.2205634765625,9.679632186889648,0.9590549468994141,-1.247125506401062
1774790044349603800,14.230603759765625,9.67935848236084,0.9544040560722351,-1.2528020143508911
1774790044359644200,14.24064404296875,9.679229736328125,0.9462152719497681,-1.2599905729293823
1774790044369684500,14.2506845703125,9.679381370544434,0.9434017539024353,-1.2609370946884155
1774790044379724800,14.260724853515624,9.679853439331055,0.9355907440185547,-1.2631336450576782
1774790044399836000,14.2808359375,9.68203067779541,0.9126377701759338,-1.2632341384887695
1774790044409906700,14.29090673828125,9.683675765991211,0.8964820504188538,-1.2621949911117554
1774790044419916300,14.300916259765625,9.685555458068848,0.8793633580207825,-1.2598053216934204
1774790044430017800,14.311017822265624,9.687455177307129,0.864074170589447,-1.2557717561721802
1774790044440058000,14.32105810546875,9.687376976013184,0.86212158203125,-1.2577195167541504
1774790044450098200,14.33109814453125,9.687917709350586,0.8685490489006042,-1.2491086721420288
1774790044460169000,14.3411689453125,9.686589241027832,0.8985974192619324,-1.2381081581115723
1774790044470270500,14.3512705078125,9.683488845825195,0.934973955154419,-1.235413670539856
1774790044490350800,14.371350830078125,9.674752235412598,1.013349175453186,-1.2420481443405151
1774790044510462000,14.3914619140625,9.671957969665527,1.0426284074783325,-1.239571452140808
1774790044520502300,14.401502197265625,9.67216682434082,1.0450071096420288,-1.2359344959259033
1774790044530573000,14.411572998046875,9.672930717468262,1.0416539907455444,-1.2327845096588135
1774790044540583000,14.4215830078125,9.673104286193848,1.036932110786438,-1.2354007959365845
1774790044550684200,14.43168408203125,9.67240047454834,1.038930892944336,-1.2392317056655884
1774790044560755000,14.4417548828125,9.670334815979004,1.0500242710113525,-1.2459787130355835
1774790044570856400,14.4518564453125,9.668951034545898,1.0584827661514282,-1.249559760093689
1774790044590967600,14.471967529296874,9.65804672241211,1.1285597085952759,-1.2723485231399536
1774790044601038300,14.482038330078124,9.646743774414062,1.1954615116119385,-1.2967653274536133
1774790044611139600,14.4921396484375,9.64257526397705,1.217803716659546,-1.3069379329681396
1774790044621180000,14.502179931640624,9.63455581665039,1.2570322751998901,-1.3287544250488281
1774790044631250700,14.512250732421874,9.625863075256348,1.2963733673095703,-1.3537265062332153
1774790044641291000,14.522291015625,9.623356819152832,1.3052382469177246,-1.3629884719848633
1774790044651361800,14.53236181640625,9.62230396270752,1.306705117225647,-1.3690091371536255
1774790044661371400,14.542371337890625,9.627113342285156,1.2758101224899292,-1.3643254041671753
1774790044671473000,14.552472900390624,9.629354476928711,1.258037805557251,-1.3650132417678833
1774790044701654800,14.58265478515625,9.641998291015625,1.167441725730896,-1.3562190532684326
1774790044721826800,14.602826904296874,9.639599800109863,1.16948664188385,-1.371428370475769
1774790044731897600,14.612897705078124,9.634076118469238,1.1998729705810547,-1.3839352130889893
1774790044741938000,14.62293798828125,9.626734733581543,1.243249535560608,-1.3966758251190186
1774790044752008700,14.6330087890625,9.61871337890625,1.286002278327942,-1.4131332635879517
1774790044762018600,14.6430185546875,9.60988712310791,1.3323407173156738,-1.4301491975784302
1774790044772089300,14.65308935546875,9.602960586547852,1.3433870077133179,-1.4658952951431274
1774790044792200400,14.673200439453124,9.598876953125,1.3838785886764526,-1.4549306631088257
1774790044802210000,14.6832099609375,9.600306510925293,1.390833854675293,-1.4387754201889038
1774790044812280800,14.69328076171875,9.60254955291748,1.3955447673797607,-1.4191187620162964
1774790044822351600,14.7033515625,9.605438232421875,1.3974419832229614,-1.3975365161895752
1774790044832422400,14.71342236328125,9.60947322845459,1.3941233158111572,-1.372893214225769
1774790044842462700,14.723462646484375,9.614744186401367,1.3839014768600464,-1.3460661172866821
1774790044852533500,14.733533447265625,9.620954513549805,1.3684659004211426,-1.317160964012146
1774790044862573800,14.74357373046875,9.627595901489258,1.3500088453292847,-1.2873475551605225
1774790044872644600,14.75364453125,9.637993812561035,1.3158127069473267,-1.2442229986190796
1774790044902796000,14.783796142578124,9.655930519104004,1.241275668144226,-1.1800950765609741
1774790044912836400,14.79383642578125,9.664361000061035,1.2017685174942017,-1.1516387462615967
1774790044922907100,14.8039072265625,9.666891098022461,1.1907469034194946,-1.1418051719665527
1774790044932978000,14.81397802734375,9.6702241897583,1.1779160499572754,-1.1267915964126587
1774790044942987800,14.82398779296875,9.672442436218262,1.1716797351837158,-1.114192008972168
1774790044953089000,14.834089111328124,9.674246788024902,1.1697790622711182,-1.100428819656372
1774790044963099000,14.844098876953124,9.67485237121582,1.1701655387878418,-1.094680905342102
1774790044973169700,14.854169677734374,9.675527572631836,1.1708686351776123,-1.0879452228546143
1774790044983240400,14.864240478515624,9.676006317138672,1.171015739440918,-1.0835219621658325
1774790045003351600,14.8843515625,9.676708221435547,1.169878602027893,-1.0784614086151123
1774790045013422300,14.89442236328125,9.677294731140137,1.1672571897506714,-1.0760400295257568
1774790045023462700,14.904462646484374,9.678190231323242,1.1621408462524414,-1.0735238790512085
1774790045033564000,14.91456396484375,9.679512023925781,1.1520700454711914,-1.0724619626998901
1774790045043604200,14.924604248046874,9.680302619934082,1.1490371227264404,-1.0685758590698242
1774790045053705500,14.93470556640625,9.681653022766113,1.1415847539901733,-1.0643165111541748
1774790045063745800,14.944745849609374,9.683867454528809,1.130624771118164,-1.055836796760559
1774790045073816600,14.954816650390624,9.68524169921875,1.12735915184021,-1.046679139137268
1774790045114069200,14.9950693359375,9.68174934387207,1.212551474571228,-0.981751024723053
1774790045124140000,15.00514013671875,9.680785179138184,1.2262260913848877,-0.9742406010627747
1774790045134210800,15.0152109375,9.679902076721191,1.2396963834762573,-0.9659326672554016
1774790045144281600,15.025281494140625,9.68024730682373,1.245654582977295,-0.9547513723373413
1774790045154322000,15.035322021484374,9.681234359741211,1.246586799621582,-0.9434564709663391
1774790045164392700,15.045392822265624,9.68198299407959,1.2483481168746948,-0.9333884716033936
1774790045174494000,15.055493896484375,9.681836128234863,1.2562651634216309,-0.9242510199546814
1774790045204675800,15.08567578125,9.678102493286133,1.3082119226455688,-0.8906782269477844
1774790045214746600,15.09574658203125,9.677943229675293,1.3219980001449585,-0.8718464970588684
1774790045224787000,15.105786865234375,9.678940773010254,1.328304409980774,-0.8509461879730225
1774790045234857700,15.115857666015625,9.68053913116455,1.327172040939331,-0.8343614935874939
1774790045244837000,15.125837158203124,9.682356834411621,1.3182755708694458,-0.8273473381996155
1774790045254908000,15.135907958984374,9.684258460998535,1.3017562627792358,-0.8312380909919739
1774790045264978700,15.145978759765624,9.686726570129395,1.2741628885269165,-0.845117449760437
1774790045275080000,15.156079833984375,9.687685012817383,1.2620036602020264,-0.8523458242416382
1774790045295191000,15.17619091796875,9.686599731445312,1.2629119157791138,-0.8632631301879883
1774790045315302100,15.19630224609375,9.683633804321289,1.298318862915039,-0.8437936305999756
1774790045325312000,15.20631201171875,9.68336009979248,1.3099169731140137,-0.828877329826355
1774790045335413200,15.216413330078124,9.688899993896484,1.2879540920257568,-0.7979894280433655
1774790045345484000,15.226484130859374,9.693001747131348,1.2451090812683105,-0.8159622550010681
1774790045355585300,15.236585205078125,9.696256637573242,1.21530282497406,-0.8222144246101379
1774790045365564700,15.246564697265624,9.697521209716797,1.1831554174423218,-0.8535776734352112
1774790045375666000,15.256666015625,9.696520805358887,1.1626425981521606,-0.8922590613365173
1774790045385706200,15.266706298828124,9.688941955566406,1.174155354499817,-0.9571517705917358
1774790045405787000,15.286786865234374,9.674139976501465,1.221733808517456,-1.0434458255767822
1774790045425959000,15.306958984375,9.662250518798828,1.2382047176361084,-1.130553126335144
1774790045435999200,15.316999267578124,9.654767036437988,1.2379251718521118,-1.1930572986602783
1774790045446008800,15.3270087890625,9.647004127502441,1.2440237998962402,-1.2482426166534424
1774790045456110300,15.3371103515625,9.645089149475098,1.2372585535049438,-1.2695822715759277
1774790045466181000,15.34718115234375,9.642541885375977,1.2287424802780151,-1.2969106435775757
1774790045476282400,15.357282470703124,9.640396118164062,1.2080906629562378,-1.3317877054214478
1774790045486292200,15.367292236328124,9.639780044555664,1.1987677812576294,-1.3446179628372192
1774790045496363000,15.377363037109374,9.639050483703613,1.168151617050171,-1.376418113708496
1774790045506433800,15.387433837890624,9.639079093933105,1.15461003780365,-1.3875923156738281
1774790045516535000,15.39753515625,9.639533042907715,1.1288492679595947,-1.4055230617523193
1774790045526575400,15.407575439453124,9.639453887939453,1.1013801097869873,-1.4276800155639648
1774790045536676600,15.417676513671875,9.638087272644043,1.0970371961593628,-1.440199375152588
1774790045546747400,15.427747314453125,9.636992454528809,1.0990387201309204,-1.4459911584854126
1774790045556787700,15.43778759765625,9.632863998413086,1.120445728302002,-1.4570273160934448
1774790045566797600,15.447797607421874,9.62722110748291,1.1540898084640503,-1.4680181741714478
1774790045576868400,15.457868408203124,9.617490768432617,1.210822343826294,-1.4859914779663086
1774790045586939100,15.467939208984374,9.61412239074707,1.2298119068145752,-1.492180347442627
1774790045596979500,15.4779794921875,9.608652114868164,1.2556675672531128,-1.5058215856552124
1774790045627131000,15.508130859375,9.602831840515137,1.2516846656799316,-1.5457375049591064
1774790045637171000,15.5181708984375,9.602766036987305,1.2362134456634521,-1.5585390329360962
1774790045647241700,15.52824169921875,9.601995468139648,1.224360704421997,-1.5725785493850708
1774790045657312800,15.538312744140624,9.600160598754883,1.2218917608261108,-1.5856493711471558
1774790045667383600,15.548383544921874,9.593589782714844,1.2469196319580078,-1.6058053970336914
1774790045677484800,15.55848486328125,9.591341972351074,1.2621526718139648,-1.6073341369628906
1774790045687555600,15.5685556640625,9.580961227416992,1.3233885765075684,-1.6199454069137573
1774790045697626400,15.57862646484375,9.575261116027832,1.371113896369934,-1.6139473915100098
1774790045727747300,15.608747314453124,9.56462287902832,1.4529383182525635,-1.6054116487503052
1774790045737848600,15.6188486328125,9.560693740844727,1.4706776142120361,-1.6126526594161987
1774790045747889000,15.628888916015624,9.556999206542969,1.4858460426330566,-1.6206238269805908
1774790045757959700,15.638959716796874,9.553544998168945,1.5004205703735352,-1.6275488138198853
1774790045768030500,15.649030517578124,9.550293922424316,1.513881802558899,-1.6341485977172852
1774790045778101200,15.659101318359374,9.547694206237793,1.5254305601119995,-1.6385929584503174
1774790045788141600,15.6691416015625,9.544563293457031,1.5382788181304932,-1.6448071002960205
1774790045798212400,15.67921240234375,9.543961524963379,1.5422122478485107,-1.6446208953857422
1774790045838526000,15.71952587890625,9.533530235290527,1.5894787311553955,-1.6600453853607178
1774790045848596700,15.7295966796875,9.527957916259766,1.614633560180664,-1.6677448749542236
1774790045858667500,15.73966748046875,9.521117210388184,1.6432336568832397,-1.678835153579712
1774790045868707800,15.749707763671875,9.514055252075195,1.6685796976089478,-1.6938079595565796
1774790045878748200,15.759748046875,9.508548736572266,1.684445858001709,-1.7089544534683228
1774790045888819000,15.76981884765625,9.505908012390137,1.6895177364349365,-1.7186088562011719
1774790045898859300,15.779859375,9.506645202636719,1.6841847896575928,-1.719766616821289
1774790045908930000,15.789929931640625,9.511024475097656,1.6664695739746094,-1.712796926498413
1774790045949152300,15.83015234375,9.545904159545898,1.5158265829086304,-1.657821536064148
1774790045959223000,15.84022314453125,9.553855895996094,1.4783015251159668,-1.6458585262298584
1774790045969263400,15.850263427734374,9.56025218963623,1.4511643648147583,-1.632817268371582
1774790045979303700,15.8603037109375,9.564498901367188,1.4379998445510864,-1.6195374727249146
1774790045989374500,15.87037451171875,9.566991806030273,1.444394588470459,-1.5989899635314941
1774790045999445200,15.8804453125,9.5670747756958,1.4450418949127197,-1.5979074239730835
1774790046009516000,15.89051611328125,9.567337036132812,1.4632850885391235,-1.579635500907898
1774790046049768700,15.930768798828124,9.575530052185059,1.468221664428711,-1.5244495868682861
1774790046059839500,15.940839599609374,9.580255508422852,1.4689924716949463,-1.4937043190002441
1774790046069879800,15.9508798828125,9.585338592529297,1.4640687704086304,-1.4656621217727661
1774790046079950600,15.96095068359375,9.594748497009277,1.4410655498504639,-1.426367163658142
1774790046089991000,15.970990966796874,9.598807334899902,1.4276310205459595,-1.412503719329834
1774790046100031200,15.98103125,9.610017776489258,1.3912065029144287,-1.3720430135726929
1774790046110102000,15.99110205078125,9.617474555969238,1.36595618724823,-1.344893217086792
1774790046140314400,16.021314453125,9.633702278137207,1.3128323554992676,-1.2800966501235962
1774790046150385200,16.03138525390625,9.639832496643066,1.297438144683838,-1.2492669820785522
1774790046160425500,16.041425537109376,9.641843795776367,1.2929719686508179,-1.2383296489715576
1774790046170435000,16.05143505859375,9.64688777923584,1.2806247472763062,-1.2115856409072876
1774790046180506000,16.061506103515626,9.648640632629395,1.275801420211792,-1.2026816606521606
1774790046190546200,16.071546142578125,9.65212631225586,1.2647130489349365,-1.186322808265686
1774790046200586500,16.08158642578125,9.657739639282227,1.2407866716384888,-1.1657179594039917
1774790046210626800,16.091626708984375,9.66136646270752,1.2242556810379028,-1.153080701828003
1774790046240839200,16.121839111328125,9.666740417480469,1.205769658088684,-1.1272246837615967
1774790046250879500,16.13187939453125,9.666295051574707,1.217673420906067,-1.1182072162628174
1774790046260950300,16.1419501953125,9.663578987121582,1.2499165534973145,-1.1060442924499512
1774790046270960000,16.151960205078126,9.661619186401367,1.272273302078247,-1.0976440906524658
1774790046281031000,16.162031005859376,9.660543441772461,1.2876739501953125,-1.0891183614730835
1774790046291040800,16.172040771484376,9.660168647766113,1.2942088842391968,-1.0846953392028809
1774790046301111600,16.182111572265626,9.661698341369629,1.2904627323150635,-1.0754880905151367
1774790046311182300,16.192182373046876,9.664922714233398,1.2741503715515137,-1.0659323930740356
1774790046321222700,16.20222265625,9.669011116027832,1.2501143217086792,-1.057274341583252
1774790046341364200,16.2223642578125,9.676029205322266,1.2062644958496094,-1.0439194440841675
1774790046361536300,16.242536376953126,9.673476219177246,1.2316118478775024,-1.0379661321640015
1774790046371576600,16.25257666015625,9.673099517822266,1.239277958869934,-1.032342791557312
1774790046381647400,16.2626474609375,9.67379093170166,1.236849069595337,-1.0287611484527588
1774790046391687700,16.272687744140626,9.674139976501465,1.234785556793213,-1.0279618501663208
1774790046401758500,16.282758544921876,9.677450180053711,1.2141765356063843,-1.0213342905044556
1774790046411798800,16.292798828125,9.681435585021973,1.1907403469085693,-1.011106014251709
1774790046421869600,16.30286962890625,9.685279846191406,1.1707230806350708,-0.9975725412368774
1774790046442011100,16.32301123046875,9.692119598388672,1.1399450302124023,-0.9662995934486389
1774790046462152700,16.343152587890625,9.699368476867676,1.107129454612732,-0.9310736656188965
1774790046472223500,16.353223388671875,9.70406723022461,1.085747480392456,-0.9069824814796448
1774790046482324700,16.36332470703125,9.705890655517578,1.0791728496551514,-0.8952494859695435
1774790046492365000,16.373364990234375,9.707320213317871,1.0699496269226074,-0.8907973170280457
1774790046502435800,16.383435791015625,9.707757949829102,1.0597598552703857,-0.8981784582138062
1774790046512476200,16.39347607421875,9.708456039428711,1.0425090789794922,-0.9107419848442078
1774790046522547000,16.403546875,9.709929466247559,1.019377589225769,-0.9211567640304565
1774790046532587300,16.413587158203125,9.712154388427734,0.9937952756881714,-0.9256489276885986
1774790046562860800,16.44386083984375,9.72068977355957,0.9494455456733704,-0.8815513253211975
1774790046572931600,16.453931640625,9.72160816192627,0.9590777158737183,-0.8607492446899414
1774790046583002400,16.46400244140625,9.722602844238281,0.9607918858528137,-0.8474980592727661
1774790046593042700,16.474042724609376,9.724517822265625,0.9449142813682556,-0.8433701395988464
1774790046603144000,16.48414404296875,9.726954460144043,0.9129945039749146,-0.8503994941711426
1774790046613184300,16.494184326171876,9.729342460632324,0.8716863989830017,-0.8662856221199036
1774790046623255000,16.504255126953126,9.730313301086426,0.8368852138519287,-0.8893901705741882
1774790046633295400,16.51429541015625,9.726165771484375,0.8353518843650818,-0.9350247383117676
1774790046653406500,16.534406494140626,9.718255043029785,0.8644481301307678,-0.9892634153366089
1774790046663477200,16.544477294921876,9.71065902709961,0.9035159349441528,-1.0281742811203003
1774790046673548000,16.554548095703126,9.703106880187988,0.9343597292900085,-1.0710145235061646
1774790046683618800,16.564618896484376,9.696819305419922,0.9474796056747437,-1.115511417388916
1774790046693689600,16.574689697265626,9.690814971923828,0.9398094415664673,-1.1727136373519897
1774790046703760400,16.584760498046876,9.687713623046875,0.9306597709655762,-1.2051761150360107
1774790046713831200,16.5948310546875,9.685787200927734,0.9271548986434937,-1.2232379913330078
1774790046723932400,16.604932373046875,9.685091972351074,0.9238364100456238,-1.2312207221984863
1774790046733942300,16.6149423828125,9.684436798095703,0.9259122014045715,-1.2348111867904663
1774790046774286600,16.65528662109375,9.689895629882812,0.8867800831794739,-1.220625638961792
1774790046794397700,16.675397705078126,9.694230079650879,0.866238534450531,-1.2008004188537598
1774790046804499000,16.6854990234375,9.695804595947266,0.8633238077163696,-1.1901359558105469
1774790046814569700,16.69556982421875,9.696988105773926,0.8695352077484131,-1.1758891344070435
1774790046824640500,16.705640625,9.697287559509277,0.8728469610214233,-1.1709530353546143
1774790046834680800,16.715680908203126,9.697442054748535,0.8863906264305115,-1.1594462394714355
1774790046844721200,16.72572119140625,9.697342872619629,0.8970658779144287,-1.1520464420318604
1774790046874933500,16.75593359375,9.69772720336914,0.9154664278030396,-1.134192705154419
1774790046885034800,16.76603466796875,9.698787689208984,0.9125134944915771,-1.1274833679199219
1774790046895075000,16.776074951171875,9.700830459594727,0.8992322087287903,-1.1205612421035767
1774790046905145900,16.786145751953125,9.702156066894531,0.8916950821876526,-1.1150931119918823
1774790046915216600,16.796216552734375,9.703125,0.8881971836090088,-1.109442114830017
