time,seconds_elapsed,z,y,x
1777561205430622200,0.104622314453125,0,0,0
1777561205449151700,0.12315185546875,0.11935067176818848,-0.07034778594970703,-0.11860024183988571
1777561205467681300,0.141681396484375,0.21454167366027832,-0.10993671417236328,-0.2209877073764801
1777561205495475200,0.16947509765625,0.5233988761901855,-0.18020343780517578,-0.27422982454299927
1777561205514004700,0.188004638671875,0.42465949058532715,-0.09038829803466797,-0.32291463017463684
1777561205532534300,0.2065341796875,-0.1091468334197998,0.1026926040649414,-0.3344910442829132
1777561205551063800,0.225063720703125,0.07572817802429199,0.2075033187866211,-0.5221173167228699
1777561205569593300,0.24359326171875,0.04683327674865723,0.5101490020751953,-0.4671285152435303
1777561205588122600,0.26212255859375,0.031116008758544922,0.7003955841064453,-0.23705518245697021
1777561205606652200,0.280652099609375,-0.06375694274902344,0.6419916152954102,-0.20988869667053223
1777561205625181700,0.299181640625,0.046311378479003906,0.7484254837036133,-0.1223752498626709
1777561205643711000,0.3177109375,0.10364770889282227,0.5823278427124023,-0.06302887201309204
1777561205662240500,0.336240478515625,-0.41742658615112305,0.19333744049072266,-0.31051719188690186
1777561205680769800,0.354769775390625,-0.46111273765563965,0.04067039489746094,-0.7845829129219055
1777561205699299300,0.37329931640625,-0.3793931007385254,-0.013773918151855469,-0.7120073437690735
1777561205717828900,0.391828857421875,0.19253230094909668,-0.01531219482421875,0.18133974075317383
1777561205736358100,0.410358154296875,0.4618518352508545,-0.25624847412109375,0.694248616695404
1777561205754887700,0.4288876953125,0.3691225051879883,-1.1660594940185547,0.8980494737625122
1777561205773417200,0.447417236328125,1.2359049320220947,-2.9399118423461914,0.673869788646698
1777561205791946500,0.465946533203125,2.8561851978302,-3.5615320205688477,0.07885819673538208
1777561205810476000,0.48447607421875,0.11464357376098633,-1.138310432434082,0.963056206703186
1777561205829005600,0.503005615234375,-2.9777607917785645,2.189443588256836,2.23005747795105
1777561205847535000,0.52153515625,-4.1954851150512695,4.405477523803711,2.932865619659424
1777561205866064400,0.540064453125,-1.9718589782714844,3.678938865661621,4.114200115203857
1777561205884594000,0.558593994140625,0.7529821395874023,0.8825664520263672,3.7627363204956055
1777561205903123500,0.57712353515625,-1.6421010494232178,-1.7196779251098633,1.2375065088272095
1777561205921652700,0.59565283203125,-4.02535343170166,-3.9078474044799805,-0.2554853558540344
1777561205940182300,0.614182373046875,-4.743299961090088,-4.612509727478027,-2.342440128326416
1777561205958711600,0.632711669921875,-3.1493000984191895,-2.410271644592285,-4.041673183441162
1777561205977241000,0.651240966796875,-2.3434178829193115,-0.19562911987304688,-5.064358711242676
1777561205995770600,0.6697705078125,-2.487769603729248,0.9626131057739258,-4.461417198181152
1777561206014300000,0.6882998046875,-2.7343688011169434,1.0785951614379883,-2.395016670227051
1777561206032829400,0.706829345703125,-3.090998888015747,0.012147903442382812,-0.39328593015670776
1777561206051359000,0.72535888671875,-2.5825250148773193,-1.0884876251220703,1.4643783569335938
1777561206069888300,0.74388818359375,-1.4551985263824463,-1.4116573333740234,2.578660726547241
1777561206088417800,0.762417724609375,-0.5128600001335144,-1.488661766052246,2.768127679824829
1777561206106947000,0.780947021484375,0.7630480527877808,0.2781801223754883,2.180934429168701
1777561206125476600,0.7994765625,0.95014488697052,1.0335235595703125,0.40504536032676697
1777561206144006100,0.818006103515625,-0.8670215606689453,0.987060546875,-1.4548051357269287
1777561206162535700,0.83653564453125,-0.8291298747062683,0.14164352416992188,-2.5967230796813965
1777561206181065000,0.85506494140625,0.25150007009506226,-0.3474578857421875,-2.631305694580078
1777561206199594500,0.873594482421875,1.0024785995483398,0.2539196014404297,-1.3124865293502808
1777561206218124000,0.8921240234375,0.973924458026886,0.6586389541625977,0.003567829728126526
1777561206236653300,0.9106533203125,1.1316286325454712,0.7390594482421875,0.7595139145851135
1777561206255182800,0.929182861328125,0.7827936410903931,0.6733360290527344,0.858708918094635
1777561206273712400,0.94771240234375,0.3118692636489868,0.49753379821777344,0.3440311849117279
1777561206292241700,0.96624169921875,0.25411295890808105,0.4801168441772461,-0.377532035112381
1777561206310771200,0.984771240234375,0.457818865776062,0.3495473861694336,-0.716810941696167
1777561206329300700,1.00330078125,0.47105395793914795,-0.1353139877319336,-0.7374048233032227
1777561206347830000,1.021830078125,0.8661767244338989,-0.6939163208007812,-0.6531350016593933
1777561206366359600,1.040359619140625,1.58572518825531,-0.9690084457397461,-0.8319031000137329
1777561206384889000,1.05888916015625,1.7736713886260986,-1.0012836456298828,-1.306079626083374
1777561206403418400,1.07741845703125,1.5078097581863403,-0.9599771499633789,-1.6865170001983643
1777561206421948000,1.095947998046875,1.2425944805145264,-1.3917465209960938,-1.9011118412017822
1777561206440477200,1.114477294921875,1.532540202140808,-1.9487876892089844,-2.019245147705078
1777561206459006700,1.1330068359375,2.0289835929870605,-2.377312660217285,-2.1255133152008057
1777561206477536300,1.151536376953125,2.069920063018799,-2.5076427459716797,-2.108403205871582
1777561206496065500,1.1700654296875,1.882082223892212,-2.7678747177124023,-2.0521488189697266
1777561206514595000,1.188594970703125,1.3296610116958618,-3.177016258239746,-2.158282995223999
1777561206533124600,1.20712451171875,1.7556004524230957,-3.526089668273926,-2.8200204372406006
1777561206551654000,1.22565380859375,3.265878438949585,-2.9412384033203125,-2.4647679328918457
1777561206570183400,1.244183349609375,3.60683012008667,-1.7456235885620117,-0.7076370120048523
1777561206588712700,1.262712646484375,2.6509671211242676,-1.244668960571289,0.40611135959625244
1777561206607242200,1.2812421875,1.8025697469711304,-0.19808387756347656,0.38227859139442444
1777561206625771800,1.299771728515625,-2.9917047023773193,0.4998283386230469,1.0226070880889893
1777561206644301000,1.318301025390625,-4.70632266998291,-0.30277061462402344,3.4961259365081787
1777561206662830600,1.33683056640625,-4.494483947753906,-3.025698661804199,5.06068754196167
1777561206681360100,1.355360107421875,-3.367178201675415,-4.814560890197754,6.549437999725342
1777561206699889400,1.373889404296875,-1.3101184368133545,-3.4216747283935547,5.779883861541748
1777561206718419000,1.3924189453125,-0.02428126335144043,-2.5768680572509766,2.805634021759033
1777561206736948500,1.410948486328125,-0.40617942810058594,-2.762272834777832,-0.9489004611968994
1777561206755477800,1.429477783203125,-8.380858421325684,-2.4432754516601562,-4.638736248016357
1777561206774007300,1.44800732421875,-6.042078018188477,0.764012336730957,-2.1985812187194824
1777561206792536800,1.466536865234375,-0.09878802299499512,0.625579833984375,-3.8813209533691406
1777561206811066400,1.48506640625,-7.759439468383789,1.3569135665893555,-1.2184388637542725
1777561206829595600,1.503595703125,-7.900467395782471,3.6190919876098633,0.2795829772949219
1777561206848125200,1.522125244140625,-4.841723918914795,4.854280471801758,1.4605185985565186
1777561206866654500,1.540654541015625,-4.250030040740967,5.57733154296875,1.941329836845398
1777561206885184000,1.55918408203125,-3.254026174545288,5.37372350692749,1.9620180130004883
1777561206903713500,1.577713623046875,-2.288151979446411,4.789867401123047,1.667135238647461
1777561206922242800,1.596242919921875,-1.3316187858581543,4.1580586433410645,1.0332224369049072
1777561206940772400,1.6147724609375,-0.8843016624450684,3.32662296295166,0.3448519706726074
1777561206959302000,1.633302001953125,-0.19357013702392578,2.5075817108154297,-0.27436119318008423
1777561206977831200,1.6518310546875,0.894193172454834,2.056098461151123,-0.7638015747070312
1777561206996360700,1.670360595703125,3.088850975036621,2.180342674255371,-0.4350054860115051
1777561207014890000,1.688889892578125,4.996899604797363,1.0441951751708984,0.2374303936958313
1777561207033419500,1.70741943359375,6.222231864929199,-1.7388935089111328,0.1150723323225975
1777561207051949000,1.725948974609375,7.340306758880615,-5.9206695556640625,-1.831869125366211
1777561207070478600,1.744478515625,6.284330368041992,-7.418880462646484,-3.112189292907715
1777561207089007900,1.7630078125,2.990628242492676,-2.650808334350586,-0.8914543390274048
1777561207107537400,1.781537353515625,0.0719451904296875,2.7159852981567383,0.7498152852058411
1777561207126067000,1.80006689453125,-2.0135042667388916,5.550339221954346,2.7184503078460693
1777561207144596500,1.818596435546875,-1.199610710144043,4.462629318237305,6.596611022949219
1777561207163125800,1.837125732421875,-1.7340168952941895,-1.7734031677246094,13.508018493652344
1777561207181655300,1.8556552734375,5.071768283843994,-13.560527801513672,14.37251091003418
1777561207200184600,1.8741845703125,-7.0334577560424805,-12.493162155151367,0.19096589088439941
1777561207218714000,1.892714111328125,-11.662219047546387,-0.6125831604003906,-5.409234046936035
1777561207237243600,1.91124365234375,-6.308061599731445,4.796835899353027,-0.3673810362815857
1777561207255773000,1.92977294921875,-2.526620626449585,7.330089569091797,1.8135311603546143
1777561207274302500,1.948302490234375,-5.700943946838379,6.36598539352417,0.9517549276351929
1777561207292832000,1.96683203125,-8.18704891204834,3.336221694946289,0.08521044254302979
1777561207311361500,1.985361572265625,-7.135146141052246,-2.6331663131713867,-2.4887733459472656
1777561207329890800,2.003890869140625,-4.4149651527404785,-16.658679962158203,-8.151472091674805
1777561207348420400,2.02242041015625,1.825984239578247,-11.74946403503418,-9.525886535644531
1777561207366950000,2.040949951171875,3.880246162414551,-2.868638038635254,-4.010667324066162
1777561207385479200,2.059479248046875,0.18907904624938965,0.856196403503418,0.07420548796653748
1777561207404008700,2.0780087890625,-1.16416335105896,2.839644432067871,3.337076425552368
1777561207422538200,2.096538330078125,-1.2353616952896118,3.8245725631713867,5.0246124267578125
1777561207441067500,2.115067626953125,-0.39382755756378174,2.965404510498047,4.204209327697754
1777561207459597000,2.13359716796875,0.2740596532821655,0.855621337890625,0.8708122968673706
1777561207478126600,2.152126708984375,0.4321070909500122,-0.24492359161376953,-1.5098979473114014
1777561207496656100,2.17065625,1.3776532411575317,0.09099006652832031,-2.4844768047332764
1777561207515185400,2.189185302734375,2.9746947288513184,1.6985273361206055,-1.4978301525115967
1777561207533715000,2.20771484375,2.712062120437622,3.436352252960205,0.5541025996208191
1777561207552244500,2.226244384765625,1.5180840492248535,4.831733703613281,1.7505383491516113
1777561207570774000,2.24477392578125,2.247450113296509,5.938511371612549,0.6993696689605713
1777561207589303300,2.26330322265625,2.3908345699310303,5.794643878936768,-0.9186602830886841
1777561207607832800,2.281832763671875,0.18918442726135254,4.742156982421875,-0.5818632245063782
1777561207626362400,2.3003623046875,0.8455655574798584,2.7462549209594727,0.30794236063957214
1777561207644892000,2.318891845703125,-1.2337875366210938,1.6248831748962402,1.2270618677139282
1777561207672685800,2.346685791015625,-2.458397150039673,2.616424560546875,-0.3290524482727051
1777561207691215400,2.36521533203125,-0.25833654403686523,3.247194766998291,-0.7731159329414368
1777561207709745000,2.383744873046875,2.867701292037964,1.47418212890625,0.468982994556427
1777561207728274400,2.4022744140625,-1.4847297668457031,-0.18295001983642578,0.47186970710754395
1777561207746804000,2.420803955078125,5.947721481323242,-4.202963829040527,-1.4233036041259766
1777561207765333200,2.439333251953125,6.5534162521362305,-12.002748489379883,-2.306300640106201
1777561207783862800,2.45786279296875,-2.441864490509033,-18.381206512451172,-3.4077770709991455
1777561207802392300,2.476392333984375,-2.950259208679199,-18.93509292602539,-1.946918249130249
1777561207820921900,2.494921875,-4.388706207275391,-11.596549987792969,1.9492981433868408
1777561207839451100,2.513451171875,-5.372671127319336,0.5881376266479492,3.543241500854492
1777561207857980700,2.531980712890625,-5.073478698730469,7.09004020690918,2.5538535118103027
1777561207876510200,2.55051025390625,-3.601430892944336,10.07567024230957,1.7690242528915405
1777561207895039700,2.569039794921875,-3.8158328533172607,6.08146858215332,0.8918267488479614
1777561207913569300,2.5875693359375,-2.5181946754455566,0.09015655517578125,0.6332672834396362
1777561207932098600,2.6060986328125,-3.1426939964294434,-1.9899721145629883,0.9498462080955505
1777561207950628000,2.624628173828125,-3.7910218238830566,-0.46963024139404297,0.368490993976593
1777561207969157600,2.64315771484375,-2.0269885063171387,3.141904830932617,0.8116136789321899
1777561207987687200,2.661687255859375,-0.21567058563232422,6.003965377807617,1.5118656158447266
1777561208006216400,2.680216552734375,0.4442276954650879,7.361811637878418,0.8160974979400635
1777561208024746000,2.69874609375,0.41584229469299316,6.207826614379883,-1.0841879844665527
1777561208043275500,2.717275634765625,0.617199182510376,0.49059200286865234,-3.7314181327819824
1777561208061805000,2.73580517578125,0.6283977031707764,-7.1502227783203125,-4.989462375640869
1777561208080334600,2.75433447265625,4.027887344360352,-2.7914295196533203,-3.7458064556121826
1777561208098863900,2.77286376953125,5.479016304016113,0.5945043563842773,-1.3603730201721191
1777561208117393400,2.791393310546875,2.6721465587615967,2.208130359649658,0.5196435451507568
1777561208135923000,2.8099228515625,-0.10222220420837402,3.4556751251220703,2.0564770698547363
1777561208154452500,2.828452392578125,-2.397515296936035,4.013559818267822,3.9459633827209473
1777561208172981800,2.846981689453125,-4.113893508911133,4.345349311828613,5.295285224914551
1777561208191511300,2.86551123046875,-3.583214044570923,4.170876979827881,5.3782148361206055
1777561208210040800,2.884040771484375,-2.853132724761963,1.3505163192749023,4.881448268890381
1777561208228570400,2.9025703125,1.0610053539276123,-3.3828821182250977,3.2498819828033447
1777561208247100000,2.921099853515625,15.06976318359375,-8.12574577331543,0.14007270336151123
1777561208265629400,2.93962939453125,16.29328155517578,-9.233160018920898,-2.7596518993377686
1777561208284159000,2.958158935546875,-1.0849018096923828,-11.438847541809082,-0.6020209789276123
1777561208302688300,2.976688232421875,3.826470375061035,-16.705215454101562,7.030972480773926
1777561208321217800,2.9952177734375,-8.382421493530273,-5.480151176452637,-0.9779187440872192
1777561208339747300,3.013747314453125,-11.29085922241211,1.373645305633545,-1.2270294427871704
1777561208358276900,3.03227685546875,-11.036375045776367,4.662201881408691,-1.2461966276168823
1777561208376806400,3.050806396484375,-5.550102233886719,4.922053813934326,0.9333850145339966
1777561208395336000,3.0693359375,8.940223693847656,-3.357327461242676,1.5904995203018188
1777561208413865200,3.087865234375,4.001654148101807,-7.6917572021484375,-1.553991436958313
1777561208432394800,3.106394775390625,-2.719285249710083,-6.054577827453613,-4.214702129364014
1777561208450924300,3.12492431640625,-2.5950827598571777,-0.1547527313232422,-3.930032253265381
1777561208469453800,3.143453857421875,0.10446286201477051,2.972447395324707,-2.161052942276001
1777561208487983400,3.1619833984375,0.8112857341766357,4.357847213745117,-0.08518224209547043
1777561208506513000,3.180512939453125,1.5859978199005127,5.410168170928955,1.664323329925537
1777561208525042200,3.199042236328125,4.257662773132324,5.508581638336182,2.458573818206787
1777561208543572000,3.217572021484375,1.6296300888061523,4.582186222076416,1.233353853225708
1777561208571366100,3.2453662109375,-0.17115330696105957,2.134857177734375,-0.8763499855995178
1777561208589895700,3.263895751953125,1.3681151866912842,2.1266140937805176,-0.28757622838020325
1777561208608425200,3.28242529296875,2.6239120960235596,2.997133255004883,-0.2670888900756836
1777561208626954500,3.30095458984375,-0.9299890995025635,3.331327438354492,-0.46829119324684143
1777561208645484300,3.319484375,-4.553192615509033,3.338017463684082,-0.16252540051937103
1777561208664013600,3.338013671875,0.7106897830963135,2.959874153137207,-0.14892646670341492
1777561208682543000,3.356543212890625,4.452489852905273,1.130615234375,-1.5465023517608643
1777561208701072600,3.37507275390625,3.5034613609313965,-3.911046028137207,-2.231717586517334
1777561208719602200,3.393602294921875,4.643144607543945,-11.244769096374512,-1.8298640251159668
1777561208738131700,3.412131591796875,4.68613338470459,-17.19853973388672,-0.5562596321105957
1777561208756661200,3.4306611328125,1.8452959060668945,-18.168724060058594,-1.0161569118499756
1777561208775190800,3.449190673828125,-3.1820316314697266,-15.038626670837402,0.7033241987228394
1777561208793720300,3.46772021484375,-0.8524270057678223,-3.791264533996582,3.2386393547058105
1777561208812249900,3.486249755859375,-4.116584777832031,2.7254042625427246,2.4294023513793945
1777561208830779400,3.504779296875,-6.569055557250977,5.774537086486816,-0.2570221424102783
1777561208849309000,3.523308837890625,-3.9945452213287354,6.827296733856201,-1.1750431060791016
1777561208867838500,3.54183837890625,-1.915360450744629,3.482982635498047,0.6588894128799438
1777561208886367700,3.56036767578125,-3.9155826568603516,0.11359548568725586,1.4127670526504517
1777561208904897300,3.578897216796875,-4.7087554931640625,0.22227811813354492,0.8035216331481934
1777561208923426800,3.5974267578125,-5.043998718261719,1.1470551490783691,-0.38723647594451904
1777561208941956400,3.615956298828125,-4.879817962646484,2.84519100189209,-0.6716503500938416
1777561208960486000,3.63448583984375,-3.8537914752960205,5.5191144943237305,0.34561577439308167
1777561208979015400,3.653015380859375,-2.783869743347168,7.696573257446289,1.6071405410766602
1777561208997545000,3.671544921875,-1.8558557033538818,8.947647094726562,2.2325665950775146
1777561209016074500,3.690074462890625,-1.5974252223968506,8.986414909362793,2.090439558029175
1777561209034604000,3.70860400390625,-1.4307470321655273,7.394915580749512,0.8864436745643616
1777561209053133600,3.727133544921875,0.6373677253723145,4.155813217163086,-0.6610701680183411
1777561209071663000,3.7456630859375,3.525449275970459,-6.593244552612305,-3.313066244125366
1777561209090192600,3.764192626953125,6.015846252441406,-8.58862590789795,-4.223659515380859
1777561209108722200,3.78272216796875,7.099082946777344,-2.901674270629883,-2.374677896499634
1777561209127251700,3.801251708984375,5.859095573425293,0.934112548828125,-0.6105048656463623
1777561209145781200,3.81978125,2.8194193840026855,3.103806495666504,-0.02459600567817688
1777561209164310800,3.838310791015625,-2.1774916648864746,5.031745910644531,1.681432843208313
1777561209182840300,3.85684033203125,-4.859073162078857,4.385034561157227,2.643512010574341
1777561209201369900,3.875369873046875,-2.8700928688049316,2.1590523719787598,2.9196712970733643
1777561209219899400,3.8938994140625,-1.0929735898971558,-3.037602424621582,3.2890145778656006
1777561209238429000,3.912428955078125,-2.708216428756714,-8.078813552856445,5.982234477996826
1777561209256958500,3.93095849609375,7.891170501708984,-11.254485130310059,4.98098611831665
1777561209275488300,3.94948828125,26.512798309326172,-14.01708984375,0.2094482183456421
1777561209294017500,3.968017578125,6.4949445724487305,-18.419525146484375,-5.313188552856445
1777561209312547000,3.986547119140625,-19.497173309326172,-4.758728981018066,-2.1398215293884277
1777561209331076900,4.005076904296875,-16.42146873474121,4.218836784362793,0.9493693113327026
1777561209349606100,4.023606201171875,-11.449987411499023,5.70470666885376,3.445734977722168
1777561209368136000,4.042135986328125,-2.242075204849243,-1.0730342864990234,1.823972225189209
1777561209386665500,4.06066552734375,7.2606682777404785,-3.6788463592529297,-0.7660660743713379
1777561209405195000,4.079195068359375,6.357351303100586,-4.437664031982422,-1.820527195930481
1777561209423724500,4.097724609375,-0.08322548866271973,-2.5335731506347656,-2.0609896183013916
1777561209442254000,4.116254150390625,-1.3386348485946655,0.9286422729492188,-0.936457633972168
1777561209460783600,4.13478369140625,0.546662449836731,2.6125106811523438,-0.7386711239814758
1777561209479313200,4.153313232421875,2.0988106727600098,3.991750717163086,0.34426528215408325
1777561209497842700,4.1718427734375,3.3349056243896484,4.983438968658447,1.401895523071289
1777561209516372200,4.190372314453125,4.796253681182861,5.105667591094971,2.116572856903076
1777561209534901800,4.20890185546875,2.199859142303467,4.552866458892822,1.1159265041351318
1777561209553431300,4.227431396484375,-1.538578987121582,3.866258144378662,0.8709838390350342
1777561209571960800,4.2459609375,-0.125108003616333,3.0718326568603516,1.1840896606445312
1777561209590490600,4.26449072265625,2.030824661254883,1.9389820098876953,0.41272807121276855
1777561209609020200,4.283020263671875,-0.860102653503418,2.249518871307373,-0.8143333792686462
1777561209627549700,4.3015498046875,-3.014787197113037,2.8194808959960938,-1.346465826034546
1777561209646079200,4.320079345703125,-0.5629963874816895,2.576474189758301,-1.3736211061477661
1777561209664608800,4.33860888671875,4.51182746887207,1.4394817352294922,-1.3612220287322998
1777561209683138300,4.35713818359375,4.7389068603515625,0.51702880859375,-1.0636601448059082
1777561209701667800,4.375667724609375,-0.909389853477478,-1.1868829727172852,-1.123793601989746
1777561209720197600,4.39419775390625,1.1756794452667236,-4.660135269165039,-1.7547928094863892
1777561209738727200,4.41272705078125,8.87043285369873,-9.721108436584473,-0.3607476055622101
1777561209757256700,4.431256591796875,3.4543237686157227,-13.955960273742676,1.597532033920288
1777561209775786200,4.4497861328125,-0.28487110137939453,-18.179975509643555,4.357585906982422
1777561209794315800,4.468315673828125,0.6052107810974121,-16.569019317626953,3.082141399383545
1777561209812845300,4.48684521484375,-3.704761505126953,-5.29683780670166,0.6823900938034058
1777561209831375000,4.505375,-7.05243444442749,2.363015651702881,-0.16543757915496826
1777561209849904600,4.523904541015625,-5.901775360107422,7.425228595733643,-1.0296434164047241
1777561209868434200,4.54243408203125,-2.2780961990356445,8.934581756591797,-1.8242428302764893
1777561209886963700,4.560963623046875,-1.6362547874450684,4.83670711517334,0.175592303276062
1777561209905493200,4.5794931640625,-4.519342422485352,0.3482980728149414,0.48885786533355713
1777561209924023000,4.59802294921875,-4.8573150634765625,0.2978029251098633,0.1754593849182129
1777561209942552600,4.616552490234375,-5.233181476593018,2.239180564880371,-0.7712692022323608
1777561209961082000,4.63508203125,-5.460188388824463,3.4297780990600586,-1.2936904430389404
1777561209979611600,4.653611572265625,-4.202739238739014,5.310293197631836,-0.47261857986450195
1777561209998141200,4.67214111328125,-2.8149642944335938,7.0882415771484375,0.21154576539993286
1777561210016670700,4.690670654296875,-2.2433841228485107,8.402462005615234,0.8733853697776794
1777561210035200500,4.709200439453125,-2.1700210571289062,8.484539031982422,0.9978381991386414
1777561210053730000,4.72772998046875,-1.3346278667449951,6.4583587646484375,0.5544903874397278
1777561210072259600,4.746259521484375,-1.349509596824646,-4.149085998535156,-2.2390823364257812
1777561210090789400,4.764789306640625,1.4576728343963623,-4.243743896484375,-1.0976134538650513
1777561210109319000,4.78331884765625,8.198143005371094,-3.032588005065918,-2.273566961288452
1777561210127848400,4.801848388671875,13.100345611572266,-1.876363754272461,-2.4547572135925293
1777561210146378200,4.820378173828125,6.168095111846924,1.3857002258300781,-1.8536428213119507
1777561210164907800,4.83890771484375,-0.077095627784729,4.998309135437012,-0.2046785056591034
1777561210183437300,4.857437255859375,-2.6330313682556152,6.350224494934082,1.8457943201065063
1777561210201967000,4.875967041015625,-2.9753928184509277,4.078730583190918,3.1480393409729004
1777561210220496600,4.89449658203125,-3.3165106773376465,-1.442915916442871,5.121902942657471
1777561210239026200,4.913026123046875,-5.281285285949707,-7.697967529296875,7.700337886810303
1777561210257555700,4.9315556640625,3.166046619415283,-11.559846878051758,5.885070323944092
1777561210276085500,4.95008544921875,17.971698760986328,-11.473592758178711,-4.038630962371826
1777561210294615000,4.968614990234375,16.3800048828125,-17.18020248413086,-4.898637294769287
1777561210313144600,4.98714453125,-11.270332336425781,-9.209277153015137,-1.3242255449295044
1777561210331674400,5.00567431640625,-14.692405700683594,0.8367576599121094,-0.27636027336120605
1777561210350204000,5.024203857421875,-13.763802528381348,3.859774589538574,1.003626823425293
1777561210368733400,5.0427333984375,-6.188594818115234,2.6586785316467285,1.8036928176879883
1777561210387263200,5.06126318359375,7.439115047454834,-2.4690208435058594,0.6618959307670593
1777561210405792800,5.079792724609375,5.657381057739258,-4.649991035461426,-2.827087640762329
1777561210424322300,5.098322265625,0.14298582077026367,-5.622038841247559,-3.7031047344207764
1777561210442852000,5.11685205078125,-1.0696232318878174,-1.1798820495605469,-2.6748714447021484
1777561210461381600,5.135381591796875,0.08556222915649414,1.7948088645935059,-1.8711597919464111
1777561210479911200,5.1539111328125,0.6012688875198364,2.8616867065429688,-0.8888669013977051
1777561210498441000,5.17244091796875,0.8817787170410156,3.689666748046875,0.5055011510848999
1777561210516970500,5.190970458984375,2.0273356437683105,4.2256574630737305,1.739140272140503
1777561210535500300,5.209500244140625,3.3656039237976074,4.073031425476074,1.9664500951766968
1777561210554029800,5.22802978515625,2.219619035720825,3.7053394317626953,0.6518502235412598
1777561210572559400,5.246559326171875,0.6885371208190918,3.0503082275390625,-0.15555959939956665
1777561210591089200,5.265089111328125,0.9188213348388672,3.142148971557617,0.25566303730010986
1777561210609618700,5.28361865234375,1.6585930585861206,3.458843231201172,-0.0055234432220458984
1777561210628148200,5.302148193359375,1.6555938720703125,3.0536417961120605,-1.430419921875
1777561210646678000,5.320677978515625,0.18152284622192383,3.2828025817871094,-1.2147953510284424
1777561210665207800,5.339207763671875,1.7622318267822266,2.8126869201660156,-0.7217521071434021
1777561210683737300,5.3577373046875,1.6440165042877197,2.403575897216797,-0.6657681465148926
1777561210702267000,5.376266845703125,1.6325745582580566,1.4796195030212402,-1.2172337770462036
1777561210720796700,5.394796630859375,1.9385712146759033,-0.8750514984130859,-2.3067641258239746
1777561210739326200,5.413326171875,2.64646315574646,-5.273682594299316,-2.9759836196899414
1777561210757856000,5.43185595703125,4.421965599060059,-10.737947463989258,-2.8845372200012207
1777561210776385500,5.450385498046875,3.378126621246338,-15.06252384185791,-2.1928563117980957
1777561210794915300,5.468915283203125,0.8295173645019531,-15.282182693481445,1.505685567855835
1777561210813444900,5.48744482421875,-4.062228202819824,-13.32780647277832,4.329990863800049
1777561210831974700,5.505974609375,-1.8964898586273193,-5.263359069824219,4.036252021789551
1777561210850504200,5.524504150390625,-3.384664535522461,1.4957513809204102,1.4354630708694458
1777561210869034000,5.543033935546875,-4.381518363952637,5.35981559753418,-0.4222855567932129
1777561210887563500,5.5615634765625,-3.205148220062256,7.032926082611084,-1.26875901222229
1777561210906093000,5.580093017578125,-2.4980995655059814,3.8685193061828613,-0.4719349145889282
1777561210924622800,5.598622802734375,-3.589351177215576,0.44191741943359375,0.0369793176651001
1777561210943152400,5.61715234375,-4.543830871582031,-0.3881969451904297,-0.5857168436050415
1777561210961682200,5.63568212890625,-5.379487991333008,0.5417537689208984,-0.7303808927536011
1777561210980212000,5.6542119140625,-5.252081871032715,2.5668201446533203,-0.32475125789642334
1777561210998741500,5.672741455078125,-3.476742744445801,5.2006025314331055,0.44720888137817383
1777561211017271000,5.69127099609375,-1.4612009525299072,7.3530354499816895,1.1603419780731201
1777561211035800800,5.70980078125,-0.3693394660949707,8.876859664916992,2.060530662536621
1777561211054330600,5.72833056640625,-1.313730001449585,9.45496654510498,2.888120651245117
1777561211072860200,5.746860107421875,-3.0709147453308105,8.883950233459473,2.783184766769409
1777561211091389700,5.7653896484375,-4.120751857757568,4.734594821929932,1.073839783668518
1777561211109919500,5.78391943359375,-2.6681480407714844,-3.2864274978637695,-0.8926455974578857
1777561211128449300,5.80244921875,2.266685962677002,-3.6466779708862305,-3.179081439971924
1777561211146978800,5.820978759765625,16.79219627380371,-4.272307395935059,-3.3482892513275146
1777561211165508600,5.839508544921875,14.138326644897461,-2.268540382385254,-1.0410661697387695
1777561211184038100,5.8580380859375,6.136044502258301,1.8629097938537598,-0.11447519063949585
1777561211202568000,5.87656787109375,1.6917815208435059,5.1698503494262695,0.49694979190826416
1777561211221097700,5.89509765625,-3.2615623474121094,3.956173896789551,2.3380374908447266
1777561211239627300,5.913627197265625,-3.406205177307129,-0.8826160430908203,2.7534584999084473
1777561211258157000,5.932156982421875,-2.316967487335205,-5.223333358764648,0.8589330315589905
1777561211276686600,5.9506865234375,-8.805144309997559,-6.570590019226074,-2.217616558074951
1777561211295216000,5.969216064453125,-4.212865352630615,-11.996867179870605,2.722752809524536
1777561211313746000,5.987745849609375,32.20884704589844,-20.73995590209961,1.564931869506836
1777561211332275700,6.006275634765625,-5.541751861572266,-11.60681438446045,-0.13762715458869934
1777561211350805200,6.02480517578125,-15.102252960205078,-1.7170438766479492,0.5165226459503174
1777561211369335000,6.0433349609375,-13.605745315551758,1.9578132629394531,1.5132187604904175
1777561211387864600,6.061864501953125,-4.2872514724731445,4.191455841064453,3.0796754360198975
1777561211406394400,6.080394287109375,6.726596832275391,1.0390424728393555,0.9987908005714417
1777561211424924200,6.098924072265625,4.341035842895508,-2.819972038269043,-1.1877802610397339
1777561211443453700,6.11745361328125,-0.8182317614555359,-3.6280221939086914,-1.6671650409698486
1777561211461983500,6.1359833984375,-2.010723114013672,-1.4042625427246094,-2.269479274749756
1777561211480513000,6.154512939453125,1.1695021390914917,0.5948123931884766,-2.6819238662719727
1777561211499042800,6.173042724609375,3.291116237640381,1.8446168899536133,-2.460568904876709
1777561211517572600,6.191572509765625,3.3947670459747314,3.2339248657226562,-0.47082316875457764
1777561211536102100,6.21010205078125,3.8437395095825195,4.7551469802856445,1.4810593128204346
1777561211554632000,6.2286318359375,3.302884340286255,5.333458423614502,1.1175336837768555
1777561211573161500,6.247161376953125,0.6790169477462769,6.071760177612305,0.9983999729156494
1777561211591691300,6.265691162109375,1.4907032251358032,5.887889385223389,0.28951162099838257
1777561211610221000,6.284220947265625,2.1496422290802,4.907443523406982,-0.4375641345977783
1777561211628750800,6.302750732421875,0.8984061479568481,4.113688945770264,-0.4376482367515564
1777561211647280400,6.3212802734375,-1.0929396152496338,4.05056095123291,-0.8508885502815247
1777561211665810200,6.33981005859375,-2.000920295715332,4.160978317260742,-1.758310317993164
1777561211684339700,6.358339599609375,4.19399356842041,3.409487724304199,-0.9454271793365479
1777561211702869500,6.376869384765625,7.034543514251709,1.897428035736084,-0.73687744140625
1777561211721399300,6.3953994140625,1.3340542316436768,-2.171283721923828,-0.32377660274505615
1777561211739928800,6.4139287109375,3.4770619869232178,-8.308189392089844,0.14257901906967163
1777561211758458600,6.432458740234375,7.751042366027832,-13.86259651184082,-1.5680246353149414
1777561211776988400,6.450988525390625,-2.2715563774108887,-15.202505111694336,-2.438938617706299
1777561211795518000,6.46951806640625,-1.5221123695373535,-12.465373039245605,-0.9973233938217163
1777561211814047700,6.4880478515625,-1.4787042140960693,-9.343362808227539,0.985722541809082
1777561211832577300,6.506577392578125,-1.8853840827941895,-3.4191532135009766,3.024077892303467
1777561211851107000,6.525107177734375,-0.7866687774658203,1.88352632522583,2.173051357269287
1777561211869636900,6.543636962890625,-0.41579723358154297,5.2685346603393555,2.528445243835449
1777561211888166400,6.56216650390625,-1.8991296291351318,3.815587043762207,1.521823763847351
1777561211906696200,6.5806962890625,-3.1313421726226807,-0.09184455871582031,-0.009778499603271484
1777561211925226000,6.59922607421875,-4.13515567779541,-1.625020980834961,-1.2207024097442627
1777561211943755500,6.617755615234375,-4.4117255210876465,-0.3393287658691406,-1.3039864301681519
1777561211962285300,6.636285400390625,-3.9965250492095947,2.7873640060424805,-0.19666314125061035
1777561211980815000,6.654815185546875,-2.772423028945923,6.193794250488281,1.170888900756836
1777561211999344600,6.6733447265625,-1.6435010433197021,8.239343643188477,1.9649769067764282
1777561212017874400,6.69187451171875,-1.3919548988342285,8.514381408691406,2.2148098945617676
1777561212036404200,6.710404296875,-0.626784086227417,7.839376926422119,2.125300407409668
1777561212054933800,6.728933837890625,0.4627194404602051,6.998054027557373,1.8737232685089111
1777561212073463600,6.747463623046875,1.5209949016571045,5.5442962646484375,1.3816503286361694
1777561212091993300,6.765993408203125,3.651644706726074,1.0780229568481445,0.5157260298728943
1777561212110523100,6.784523193359375,6.645169258117676,-5.112552642822266,-2.296250820159912
1777561212129052700,6.803052734375,6.827229976654053,-3.463804244995117,-0.5647426843643188
1777561212147582500,6.82158251953125,3.864924907684326,-0.24367141723632812,0.12412118911743164
1777561212166112300,6.8401123046875,2.7732596397399902,1.961043357849121,0.21749937534332275
1777561212184641800,6.858641845703125,1.646411657333374,4.076737403869629,0.6621401309967041
1777561212203171600,6.877171630859375,2.0191402435302734,5.209005355834961,1.8091835975646973
1777561212221701400,6.895701416015625,2.8227367401123047,2.0730972290039062,3.613981008529663
1777561212240231200,6.914231201171875,3.920600175857544,-6.072422981262207,5.41245698928833
1777561212258760700,6.9327607421875,2.363471031188965,-13.548280715942383,4.11275577545166
1777561212277290500,6.95129052734375,-10.112895011901855,-8.085869789123535,-3.9628379344940186
1777561212295820000,6.969820068359375,-10.598799705505371,-4.251494407653809,7.635697841644287
1777561212314349800,6.988349853515625,2.3857827186584473,-7.29965877532959,10.121358871459961
1777561212332879600,7.006879638671875,-4.347673416137695,-5.705084800720215,-1.0223760604858398
1777561212351409200,7.0254091796875,-9.275169372558594,-5.199731826782227,-4.158815860748291
1777561212369939000,7.04393896484375,-9.321036338806152,-6.375333786010742,-4.742415904998779
1777561212388468700,7.06246875,-4.933467864990234,-7.413213729858398,-1.2433639764785767
1777561212406998500,7.08099853515625,-2.2394354343414307,-5.459704399108887,0.9660632014274597
1777561212425528000,7.099528076171875,-0.5356758832931519,-2.4825477600097656,-0.26320165395736694
1777561212444057900,7.118057861328125,-0.03954760730266571,0.8404626846313477,-0.35572052001953125
1777561212462587600,7.136587646484375,0.9250366687774658,3.0702896118164062,0.8070350885391235
1777561212481117200,7.1551171875,2.0252037048339844,2.4390902519226074,1.6714122295379639
1777561212499647000,7.17364697265625,2.82869815826416,2.6535491943359375,4.126246452331543
1777561212518176800,7.1921767578125,2.743793249130249,2.967578887939453,4.417035102844238
1777561212536706600,7.21070654296875,0.4405716061592102,2.680079460144043,2.9422550201416016
1777561212555236400,7.229236328125,-1.1422175168991089,2.4561939239501953,0.9462875127792358
1777561212573766000,7.247765869140625,-1.764591097831726,2.8826403617858887,-0.497550368309021
1777561212592295700,7.266295654296875,-1.5440213680267334,3.2801589965820312,-1.9034799337387085
1777561212610825500,7.284825439453125,1.500139594078064,1.7333450317382812,-5.247025489807129
1777561212629355000,7.30335498046875,3.5321216583251953,-1.2899169921875,-7.299535751342773
1777561212647884800,7.321884765625,5.532796859741211,-2.792914390563965,-7.576506614685059
1777561212666414600,7.34041455078125,4.390173435211182,-2.721202850341797,-6.876753330230713
1777561212684944400,7.3589443359375,2.4210283756256104,-1.666494369506836,-4.168340682983398
1777561212703474000,7.377473876953125,3.2000937461853027,-1.3108587265014648,-1.6051088571548462
1777561212722003700,7.396003662109375,4.489799976348877,-1.7133569717407227,-0.12171002477407455
1777561212740533500,7.414533447265625,4.342683792114258,-2.78580379486084,-0.2580348253250122
1777561212759063000,7.43306298828125,3.5583810806274414,-4.000116348266602,-0.06255794316530228
1777561212777592800,7.4515927734375,3.105222225189209,-5.839324951171875,0.16694028675556183
1777561212796122600,7.47012255859375,2.9894986152648926,-7.536561012268066,0.47644340991973877
1777561212814652400,7.48865234375,4.072093963623047,-6.338225364685059,0.5990993976593018
1777561212833182200,7.50718212890625,4.438416957855225,-2.223417282104492,2.551071882247925
1777561212851711700,7.525711669921875,3.456453800201416,1.2343263626098633,3.7611379623413086
1777561212870241500,7.544241455078125,-1.0267025232315063,1.7822685241699219,3.671308755874634
1777561212888771300,7.562771240234375,-6.5681047439575195,-0.18568134307861328,3.3067030906677246
1777561212907300900,7.58130078125,-5.518165588378906,-3.8057117462158203,4.270603656768799
1777561212925830700,7.59983056640625,-1.9195362329483032,-5.315207481384277,6.284307479858398
1777561212944360400,7.6183603515625,3.2218172550201416,-5.342087745666504,4.751168727874756
1777561212962890000,7.636889892578125,1.937110424041748,-4.819450378417969,3.406188488006592
1777561212981419800,7.655419677734375,-5.154109001159668,-3.508030891418457,2.4700913429260254
1777561212999949600,7.673949462890625,-11.479657173156738,-2.2655086517333984,-0.4575444459915161
1777561213018479400,7.692479248046875,-8.275186538696289,-0.589350700378418,-2.2647972106933594
1777561213037009200,7.711009033203125,-2.0460939407348633,1.4816999435424805,-3.495156764984131
1777561213055538700,7.72953857421875,-6.682046890258789,3.402419090270996,-3.932948589324951
1777561213074068500,7.748068359375,-7.4664812088012695,4.650501251220703,-1.8443478345870972
1777561213092598300,7.766598388671875,-6.40416145324707,5.225010871887207,-0.15094304084777832
1777561213111127800,7.7851279296875,-5.094970703125,6.460341453552246,1.2728532552719116
1777561213129657600,7.80365771484375,-4.057228088378906,6.528742790222168,0.9362736940383911
1777561213148187400,7.8221875,-2.7797043323516846,6.029247760772705,0.13904845714569092
1777561213166717200,7.84071728515625,-0.9067068099975586,5.123136520385742,-0.4785647392272949
1777561213185247000,7.8592470703125,2.219905376434326,4.247964382171631,-0.3332785367965698
1777561213203776500,7.877776611328125,4.709344863891602,2.773947238922119,-0.2274761199951172
1777561213222306300,7.896306396484375,6.520904064178467,0.22130393981933594,-0.2989620566368103
1777561213240836000,7.914836181640625,8.639110565185547,-2.0173521041870117,1.5521163940429688
1777561213259366000,7.933365966796875,6.104212760925293,-2.4679908752441406,4.68008279800415
1777561213277895400,7.9518955078125,3.388108730316162,-1.693751335144043,4.492033004760742
1777561213296425200,7.97042529296875,2.103994369506836,0.0020122528076171875,1.9556102752685547
1777561213314955000,7.988955078125,4.097032070159912,1.4589343070983887,0.815005898475647
1777561213333484800,8.00748486328125,5.623837471008301,-3.98544979095459,6.816642761230469
1777561213352014600,8.0260146484375,1.2921781539916992,-11.81304931640625,5.487850189208984
1777561213370544000,8.044544189453125,-8.519754409790039,-6.332759857177734,-0.6118223667144775
1777561213389074000,8.063073974609376,-9.38950252532959,3.643629550933838,0.7069005966186523
1777561213407603700,8.081603759765626,-4.836150169372559,8.190995216369629,7.462608814239502
1777561213426133500,8.100133544921874,-3.400012969970703,7.662379264831543,5.598169326782227
1777561213444663000,8.1186630859375,-5.762048721313477,6.534482955932617,0.9499678611755371
1777561213463192800,8.13719287109375,-9.882766723632812,3.1693973541259766,0.12979954481124878
1777561213481722600,8.15572265625,-7.131264686584473,-3.336566925048828,2.00544810295105
1777561213500252400,8.17425244140625,-5.0257463455200195,-13.965605735778809,-2.341310739517212
1777561213518782200,8.1927822265625,-7.241648197174072,-13.254842758178711,-7.6819281578063965
1777561213537311700,8.211311767578126,-4.118080139160156,-4.788495063781738,-7.241246700286865
1777561213555841500,8.229841552734374,1.494827151298523,0.22513961791992188,-4.9169535636901855
1777561213574371300,8.248371337890624,2.817704916000366,1.8558387756347656,-1.4722216129302979
1777561213592901000,8.266901123046875,2.100740432739258,2.9020299911499023,2.7188260555267334
1777561213611430700,8.2854306640625,0.18168562650680542,2.39223051071167,4.702129364013672
1777561213629960400,8.30396044921875,-0.6258684396743774,1.491194725036621,5.02174711227417
1777561213648490200,8.322490234375,-0.2518976330757141,0.9867773056030273,3.6369075775146484
1777561213667019800,8.341019775390626,-0.39232760667800903,1.1600322723388672,1.7348644733428955
1777561213685549600,8.359549560546874,0.8929002285003662,1.7877922058105469,0.48649823665618896
1777561213704079400,8.378079345703124,0.18178653717041016,1.452845573425293,-1.1721954345703125
1777561213722609200,8.396609130859375,-1.3271616697311401,0.6229648590087891,-2.589643955230713
1777561213741139000,8.415138916015625,-0.1685161590576172,0.5314817428588867,-3.3422367572784424
1777561213759668700,8.433668701171875,1.9633709192276,0.7113161087036133,-2.7525033950805664
1777561213778198300,8.4521982421875,2.235024929046631,0.04125404357910156,-1.4438443183898926
1777561213796728000,8.47072802734375,1.4727320671081543,-0.22767353057861328,-0.43141308426856995
1777561213815257900,8.4892578125,1.043569564819336,-0.06712722778320312,-0.7277269959449768
1777561213833787600,8.50778759765625,2.013247013092041,-0.027922630310058594,-1.8561965227127075
1777561213852317200,8.526317138671875,3.8283400535583496,-0.6899547576904297,-2.758237361907959
1777561213870847000,8.544846923828125,4.012114524841309,-1.4069414138793945,-2.1739678382873535
1777561213889376800,8.563376708984375,3.1549954414367676,-2.135941505432129,-1.7428677082061768
1777561213907906600,8.581906494140625,2.6391234397888184,-2.7858781814575195,-2.0934715270996094
1777561213926436400,8.600436279296876,3.2117555141448975,-3.302792549133301,-2.5523812770843506
1777561213944966000,8.6189658203125,2.9501171112060547,-4.126134872436523,-2.6142091751098633
1777561213963495700,8.63749560546875,2.369147300720215,-6.506053924560547,-2.0100152492523193
1777561213982025500,8.656025390625,2.8865413665771484,-7.532994270324707,-1.3617931604385376
1777561214000555300,8.67455517578125,5.426849365234375,-5.098382949829102,2.4317259788513184
1777561214019084800,8.693084716796875,4.609938144683838,-1.498915672302246,5.773317813873291
1777561214037614600,8.711614501953125,2.0004971027374268,0.10717964172363281,5.8734822273254395
1777561214056144400,8.730144287109376,-3.7987141609191895,-0.20065593719482422,6.962405204772949
1777561214074674200,8.748674072265626,-7.174116134643555,-2.9188480377197266,8.135958671569824
1777561214093204000,8.767203857421874,-6.077579498291016,-4.067202568054199,7.407466411590576
1777561214111733800,8.785733642578125,1.8433220386505127,-3.9637317657470703,5.054139137268066
1777561214130263300,8.80426318359375,3.7294058799743652,-4.4850006103515625,1.022788166999817
1777561214148793000,8.82279296875,-3.2710278034210205,-3.9531211853027344,0.30965089797973633
1777561214167323000,8.841322998046875,-10.393767356872559,-2.7044286727905273,-0.9857290983200073
1777561214185852700,8.859852783203126,-9.507734298706055,-0.7355260848999023,-1.7379878759384155
1777561214204382200,8.87838232421875,-3.547140121459961,0.1638479232788086,-2.0920040607452393
1777561214222912000,8.896912109375,-4.546080589294434,2.00286865234375,-1.5203816890716553
1777561214241441800,8.91544189453125,-6.354051113128662,3.541149616241455,-1.0455822944641113
1777561214259971600,8.9339716796875,-6.009732246398926,4.495417594909668,-0.22230875492095947
1777561214278501400,8.95250146484375,-5.390328884124756,5.12143611907959,0.46083712577819824
1777561214297031200,8.97103125,-4.920932292938232,5.965146064758301,0.973709225654602
1777561214315560700,8.989560791015625,-4.384251594543457,6.201064109802246,0.6250669956207275
1777561214334090500,9.008090576171876,-3.6011643409729004,5.625001907348633,-0.49023497104644775
1777561214352620300,9.026620361328124,-1.7782330513000488,5.094631195068359,-0.8893142342567444
1777561214371150000,9.045150146484374,-0.1387805938720703,4.385194778442383,-1.0463824272155762
1777561214389679900,9.063679931640625,1.184375286102295,3.5353546142578125,-0.7198814153671265
1777561214408209400,9.08220947265625,2.9584548473358154,2.012178421020508,-0.1270955502986908
1777561214426739200,9.1007392578125,5.637508392333984,-0.6603012084960938,1.0414825677871704
1777561214445269000,9.11926904296875,10.038662910461426,-4.110058784484863,2.8803224563598633
1777561214463798800,9.137798828125,9.598616600036621,-6.009559631347656,4.650729656219482
1777561214482328300,9.156328369140626,5.019089698791504,-6.329058647155762,2.163771152496338
1777561214500858000,9.174858154296874,1.9142022132873535,-4.25429630279541,-2.5897669792175293
1777561214519388000,9.193387939453125,2.621354341506958,0.1586761474609375,-2.848710536956787
1777561214537917700,9.211917724609375,2.162712812423706,4.025064468383789,-1.0752538442611694
1777561214556447500,9.230447509765625,2.142526626586914,5.5418829917907715,-0.3405793011188507
1777561214574977300,9.248977294921875,4.905238628387451,-0.3365345001220703,3.6421210765838623
1777561214593506800,9.2675068359375,0.32982826232910156,-10.867365837097168,9.973675727844238
1777561214612036600,9.28603662109375,-11.517580032348633,-9.637425422668457,7.725657939910889
1777561214630566400,9.30456640625,-13.242448806762695,-0.22579383850097656,1.451070785522461
1777561214649096200,9.32309619140625,-6.3590240478515625,4.604328155517578,3.9554481506347656
1777561214667626000,9.3416259765625,-2.764500141143799,6.535207748413086,3.0323917865753174
1777561214686155500,9.360155517578125,-4.399570941925049,6.33516263961792,0.030590474605560303
1777561214704685300,9.378685302734375,-6.16642951965332,4.393840312957764,-1.1327688694000244
1777561214723215000,9.397215087890626,-7.446113586425781,-0.7880783081054688,-0.4402461349964142
1777561214741745000,9.415744873046876,-7.238311767578125,-13.445746421813965,-2.691729784011841
1777561214760274700,9.434274658203124,-3.915229082107544,-14.937743186950684,-8.339811325073242
1777561214778804500,9.452804443359375,3.5208821296691895,-4.43170166015625,-6.931239128112793
1777561214797334000,9.471333984375,0.7831920385360718,0.32654476165771484,-4.02735710144043
1777561214815863800,9.48986376953125,-0.32923829555511475,2.5680980682373047,-0.10682938247919083
1777561214834393600,9.5083935546875,0.4672853946685791,3.2554712295532227,2.5176289081573486
1777561214852923400,9.52692333984375,1.0669267177581787,2.8694934844970703,4.321274757385254
1777561214871453200,9.545453125,1.5599045753479004,2.28733491897583,5.700048923492432
1777561214889982700,9.563982666015624,1.7974681854248047,2.3695340156555176,4.72465181350708
1777561214908512500,9.582512451171874,0.7270941734313965,2.4738941192626953,1.8889720439910889
1777561214927042300,9.601042236328125,1.1184898614883423,1.9502449035644531,-0.6256095767021179
1777561214945572000,9.619572021484375,3.1399128437042236,1.132887840270996,-2.588033676147461
1777561214964102000,9.638101806640625,4.856601238250732,1.578695297241211,-3.5103671550750732
1777561214982631700,9.656631591796875,3.7903571128845215,2.666088104248047,-3.4885497093200684
1777561215001161200,9.6751611328125,1.1263480186462402,3.8753576278686523,-1.7918998003005981
1777561215019691000,9.69369091796875,-1.6047141551971436,5.219281196594238,-0.14735813438892365
1777561215038220800,9.712220703125,-3.339245319366455,5.890336036682129,0.81412672996521
1777561215056750600,9.73075048828125,-1.9179714918136597,6.04282808303833,1.1521167755126953
1777561215075280100,9.749280029296875,3.9101688861846924,5.043867111206055,0.26940423250198364
1777561215093810000,9.767809814453125,5.030395030975342,3.099424362182617,-0.4105626940727234
1777561215112339700,9.786339599609375,1.5906085968017578,1.5896673202514648,0.6266536712646484
1777561215130869500,9.804869384765626,-0.7377750873565674,0.18034744262695312,0.41182154417037964
1777561215149399300,9.8233994140625,-1.778668999671936,-0.3140878677368164,-0.5049058198928833
1777561215167929000,9.84192919921875,2.7026867866516113,-2.6838016510009766,-1.4392321109771729
1777561215186459000,9.860458984375,5.141757965087891,-7.173975944519043,-0.16214364767074585
1777561215204988400,9.878988525390625,2.149819850921631,-14.86663818359375,-1.567321538925171
1777561215223518200,9.897518310546875,-3.316791534423828,-20.962068557739258,-1.9853289127349854
1777561215242048000,9.916048095703125,2.457125663757324,-17.943828582763672,-1.1735763549804688
1777561215260577800,9.934577880859376,-7.029939651489258,-7.763840675354004,4.37802791595459
1777561215279107300,9.953107421875,-6.8125152587890625,1.277735710144043,4.405500411987305
1777561215297637000,9.97163720703125,-4.7876362800598145,6.836648941040039,2.5498080253601074
1777561215316167000,9.9901669921875,-4.027032375335693,9.761090278625488,2.326089859008789
1777561215334696700,10.00869677734375,-3.345579147338867,9.12355899810791,2.8857381343841553
1777561215353226200,10.027226318359375,-5.929197311401367,4.158757209777832,1.3240606784820557
1777561215371756000,10.045756103515625,-8.040313720703125,1.0558876991271973,-0.1635199785232544
1777561215390285800,10.064285888671876,-6.511373519897461,2.736739158630371,-0.767609179019928
1777561215408815600,10.082815673828126,-3.5258078575134277,5.9980621337890625,-0.20480066537857056
1777561215427345400,10.101345458984374,-1.1006755828857422,8.197428703308105,0.4620321989059448
1777561215445875200,10.119875244140625,0.04336428642272949,8.834610939025879,0.605336606502533
1777561215464404700,10.13840478515625,0.8121132850646973,6.648427963256836,-0.6196534037590027
1777561215482934500,10.1569345703125,2.1764962673187256,0.3213539123535156,-2.2287416458129883
1777561215501464300,10.17546435546875,6.047363758087158,-7.413557052612305,-3.237208843231201
1777561215519994000,10.193994140625,7.73281192779541,-4.693357467651367,-2.8974037170410156
1777561215538524000,10.21252392578125,3.6679201126098633,-0.9702301025390625,-1.5437939167022705
1777561215557053400,10.231053466796874,0.2780890464782715,1.923853874206543,0.6717925071716309
1777561215575583200,10.249583251953124,-1.392029881477356,2.9467897415161133,3.482241630554199
1777561215594113000,10.268113037109375,-0.23587572574615479,0.5564842224121094,7.0942158699035645
1777561215612642800,10.286642822265625,-3.4772231578826904,-3.6332626342773438,8.770453453063965
1777561215631172600,10.305172607421875,4.608651161193848,-8.36787223815918,7.491459846496582
1777561215649702400,10.323702392578125,11.65911865234375,-10.80578327178955,-4.594030857086182
1777561215668232000,10.34223193359375,-4.3184814453125,-7.865354537963867,-6.465536117553711
1777561215686761700,10.36076171875,1.1281758546829224,-9.82656478881836,1.2209054231643677
1777561215705291500,10.37929150390625,-1.1529345512390137,-6.630265235900879,-3.0174765586853027
1777561215723821300,10.3978212890625,-8.45832347869873,-0.3647489547729492,0.25354576110839844
1777561215742350800,10.416350830078125,-8.140026092529297,0.9537935256958008,1.3195301294326782
1777561215760880600,10.434880615234375,-4.1879048347473145,0.9608497619628906,1.6944166421890259
1777561215779410400,10.453410400390625,2.3186371326446533,0.056664466857910156,1.139622688293457
1777561215797940200,10.471940185546876,5.648082256317139,-1.5635986328125,-0.8434825539588928
1777561215816470000,10.490469970703124,2.8709359169006348,-1.6397590637207031,-2.5282630920410156
1777561215834999600,10.50899951171875,2.171825885772705,0.3521547317504883,-2.578871488571167
1777561215853529300,10.527529296875,3.012277126312256,2.4453868865966797,-2.1007862091064453
1777561215872059100,10.54605908203125,2.4273128509521484,4.25807523727417,0.5254709720611572
1777561215890589000,10.5645888671875,0.16509342193603516,6.400735378265381,2.760364055633545
1777561215909118500,10.583118408203125,-2.307651996612549,8.042787551879883,2.2649381160736084
1777561215927648300,10.601648193359376,-1.1835689544677734,7.267730712890625,1.075852632522583
1777561215946178000,10.620177978515626,3.9963321685791016,4.248468399047852,-0.798221230506897
1777561215964707800,10.638707763671874,4.842551231384277,1.453023910522461,-2.087684392929077
1777561215983237600,10.657237548828125,-0.5625892877578735,0.8696660995483398,-2.088275671005249
1777561216001767400,10.675767333984375,-2.8160884380340576,1.2781267166137695,-1.9321935176849365
1777561216020297000,10.694296875,0.7465167045593262,-0.5726776123046875,-1.9509265422821045
1777561216038826800,10.71282666015625,3.9692630767822266,-4.5034990310668945,-1.6906721591949463
1777561216057356500,10.7313564453125,7.570206642150879,-9.65705680847168,-0.09121492505073547
1777561216075886300,10.74988623046875,1.1109580993652344,-14.503761291503906,0.3971681594848633
1777561216094416000,10.768415771484374,0.6907711029052734,-17.542434692382812,-1.1685690879821777
1777561216112945700,10.786945556640624,-2.234003782272339,-14.955652236938477,1.0018389225006104
1777561216131475200,10.80547509765625,-5.032505035400391,-6.90889835357666,3.018507242202759
1777561216150005000,10.8240048828125,-6.211287498474121,-0.43580150604248047,1.5596706867218018
1777561216168534800,10.84253466796875,-5.411586284637451,4.479259014129639,0.8453629016876221
1777561216187064600,10.861064697265626,-2.779160499572754,8.5757417678833,2.1414217948913574
1777561216205594400,10.879594482421876,-2.9521594047546387,8.37442398071289,2.169969081878662
1777561216224124200,10.898124267578124,-4.4859113693237305,3.125425338745117,-0.03873860836029053
1777561216242654000,10.916654052734375,-5.378792762756348,0.011672019958496094,-0.9870963096618652
1777561216261183500,10.93518359375,-6.189363479614258,1.3980250358581543,-0.20491868257522583
1777561216279713300,10.95371337890625,-5.895847320556641,3.753110885620117,0.11577647924423218
1777561216298243000,10.9722431640625,-4.861083984375,5.6482930183410645,0.5305383801460266
1777561216316772600,10.990772705078125,-2.5652763843536377,7.313601493835449,0.8512358665466309
1777561216335302400,11.009302490234376,-1.6956629753112793,8.537296295166016,0.952007532119751
1777561216353832200,11.027832275390624,-2.344634532928467,9.013482093811035,0.6067713499069214
1777561216372362000,11.046362060546874,-0.8245973587036133,6.945298671722412,-0.42785707116127014
1777561216390891800,11.064891845703125,1.597259521484375,-3.823472023010254,-2.4564082622528076
1777561216409421300,11.08342138671875,5.095195293426514,-5.2081708908081055,-3.002899169921875
1777561216427951000,11.101951171875,15.546436309814453,-5.348217964172363,-2.7965707778930664
1777561216446481000,11.12048095703125,10.108203887939453,-2.7319841384887695,-1.0444141626358032
1777561216465010400,11.139010498046876,2.4877095222473145,0.8842678070068359,0.591651201248169
1777561216483540200,11.157540283203126,-3.7539665699005127,3.231412887573242,3.4104299545288086
1777561216502070000,11.176070068359374,-4.969675064086914,1.5195846557617188,7.4326348304748535
1777561216520599800,11.194599853515625,-7.218780040740967,-2.68179988861084,9.641690254211426
1777561216539129600,11.213129638671875,-7.9288177490234375,-5.444817543029785,9.966863632202148
1777561216557659400,11.231659423828125,17.134183883666992,-9.759333610534668,-4.164116859436035
1777561216576189000,11.25018896484375,15.779855728149414,-14.212682723999023,-11.047607421875
1777561216594718700,11.26871875,3.1338064670562744,-17.650711059570312,0.2970883250236511
1777561216613248500,11.28724853515625,-11.667767524719238,-4.336503028869629,1.1939105987548828
1777561216631778000,11.305778076171874,-14.259669303894043,3.5322508811950684,1.256839632987976
1777561216650307800,11.324307861328125,-11.197543144226074,4.353353500366211,0.8714472055435181
1777561216668837600,11.342837646484375,-2.4716901779174805,-0.21655654907226562,0.4938807785511017
1777561216687367400,11.361367431640625,7.61005973815918,-3.295022964477539,-1.2585326433181763
1777561216705897000,11.37989697265625,4.998383045196533,-4.763073921203613,-2.8343234062194824
1777561216724426800,11.3984267578125,-0.12439686059951782,-3.035538673400879,-3.490994691848755
1777561216742956500,11.41695654296875,0.6551812291145325,0.5198535919189453,-2.634190559387207
1777561216761486300,11.435486328125,1.2808393239974976,3.418916702270508,-0.022951019927859306
1777561216780015900,11.454015869140624,0.580894410610199,5.528307914733887,4.455421447753906
1777561216798545700,11.472545654296875,2.481349229812622,6.951836109161377,7.191205024719238
1777561216817075500,11.491075439453125,5.6985602378845215,5.729796886444092,4.172650337219238
1777561216835605000,11.50960498046875,2.038968086242676,3.4814515113830566,-0.6970561742782593
1777561216854134800,11.528134765625,-0.5150062441825867,3.115443229675293,-2.9260902404785156
1777561216872664600,11.54666455078125,1.3681520223617554,3.409806251525879,-2.852073907852173
1777561216891194400,11.5651943359375,1.6122418642044067,3.7095584869384766,-2.2021865844726562
1777561216909724200,11.58372412109375,-0.6316347718238831,4.086812973022461,-1.7409567832946777
1777561216928253700,11.602253662109375,-1.9432299137115479,3.709146499633789,-1.547349452972412
1777561216946783500,11.620783447265625,-0.2432084083557129,3.1687378883361816,-1.8039389848709106
1777561216965313300,11.639313232421875,1.9893527030944824,2.0876083374023438,-2.3949055671691895
1777561216983842800,11.6578427734375,2.6025514602661133,1.1895561218261719,-2.225982427597046
1777561217002372600,11.67637255859375,2.3995676040649414,-1.1405744552612305,-2.649947166442871
1777561217020902400,11.69490234375,5.01535701751709,-5.231998443603516,-1.4257441759109497
1777561217039432200,11.71343212890625,2.4724338054656982,-10.373287200927734,-0.37524688243865967
1777561217057961700,11.731961669921875,3.6423768997192383,-16.651002883911133,0.31862008571624756
1777561217076491500,11.750491455078125,3.2027196884155273,-17.42616844177246,2.8857483863830566
1777561217095021300,11.769021240234375,-4.1280107498168945,-14.848819732666016,4.826678276062012
1777561217113551000,11.787551025390625,0.7447977066040039,-9.387478828430176,4.642483711242676
1777561217132080600,11.80608056640625,-5.055441856384277,-2.8260459899902344,0.9701821804046631
1777561217150610400,11.8246103515625,-8.805706024169922,2.4286069869995117,-0.816860020160675
1777561217169140200,11.84314013671875,-5.853413105010986,7.105207920074463,-1.4411914348602295
1777561217187670000,11.861669921875,-3.2745537757873535,8.48666000366211,-0.43100953102111816
1777561217206199600,11.880199462890625,-2.8942627906799316,4.556818962097168,0.8707367181777954
1777561217224729300,11.898729248046875,-4.324934959411621,2.0858802795410156,0.5732623338699341
1777561217243259100,11.917259033203125,-5.321414470672607,2.8332901000976562,-0.20246905088424683
1777561217261788700,11.93578857421875,-5.719485282897949,4.276463985443115,0.263188898563385
1777561217280318500,11.954318359375,-6.421367168426514,5.325908660888672,0.4570200443267822
1777561217298848300,11.97284814453125,-5.062840461730957,6.62658166885376,0.7498336434364319
1777561217317378000,11.9913779296875,-3.0034961700439453,7.954229354858398,0.5305211544036865
1777561217335907600,12.009907470703125,-1.7108687162399292,8.958847045898438,0.7784276008605957
1777561217354437400,12.028437255859375,0.4814882278442383,8.991366386413574,1.7107536792755127
1777561217372967200,12.04696728515625,1.471503734588623,7.065171241760254,2.459904193878174
1777561217391496700,12.06549658203125,1.9666411876678467,-1.0164737701416016,1.2327146530151367
1777561217410026500,12.084026611328126,4.894166946411133,-8.63984203338623,-0.4944380521774292
1777561217428556300,12.102556396484376,12.416725158691406,-7.720273017883301,-3.4126200675964355
1777561217447085800,12.1210859375,9.907486915588379,-2.361316680908203,-3.0002529621124268
1777561217465615600,12.13961572265625,4.309109210968018,2.110395908355713,-1.571248173713684
1777561217484145400,12.1581455078125,-0.6508467793464661,2.5534963607788086,0.34839028120040894
1777561217502675200,12.17667529296875,-3.37697434425354,0.3236732482910156,6.2349395751953125
1777561217521205000,12.195205078125,-12.05839729309082,-5.000593185424805,9.797845840454102
1777561217539734500,12.213734619140626,-9.522350311279297,-4.180156707763672,10.953831672668457
1777561217558264300,12.232264404296876,28.62183380126953,-16.844669342041016,-5.055778503417969
1777561217576794000,12.250794189453124,18.482616424560547,-24.288454055786133,-9.673788070678711
1777561217595323600,12.26932373046875,-19.533985137939453,-8.065929412841797,-3.004484176635742
1777561217613853400,12.287853515625,-17.388044357299805,3.1198277473449707,5.191580295562744
1777561217632383200,12.30638330078125,-10.762002944946289,7.217146873474121,5.161521911621094
1777561217650913000,12.3249130859375,0.43698763847351074,4.754975318908691,2.486514091491699
1777561217669442600,12.343442626953125,7.813835620880127,-4.063479423522949,-2.2298855781555176
1777561217687972400,12.361972412109376,1.122694969177246,-7.21901798248291,-4.451009273529053
1777561217706502100,12.380502197265624,-1.574958086013794,-4.823144912719727,-2.796678304672241
1777561217725031700,12.39903173828125,0.8212318420410156,-0.2365283966064453,-1.3305028676986694
1777561217743561500,12.4175615234375,2.137641668319702,2.536067008972168,-0.3472159206867218
1777561217762091300,12.43609130859375,2.8619585037231445,4.388253211975098,0.6959518194198608
1777561217780621000,12.45462109375,3.492912769317627,6.275571823120117,2.5884487628936768
1777561217799150600,12.473150634765625,5.550558090209961,6.806405067443848,2.2187881469726562
1777561217817680400,12.491680419921876,4.4242634773254395,5.371176719665527,-0.015175223350524902
1777561217836210200,12.510210205078126,-2.799842357635498,5.221078872680664,-0.9639637470245361
1777561217854739700,12.52873974609375,-6.107544422149658,6.919004917144775,-0.2836799621582031
1777561217873269500,12.54726953125,-1.8362289667129517,5.877666473388672,0.7590407729148865
1777561217891799300,12.56579931640625,5.295825958251953,3.3046998977661133,1.127095341682434
1777561217910329000,12.5843291015625,7.464775085449219,0.42400646209716797,-0.8059632778167725
1777561217928858600,12.602858642578125,0.16026592254638672,0.23728275299072266,-2.250077962875366
1777561217947388400,12.621388427734376,-2.428758382797241,1.1494598388671875,-2.345674991607666
1777561217965918200,12.639918212890626,2.7614920139312744,-0.3653726577758789,-2.84551739692688
1777561217984447700,12.65844775390625,5.657220840454102,-5.134132385253906,-3.277662754058838
1777561218002977500,12.6769775390625,5.720767498016357,-9.836322784423828,-2.2857279777526855
1777561218021507300,12.69550732421875,0.6320445537567139,-13.447935104370117,-1.2227590084075928
1777561218049301800,12.7233017578125,1.0846748352050781,-16.494922637939453,-0.8751043081283569
1777561218067831600,12.74183154296875,-4.53671407699585,-13.45178508758545,1.0030862092971802
1777561218086361300,12.760361328125,-4.239878177642822,-5.3894758224487305,2.1266236305236816
1777561218104891000,12.778890869140625,-4.334070682525635,1.2106866836547852,1.0994436740875244
1777561218123420700,12.797420654296875,-4.90839147567749,6.639896869659424,1.8910573720932007
1777561218141950500,12.815950439453125,-3.262679100036621,9.406575202941895,2.149003028869629
1777561218160480000,12.83447998046875,-3.7059125900268555,6.029221534729004,0.005061149597167969
1777561218179009800,12.853009765625,-5.278515815734863,2.083832263946533,-0.7406050562858582
1777561218197539600,12.87153955078125,-5.058315277099609,1.431473731994629,-0.3099926710128784
1777561218216069400,12.8900693359375,-5.599063873291016,3.791217803955078,0.2439519762992859
1777561218234599000,12.908598876953125,-5.645246505737305,6.053412437438965,0.8415578007698059
1777561218253128700,12.927128662109375,-4.110264301300049,7.959752559661865,1.7330617904663086
1777561218271658500,12.945658447265625,-3.290907621383667,9.378280639648438,1.7504022121429443
1777561218290188000,12.96418798828125,-2.5953996181488037,9.535797119140625,1.1015114784240723
1777561218308717800,12.9827177734375,-0.4951544404029846,8.371903419494629,0.6868036389350891
1777561218327247600,13.00124755859375,1.2672654390335083,2.5954980850219727,0.006571292877197266
1777561218345777400,13.01977734375,3.607156753540039,-2.5328779220581055,-0.9738062024116516
1777561218364307000,13.038306884765625,11.547123908996582,-3.7142210006713867,-1.7511661052703857
1777561218382836700,13.056836669921875,14.833898544311523,-3.638866424560547,-3.0500075817108154
1777561218401366500,13.075366455078125,7.397158145904541,-0.8044395446777344,-1.971059799194336
1777561218419896000,13.09389599609375,-0.802902102470398,0.17195606231689453,1.301847219467163
1777561218438425900,13.11242578125,-4.646125793457031,-0.53033447265625,4.737331390380859
1777561218456955600,13.13095556640625,-14.259112358093262,-2.821331024169922,9.370112419128418
1777561218475485400,13.1494853515625,-5.8640851974487305,-7.594015121459961,17.387981414794922
1777561218494015000,13.168014892578125,47.842872619628906,-25.233463287353516,-3.258842945098877
1777561218512544800,13.186544677734375,-7.164071559906006,-18.425642013549805,-11.974374771118164
1777561218531074600,13.205074462890625,-17.819292068481445,-3.3172292709350586,-1.093666434288025
1777561218549604000,13.22360400390625,-13.829607009887695,3.4863061904907227,6.598469257354736
1777561218568134000,13.2421337890625,-7.65985631942749,4.620615005493164,5.471426486968994
1777561218586663700,13.26066357421875,0.6836565732955933,0.9580116271972656,1.4980818033218384
1777561218605193200,13.279193115234374,6.47880744934082,-3.6133289337158203,-1.937098503112793
1777561218623722500,13.297722412109374,3.4418601989746094,-3.7170419692993164,-3.6417970657348633
1777561218642252300,13.316252197265625,1.0653111934661865,-2.461404800415039,-3.251162528991699
1777561218670047000,13.344046875,4.646916389465332,0.20389270782470703,-3.046571731567383
1777561218688576500,13.362576416015624,4.821612358093262,3.689788818359375,0.37631189823150635
1777561218707106300,13.381106201171875,1.0259804725646973,7.154917240142822,2.6352179050445557
1777561218725635800,13.3996357421875,-0.7880287170410156,9.397760391235352,1.9039850234985352
1777561218744165600,13.41816552734375,0.7918003797531128,8.694412231445312,0.2409050464630127
1777561218762695400,13.4366953125,2.4722518920898438,4.925015449523926,-1.9321188926696777
1777561218781225000,13.455224853515626,3.6072661876678467,1.774881362915039,-2.373253583908081
1777561218799754800,13.473754638671876,1.2973252534866333,1.3523902893066406,-1.968360185623169
1777561218818284500,13.492284423828124,-2.433210849761963,2.420393943786621,-1.1422910690307617
1777561218836814300,13.510814453125,2.25565242767334,2.560959815979004,-0.6233965158462524
1777561218855343900,13.52934375,7.750371932983398,1.533808708190918,-0.5159894824028015
1777561218873873700,13.547873779296875,5.370819568634033,-1.5226316452026367,0.596267580986023
1777561218892403500,13.566403564453125,1.5097215175628662,-5.246845245361328,1.2879959344863892
1777561218910933000,13.58493310546875,0.6083273887634277,-7.735764503479004,0.8791438937187195
1777561218929462800,13.603462890625,-1.6165170669555664,-14.957730293273926,-2.277554988861084
1777561218947992600,13.62199267578125,1.7166261672973633,-21.90019989013672,-0.7955084443092346
1777561218966522400,13.6405224609375,-0.5368585586547852,-11.871880531311035,5.372783660888672
1777561218985052000,13.659052001953125,-3.159620761871338,-0.4884204864501953,2.926448345184326
1777561219003581700,13.677581787109375,-2.982624053955078,5.601534843444824,2.6061010360717773
1777561219022111500,13.696111572265625,0.7280807495117188,9.053587913513184,3.1210505962371826
1777561219040641000,13.71464111328125,-0.35431909561157227,4.878570079803467,1.0412601232528687
1777561219059170800,13.7331708984375,-4.533209800720215,-1.6665496826171875,-0.7216873168945312
1777561219077700600,13.75170068359375,-5.898880958557129,-3.1865358352661133,-1.636498212814331
1777561219096230400,13.77023046875,-5.7231550216674805,1.0056352615356445,-1.2023817300796509
1777561219114760000,13.788760009765625,-4.841337203979492,4.547487258911133,-0.6983539462089539
1777561219133289700,13.807289794921875,-3.164313793182373,7.031566619873047,-0.653101921081543
1777561219151819500,13.825819580078125,-1.3207850456237793,8.722735404968262,0.40856117010116577
1777561219170349000,13.84434912109375,-1.0735881328582764,9.129054069519043,1.214082956314087
1777561219188878800,13.86287890625,-0.6317722797393799,8.893521308898926,1.8084638118743896
1777561219207408600,13.88140869140625,0.9763338565826416,8.374029159545898,1.7182132005691528
1777561219225938400,13.8999384765625,3.5009708404541016,5.241471767425537,1.2324566841125488
1777561219244468000,13.918468017578125,6.680257320404053,-4.924002647399902,-1.178160309791565
1777561219262997800,13.936997802734375,12.959051132202148,-6.759725570678711,-1.2382655143737793
1777561219281527600,13.955527587890625,8.59322738647461,-5.176511764526367,0.8121532797813416
1777561219300057000,13.97405712890625,3.026784896850586,-3.2095155715942383,1.8795892000198364
1777561219318587000,13.9925869140625,0.7049837112426758,1.169541358947754,1.5093748569488525
1777561219337116700,14.01111669921875,0.5239357948303223,5.585651874542236,1.9788179397583008
1777561219355646500,14.029646484375,0.8415014743804932,7.085216045379639,3.4426534175872803
1777561219374176000,14.048176025390624,0.46348047256469727,3.146221160888672,5.259857654571533
1777561219392705800,14.066705810546875,-4.363288879394531,-7.613990783691406,1.3146473169326782
1777561219411235600,14.085235595703125,-7.793076992034912,-10.552610397338867,-1.5070383548736572
1777561219429765000,14.10376513671875,-5.5563836097717285,-15.036238670349121,7.119311809539795
1777561219448295000,14.122294921875,4.9279279708862305,-18.75116539001465,4.393563270568848
1777561219466824700,14.14082470703125,-6.60101318359375,-1.1175060272216797,-2.5726449489593506
1777561219485354200,14.159354248046874,-10.293338775634766,-0.19154644012451172,-0.6143013834953308
1777561219503884000,14.177884033203124,-10.73401927947998,-2.7966976165771484,2.8369009494781494
1777561219522413800,14.196413818359375,-6.907106876373291,-5.306968688964844,4.613974571228027
1777561219540943600,14.214943603515625,-0.793392539024353,-5.041406631469727,3.178661584854126
1777561219559473200,14.23347314453125,1.4261221885681152,-2.0308570861816406,0.8291411995887756
1777561219578003000,14.2520029296875,0.9441854357719421,-0.5538320541381836,-0.9997968077659607
1777561219596532700,14.27053271484375,1.0651253461837769,0.7716646194458008,-0.9742037653923035
1777561219615062300,14.289062255859376,-0.49687570333480835,2.309292793273926,-0.5054757595062256
1777561219633592000,14.307592041015624,-0.37104368209838867,3.6128921508789062,-0.48694390058517456
1777561219652121900,14.326121826171875,0.13096725940704346,3.8332414627075195,-0.3192901611328125
1777561219670651600,14.344651611328125,-0.9819536209106445,3.400938034057617,-0.9016434550285339
1777561219689181200,14.36318115234375,0.12498259544372559,3.188913345336914,-1.5255786180496216
1777561219707711000,14.3817109375,1.6696362495422363,3.129077911376953,-2.044916868209839
1777561219726240800,14.40024072265625,2.6959383487701416,1.8566865921020508,-2.773573160171509
1777561219744770300,14.418770263671876,2.927847385406494,-0.14020824432373047,-3.1721973419189453
1777561219763300000,14.437300048828124,1.8370782136917114,-0.7477493286132812,-3.108847141265869
1777561219781830000,14.455829833984374,1.68440842628479,-0.2009572982788086,-4.185415267944336
1777561219800359700,14.474359619140625,3.574070930480957,-0.8144931793212891,-5.880439281463623
1777561219818889500,14.492889404296875,5.58995246887207,-2.152157783508301,-5.059769630432129
1777561219837419000,14.5114189453125,5.706460952758789,-2.665773391723633,-2.5543856620788574
1777561219855948800,14.52994873046875,4.975996971130371,-3.311520576477051,-0.8159555196762085
1777561219874478600,14.548478515625,5.118445873260498,-3.8936262130737305,0.30359914898872375
1777561219893008100,14.567008056640624,5.457480430603027,-4.995253562927246,1.119532823562622
1777561219911538000,14.585537841796874,4.466548442840576,-7.161984443664551,1.9555708169937134
1777561219930067700,14.604067626953125,2.6737470626831055,-7.578333854675293,2.463221311569214
1777561219948597500,14.622597412109375,3.315312385559082,-4.625113487243652,3.5397181510925293
1777561219967127000,14.641126953125,2.8882646560668945,-0.6176815032958984,5.914629936218262
1777561219985656800,14.65965673828125,-5.927577018737793,-0.8511219024658203,7.704581260681152
1777561220004186600,14.6781865234375,-8.188399314880371,-4.276224136352539,6.8821282386779785
1777561220022716200,14.696716064453126,-5.173314571380615,-5.488442420959473,9.797785758972168
1777561220050510800,14.7245107421875,4.8108110427856445,-5.896213531494141,5.455475807189941
1777561220069040400,14.743040283203126,0.6626965999603271,-4.949695587158203,0.9760479927062988
1777561220087570200,14.761570068359376,-10.545900344848633,-4.5983686447143555,-0.6079405546188354
1777561220106100000,14.780099853515624,-13.857802391052246,-2.0468063354492188,-0.6023246049880981
1777561220124629800,14.798629638671875,-1.9762153625488281,1.1704497337341309,-2.839203357696533
1777561220143159600,14.81715966796875,-4.338487148284912,2.757192611694336,-5.9789652824401855
1777561220161689000,14.835689208984375,-7.373478412628174,4.446590900421143,-6.253959655761719
1777561220180219000,14.854218994140625,-7.439579963684082,6.5625433921813965,-2.8053598403930664
1777561220198748700,14.872748779296876,-6.587727069854736,7.847376346588135,-1.044174313545227
1777561220217278200,14.8912783203125,-5.894300937652588,8.03463077545166,-0.2856333255767822
1777561220235808000,14.90980810546875,-5.455109119415283,7.736332416534424,-0.2347111701965332
1777561220254337800,14.928337890625,-3.5235824584960938,7.080635070800781,-0.851620078086853
1777561220272867600,14.94686767578125,-0.450441837310791,5.985923767089844,-1.4503895044326782
1777561220291397400,14.9653974609375,4.614975452423096,4.0676164627075195,-0.6489400863647461
1777561220309927000,14.983927001953125,8.537223815917969,1.4877729415893555,0.4242854118347168
1777561220328456700,15.002456787109375,12.26596450805664,-3.5125646591186523,2.4403300285339355
1777561220346986500,15.020986572265626,10.515092849731445,-8.614331245422363,7.032244682312012
1777561220365516000,15.03951611328125,2.403374195098877,-7.478903770446777,7.027060508728027
1777561220384045800,15.0580458984375,2.8466663360595703,-2.0007123947143555,3.9984536170959473
1777561220402575600,15.07657568359375,-0.913090705871582,2.2030773162841797,0.8204477429389954
1777561220421105400,15.09510546875,4.909842014312744,3.7066311836242676,4.0300493240356445
1777561220439635000,15.113635009765625,10.323406219482422,-4.617458343505859,11.203140258789062
1777561220458164700,15.132164794921875,-9.602201461791992,-11.324363708496094,-2.7117786407470703
1777561220476694500,15.150694580078126,-8.531755447387695,2.2629308700561523,-3.1138088703155518
1777561220495224300,15.169224365234374,-8.480031967163086,9.196714401245117,3.85060453414917
1777561220513753900,15.18775390625,-6.381488800048828,7.878628730773926,9.068072319030762
1777561220532283600,15.20628369140625,-3.8991291522979736,4.692291259765625,1.86492121219635
1777561220550813400,15.2248134765625,-9.670608520507812,2.0326156616210938,-0.8727126121520996
1777561220569343200,15.24334326171875,-8.054352760314941,-2.8319435119628906,2.679556131362915
1777561220587872800,15.261872802734375,-5.421148300170898,-9.070332527160645,1.5223363637924194
1777561220606402600,15.280402587890626,-5.721651077270508,-11.335587501525879,-3.269716262817383
1777561220624932400,15.298932373046876,-6.825602054595947,-9.766105651855469,-7.756369590759277
1777561220643462100,15.317462158203124,-3.9341378211975098,-4.687280654907227,-7.0401153564453125
1777561220661991700,15.33599169921875,2.361509323120117,-1.2028884887695312,-4.316030502319336
1777561220680521500,15.354521484375,7.456551551818848,-6.984993934631348,-13.710958480834961
1777561220699051300,15.37305126953125,-0.5088282823562622,-1.6784439086914062,-2.3118321895599365
1777561220717580800,15.391580810546875,-4.372502326965332,9.52123737335205,13.090258598327637
1777561220736110600,15.410110595703125,1.049330711364746,3.1488399505615234,6.137969017028809
1777561220754640400,15.428640380859376,2.3252952098846436,3.7563838958740234,5.648049354553223
1777561220773170200,15.447170166015624,-0.9139885902404785,4.108187675476074,3.719790458679199
1777561220791700000,15.465699951171874,-0.23693645000457764,-0.5840768814086914,-1.3530185222625732
1777561220810229500,15.4842294921875,1.0201947689056396,-1.2167787551879883,-2.9526543617248535
1777561220828759300,15.50275927734375,1.5444755554199219,0.5010271072387695,-3.076054811477661
1777561220847289000,15.5212890625,1.3738280534744263,1.726393699645996,-2.226276159286499
1777561220865818600,15.539818603515625,0.7606033086776733,1.7006721496582031,-0.008102655410766602
1777561220884348400,15.558348388671876,1.085979700088501,1.9231986999511719,0.7994605898857117
1777561220902878200,15.576878173828124,1.1963871717453003,1.0420169830322266,0.4517636299133301
1777561220921408000,15.595407958984374,1.3634841442108154,-0.04449176788330078,-0.9360508918762207
1777561220939937800,15.613937744140625,2.5128960609436035,-0.07514190673828125,-2.227543592453003
1777561220958467300,15.63246728515625,3.6570825576782227,-0.3223075866699219,-3.1218020915985107
1777561220976997000,15.6509970703125,3.875985622406006,-0.6854820251464844,-3.1661787033081055
1777561220995527000,15.66952685546875,2.05716609954834,-1.4472846984863281,-2.9157307147979736
1777561221014056400,15.688056396484376,2.211921215057373,-2.0083799362182617,-2.38163423538208
1777561221032586200,15.706586181640626,4.665536403656006,-2.385408401489258,-2.529884099960327
1777561221051116000,15.725115966796874,6.835709095001221,-2.9948434829711914,-2.383127450942993
1777561221069645800,15.743645751953125,6.47191858291626,-3.809109687805176,-2.2282474040985107
1777561221088175600,15.762175537109375,4.42875862121582,-4.6501665115356445,-2.215059757232666
1777561221106705200,15.780705078125,2.548410654067993,-6.547649383544922,-2.363697052001953
1777561221125235000,15.79923486328125,-0.057730332016944885,-7.355463981628418,0.5236797332763672
1777561221143764700,15.8177646484375,1.1177794933319092,-4.514305114746094,8.433219909667969
1777561221162294300,15.836294189453126,-3.3581910133361816,-6.383336067199707,12.329151153564453
1777561221180824000,15.854823974609374,-4.185628414154053,-7.869162559509277,13.498686790466309
1777561221199353900,15.873353759765624,-2.945204973220825,-6.833409309387207,11.141646385192871
1777561221217883600,15.891883544921875,-2.5519282817840576,-5.915230751037598,6.889645099639893
1777561221236413400,15.910413330078125,-7.239054203033447,-7.241118431091309,0.8142837285995483
1777561221254943000,15.92894287109375,-7.525643348693848,-5.8874006271362305,-1.9322264194488525
1777561221273472800,15.94747265625,-11.325935363769531,-2.8109817504882812,-3.321585178375244
1777561221292002600,15.96600244140625,-9.237075805664062,-0.15171146392822266,-4.8434157371521
1777561221310532000,15.984531982421874,-5.251795768737793,3.4734463691711426,-3.91532564163208
1777561221329062000,16.003061767578124,-6.387971878051758,7.555899620056152,-1.1739146709442139
1777561221347591700,16.021591796875,-7.760457992553711,9.829667091369629,0.13880479335784912
1777561221366121500,16.04012158203125,-7.715379238128662,10.415505409240723,1.4694342613220215
1777561221384651000,16.058651123046875,-7.139337539672852,10.512761116027832,2.798774480819702
1777561221403180800,16.077180908203125,-5.701949119567871,10.714861869812012,3.098656177520752
1777561221421710600,16.095710693359376,-4.806586742401123,10.93487548828125,2.2952535152435303
1777561221440240400,16.114240478515626,-5.138637542724609,10.517759323120117,0.8645501136779785
1777561221458770000,16.13277001953125,-5.111250877380371,9.74740219116211,-0.34111180901527405
1777561221477299700,16.1512998046875,-4.4464874267578125,8.137862205505371,-1.1536593437194824
1777561221495829500,16.16982958984375,-2.58752179145813,5.17698860168457,-1.2867748737335205
1777561221514359300,16.188359375,3.0765175819396973,-7.13436222076416,-4.013412952423096
1777561221532888800,16.206888916015625,13.318032264709473,-16.40045166015625,-4.933928966522217
1777561221551418600,16.225418701171876,7.1790995597839355,-7.22743034362793,-3.2929880619049072
1777561221569948400,16.243948486328126,2.62058687210083,-1.3558368682861328,-1.155718207359314
1777561221588478200,16.262478271484376,1.2482260465621948,1.074997901916504,1.2853829860687256
1777561221607008000,16.281008056640626,-0.8855421543121338,3.0157346725463867,2.820833921432495
1777561221625537500,16.29953759765625,-2.752162456512451,3.058718681335449,4.241304874420166
1777561221644067300,16.3180673828125,-3.0274081230163574,0.9029922485351562,5.548844814300537
1777561221662597000,16.33659716796875,-1.300828456878662,-1.8379058837890625,6.3076863288879395
1777561221681126700,16.355126708984375,-0.14551901817321777,-4.165372848510742,1.7843575477600098
1777561221699656400,16.373656494140626,12.913114547729492,-11.00312328338623,1.3747904300689697
1777561221718186200,16.392186279296876,29.3668155670166,-25.479066848754883,3.3980088233947754
1777561221736716000,16.410716064453126,-13.213912010192871,-8.377875328063965,-6.811238765716553
1777561221755245800,16.429245849609377,-19.914133071899414,1.6108417510986328,-2.0857701301574707
1777561221773775400,16.447775390625,-15.898642539978027,7.926550388336182,2.981602430343628
1777561221792305200,16.46630517578125,-9.772209167480469,9.993644714355469,7.5156402587890625
1777561221810835000,16.4848349609375,1.2409379482269287,3.7759695053100586,4.587836742401123
1777561221829364500,16.503364501953126,15.166301727294922,-4.904439926147461,0.5596988201141357
1777561221847894300,16.521894287109376,1.9119155406951904,-9.668309211730957,-5.049282073974609
1777561221866424000,16.540424072265626,-2.070760488510132,-4.593966484069824,-2.9869582653045654
1777561221884953900,16.558953857421876,3.718233585357666,-0.44530677795410156,-1.203133225440979
1777561221903483400,16.5774833984375,7.903079986572266,0.7320613861083984,1.5094470977783203
1777561221922013200,16.59601318359375,8.922653198242188,0.9311609268188477,4.215495586395264
1777561221940543000,16.61454296875,0.34211111068725586,2.4325156211853027,5.515583515167236
1777561221959072500,16.633072509765626,3.2594714164733887,0.7438068389892578,4.169484615325928
1777561221977602300,16.651602294921876,0.8192410469055176,-2.099681854248047,1.9946162700653076
1777561221996132000,16.670132080078126,-9.926807403564453,-2.894672393798828,-1.521890640258789
1777561222014662000,16.688661865234376,-14.913022994995117,-2.193943977355957,-6.037147045135498
1777561222033191400,16.70719140625,-9.63557243347168,0.6844587326049805,-9.554703712463379
1777561222051721200,16.72572119140625,-5.693522930145264,6.621452331542969,-10.028284072875977
1777561222070251000,16.7442509765625,-6.693109512329102,15.06828498840332,-1.473866581916809
1777561222088780800,16.76278076171875,-3.0856752395629883,12.887331008911133,4.167611598968506
1777561222107310300,16.781310302734376,-3.4969325065612793,5.81659460067749,3.418271541595459
1777561222125840100,16.799840087890626,-4.894789218902588,1.6895666122436523,2.467121124267578
1777561222144370000,16.818369873046876,-5.658518314361572,-0.17639827728271484,0.19840866327285767
1777561222162899500,16.8368994140625,-6.331540107727051,-2.0479135513305664,-2.509552240371704
1777561222181429200,16.85542919921875,-0.015995264053344727,-4.509937286376953,-3.5124592781066895
1777561222199959000,16.873958984375,5.442650318145752,-5.972894668579102,-3.1852450370788574
1777561222218488800,16.89248876953125,6.336411476135254,-11.398375511169434,-3.8266565799713135
1777561222237018600,16.9110185546875,5.9610395431518555,-9.664416313171387,-1.208702802658081
1777561222255548200,16.929548095703126,6.0350751876831055,-5.858330726623535,-0.23366963863372803
1777561222274078000,16.948077880859376,4.685048580169678,-1.5622882843017578,1.0297253131866455
1777561222292607700,16.966607666015626,1.4386584758758545,2.562696933746338,2.512948989868164
1777561222311137300,16.98513720703125,0.809199333190918,5.439197540283203,3.724858522415161
1777561222329667000,17.0036669921875,2.727696418762207,5.98684549331665,2.841010570526123
1777561222348196900,17.02219677734375,-4.370707988739014,3.344984531402588,7.52389669418335
1777561222366726700,17.0407265625,-5.654054641723633,-0.06411361694335938,9.321301460266113
1777561222385256400,17.05925634765625,7.690524101257324,-7.709264755249023,-1.470544457435608
1777561222403786000,17.077785888671876,21.4464111328125,-14.048199653625488,-6.443723678588867
1777561222422315800,17.096315673828126,1.3218305110931396,-16.552509307861328,-2.5159740447998047
1777561222440845600,17.114845458984377,-16.085012435913086,-2.4889698028564453,2.710371971130371
1777561222459375000,17.133375,-10.393006324768066,4.453849792480469,7.682116985321045
1777561222477905000,17.15190478515625,-2.1051993370056152,5.401108741760254,2.911247968673706
1777561222496434700,17.1704345703125,1.135023832321167,5.414292812347412,-1.5735700130462646
1777561222514964500,17.188964599609374,0.043935298919677734,4.360240936279297,-3.450995922088623
1777561222533494000,17.207493896484376,1.5812830924987793,-0.38756752014160156,-3.6952919960021973
1777561222552023800,17.22602392578125,8.068451881408691,-4.103481292724609,-1.1790941953659058
1777561222570553600,17.2445537109375,9.132223129272461,-4.919394493103027,0.873227596282959
1777561222589083100,17.263083251953127,9.060258865356445,-4.869502067565918,2.9368202686309814
1777561222607613000,17.281613037109373,0.9795577526092529,-1.9583711624145508,7.040848731994629
1777561222626142700,17.300142822265624,1.528763771057129,-0.7326526641845703,6.280206680297852
1777561222644672300,17.31867236328125,-8.044449806213379,-3.840561866760254,-0.4009362459182739
1777561222663202000,17.3372021484375,-10.762685775756836,-5.063337326049805,-4.076064586639404
1777561222681731800,17.35573193359375,-10.696832656860352,-2.978029727935791,-5.931680202484131
1777561222700261600,17.37426171875,-7.13362979888916,1.164815902709961,-4.610569000244141
1777561222728056300,17.402056396484376,-5.428765296936035,4.05911111831665,4.006629467010498
1777561222746585900,17.4205859375,-5.987130165100098,1.4565787315368652,2.982278823852539
1777561222765115600,17.43911572265625,-5.158298492431641,2.5805249214172363,1.3771322965621948
1777561222783645400,17.4576455078125,-5.900330543518066,3.9974637031555176,-0.3114767074584961
1777561222802175000,17.476175048828125,-7.019433498382568,4.51448917388916,-2.673450469970703
1777561222820704800,17.494704833984375,-6.508045673370361,4.6235175132751465,-3.340470314025879
1777561222839234600,17.513234619140626,-4.230515003204346,4.366825103759766,-2.052734613418579
1777561222857764400,17.531764404296876,-0.8421013355255127,3.2408552169799805,0.10904496908187866
1777561222876294000,17.5502939453125,2.3676185607910156,-1.8122072219848633,2.545121669769287
1777561222894823700,17.56882373046875,4.950730323791504,-14.56220817565918,2.5763862133026123
1777561222913353500,17.587353515625,9.664690017700195,-8.297527313232422,2.520087957382202
1777561222931883000,17.605883056640625,10.766914367675781,-6.0908966064453125,-1.5972402095794678
1777561222950412800,17.624412841796875,6.242447376251221,-0.9520998001098633,-4.615927696228027
1777561222968942600,17.642942626953126,-0.5106856226921082,4.200357437133789,-5.092221736907959
1777561222987472400,17.661472412109376,0.9219821691513062,6.903596878051758,-2.4555273056030273
1777561223006002200,17.680002197265626,1.3661540746688843,5.932775497436523,-1.2341889142990112
1777561223024531700,17.69853173828125,-6.319338798522949,2.41400146484375,6.324992656707764
1777561223043061500,17.7170615234375,0.2138838768005371,-4.946441650390625,14.378458023071289
1777561223061591300,17.73559130859375,18.278854370117188,-19.99883270263672,1.3047549724578857
1777561223080120800,17.754120849609375,9.629827499389648,-19.31650161743164,-7.953676223754883
1777561223098650600,17.772650634765625,-11.182035446166992,-3.767483711242676,-2.3282904624938965
1777561223156585000,17.8305849609375,-2.1046345233917236,2.412200927734375,-0.11081618070602417
1777561223175114800,17.84911474609375,6.906195640563965,-2.976846694946289,-4.55810546875
1777561223193644500,17.86764453125,9.38700008392334,-4.248043060302734,-6.774410247802734
1777561223212174300,17.88617431640625,2.1928999423980713,-2.509824752807617,-5.038570404052734
1777561223230703900,17.904703857421875,-0.10740923881530762,-0.26855945587158203,-2.381992816925049
1777561223249233700,17.923233642578126,0.3297673463821411,2.0421595573425293,-1.2628355026245117
1777561223267763500,17.941763427734376,2.12837553024292,5.093173027038574,0.8046568632125854
1777561223286293200,17.960293212890626,4.531785011291504,5.489808082580566,1.351580023765564
1777561223304822800,17.97882275390625,5.179848670959473,3.9274001121520996,1.2866607904434204
1777561223323352600,17.9973525390625,7.545647621154785,1.1918163299560547,1.1803851127624512
1777561223341882400,18.01588232421875,3.1977248191833496,-0.4560251235961914,1.7038254737854004
1777561223360412200,18.034412109375,4.123339653015137,-2.237579345703125,2.107663154602051
1777561223378941700,18.052941650390625,-1.6510717868804932,-5.333012580871582,0.02072310447692871
1777561223397471500,18.071471435546876,-3.450737476348877,-10.72445011138916,-2.9871795177459717
1777561223425266200,18.09926611328125,-9.371702194213867,-13.514837265014648,-5.831508159637451
1777561223443795700,18.117795654296874,-4.47896146774292,-7.206273555755615,-2.1448628902435303
1777561223462325500,18.136325439453124,-4.572299480438232,0.7922229766845703,2.006293535232544
1777561223480855300,18.154855224609374,-3.9409992694854736,6.7402544021606445,3.949387550354004
1777561223499385000,18.173385009765624,-2.9970853328704834,8.058043479919434,3.639676570892334
1777561223517914600,18.19191455078125,-2.9783921241760254,6.337905406951904,1.6878093481063843
1777561223536444400,18.2104443359375,-4.9863739013671875,4.218008995056152,-0.46936309337615967
1777561223554974200,18.22897412109375,-6.883270263671875,1.9667754173278809,-1.5403363704681396
1777561223573504000,18.24750390625,-7.802565574645996,0.4791259765625,-1.4922664165496826
1777561223592033500,18.266033447265624,-4.60261869430542,1.2039761543273926,-0.36520957946777344
1777561223610563300,18.284563232421874,-0.8102893829345703,3.431476593017578,0.819054365158081
1777561223629093000,18.303093017578124,0.24739813804626465,4.870678424835205,1.6016961336135864
1777561223647623000,18.321622802734375,0.7158048152923584,3.697352886199951,1.5242197513580322
1777561223666152400,18.34015234375,1.9066427946090698,-1.2608003616333008,0.29439330101013184
1777561223684682200,18.35868212890625,3.6430394649505615,0.2870149612426758,1.6064722537994385
1777561223703212000,18.3772119140625,8.028634071350098,0.45862388610839844,-2.616330623626709
1777561223721741800,18.395741943359376,11.468504905700684,-1.5536279678344727,-4.888082027435303
1777561223740271400,18.414271240234374,7.793645858764648,0.5760498046875,-2.7254252433776855
1777561223758801200,18.43280126953125,2.6548805236816406,2.9673290252685547,-1.0704421997070312
1777561223777331000,18.4513310546875,-1.7368974685668945,2.9826321601867676,1.0039165019989014
1777561223795860500,18.469860595703125,-5.687262058258057,0.45996665954589844,1.3731305599212646
1777561223814390300,18.488390380859375,-9.944348335266113,-1.9666805267333984,5.584604263305664
1777561223832920000,18.506920166015625,-3.923933982849121,-4.797614097595215,10.193890571594238
1777561223851449900,18.525449951171876,28.724149703979492,-14.308065414428711,-4.334114074707031
1777561223869979400,18.5439794921875,6.051158428192139,-15.9711332321167,-3.5570333003997803
1777561223888509200,18.56250927734375,-5.100834846496582,-8.28646469116211,-0.24335864186286926
1777561223907039000,18.5810390625,-11.538579940795898,-0.3437957763671875,1.9056209325790405
1777561223925568800,18.59956884765625,-10.329050064086914,2.1885170936584473,3.285360813140869
1777561223944098300,18.618098388671875,-8.922443389892578,0.7145013809204102,1.334875464439392
1777561223962628000,18.636628173828125,-5.387673377990723,-0.729039192199707,-2.4148781299591064
1777561223981158000,18.655157958984375,5.117513656616211,-1.6843757629394531,-2.7179081439971924
1777561223999687700,18.673687744140626,14.257153511047363,-2.3378067016601562,-3.1671934127807617
1777561224018217200,18.69221728515625,1.6895314455032349,-1.4304380416870117,-1.2712161540985107
1777561224036747000,18.7107470703125,-1.2017854452133179,1.099100112915039,-0.3639501929283142
1777561224055276800,18.72927685546875,1.4657763242721558,3.318363666534424,-1.4027154445648193
1777561224073806600,18.747806640625,0.9477989673614502,4.8236403465271,-1.6040549278259277
1777561224092336000,18.766336181640625,0.4430234432220459,5.218142986297607,-1.7890379428863525
1777561224110866000,18.784865966796875,0.4493105411529541,4.732979774475098,-1.2437431812286377
1777561224129395700,18.803395751953126,2.2999866008758545,3.311758041381836,-0.7470646500587463
1777561224147925500,18.821925537109376,3.8540000915527344,1.6667938232421875,-0.5522459745407104
1777561224166455000,18.840455078125,0.3927640914916992,1.4729204177856445,-0.43742626905441284
1777561224184984800,18.85898486328125,0.31099140644073486,1.892049789428711,-0.566217839717865
1777561224203514600,18.8775146484375,1.9661654233932495,1.4644365310668945,-1.4796539545059204
1777561224222044400,18.89604443359375,1.8670825958251953,0.5722103118896484,-2.4166147708892822
1777561224240574200,18.91457421875,3.289191246032715,-1.4825849533081055,-3.201394557952881
1777561224259103700,18.933103759765626,4.5816473960876465,-6.121332168579102,-4.03726863861084
1777561224277633500,18.951633544921876,3.004542350769043,-10.993362426757812,-2.028596878051758
1777561224296163300,18.970163330078126,2.672420024871826,-14.142416954040527,0.29775428771972656
1777561224314693000,18.988693115234376,-1.8979480266571045,-13.170573234558105,2.7155251502990723
1777561224333222700,19.00722265625,-5.345172882080078,-8.216938018798828,1.2939132452011108
1777561224351752400,19.02575244140625,-5.3988938331604,-3.737180709838867,-0.6216069459915161
1777561224370282200,19.0442822265625,-3.795999050140381,1.5811371803283691,0.017868518829345703
1777561224388812000,19.06281201171875,-2.1324174404144287,7.388888359069824,1.3575173616409302
1777561224407341800,19.081341796875,-3.4713644981384277,10.959282875061035,2.990753173828125
1777561224425871400,19.099871337890626,-4.0161590576171875,6.934649467468262,1.796762466430664
1777561224444401200,19.118401123046876,-5.309454917907715,2.801537036895752,0.6477949619293213
1777561224462931000,19.136930908203126,-4.96505880355835,1.9965009689331055,0.19381487369537354
1777561224481460700,19.155460693359377,-4.0781426429748535,3.629100799560547,0.4142789840698242
1777561224499990300,19.173990234375,-3.47117018699646,5.503254413604736,0.7685731649398804
1777561224518520000,19.19252001953125,-3.316671133041382,6.670050621032715,1.0591439008712769
1777561224537049900,19.2110498046875,-3.0586631298065186,7.164854049682617,1.2282936573028564
1777561224555579600,19.22957958984375,-1.3358174562454224,6.992605209350586,1.5226556062698364
1777561224574109200,19.248109130859376,-0.541395902633667,0.2862110137939453,-0.10471904277801514
1777561224592639000,19.266638916015626,1.124043583869934,0.10138702392578125,1.0784385204315186
1777561224611168800,19.285168701171877,7.438520908355713,-0.3069801330566406,-0.3312310576438904
1777561224629698600,19.303698486328123,19.421005249023438,-3.992338180541992,-2.3785159587860107
1777561224648228400,19.322228271484374,10.743790626525879,-0.5119771957397461,-2.023683547973633
1777561224676022800,19.350022705078125,-1.1931736469268799,4.529207229614258,-0.9654638767242432
1777561224694552600,19.368552490234375,-5.179744720458984,5.136172771453857,0.8636990785598755
1777561224713082400,19.387082275390625,-6.275449275970459,3.357646942138672,2.108529567718506
1777561224731612200,19.405612060546876,-10.615837097167969,-1.1917600631713867,4.476767063140869
1777561224750142000,19.424141845703126,-6.234633922576904,-5.815357208251953,10.873857498168945
1777561224768671500,19.44267138671875,19.678627014160156,-14.611482620239258,1.3296589851379395
1777561224787201300,19.461201171875,14.439249992370605,-15.65245246887207,-6.124134063720703
1777561224805731000,19.47973095703125,5.292148590087891,-14.611152648925781,-5.132682800292969
1777561224824260900,19.4982607421875,-10.786364555358887,-3.704620361328125,-1.1588903665542603
1777561224842790700,19.516790771484374,-11.697341918945312,2.664717197418213,1.0100914239883423
1777561224861320400,19.535320556640624,-10.390705108642578,3.567619800567627,0.7470468282699585
1777561224879850000,19.55385009765625,-8.173128128051758,-0.3961629867553711,-1.2803871631622314
1777561224898379800,19.5723798828125,3.9679861068725586,-3.976642608642578,-2.806241989135742
1777561224916909600,19.59090966796875,12.340531349182129,-4.167071342468262,-3.166273593902588
1777561224935439400,19.609439453125,2.7222771644592285,-3.6752490997314453,-2.428656816482544
1777561224953969200,19.62796923828125,0.22070249915122986,-0.8210010528564453,-1.7486045360565186
1777561224972498700,19.646498779296873,1.557185411453247,2.3579282760620117,-0.9326931238174438
1777561224991028500,19.665028564453124,2.1841225624084473,4.848886489868164,1.2173099517822266
1777561225009558300,19.683558349609374,2.3642044067382812,6.079468727111816,2.30268931388855
1777561225028088000,19.702088134765624,2.1342873573303223,6.1810302734375,2.0059773921966553
1777561225046617900,19.720617919921875,1.8667948246002197,5.08382511138916,0.3502303957939148
1777561225065147600,19.739147705078125,1.4362564086914062,3.523399829864502,-1.1026053428649902
1777561225083677400,19.757677490234375,2.2234902381896973,2.1932973861694336,-2.2338201999664307
1777561225102207000,19.77620703125,3.9185409545898438,1.5329875946044922,-2.8610363006591797
1777561225120736800,19.79473681640625,4.929138660430908,1.9474215507507324,-2.4788312911987305
1777561225139266600,19.8132666015625,4.60186243057251,3.008449077606201,-2.555935859680176
1777561225157796400,19.83179638671875,3.700094699859619,3.4772396087646484,-2.9035239219665527
1777561225176326100,19.850326171875,3.891281843185425,1.4350643157958984,-4.148691177368164
1777561225194856000,19.86885595703125,3.949435234069824,-4.068937301635742,-5.0382490158081055
1777561225213385700,19.8873857421875,4.871445655822754,-10.583457946777344,-3.7441282272338867
1777561225231915500,19.90591552734375,2.1769416332244873,-14.263941764831543,1.4838368892669678
1777561225250445000,19.924445068359375,-1.9847702980041504,-13.913421630859375,2.287848472595215
1777561225268974800,19.942974853515626,-1.3233669996261597,-12.112187385559082,4.076363563537598
1777561225287504600,19.961504638671876,0.17564177513122559,-10.775880813598633,6.6588239669799805
1777561225306034400,19.980034423828126,-0.7681522369384766,-7.548953056335449,7.161494731903076
1777561225324564200,19.998564208984376,-0.37479162216186523,-4.282134056091309,2.2819390296936035
1777561225343094000,20.017093994140627,-2.7517127990722656,-3.0724611282348633,-2.180769443511963
1777561225361623800,20.035623779296873,-5.694659233093262,-2.5856781005859375,-4.675662040710449
1777561225380153600,20.054153564453124,-8.848747253417969,-1.8678693771362305,-4.5700507164001465
1777561225398683100,20.07268310546875,-8.669267654418945,-0.037665367126464844,-2.042421817779541
1777561225417213000,20.091212890625,-6.754631042480469,1.6918201446533203,0.814091682434082
1777561225435742700,20.10974267578125,-4.26292085647583,4.051792144775391,3.2851991653442383
1777561225454272500,20.1282724609375,-4.814609527587891,6.6279191970825195,3.415235996246338
1777561225472802300,20.14680224609375,-4.38105583190918,8.318099021911621,2.2744321823120117
1777561225491332000,20.16533203125,-3.0402026176452637,8.995484352111816,1.0126163959503174
1777561225509862000,20.18386181640625,-2.1457056999206543,8.879590034484863,0.6113625764846802
1777561225528391700,20.2023916015625,-2.1319875717163086,8.084263801574707,1.340129017829895
1777561225546921200,20.220921142578124,-1.0405008792877197,6.540685653686523,1.5590311288833618
1777561225565451000,20.239450927734374,2.850388288497925,4.244085788726807,1.1610965728759766
1777561225583980800,20.257980712890625,5.596625328063965,0.27927589416503906,0.9675365686416626
1777561225602510600,20.276510498046875,7.195047378540039,-4.934612274169922,0.9468861818313599
1777561225621040400,20.295040283203125,5.062027931213379,-7.11738395690918,-0.025906801223754883
1777561225639570200,20.313570068359375,4.433830261230469,-4.506583213806152,0.11945652961730957
1777561225658100000,20.332099853515626,2.744258403778076,0.24852943420410156,1.5958056449890137
1777561225676629800,20.350629638671876,2.4125969409942627,3.8012866973876953,1.2663167715072632
1777561225695159600,20.36915966796875,5.688357353210449,2.690821647644043,0.6790043115615845
1777561225713689300,20.387689453125,4.301824569702148,-4.401573181152344,2.8978891372680664
1777561225732219100,20.40621923828125,-2.5248918533325195,-10.59823226928711,6.089308738708496
1777561225750749000,20.4247490234375,-9.44422721862793,-4.884934425354004,1.786076545715332
1777561225769278700,20.44327880859375,-11.101861000061035,1.9923276901245117,2.073335647583008
1777561225787808300,20.461808349609374,-4.194100856781006,4.749163627624512,7.184291839599609
1777561225806338000,20.480338134765624,-1.7146795988082886,6.88057804107666,3.4433839321136475
1777561225824867800,20.498867919921874,-4.159292221069336,6.123708724975586,0.15104460716247559
1777561225843397600,20.517397705078125,-6.799428939819336,1.3375892639160156,0.8769932985305786
1777561225861927400,20.535927490234375,-8.385171890258789,-7.618826866149902,0.2262929081916809
1777561225880457200,20.554457275390625,-7.373282432556152,-13.373763084411621,-6.6137919425964355
1777561225898987000,20.572987060546875,-0.4269723892211914,-7.790541648864746,-6.33983039855957
1777561225917516800,20.591516845703126,4.280492305755615,-2.0296268463134766,-4.313974857330322
1777561225936046600,20.610046630859376,3.341283082962036,1.6513280868530273,-1.573973298072815
1777561225954576400,20.628576416015626,-0.8467239737510681,4.190717697143555,2.2430949211120605
1777561225973106200,20.647106201171876,-2.1082041263580322,4.444858074188232,4.396791934967041
1777561225991636000,20.665635986328127,-3.6191442012786865,3.4524803161621094,4.738503456115723
1777561226010165800,20.684165771484373,-2.8567190170288086,1.02264404296875,2.8235697746276855
1777561226028695600,20.702695556640624,-1.1186602115631104,-0.7492208480834961,0.24143001437187195
1777561226047225300,20.721225341796874,2.10400128364563,-0.5967130661010742,-1.3789305686950684
1777561226065755100,20.739755126953124,1.4975998401641846,0.054312705993652344,-2.195467472076416
1777561226084285000,20.758284912109374,-0.8512005805969238,0.6313915252685547,-1.5881413221359253
1777561226102814700,20.776814697265625,-0.9797444343566895,1.234105110168457,-1.620244026184082
1777561226121344500,20.795344482421875,0.41872596740722656,1.1879243850708008,-1.5985242128372192
1777561226139874300,20.813874267578125,1.8622933626174927,0.9439754486083984,-1.0714876651763916
1777561226158404000,20.832404052734375,2.0637316703796387,0.36153697967529297,-0.6562197804450989
1777561226176934000,20.850933837890626,1.678614854812622,-0.3373441696166992,-0.8542714715003967
1777561226195463700,20.869463623046876,2.4452710151672363,-0.7013072967529297,-2.0715577602386475
1777561226213993500,20.887993408203126,4.654252052307129,-0.8886070251464844,-3.8244593143463135
1777561226232523300,20.906523193359376,4.4711713790893555,-0.9346580505371094,-4.872524738311768
1777561226251053000,20.925052978515627,2.3205628395080566,-1.2877416610717773,-4.171662330627441
1777561226269582800,20.943582763671873,1.604290246963501,-1.590911865234375,-2.0557963848114014
1777561226288112600,20.962112548828124,3.2155539989471436,-2.0730361938476562,-0.23960402607917786
1777561226306642400,20.980642333984374,5.342689037322998,-2.5432214736938477,0.7471061944961548
1777561226325172200,20.999172119140624,6.1200666427612305,-2.5405826568603516,0.9999827146530151
1777561226343702000,21.017701904296874,5.783602714538574,-2.651301383972168,0.29701343178749084
1777561226362231800,21.036231689453125,3.8489108085632324,-4.365030288696289,-0.9774836897850037
1777561226380761600,21.05476171875,0.16687899827957153,-5.685303688049316,-1.1608577966690063
1777561226399291400,21.07329150390625,1.5373518466949463,-4.469344139099121,0.10736823081970215
1777561226417821200,21.0918212890625,-0.530077338218689,-1.2997779846191406,4.5369110107421875
1777561226436351000,21.11035107421875,-6.066401958465576,-2.737438201904297,6.995275020599365
1777561226454880800,21.128880859375,-4.815906524658203,-4.725824356079102,10.070098876953125
1777561226473410600,21.14741064453125,-2.3516626358032227,-5.047855377197266,10.772398948669434
1777561226491940400,21.1659404296875,3.563616991043091,-4.537567138671875,6.665597915649414
1777561226510470100,21.18447021484375,0.7238876819610596,-3.566946029663086,2.5876073837280273
1777561226529000000,21.203,-8.8401460647583,-4.172021865844727,-2.1955649852752686
1777561226547529700,21.22152978515625,-14.31490707397461,-2.987196922302246,-4.627856731414795
1777561226566059500,21.2400595703125,-5.6549272537231445,-0.4674997329711914,-4.918931007385254
1777561226584589300,21.25858935546875,-2.788578748703003,2.5525646209716797,-3.541797161102295
1777561226603119000,21.277119140625,-7.105422019958496,4.992548942565918,-2.43282413482666
1777561226621649000,21.29564892578125,-7.066226959228516,5.947441101074219,-1.3126355409622192
1777561226640178700,21.3141787109375,-5.55087423324585,7.033994674682617,0.521180272102356
1777561226658708500,21.33270849609375,-5.770081996917725,6.598050117492676,0.4315190315246582
1777561226677238300,21.35123828125,-4.702249526977539,6.500223159790039,0.9625961780548096
1777561226695768000,21.36976806640625,-4.443809509277344,6.141313552856445,0.8647816181182861
1777561226714297900,21.3882978515625,-3.3452963829040527,5.203868865966797,0.07713139057159424
1777561226732827600,21.40682763671875,-1.321777582168579,3.9557666778564453,-0.2752119302749634
1777561226751357400,21.425357421875,1.4980740547180176,2.6115775108337402,-0.06586039066314697
1777561226769887200,21.44388720703125,4.881551742553711,0.1839618682861328,0.165399432182312
1777561226788417000,21.4624169921875,8.455339431762695,-5.161442756652832,-0.20968592166900635
1777561226806946800,21.48094677734375,11.873571395874023,-11.163125038146973,0.7900128960609436
1777561226825476600,21.4994765625,6.210003852844238,-7.818670272827148,3.4549973011016846
1777561226844006400,21.51800634765625,2.9677016735076904,-1.4688758850097656,3.1543102264404297
1777561226862536200,21.5365361328125,3.2296128273010254,2.630222797393799,2.1581969261169434
1777561226881066000,21.55506591796875,-0.17176079750061035,4.955091953277588,1.185150384902954
1777561226899595800,21.573595703125,-1.5188500881195068,4.891783237457275,-0.06099247932434082
1777561226918125800,21.592125732421874,2.4366440773010254,1.0349597930908203,2.8979406356811523
1777561226936655600,21.610655517578124,8.463656425476074,-9.169029235839844,5.0474114418029785
1777561226955185400,21.629185302734374,-7.553169250488281,-11.927263259887695,3.973768711090088
1777561226973715200,21.647715087890624,-6.212541580200195,-2.0445451736450195,1.5725607872009277
1777561226992245000,21.666244873046875,-10.497794151306152,7.041807651519775,3.121542453765869
1777561227010774800,21.68477490234375,-6.66940450668335,9.201839447021484,6.340740203857422
1777561227029304600,21.7033046875,-3.420863628387451,8.119483947753906,6.132840633392334
1777561227047834400,21.72183447265625,-4.331699371337891,5.317725658416748,2.0943045616149902
1777561227066364200,21.7403642578125,-7.013025760650635,0.6135921478271484,0.618794322013855
1777561227084894000,21.75889404296875,-8.495038032531738,-12.209040641784668,-0.9458839297294617
1777561227103423700,21.777423828125,-8.915000915527344,-14.830035209655762,-8.16586971282959
1777561227121953500,21.79595361328125,-2.9922685623168945,-7.292712211608887,-8.712820053100586
1777561227140483300,21.8144833984375,1.3014233112335205,-1.4542264938354492,-7.4287285804748535
1777561227159013000,21.83301318359375,2.418410301208496,0.5243148803710938,-3.68304443359375
1777561227177543000,21.85154296875,0.4223642349243164,1.6567564010620117,1.5774832963943481
1777561227196072700,21.87007275390625,-0.8028299808502197,2.298680305480957,4.775250434875488
1777561227214602800,21.888602783203126,-1.2073373794555664,1.9963178634643555,6.072941780090332
1777561227233132500,21.907132568359376,-0.8150473833084106,1.6717243194580078,5.171090602874756
1777561227251662300,21.925662353515627,-0.10385915637016296,1.2237310409545898,2.777259111404419
1777561227270192000,21.944192138671873,0.41537320613861084,1.6614837646484375,1.0114624500274658
1777561227288722000,21.962721923828123,-0.1637953519821167,1.8220105171203613,-0.5789781808853149
1777561227307251700,21.981251708984374,-0.9932649731636047,1.5635862350463867,-1.9958816766738892
1777561227325781500,21.999781494140624,-0.5159114599227905,0.8932819366455078,-3.260932207107544
1777561227344311300,22.018311279296874,0.9377588033676147,0.6267023086547852,-3.9809608459472656
1777561227362841000,22.036841064453125,1.8304939270019531,0.4646015167236328,-3.0286636352539062
1777561227381371000,22.055370849609375,1.9037630558013916,0.18588733673095703,-1.6156368255615234
1777561227399900700,22.073900634765625,1.2790706157684326,0.0031843185424804688,-0.2151472419500351
1777561227418430500,22.092430419921875,0.7931951284408569,0.44335460662841797,-0.34219932556152344
1777561227436960500,22.11096044921875,1.938811182975769,0.048572540283203125,-2.4116523265838623
1777561227455490300,22.129490234375,3.791067600250244,-1.3914718627929688,-4.2970709800720215
1777561227474020000,22.14802001953125,4.244185447692871,-1.8147830963134766,-4.142007827758789
1777561227492550000,22.1665498046875,2.655153751373291,-1.5717124938964844,-1.9796521663665771
1777561227511079700,22.18507958984375,2.330721616744995,-1.9733800888061523,-0.3358493745326996
1777561227529609500,22.203609375,3.656057834625244,-2.8575143814086914,-0.3453056216239929
1777561227548139300,22.22213916015625,3.5895509719848633,-3.862344741821289,-1.3184682130813599
1777561227566669000,22.2406689453125,2.5218591690063477,-5.835078239440918,-1.9501948356628418
1777561227585198800,22.25919873046875,2.606637477874756,-6.469507217407227,-2.0919530391693115
1777561227603728600,22.277728759765626,3.711663007736206,-4.356588363647461,1.5969703197479248
1777561227622258700,22.2962587890625,4.35028600692749,-2.2364234924316406,3.5732109546661377
1777561227640788500,22.31478857421875,0.23271450400352478,0.0022230148315429688,3.332925319671631
1777561227659318300,22.333318359375,-4.358211994171143,-0.10810661315917969,5.229151248931885
1777561227677848000,22.35184814453125,-6.441460132598877,-3.3226890563964844,7.3964385986328125
1777561227696377900,22.3703779296875,-5.954167366027832,-4.892496109008789,7.814126968383789
1777561227733437400,22.4074375,4.659367561340332,-3.325615882873535,1.3953571319580078
1777561227751967200,22.42596728515625,-1.4721678495407104,-2.577411651611328,-0.5422018766403198
1777561227770497000,22.4444970703125,-11.363880157470703,-1.7727527618408203,-2.4048702716827393
1777561227789026800,22.46302685546875,-11.368753433227539,-0.6253385543823242,-3.50418758392334
1777561227807556900,22.481556884765624,-3.2531158924102783,1.1827020645141602,-2.4824023246765137
1777561227826086700,22.500086669921874,-3.104851722717285,3.5525779724121094,-0.9588815569877625
1777561227844616400,22.518616455078124,-5.455732345581055,4.689572334289551,-0.42244112491607666
1777561227863146200,22.537146240234375,-5.338708877563477,5.161296844482422,0.33240413665771484
1777561227881676000,22.555676025390625,-5.196776390075684,5.178933620452881,0.7284643650054932
1777561227900205800,22.574205810546875,-4.979856967926025,5.288239479064941,1.4899433851242065
1777561227918735600,22.592735595703125,-5.232201099395752,5.194477081298828,1.512941837310791
1777561227937265400,22.611265380859376,-4.257296562194824,4.559319019317627,1.2488595247268677
1777561227955795500,22.62979541015625,-2.6734137535095215,4.033102035522461,0.2770806550979614
1777561227974325200,22.6483251953125,0.4918992519378662,3.330310821533203,-0.5594026446342468
1777561227992855000,22.66685498046875,5.521940231323242,2.115234375,-0.3263985812664032
1777561228011384800,22.685384765625,7.993094444274902,-0.4787769317626953,0.7976976633071899
1777561228029914600,22.70391455078125,8.175983428955078,-3.8312463760375977,1.919992446899414
1777561228048444400,22.7224443359375,6.140532493591309,-6.12580680847168,-0.5722143650054932
1777561228066974200,22.74097412109375,4.652582168579102,-3.6406211853027344,-2.461439371109009
1777561228085504000,22.75950390625,0.6806514263153076,0.2559633255004883,-1.659911036491394
1777561228104033800,22.77803369140625,-2.240612268447876,2.1748342514038086,-0.5761625170707703
1777561228122563800,22.796563720703126,1.3306684494018555,1.7797431945800781,-0.05383674055337906
1777561228141093600,22.81509375,4.914147853851318,-3.3989267349243164,2.0256166458129883
1777561228159623400,22.83362353515625,1.9640088081359863,-10.389435768127441,5.566418170928955
1777561228178153200,22.8521533203125,-3.7799623012542725,-11.145801544189453,5.698206901550293
1777561228196683000,22.87068310546875,-12.594503402709961,1.489058494567871,4.677331447601318
1777561228215212800,22.889212890625,-9.380318641662598,6.113191604614258,5.046379089355469
1777561228233742600,22.90774267578125,-5.628584861755371,8.36347484588623,5.4476141929626465
1777561228252272400,22.9262724609375,-1.9660253524780273,8.08855152130127,4.029857158660889
1777561228270802400,22.944802490234373,-1.977060317993164,3.6080470085144043,1.3698548078536987
1777561228289332200,22.963332275390623,-3.0758016109466553,-4.756232261657715,-1.2618509531021118
1777561228307862000,22.981862060546874,-4.917036533355713,-15.123709678649902,-6.6035919189453125
1777561228326391800,23.000391845703124,-2.4251320362091064,-9.502214431762695,-8.512516021728516
1777561228344921600,23.018921630859374,1.2388603687286377,-3.0550050735473633,-6.452123165130615
1777561228363451400,23.037451416015625,-0.02037811279296875,1.3309497833251953,-2.0111820697784424
1777561228381981200,23.055981201171875,-0.79518723487854,2.578003406524658,2.0459823608398438
1777561228400511000,23.074510986328125,-0.40495145320892334,2.6545157432556152,4.186928749084473
1777561228419041000,23.093041015625,0.20819413661956787,2.6997532844543457,4.82145357131958
1777561228437570800,23.11157080078125,0.49691176414489746,2.2592382431030273,3.346587896347046
1777561228456100600,23.1301005859375,0.4653090238571167,0.9902935028076172,0.7555140256881714
1777561228474630400,23.14863037109375,1.2593061923980713,0.07390213012695312,-1.4235798120498657
1777561228493160200,23.16716015625,3.471545696258545,0.009879112243652344,-2.1125872135162354
1777561228511690000,23.18568994140625,4.398868083953857,1.0341339111328125,-1.1394484043121338
1777561228530219800,23.2042197265625,3.4125776290893555,2.071079730987549,-0.31422725319862366
1777561228548749800,23.222749755859375,3.2485198974609375,2.916886329650879,-0.23376807570457458
1777561228567279600,23.241279541015626,4.093377590179443,3.201211452484131,-0.860661506652832
1777561228585809400,23.259809326171876,-0.47502750158309937,4.124446868896484,-0.810481071472168
1777561228604339200,23.278339111328126,-4.136610507965088,5.395025253295898,-0.9619504809379578
1777561228622869000,23.296868896484376,-3.1912899017333984,5.783001899719238,-1.6891396045684814
1777561228641398800,23.315398681640627,1.8391408920288086,4.956872940063477,-1.7503156661987305
1777561228659928600,23.333928466796873,4.697795867919922,4.0100860595703125,-0.8099135756492615
1777561228678458400,23.352458251953124,0.12447309494018555,3.6260857582092285,1.165877103805542
1777561228696988400,23.370988525390626,-3.8873867988586426,4.157258033752441,2.236862897872925
1777561228715518200,23.389518310546876,-2.3576345443725586,3.0588760375976562,1.845962643623352
1777561228734048000,23.408048095703126,1.0203471183776855,1.1410589218139648,0.66720050573349
1777561228752577800,23.426577880859377,1.2453527450561523,-0.7016210556030273,-0.9871329069137573
1777561228771107600,23.445107666015623,1.6784875392913818,-3.389890670776367,-3.1997060775756836
1777561228789637400,23.463637451171873,4.55568790435791,-9.73337173461914,-4.011383533477783
1777561228808167200,23.482167236328124,3.2564735412597656,-17.05597686767578,-3.7130188941955566
1777561228826697200,23.500697265625,4.096834182739258,-20.494098663330078,2.175198793411255
1777561228845227000,23.51922705078125,-0.8982865810394287,-17.840818405151367,7.197014808654785
1777561228863756800,23.5377568359375,-1.9805192947387695,-10.908881187438965,7.902118682861328
1777561228882286600,23.55628662109375,-1.5275547504425049,-3.0499744415283203,4.9133219718933105
1777561228900816400,23.57481640625,-7.554975509643555,2.003859043121338,1.9645887613296509
1777561228919346200,23.59334619140625,-7.719388484954834,5.641855239868164,-0.2154296636581421
1777561228937876000,23.6118759765625,-6.09149169921875,7.048429489135742,0.5733917355537415
1777561228956405800,23.63040576171875,-5.64234733581543,3.980050563812256,-0.34240221977233887
1777561228974935800,23.648935791015624,-3.986402750015259,2.2536139488220215,-0.283896267414093
1777561228993465600,23.667465576171875,-4.029806613922119,4.129788875579834,0.05041015148162842
1777561229011995400,23.685995361328125,-4.869446277618408,5.965481758117676,0.4997604489326477
