time,seconds_elapsed,z,y,x
1777561205430622200,0.104622314453125,3.522449493408203,-9.149027824401855,0.24089327454566956
1777561205449151700,0.12315185546875,3.459501266479492,-9.175561904907227,0.10635163635015488
1777561205467681300,0.141681396484375,3.572645902633667,-9.132697105407715,-0.02089347131550312
1777561205495475200,0.16947509765625,3.723288059234619,-9.070577621459961,-0.1792270541191101
1777561205514004700,0.188004638671875,3.8336751461029053,-9.022314071655273,-0.26678016781806946
1777561205532534300,0.2065341796875,3.8658273220062256,-9.006446838378906,-0.3311900496482849
1777561205551063800,0.225063720703125,3.9066836833953857,-8.985157012939453,-0.41851434111595154
1777561205569593300,0.24359326171875,3.970695972442627,-8.953064918518066,-0.49657687544822693
1777561205588122600,0.26212255859375,4.0340189933776855,-8.922548294067383,-0.5340313911437988
1777561205606652200,0.280652099609375,4.077095031738281,-8.90179443359375,-0.552932620048523
1777561205625181700,0.299181640625,4.118051052093506,-8.882915496826172,-0.5530490875244141
1777561205643711000,0.3177109375,4.149992942810059,-8.868206977844238,-0.5503278970718384
1777561205662240500,0.336240478515625,4.128265857696533,-8.877685546875,-0.5607998371124268
1777561205680769800,0.354769775390625,4.080127239227295,-8.89697265625,-0.6056560277938843
1777561205699299300,0.37329931640625,4.00466775894165,-8.927088737487793,-0.663392186164856
1777561205717828900,0.391828857421875,3.9251961708068848,-8.962628364562988,-0.6591742634773254
1777561205736358100,0.410358154296875,3.865344762802124,-8.993707656860352,-0.5854082107543945
1777561205754887700,0.4288876953125,3.801992416381836,-9.02622127532959,-0.4925153851509094
1777561205773417200,0.447417236328125,3.7773795127868652,-9.040698051452637,-0.40933844447135925
1777561205791946500,0.465946533203125,3.8736026287078857,-9.001859664916992,-0.36348283290863037
1777561205810476000,0.48447607421875,3.9558863639831543,-8.968255996704102,-0.3028905391693115
1777561205829005600,0.503005615234375,3.9112532138824463,-8.990857124328613,-0.19229041039943695
1777561205847535000,0.52153515625,3.7352752685546875,-9.067156791687012,-0.06895160675048828
1777561205866064400,0.540064453125,3.5550754070281982,-9.138858795166016,0.11442477256059647
1777561205884594000,0.558593994140625,3.4694664478302,-9.166313171386719,0.334501177072525
1777561205903123500,0.57712353515625,3.2428293228149414,-9.245198249816895,0.4251389801502228
1777561205921652700,0.59565283203125,2.8910725116729736,-9.361220359802246,0.4238610565662384
1777561205940182300,0.614182373046875,2.5706567764282227,-9.456063270568848,0.3807741403579712
1777561205958711600,0.632711669921875,2.3172826766967773,-9.52554988861084,0.2539099156856537
1777561205977241000,0.651240966796875,2.0663909912109375,-9.586345672607422,0.049015600234270096
1777561205995770600,0.6697705078125,1.7721458673477173,-9.643628120422363,-0.17416921257972717
1777561206014300000,0.6882998046875,1.4890695810317993,-9.688529014587402,-0.292346328496933
1777561206032829400,0.706829345703125,1.2480207681655884,-9.722458839416504,-0.2943281829357147
1777561206051359000,0.72535888671875,1.0056281089782715,-9.752635955810547,-0.21255671977996826
1777561206069888300,0.74388818359375,0.7730653882026672,-9.775617599487305,-0.10029406100511551
1777561206088417800,0.762417724609375,0.49220290780067444,-9.794225692749023,-0.03558757156133652
1777561206106947000,0.780947021484375,0.20870161056518555,-9.804429054260254,0.0013215283397585154
1777561206125476600,0.7994765625,-0.00019507021352183074,-9.806610107421875,0.028161445632576942
1777561206144006100,0.818006103515625,-0.20872646570205688,-9.804391860961914,0.02646378055214882
1777561206162535700,0.83653564453125,-0.4134334325790405,-9.797917366027832,-0.016361119225621223
1777561206181065000,0.85506494140625,-0.6001238822937012,-9.787714004516602,-0.10439647734165192
1777561206199594500,0.873594482421875,-0.7638523578643799,-9.77520751953125,-0.17952099442481995
1777561206218124000,0.8921240234375,-0.9076528549194336,-9.762219429016113,-0.21360395848751068
1777561206236653300,0.9106533203125,-1.0156656503677368,-9.751775741577148,-0.2041686475276947
1777561206255182800,0.929182861328125,-1.1053893566131592,-9.742804527282715,-0.16204550862312317
1777561206273712400,0.94771240234375,-1.197104573249817,-9.732730865478516,-0.10622552782297134
1777561206292241700,0.96624169921875,-1.2952191829681396,-9.720616340637207,-0.04912508651614189
1777561206310771200,0.984771240234375,-1.394095778465271,-9.707052230834961,0.0062420968897640705
1777561206329300700,1.00330078125,-1.5074653625488281,-9.689945220947266,0.05392489954829216
1777561206347830000,1.021830078125,-1.625490427017212,-9.67048454284668,0.09951328486204147
1777561206366359600,1.040359619140625,-1.7221770286560059,-9.6531982421875,0.1423604041337967
1777561206384889000,1.05888916015625,-1.7818470001220703,-9.641884803771973,0.17165963351726532
1777561206403418400,1.07741845703125,-1.8156652450561523,-9.635309219360352,0.1859460026025772
1777561206421948000,1.095947998046875,-1.8392455577850342,-9.630762100219727,0.1896643340587616
1777561206440477200,1.114477294921875,-1.8537358045578003,-9.628117561340332,0.1827920377254486
1777561206459006700,1.1330068359375,-1.838973879814148,-9.631245613098145,0.16635249555110931
1777561206477536300,1.151536376953125,-1.7895389795303345,-9.64084243774414,0.1486463099718094
1777561206496065500,1.1700654296875,-1.700124979019165,-9.65737247467041,0.12300686538219452
1777561206514595000,1.188594970703125,-1.5690090656280518,-9.679985046386719,0.08057889342308044
1777561206533124600,1.20712451171875,-1.3883458375930786,-9.707877159118652,-0.0011013514595106244
1777561206551654000,1.22565380859375,-1.1240980625152588,-9.741361618041992,-0.11251870542764664
1777561206570183400,1.244183349609375,-0.7521734833717346,-9.775629043579102,-0.20426036417484283
1777561206588712700,1.262712646484375,-0.2590421140193939,-9.79987621307373,-0.25632697343826294
1777561206607242200,1.2812421875,0.3470161557197571,-9.796454429626465,-0.2818593382835388
1777561206625771800,1.299771728515625,0.9538746476173401,-9.756163597106934,-0.27887213230133057
1777561206644301000,1.318301025390625,1.4894413948059082,-9.690591812133789,-0.2106962949037552
1777561206662830600,1.33683056640625,1.9752955436706543,-9.605541229248047,-0.046550605446100235
1777561206681360100,1.355360107421875,2.393821954727173,-9.505922317504883,0.2782933712005615
1777561206699889400,1.373889404296875,2.7332992553710938,-9.390347480773926,0.7216876745223999
1777561206718419000,1.3924189453125,3.0550127029418945,-9.258522987365723,1.0568969249725342
1777561206736948500,1.410948486328125,3.4168317317962646,-9.125921249389648,1.1014572381973267
1777561206755477800,1.429477783203125,3.6316709518432617,-9.058921813964844,0.957753598690033
1777561206774007300,1.44800732421875,3.392540454864502,-9.173859596252441,0.708061933517456
1777561206792536800,1.466536865234375,3.829364538192749,-9.005523681640625,0.6378896236419678
1777561206811066400,1.48506640625,4.324283599853516,-8.775040626525879,0.6852881908416748
1777561206829595600,1.503595703125,4.514578342437744,-8.670863151550293,0.7778825759887695
1777561206848125200,1.522125244140625,4.620910167694092,-8.606022834777832,0.8682944178581238
1777561206866654500,1.540654541015625,4.703524589538574,-8.553009986877441,0.9451239705085754
1777561206885184000,1.55918408203125,4.748544216156006,-8.524147033691406,0.9801137447357178
1777561206903713500,1.577713623046875,4.746077537536621,-8.527709007263184,0.9608868360519409
1777561206922242800,1.596242919921875,4.695786476135254,-8.563847541809082,0.8834506869316101
1777561206940772400,1.6147724609375,4.585452556610107,-8.636069297790527,0.7498741745948792
1777561206959302000,1.633302001953125,4.417450428009033,-8.737249374389648,0.563024640083313
1777561206977831200,1.6518310546875,4.201833724975586,-8.854912757873535,0.3247990906238556
1777561206996360700,1.670360595703125,3.9825544357299805,-8.961201667785645,0.0806683823466301
1777561207014890000,1.688889892578125,3.817032814025879,-9.032739639282227,-0.10134599357843399
1777561207033419500,1.70741943359375,3.741446018218994,-9.062700271606445,-0.1986061930656433
1777561207051949000,1.725948974609375,3.7667527198791504,-9.050836563110352,-0.25356292724609375
1777561207070478600,1.744478515625,3.8701114654541016,-9.006134986877441,-0.28663045167922974
1777561207089007900,1.7630078125,3.9952871799468994,-8.951945304870605,-0.26595956087112427
1777561207107537400,1.781537353515625,4.109443187713623,-8.902680397033691,-0.15855464339256287
1777561207126067000,1.80006689453125,4.1849517822265625,-8.868847846984863,-0.009817010723054409
1777561207144596500,1.818596435546875,4.228471279144287,-8.846911430358887,0.15027056634426117
1777561207163125800,1.837125732421875,4.197488784790039,-8.853299140930176,0.4129997789859772
1777561207181655300,1.8556552734375,4.33273983001709,-8.75613021850586,0.8531967997550964
1777561207200184600,1.8741845703125,4.277547836303711,-8.744054794311523,1.1893178224563599
1777561207218714000,1.892714111328125,4.157454967498779,-8.814714431762695,1.089384913444519
1777561207237243600,1.91124365234375,3.999483823776245,-8.909238815307617,0.8944176435470581
1777561207255773000,1.92977294921875,3.8231310844421387,-9.001187324523926,0.7298543453216553
1777561207274302500,1.948302490234375,3.643326759338379,-9.083281517028809,0.6249504685401917
1777561207292832000,1.96683203125,3.4027233123779297,-9.174450874328613,0.6490846872329712
1777561207311361500,1.985361572265625,3.090200424194336,-9.272727966308594,0.7984883189201355
1777561207329890800,2.003890869140625,2.8059427738189697,-9.355013847351074,0.8836113214492798
1777561207348420400,2.02242041015625,2.59743332862854,-9.42398452758789,0.782468855381012
1777561207366950000,2.040949951171875,2.5121426582336426,-9.461407661437988,0.5841926336288452
1777561207385479200,2.059479248046875,2.4089930057525635,-9.500438690185547,0.3298799991607666
1777561207404008700,2.0780087890625,2.2400522232055664,-9.547013282775879,0.08417718857526779
1777561207422538200,2.096538330078125,2.011286497116089,-9.597861289978027,-0.07848682254552841
1777561207441067500,2.115067626953125,1.819656491279602,-9.635746955871582,-0.10782118886709213
1777561207459597000,2.13359716796875,1.7521305084228516,-9.648749351501465,-0.04539873078465462
1777561207478126600,2.152126708984375,1.758959412574768,-9.647555351257324,0.03360334038734436
1777561207496656100,2.17065625,1.765359878540039,-9.646222114562988,0.06546773761510849
1777561207515185400,2.189185302734375,1.808778166770935,-9.638265609741211,0.05031164363026619
1777561207533715000,2.20771484375,1.908342719078064,-9.619108200073242,0.037108078598976135
1777561207552244500,2.226244384765625,2.040743350982666,-9.591717720031738,0.06859321892261505
1777561207570774000,2.24477392578125,2.203284740447998,-9.554525375366211,0.16419269144535065
1777561207589303300,2.26330322265625,2.3768470287323,-9.510685920715332,0.2604347765445709
1777561207607832800,2.281832763671875,2.553354024887085,-9.46272087097168,0.32816559076309204
1777561207626362400,2.3003623046875,2.7899274826049805,-9.39202880859375,0.4201130270957947
1777561207644892000,2.318891845703125,3.0546493530273438,-9.304458618164062,0.5162819623947144
1777561207672685800,2.346685791015625,3.3173508644104004,-9.207988739013672,0.6152302026748657
1777561207691215400,2.36521533203125,3.444532632827759,-9.15942668914795,0.6406997442245483
1777561207709745000,2.383744873046875,3.6295297145843506,-9.085540771484375,0.6707065105438232
1777561207728274400,2.4022744140625,3.902615785598755,-8.967618942260742,0.7223469018936157
1777561207746804000,2.420803955078125,4.377809047698975,-8.732953071594238,0.8606402277946472
1777561207765333200,2.439333251953125,4.986307144165039,-8.38824462890625,0.9718492031097412
1777561207783862800,2.45786279296875,5.443800449371338,-8.088271141052246,1.0560686588287354
1777561207802392300,2.476392333984375,5.815854549407959,-7.813669204711914,1.1370118856430054
1777561207820921900,2.494921875,6.125762462615967,-7.570472717285156,1.154718279838562
1777561207839451100,2.513451171875,6.286872386932373,-7.44537878036499,1.1008883714675903
1777561207857980700,2.531980712890625,6.311923503875732,-7.43731689453125,1.008129358291626
1777561207876510200,2.55051025390625,6.273544788360596,-7.474483489990234,0.9721719622612
1777561207895039700,2.569039794921875,6.174765110015869,-7.546186447143555,1.0477275848388672
1777561207913569300,2.5875693359375,5.980820655822754,-7.70114278793335,1.0452544689178467
1777561207932098600,2.6060986328125,5.663369178771973,-7.954031944274902,0.9110516309738159
1777561207950628000,2.624628173828125,5.237949848175049,-8.258678436279297,0.7269800305366516
1777561207969157600,2.64315771484375,4.769939422607422,-8.549947738647461,0.5625457763671875
1777561207987687200,2.661687255859375,4.313538551330566,-8.795620918273926,0.4481204152107239
1777561208006216400,2.680216552734375,3.894620895385742,-8.991101264953613,0.40299296379089355
1777561208024746000,2.69874609375,3.5516388416290283,-9.128073692321777,0.48426520824432373
1777561208043275500,2.717275634765625,3.302455186843872,-9.211878776550293,0.6367654800415039
1777561208061805000,2.73580517578125,3.077383041381836,-9.28549575805664,0.6925776600837708
1777561208080334600,2.75433447265625,2.834768772125244,-9.364490509033203,0.6639230847358704
1777561208098863900,2.77286376953125,2.673628568649292,-9.420610427856445,0.5236325860023499
1777561208117393400,2.791393310546875,2.550287961959839,-9.46435832977295,0.30387625098228455
1777561208135923000,2.8099228515625,2.374805212020874,-9.514719009399414,0.028437910601496696
1777561208154452500,2.828452392578125,2.0965681076049805,-9.576408386230469,-0.25920477509498596
1777561208172981800,2.846981689453125,1.753445029258728,-9.637860298156738,-0.4554958939552307
1777561208191511300,2.86551123046875,1.4869903326034546,-9.680171966552734,-0.5034896731376648
1777561208210040800,2.884040771484375,1.3279222249984741,-9.708255767822266,-0.3959527611732483
1777561208228570400,2.9025703125,1.2147576808929443,-9.729327201843262,-0.18691520392894745
1777561208247100000,2.921099853515625,1.2485014200210571,-9.726838111877441,0.0159711055457592
1777561208265629400,2.93962939453125,1.56857430934906,-9.680390357971191,0.000745269178878516
1777561208284159000,2.958158935546875,1.7998385429382324,-9.638229370117188,-0.18841995298862457
1777561208302688300,2.976688232421875,2.080258846282959,-9.583357810974121,-0.046619486063718796
1777561208321217800,2.9952177734375,2.5219228267669678,-9.476827621459961,-0.005540762562304735
1777561208339747300,3.013747314453125,2.7828166484832764,-9.403227806091309,-0.07494638115167618
1777561208358276900,3.03227685546875,2.6955323219299316,-9.426933288574219,-0.19347414374351501
1777561208376806400,3.050806396484375,2.33257794380188,-9.521987915039062,-0.24738454818725586
1777561208395336000,3.0693359375,2.184993028640747,-9.558040618896484,-0.2001589983701706
1777561208413865200,3.087865234375,2.2766668796539307,-9.537413597106934,-0.15784111618995667
1777561208432394800,3.106394775390625,2.2884273529052734,-9.534834861755371,-0.1429171860218048
1777561208450924300,3.12492431640625,2.224985361099243,-9.549839973449707,-0.1427561193704605
1777561208469453800,3.143453857421875,2.1535496711730957,-9.566634178161621,-0.11006119847297668
1777561208487983400,3.1619833984375,2.087886333465576,-9.581771850585938,-0.027425358071923256
1777561208506513000,3.180512939453125,2.0463953018188477,-9.590377807617188,0.08553385734558105
1777561208525042200,3.199042236328125,2.101759910583496,-9.57694149017334,0.1875680685043335
1777561208543572000,3.217572021484375,2.236321210861206,-9.544825553894043,0.2560533583164215
1777561208571366100,3.2453662109375,2.404417037963867,-9.501112937927246,0.3435436487197876
1777561208589895700,3.263895751953125,2.484020471572876,-9.480247497558594,0.3534819483757019
1777561208608425200,3.28242529296875,2.5973074436187744,-9.450318336486816,0.34036991000175476
1777561208626954500,3.30095458984375,2.7149927616119385,-9.418006896972656,0.3167813718318939
1777561208645484300,3.319484375,2.7985498905181885,-9.393387794494629,0.3205937147140503
1777561208664013600,3.338013671875,2.902479410171509,-9.357634544372559,0.4250430166721344
1777561208682543000,3.356543212890625,3.1420154571533203,-9.275870323181152,0.5063348412513733
1777561208701072600,3.37507275390625,3.497001886367798,-9.14390754699707,0.5747448205947876
1777561208719602200,3.393602294921875,3.9235408306121826,-8.960973739624023,0.690779447555542
1777561208738131700,3.412131591796875,4.344951629638672,-8.750848770141602,0.8452409505844116
1777561208756661200,3.4306611328125,4.795412063598633,-8.497787475585938,0.9808275699615479
1777561208775190800,3.449190673828125,5.232524871826172,-8.230230331420898,1.0268357992172241
1777561208793720300,3.46772021484375,5.564809322357178,-8.010719299316406,1.0157015323638916
1777561208812249900,3.486249755859375,5.765017986297607,-7.867002010345459,1.0223640203475952
1777561208830779400,3.504779296875,5.8893022537231445,-7.753750324249268,1.1687052249908447
1777561208849309000,3.523308837890625,5.964709281921387,-7.663178443908691,1.366868019104004
1777561208867838500,3.54183837890625,5.94441032409668,-7.667119026184082,1.4316619634628296
1777561208886367700,3.56036767578125,5.7894511222839355,-7.802329063415527,1.3327789306640625
1777561208904897300,3.578897216796875,5.526912689208984,-8.02035903930664,1.1390643119812012
1777561208923426800,3.5974267578125,5.20542573928833,-8.260383605957031,0.9165153503417969
1777561208941956400,3.615956298828125,4.8332295417785645,-8.50442123413086,0.6964927315711975
1777561208960486000,3.63448583984375,4.428774356842041,-8.73507022857666,0.504859209060669
1777561208979015400,3.653015380859375,4.016785621643066,-8.939484596252441,0.3484601378440857
1777561208997545000,3.671544921875,3.618642568588257,-9.111054420471191,0.2539452612400055
1777561209016074500,3.690074462890625,3.24847412109375,-9.249164581298828,0.2659735381603241
1777561209034604000,3.70860400390625,2.9280152320861816,-9.350109100341797,0.4154186248779297
1777561209053133600,3.727133544921875,2.6804709434509277,-9.41023063659668,0.6580421924591064
1777561209071663000,3.7456630859375,2.5130040645599365,-9.442543029785156,0.8328148126602173
1777561209090192600,3.764192626953125,2.333606243133545,-9.491878509521484,0.7930288910865784
1777561209108722200,3.78272216796875,2.114494800567627,-9.555719375610352,0.6225157976150513
1777561209127251700,3.801251708984375,1.9647001028060913,-9.597152709960938,0.45276373624801636
1777561209145781200,3.81978125,1.9257392883300781,-9.612883567810059,0.23322531580924988
1777561209164310800,3.838310791015625,1.847769856452942,-9.630976676940918,0.020370643585920334
1777561209182840300,3.85684033203125,1.6701428890228271,-9.662700653076172,-0.11508678644895554
1777561209201369900,3.875369873046875,1.5222253799438477,-9.686933517456055,-0.1286366879940033
1777561209219899400,3.8938994140625,1.5194509029388428,-9.688018798828125,-0.06290305405855179
1777561209238429000,3.912428955078125,1.5193195343017578,-9.687697410583496,0.10293758660554886
1777561209256958500,3.93095849609375,1.3913618326187134,-9.701740264892578,0.33277419209480286
1777561209275488300,3.94948828125,1.614113450050354,-9.667342185974121,0.32789382338523865
1777561209294017500,3.968017578125,2.0668866634368896,-9.585122108459473,0.1542862504720688
1777561209312547000,3.986547119140625,2.336292266845703,-9.52307415008545,-0.15221945941448212
1777561209331076900,4.005076904296875,2.396191120147705,-9.503067016601562,-0.3469342589378357
1777561209349606100,4.023606201171875,2.1645097732543945,-9.559670448303223,-0.3130219280719757
1777561209368136000,4.042135986328125,1.843381404876709,-9.630308151245117,-0.17173095047473907
1777561209386665500,4.06066552734375,1.7014670372009277,-9.657394409179688,-0.10062023997306824
1777561209405195000,4.079195068359375,1.6523312330245972,-9.66578483581543,-0.11309926211833954
1777561209423724500,4.097724609375,1.5982449054718018,-9.674408912658691,-0.14761902391910553
1777561209442254000,4.116254150390625,1.5139333009719849,-9.687963485717773,-0.14755164086818695
1777561209460783600,4.13478369140625,1.4320179224014282,-9.700658798217773,-0.13012424111366272
1777561209479313200,4.153313232421875,1.380053997039795,-9.708656311035156,-0.08852102607488632
1777561209497842700,4.1718427734375,1.37452232837677,-9.70982551574707,-0.01894783228635788
1777561209516372200,4.190372314453125,1.4530723094940186,-9.698318481445312,0.0396672748029232
1777561209534901800,4.20890185546875,1.582037091255188,-9.677968978881836,0.06678622215986252
1777561209553431300,4.227431396484375,1.6879754066467285,-9.659934997558594,0.08234424144029617
1777561209571960800,4.2459609375,1.7668125629425049,-9.645182609558105,0.1386440098285675
1777561209590490600,4.26449072265625,1.8631312847137451,-9.626245498657227,0.18579259514808655
1777561209609020200,4.283020263671875,1.9943885803222656,-9.5996732711792,0.19768431782722473
1777561209627549700,4.3015498046875,2.1181867122650146,-9.572322845458984,0.23304453492164612
1777561209646079200,4.320079345703125,2.2199649810791016,-9.547125816345215,0.30742698907852173
1777561209664608800,4.33860888671875,2.3604748249053955,-9.512292861938477,0.3388512134552002
1777561209683138300,4.35713818359375,2.5576610565185547,-9.462135314941406,0.3110591173171997
1777561209701667800,4.375667724609375,2.782104015350342,-9.399211883544922,0.2917349636554718
1777561209720197600,4.39419775390625,3.1121366024017334,-9.293720245361328,0.33431243896484375
1777561209738727200,4.41272705078125,3.628323793411255,-9.097772598266602,0.485976904630661
1777561209757256700,4.431256591796875,4.1683783531188965,-8.848224639892578,0.7098748087882996
1777561209775786200,4.4497861328125,4.6423139572143555,-8.576935768127441,1.0273689031600952
1777561209794315800,4.468315673828125,5.035690784454346,-8.331511497497559,1.182418704032898
1777561209812845300,4.48684521484375,5.304102420806885,-8.183578491210938,1.0324327945709229
1777561209831375000,4.505375,5.4594902992248535,-8.09246826171875,0.9361082911491394
1777561209849904600,4.523904541015625,5.596026420593262,-7.98326301574707,1.0594223737716675
1777561209868434200,4.54243408203125,5.678396224975586,-7.893552780151367,1.2720205783843994
1777561209886963700,4.560963623046875,5.639379501342773,-7.898466110229492,1.4078419208526611
1777561209905493200,4.5794931640625,5.478207588195801,-8.007684707641602,1.4270992279052734
1777561209924023000,4.59802294921875,5.243723392486572,-8.176301956176758,1.349755048751831
1777561209942552600,4.616552490234375,4.962098121643066,-8.368095397949219,1.2340766191482544
1777561209961082000,4.63508203125,4.616569519042969,-8.583545684814453,1.086466670036316
1777561209979611600,4.653611572265625,4.216984748840332,-8.805190086364746,0.925241231918335
1777561209998141200,4.67214111328125,3.798496723175049,-9.008793830871582,0.7638454437255859
1777561210016670700,4.690670654296875,3.369016408920288,-9.18742561340332,0.6413419246673584
1777561210035200500,4.709200439453125,2.910027503967285,-9.345375061035156,0.6050563454627991
1777561210053730000,4.72772998046875,2.4609596729278564,-9.470064163208008,0.6572376489639282
1777561210072259600,4.746259521484375,2.1561927795410156,-9.542092323303223,0.685347318649292
1777561210090789400,4.764789306640625,1.9543043375015259,-9.58364200592041,0.7105579972267151
1777561210109319000,4.78331884765625,1.6982049942016602,-9.632349967956543,0.7101613283157349
1777561210127848400,4.801848388671875,1.609623908996582,-9.65514850616455,0.5979979634284973
1777561210146378200,4.820378173828125,1.6385576725006104,-9.659492492675781,0.42393168807029724
1777561210164907800,4.83890771484375,1.6466927528381348,-9.663829803466797,0.26303887367248535
1777561210183437300,4.857437255859375,1.5815585851669312,-9.67720890045166,0.1438552588224411
1777561210201967000,4.875967041015625,1.502416968345642,-9.690749168395996,0.05016350373625755
1777561210220496600,4.89449658203125,1.509173035621643,-9.689787864685059,0.028243301436305046
1777561210239026200,4.913026123046875,1.5713244676589966,-9.678508758544922,0.16667741537094116
1777561210257555700,4.9315556640625,1.4909770488739014,-9.682512283325195,0.44308286905288696
1777561210276085500,4.95008544921875,1.6100503206253052,-9.662749290466309,0.45759469270706177
1777561210294615000,4.968614990234375,1.9577479362487793,-9.605053901672363,0.2838010787963867
1777561210313144600,4.98714453125,2.3304283618927,-9.524808883666992,0.13231006264686584
1777561210331674400,5.00567431640625,2.599532127380371,-9.455825805664062,0.01313997246325016
1777561210350204000,5.024203857421875,2.551072120666504,-9.469012260437012,-0.01543466281145811
1777561210368733400,5.0427333984375,2.1662142276763916,-9.564347267150879,0.03418295085430145
1777561210387263200,5.06126318359375,1.9375907182693481,-9.612954139709473,0.08505117893218994
1777561210405792800,5.079792724609375,1.9216567277908325,-9.61608600616455,0.09225261211395264
1777561210424322300,5.098322265625,1.8646827936172485,-9.627495765686035,0.06832267343997955
1777561210442852000,5.11685205078125,1.790421485900879,-9.641627311706543,0.06176332011818886
1777561210461381600,5.135381591796875,1.7133060693740845,-9.655484199523926,0.08118964731693268
1777561210479911200,5.1539111328125,1.6258046627044678,-9.670219421386719,0.11833111941814423
1777561210498441000,5.17244091796875,1.5345743894577026,-9.68431282043457,0.17189107835292816
1777561210516970500,5.190970458984375,1.4781959056854248,-9.691437721252441,0.24771235883235931
1777561210535500300,5.209500244140625,1.4826372861862183,-9.688142776489258,0.3347594141960144
1777561210554029800,5.22802978515625,1.5403727293014526,-9.676399230957031,0.40613681077957153
1777561210572559400,5.246559326171875,1.6027636528015137,-9.663103103637695,0.47536683082580566
1777561210591089200,5.265089111328125,1.6625357866287231,-9.6492338180542,0.5464887619018555
1777561210609618700,5.28361865234375,1.7495388984680176,-9.629364967346191,0.6203548312187195
1777561210628148200,5.302148193359375,1.8690232038497925,-9.603659629821777,0.6684855818748474
1777561210646678000,5.320677978515625,2.0057339668273926,-9.572827339172363,0.7130157351493835
1777561210665207800,5.339207763671875,2.1407546997070312,-9.538735389709473,0.774658203125
1777561210683737300,5.3577373046875,2.299764633178711,-9.497779846191406,0.8207541704177856
1777561210702267000,5.376266845703125,2.4958503246307373,-9.443849563598633,0.8687980771064758
1777561210720796700,5.394796630859375,2.7827930450439453,-9.358370780944824,0.9205078482627869
1777561210739326200,5.413326171875,3.1899218559265137,-9.220022201538086,0.9929637312889099
1777561210757856000,5.43185595703125,3.7031054496765137,-9.005084037780762,1.168700933456421
1777561210776385500,5.450385498046875,4.203210353851318,-8.748857498168945,1.400323748588562
1777561210794915300,5.468915283203125,4.651875019073486,-8.48566722869873,1.5886821746826172
1777561210813444900,5.48744482421875,5.018215656280518,-8.24671745300293,1.726138949394226
1777561210831974700,5.505974609375,5.319573402404785,-8.050223350524902,1.7511224746704102
1777561210850504200,5.524504150390625,5.500576019287109,-7.937211513519287,1.7072570323944092
1777561210869034000,5.543033935546875,5.599289417266846,-7.866046905517578,1.7157084941864014
1777561210887563500,5.5615634765625,5.634191513061523,-7.828579425811768,1.7718958854675293
1777561210906093000,5.580093017578125,5.572412014007568,-7.866130828857422,1.8007205724716187
1777561210924622800,5.598622802734375,5.408382415771484,-7.989706993103027,1.7562414407730103
1777561210943152400,5.61715234375,5.164944171905518,-8.175495147705078,1.6294203996658325
1777561210961682200,5.63568212890625,4.847258567810059,-8.40263843536377,1.4388010501861572
1777561210980212000,5.6542119140625,4.444173336029053,-8.654967308044434,1.229325294494629
1777561210998741500,5.672741455078125,3.982830286026001,-8.901599884033203,1.0339146852493286
1777561211017271000,5.69127099609375,3.4982571601867676,-9.123613357543945,0.8320263028144836
1777561211035800800,5.70980078125,3.0095908641815186,-9.312226295471191,0.6286292672157288
1777561211054330600,5.72833056640625,2.508288621902466,-9.467753410339355,0.49043652415275574
1777561211072860200,5.746860107421875,2.0188002586364746,-9.583580017089844,0.49983254075050354
1777561211091389700,5.7653896484375,1.6464349031448364,-9.647034645080566,0.6279957890510559
1777561211109919500,5.78391943359375,1.4824187755584717,-9.666789054870605,0.7252800464630127
1777561211128449300,5.80244921875,1.248181700706482,-9.69660758972168,0.7669717669487
1777561211146978800,5.820978759765625,1.021066427230835,-9.7283296585083,0.6981562376022339
1777561211165508600,5.839508544921875,1.0554869174957275,-9.730550765991211,0.6104968786239624
1777561211184038100,5.8580380859375,1.1879276037216187,-9.72158432006836,0.5000274777412415
1777561211202568000,5.87656787109375,1.2842456102371216,-9.715604782104492,0.3579327464103699
1777561211221097700,5.89509765625,1.2754762172698975,-9.720325469970703,0.2425469160079956
1777561211239627300,5.913627197265625,1.2893205881118774,-9.718533515930176,0.2411375343799591
1777561211258157000,5.932156982421875,1.4869651794433594,-9.688879013061523,0.2914627492427826
1777561211276686600,5.9506865234375,1.6748806238174438,-9.658912658691406,0.26565638184547424
1777561211295216000,5.969216064453125,1.4040907621383667,-9.699634552001953,0.34059542417526245
1777561211313746000,5.987745849609375,1.4722425937652588,-9.687092781066895,0.4038604199886322
1777561211332275700,6.006275634765625,1.8763853311538696,-9.621246337890625,0.28495851159095764
1777561211350805200,6.02480517578125,2.0772488117218018,-9.583015441894531,0.14572453498840332
1777561211369335000,6.0433349609375,1.9875186681747437,-9.602890014648438,0.06831786036491394
1777561211387864600,6.061864501953125,1.6756833791732788,-9.662307739257812,0.04778343066573143
1777561211406394400,6.080394287109375,1.4615336656570435,-9.697072982788086,0.03256659954786301
1777561211424924200,6.098924072265625,1.3540873527526855,-9.712715148925781,0.000940401921980083
1777561211443453700,6.11745361328125,1.2324837446212769,-9.728893280029297,-0.0030199990142136812
1777561211461983500,6.1359833984375,1.1224178075790405,-9.742125511169434,0.03926512598991394
1777561211480513000,6.154512939453125,1.0125738382339478,-9.753698348999023,0.10220158845186234
1777561211499042800,6.173042724609375,0.9328617453575134,-9.760933876037598,0.1559886783361435
1777561211517572600,6.191572509765625,0.8998245596885681,-9.763025283813477,0.20988300442695618
1777561211536102100,6.21010205078125,0.9049502015113831,-9.76091480255127,0.27567753195762634
1777561211554632000,6.2286318359375,0.9552956819534302,-9.755317687988281,0.302595317363739
1777561211573161500,6.247161376953125,1.0293232202529907,-9.746830940246582,0.3318876028060913
1777561211591691300,6.265691162109375,1.1140623092651367,-9.735488891601562,0.38667070865631104
1777561211610221000,6.284220947265625,1.2152818441390991,-9.72193717956543,0.4212181866168976
1777561211628750800,6.302750732421875,1.326889991760254,-9.706755638122559,0.4343334436416626
1777561211647280400,6.3212802734375,1.4567370414733887,-9.687444686889648,0.4491203725337982
1777561211665810200,6.33981005859375,1.583237886428833,-9.666808128356934,0.46536681056022644
1777561211684339700,6.358339599609375,1.7447912693023682,-9.636527061462402,0.5132541656494141
1777561211702869500,6.376869384765625,2.01178240776062,-9.58287525177002,0.5400115251541138
1777561211721399300,6.3953994140625,2.3601553440093994,-9.503327369689941,0.5355632305145264
1777561211739928800,6.4139287109375,2.8147902488708496,-9.374384880065918,0.6068465709686279
1777561211758458600,6.432458740234375,3.3443527221679688,-9.1888427734375,0.7421982288360596
1777561211776988400,6.450988525390625,3.7819983959198,-9.0073881149292,0.8566451668739319
1777561211795518000,6.46951806640625,4.120995044708252,-8.843605041503906,0.9891581535339355
1777561211814047700,6.4880478515625,4.40408992767334,-8.694942474365234,1.082756757736206
1777561211832577300,6.506577392578125,4.559058666229248,-8.609147071838379,1.1260318756103516
1777561211851107000,6.525107177734375,4.629327297210693,-8.57740592956543,1.0806543827056885
1777561211869636900,6.543636962890625,4.659929275512695,-8.565132141113281,1.0459258556365967
1777561211888166400,6.56216650390625,4.64184045791626,-8.570008277893066,1.085667371749878
1777561211906696200,6.5806962890625,4.546374797821045,-8.616905212402344,1.1179490089416504
1777561211925226000,6.59922607421875,4.3726043701171875,-8.71082592010498,1.082695484161377
1777561211943755500,6.617755615234375,4.1215925216674805,-8.848454475402832,0.9421905279159546
1777561211962285300,6.636285400390625,3.8193843364715576,-9.002039909362793,0.7388941645622253
1777561211980815000,6.654815185546875,3.511132001876831,-9.139542579650879,0.5577624440193176
1777561211999344600,6.6733447265625,3.2250449657440186,-9.251062393188477,0.43279242515563965
1777561212017874400,6.69187451171875,2.9270098209381104,-9.351909637451172,0.38051289319992065
1777561212036404200,6.710404296875,2.6166458129882812,-9.443248748779297,0.38548266887664795
1777561212054933800,6.728933837890625,2.3158116340637207,-9.519316673278809,0.4359165132045746
1777561212073463600,6.747463623046875,2.0750415325164795,-9.56971263885498,0.5340242385864258
1777561212091993300,6.765993408203125,1.9365633726119995,-9.589735984802246,0.676081657409668
1777561212110523100,6.784523193359375,1.8995126485824585,-9.59514045715332,0.7039358019828796
1777561212129052700,6.803052734375,1.9110641479492188,-9.59782886505127,0.6323662996292114
1777561212147582500,6.82158251953125,1.9140572547912598,-9.600035667419434,0.5882909297943115
1777561212166112300,6.8401123046875,1.927567481994629,-9.600177764892578,0.5398668050765991
1777561212184641800,6.858641845703125,1.9305028915405273,-9.603939056396484,0.4559577405452728
1777561212203171600,6.877171630859375,1.938080906867981,-9.605207443237305,0.3926892876625061
1777561212221701400,6.895701416015625,1.989882469177246,-9.594413757324219,0.3974669575691223
1777561212240231200,6.914231201171875,2.1415655612945557,-9.556380271911621,0.5095900297164917
1777561212258760700,6.9327607421875,2.400306463241577,-9.487136840820312,0.6349338293075562
1777561212277290500,6.95129052734375,2.5707108974456787,-9.45450210571289,0.4173888862133026
1777561212295820000,6.969820068359375,2.5626657009124756,-9.461627006530762,0.2841593623161316
1777561212314349800,6.988349853515625,2.5041446685791016,-9.472945213317871,0.40365615487098694
1777561212332879600,7.006879638671875,2.6596968173980713,-9.427146911621094,0.47466182708740234
1777561212351409200,7.0254091796875,2.697697877883911,-9.420626640319824,0.3802678883075714
1777561212369939000,7.04393896484375,2.4120142459869385,-9.504792213439941,0.10726402699947357
1777561212388468700,7.06246875,1.9105958938598633,-9.614879608154297,-0.27221688628196716
1777561212406998500,7.08099853515625,1.3050987720489502,-9.70059871673584,-0.6045727133750916
1777561212425528000,7.099528076171875,0.7129277586936951,-9.744868278503418,-0.8364675045013428
1777561212444057900,7.118057861328125,0.23582808673381805,-9.75333309173584,-0.9936118125915527
1777561212462587600,7.136587646484375,-0.16749334335327148,-9.747871398925781,-1.0589295625686646
1777561212481117200,7.1551171875,-0.5640354752540588,-9.729070663452148,-1.0942778587341309
1777561212499647000,7.17364697265625,-0.9333261847496033,-9.69826889038086,-1.1148382425308228
1777561212518176800,7.1921767578125,-1.2224926948547363,-9.672134399414062,-1.061000943183899
1777561212536706600,7.21070654296875,-1.4214359521865845,-9.656733512878418,-0.9473103880882263
1777561212555236400,7.229236328125,-1.6253091096878052,-9.638486862182617,-0.7926743030548096
1777561212573766000,7.247765869140625,-1.8473279476165771,-9.612455368041992,-0.598734974861145
1777561212592295700,7.266295654296875,-2.0567753314971924,-9.581743240356445,-0.36089953780174255
1777561212610825500,7.284825439453125,-2.210789680480957,-9.552921295166016,-0.15647518634796143
1777561212629355000,7.30335498046875,-2.336390495300293,-9.524176597595215,-0.041784755885601044
1777561212647884800,7.321884765625,-2.447939872741699,-9.496175765991211,0.024825971573591232
1777561212666414600,7.34041455078125,-2.519272804260254,-9.47734546661377,0.059721533209085464
1777561212684944400,7.3589443359375,-2.5778210163116455,-9.46157169342041,0.06234493851661682
1777561212703474000,7.377473876953125,-2.6336636543273926,-9.446290016174316,0.042645324021577835
1777561212722003700,7.396003662109375,-2.6521756649017334,-9.441154479980469,0.030811304226517677
1777561212740533500,7.414533447265625,-2.6303298473358154,-9.44717025756836,0.05227009952068329
1777561212759063000,7.43306298828125,-2.574821949005127,-9.462282180786133,0.07684022188186646
1777561212777592800,7.4515927734375,-2.44415283203125,-9.49696159362793,0.0649554431438446
1777561212796122600,7.47012255859375,-2.2120022773742676,-9.553919792175293,0.006862738635390997
1777561212814652400,7.48865234375,-1.8697214126586914,-9.62635326385498,-0.08858834952116013
1777561212833182200,7.50718212890625,-1.3656175136566162,-9.7098388671875,-0.15655553340911865
1777561212851711700,7.525711669921875,-0.6974958181381226,-9.780855178833008,-0.13698793947696686
1777561212870241500,7.544241455078125,0.05944272503256798,-9.80643367767334,-0.02678757905960083
1777561212888771300,7.562771240234375,0.7254720330238342,-9.778446197509766,0.1614350825548172
1777561212907300900,7.58130078125,1.2438923120498657,-9.720125198364258,0.3772061765193939
1777561212925830700,7.59983056640625,1.6592525243759155,-9.642315864562988,0.665596067905426
1777561212944360400,7.6183603515625,2.0859122276306152,-9.53142261505127,0.9855613112449646
1777561212962890000,7.636889892578125,2.605552911758423,-9.381996154785156,1.1660292148590088
1777561212981419800,7.655419677734375,3.0975558757781982,-9.222264289855957,1.235067367553711
1777561212999949600,7.673949462890625,3.417159080505371,-9.098596572875977,1.3072736263275146
1777561213018479400,7.692479248046875,3.614887237548828,-9.003989219665527,1.425185203552246
1777561213037009200,7.711009033203125,3.955106019973755,-8.851369857788086,1.476747751235962
1777561213055538700,7.72953857421875,4.27890157699585,-8.694299697875977,1.5068310499191284
1777561213074068500,7.748068359375,4.503420829772949,-8.565799713134766,1.5863947868347168
1777561213092598300,7.766598388671875,4.649666786193848,-8.464252471923828,1.7051151990890503
1777561213111127800,7.7851279296875,4.736835956573486,-8.395469665527344,1.8024568557739258
1777561213129657600,7.80365771484375,4.765411853790283,-8.37170124053955,1.8373472690582275
1777561213148187400,7.8221875,4.7413105964660645,-8.391736030578613,1.808068871498108
1777561213166717200,7.84071728515625,4.6728386878967285,-8.451553344726562,1.7047576904296875
1777561213185247000,7.8592470703125,4.568154811859131,-8.543968200683594,1.5175515413284302
1777561213203776500,7.877776611328125,4.453502178192139,-8.644814491271973,1.266452431678772
1777561213222306300,7.896306396484375,4.371667385101318,-8.723713874816895,0.9776128530502319
1777561213240836000,7.914836181640625,4.369182109832764,-8.752253532409668,0.6918773651123047
1777561213259366000,7.933365966796875,4.4007086753845215,-8.747849464416504,0.5284754037857056
1777561213277895400,7.9518955078125,4.378161907196045,-8.761226654052734,0.49293118715286255
1777561213296425200,7.97042529296875,4.323553562164307,-8.784613609313965,0.5548222661018372
1777561213314955000,7.988955078125,4.318057060241699,-8.777706146240234,0.6903873085975647
1777561213333484800,8.00748486328125,4.445564270019531,-8.690553665161133,0.9389520287513733
1777561213352014600,8.0260146484375,4.534181594848633,-8.610613822937012,1.2119866609573364
1777561213370544000,8.044544189453125,4.39093017578125,-8.664225578308105,1.3495601415634155
1777561213389074000,8.063073974609376,4.163898468017578,-8.804457664489746,1.1462403535842896
1777561213407603700,8.081603759765626,4.0037007331848145,-8.90433120727539,0.9239252805709839
1777561213426133500,8.100133544921874,3.7251644134521484,-9.034841537475586,0.8155831098556519
1777561213444663000,8.1186630859375,3.288330316543579,-9.222030639648438,0.5580382347106934
1777561213463192800,8.13719287109375,2.747086763381958,-9.409515380859375,0.291453093290329
1777561213481722600,8.15572265625,2.2196953296661377,-9.548842430114746,0.25085529685020447
1777561213500252400,8.17425244140625,1.9443836212158203,-9.606200218200684,0.332669198513031
1777561213518782200,8.1927822265625,1.7837942838668823,-9.63869857788086,0.2897503972053528
1777561213537311700,8.211311767578126,1.5135637521743774,-9.687576293945312,0.17428521811962128
1777561213555841500,8.229841552734374,1.1425918340682983,-9.739742279052734,-0.04787479341030121
1777561213574371300,8.248371337890624,0.7175310254096985,-9.77287769317627,-0.38260987401008606
1777561213592901000,8.266901123046875,0.2838239073753357,-9.780077934265137,-0.6632605791091919
1777561213611430700,8.2854306640625,-0.11203580349683762,-9.770732879638672,-0.8310218453407288
1777561213629960400,8.30396044921875,-0.42645663022994995,-9.75853157043457,-0.8715358972549438
1777561213648490200,8.322490234375,-0.6689883470535278,-9.748968124389648,-0.8249086141586304
1777561213667019800,8.341019775390626,-0.8998518586158752,-9.736505508422852,-0.749067485332489
1777561213685549600,8.359549560546874,-1.121302843093872,-9.719828605651855,-0.6618143320083618
1777561213704079400,8.378079345703124,-1.318366527557373,-9.701684951782227,-0.5564279556274414
1777561213722609200,8.396609130859375,-1.5162516832351685,-9.67825984954834,-0.45017075538635254
1777561213741139000,8.415138916015625,-1.7207882404327393,-9.647682189941406,-0.36264538764953613
1777561213759668700,8.433668701171875,-1.8773601055145264,-9.621061325073242,-0.28473401069641113
1777561213778198300,8.4521982421875,-2.004009962081909,-9.597607612609863,-0.20061297714710236
1777561213796728000,8.47072802734375,-2.144411325454712,-9.568718910217285,-0.10729602724313736
1777561213815257900,8.4892578125,-2.278113842010498,-9.53836727142334,-0.011691207066178322
1777561213833787600,8.50778759765625,-2.392035961151123,-9.510175704956055,0.07138669490814209
1777561213852317200,8.526317138671875,-2.4730844497680664,-9.488814353942871,0.128976508975029
1777561213870847000,8.544846923828125,-2.52290678024292,-9.474785804748535,0.18377310037612915
1777561213889376800,8.563376708984375,-2.5595552921295166,-9.463668823242188,0.24088582396507263
1777561213907906600,8.581906494140625,-2.5749967098236084,-9.458394050598145,0.2802850306034088
1777561213926436400,8.600436279296876,-2.5490849018096924,-9.4651460647583,0.28905823826789856
1777561213944966000,8.6189658203125,-2.4440736770629883,-9.494100570678711,0.24280692636966705
1777561213963495700,8.63749560546875,-2.247422456741333,-9.54454231262207,0.14556145668029785
1777561213982025500,8.656025390625,-1.9716004133224487,-9.606412887573242,-0.0021019852720201015
1777561214000555300,8.67455517578125,-1.5483852624893188,-9.682720184326172,-0.13340511918067932
1777561214019084800,8.693084716796875,-0.9325035810470581,-9.760732650756836,-0.17003560066223145
1777561214037614600,8.711614501953125,-0.1967543512582779,-9.803971290588379,-0.11757954210042953
1777561214056144400,8.730144287109376,0.5060003399848938,-9.79357624053955,0.014918753877282143
1777561214074674200,8.748674072265626,1.0753321647644043,-9.7455415725708,0.19615522027015686
1777561214093204000,8.767203857421874,1.5527743101119995,-9.672919273376465,0.4403550922870636
1777561214111733800,8.785733642578125,1.9875802993774414,-9.575279235839844,0.7307183146476746
1777561214130263300,8.80426318359375,2.4710474014282227,-9.446554183959961,0.9093583226203918
1777561214148793000,8.82279296875,2.94701886177063,-9.305706977844238,0.9430144429206848
1777561214167323000,8.841322998046875,3.3079676628112793,-9.183267593383789,0.946211576461792
1777561214185852700,8.859852783203126,3.523547410964966,-9.096960067749023,1.0001634359359741
1777561214204382200,8.87838232421875,3.7763853073120117,-8.992464065551758,1.0221959352493286
1777561214222912000,8.896912109375,4.092358112335205,-8.850164413452148,1.0476596355438232
1777561214241441800,8.91544189453125,4.365350246429443,-8.70937442779541,1.122900128364563
1777561214259971600,8.9339716796875,4.579614162445068,-8.581789016723633,1.2451627254486084
1777561214278501400,8.95250146484375,4.736509799957275,-8.47777271270752,1.3650025129318237
1777561214297031200,8.97103125,4.813525676727295,-8.422451972961426,1.4361947774887085
1777561214315560700,8.989560791015625,4.809527397155762,-8.422279357910156,1.450530767440796
1777561214334090500,9.008090576171876,4.712787628173828,-8.48399543762207,1.4077744483947754
1777561214352620300,9.026620361328124,4.51708984375,-8.608880043029785,1.2858750820159912
1777561214371150000,9.045150146484374,4.234281539916992,-8.779837608337402,1.0750254392623901
1777561214389679900,9.063679931640625,3.8874502182006836,-8.968313217163086,0.7921386957168579
1777561214408209400,9.08220947265625,3.5157341957092285,-9.14316177368164,0.46108514070510864
1777561214426739200,9.1007392578125,3.213343381881714,-9.2645845413208,0.1108616515994072
1777561214445269000,9.11926904296875,3.1060967445373535,-9.299703598022461,-0.19504739344120026
1777561214463798800,9.137798828125,3.186121702194214,-9.269155502319336,-0.3189937472343445
1777561214482328300,9.156328369140626,3.316586494445801,-9.22547721862793,-0.2474089413881302
1777561214500858000,9.174858154296874,3.458993911743164,-9.17540454864502,-0.1330394148826599
1777561214519388000,9.193387939453125,3.6695199012756348,-9.094040870666504,0.058528922498226166
1777561214537917700,9.211917724609375,3.827679395675659,-9.023832321166992,0.2995081841945648
1777561214556447500,9.230447509765625,3.851410150527954,-9.007304191589355,0.4533137381076813
1777561214574977300,9.248977294921875,3.905165433883667,-8.984301567077637,0.4498850405216217
1777561214593506800,9.2675068359375,4.023752689361572,-8.931337356567383,0.4593562185764313
1777561214612036600,9.28603662109375,3.9642162322998047,-8.946179389953613,0.6490415930747986
1777561214630566400,9.30456640625,3.895181179046631,-8.977202415466309,0.6385782361030579
1777561214649096200,9.32309619140625,3.7829272747039795,-9.026360511779785,0.6202197074890137
1777561214667626000,9.3416259765625,3.5626730918884277,-9.115765571594238,0.6168987154960632
1777561214686155500,9.360155517578125,3.2382540702819824,-9.240455627441406,0.545973002910614
1777561214704685300,9.378685302734375,2.924544334411621,-9.350082397460938,0.43975427746772766
1777561214723215000,9.397215087890626,2.6941258907318115,-9.420172691345215,0.41524460911750793
1777561214741745000,9.415744873046876,2.5404253005981445,-9.458670616149902,0.5001853108406067
1777561214760274700,9.434274658203124,2.276217222213745,-9.523502349853516,0.5404825806617737
1777561214778804500,9.452804443359375,2.0693359375,-9.5758638381958,0.4371074140071869
1777561214797334000,9.471333984375,1.8976092338562012,-9.618914604187012,0.21433404088020325
1777561214815863800,9.48986376953125,1.663656234741211,-9.664458274841309,-0.029420804232358932
1777561214834393600,9.5083935546875,1.4113651514053345,-9.701902389526367,-0.22697369754314423
1777561214852923400,9.52692333984375,1.2090502977371216,-9.725672721862793,-0.34622687101364136
1777561214871453200,9.545453125,1.090891718864441,-9.739341735839844,-0.35433652997016907
1777561214889982700,9.563982666015624,1.0723134279251099,-9.744189262390137,-0.26701927185058594
1777561214908512500,9.582512451171874,1.1055907011032104,-9.743318557739258,-0.12570899724960327
1777561214927042300,9.601042236328125,1.1461652517318726,-9.739377975463867,0.03468647971749306
1777561214945572000,9.619572021484375,1.2025108337402344,-9.731082916259766,0.17428945004940033
1777561214964102000,9.638101806640625,1.3148949146270752,-9.714370727539062,0.26915523409843445
1777561214982631700,9.656631591796875,1.4690965414047241,-9.691105842590332,0.30760490894317627
1777561215001161200,9.6751611328125,1.6578490734100342,-9.660202980041504,0.3200281858444214
1777561215019691000,9.69369091796875,1.8586102724075317,-9.62157917022705,0.37572136521339417
1777561215038220800,9.712220703125,2.0605390071868896,-9.575992584228516,0.47426837682724
1777561215056750600,9.73075048828125,2.254621744155884,-9.522109031677246,0.6453848481178284
1777561215075280100,9.749280029296875,2.441124677658081,-9.46336555480957,0.8099384903907776
1777561215093810000,9.767809814453125,2.684896945953369,-9.394208908081055,0.8429514765739441
1777561215112339700,9.786339599609375,2.914713144302368,-9.326400756835938,0.8325173854827881
1777561215130869500,9.804869384765626,3.098787546157837,-9.2655668258667,0.8468633890151978
1777561215149399300,9.8233994140625,3.2923309803009033,-9.195084571838379,0.8839432597160339
1777561215167929000,9.84192919921875,3.5695528984069824,-9.086416244506836,0.93044513463974
1777561215186459000,9.860458984375,4.0050811767578125,-8.895968437194824,0.995727002620697
1777561215204988400,9.878988525390625,4.4719953536987305,-8.646778106689453,1.1852778196334839
1777561215223518200,9.897518310546875,4.825802803039551,-8.423860549926758,1.3858577013015747
1777561215242048000,9.916048095703125,5.165507793426514,-8.201555252075195,1.4907748699188232
1777561215260577800,9.934577880859376,5.4658918380737305,-7.982070446014404,1.606544017791748
1777561215279107300,9.953107421875,5.584812164306641,-7.899127006530762,1.6075032949447632
1777561215297637000,9.97163720703125,5.573391914367676,-7.92551326751709,1.5145701169967651
1777561215316167000,9.9901669921875,5.450167655944824,-8.033853530883789,1.3868108987808228
1777561215334696700,10.00869677734375,5.275399684906006,-8.158529281616211,1.3337724208831787
1777561215353226200,10.027226318359375,5.059940814971924,-8.299368858337402,1.2991760969161987
1777561215371756000,10.045756103515625,4.730534076690674,-8.503232955932617,1.2196154594421387
1777561215390285800,10.064285888671876,4.287210464477539,-8.754587173461914,1.0711816549301147
1777561215408815600,10.082815673828126,3.8060972690582275,-8.99086856842041,0.9210323095321655
1777561215427345400,10.101345458984374,3.336679697036743,-9.184094429016113,0.8302897810935974
1777561215445875200,10.119875244140625,2.8799750804901123,-9.337907791137695,0.8243867754936218
1777561215464404700,10.13840478515625,2.4441821575164795,-9.454327583312988,0.9011455774307251
1777561215482934500,10.1569345703125,2.093980312347412,-9.526378631591797,1.0167288780212402
1777561215501464300,10.17546435546875,1.942121148109436,-9.556401252746582,1.0362216234207153
1777561215519994000,10.193994140625,1.8854776620864868,-9.5740385055542,0.9762895703315735
1777561215538524000,10.21252392578125,1.8238736391067505,-9.595911979675293,0.8731158375740051
1777561215557053400,10.231053466796874,1.7506394386291504,-9.619244575500488,0.7587929368019104
1777561215575583200,10.249583251953124,1.6086426973342896,-9.654302597045898,0.6140960454940796
1777561215594113000,10.268113037109375,1.4915434122085571,-9.679879188537598,0.49559178948402405
1777561215612642800,10.286642822265625,1.5447487831115723,-9.671001434326172,0.5058283805847168
1777561215631172600,10.305172607421875,1.5430879592895508,-9.661050796508789,0.6733251810073853
1777561215649702400,10.323702392578125,1.628787875175476,-9.652377128601074,0.5908079147338867
1777561215668232000,10.34223193359375,1.772341012954712,-9.641100883483887,0.2799363136291504
1777561215686761700,10.36076171875,1.908133864402771,-9.61447811126709,0.3020370602607727
1777561215705291500,10.37929150390625,2.137831449508667,-9.567301750183105,0.25843778252601624
1777561215723821300,10.3978212890625,2.2575719356536865,-9.542315483093262,0.13403522968292236
1777561215742350800,10.416350830078125,2.145810127258301,-9.5681791305542,0.12586359679698944
1777561215760880600,10.434880615234375,1.9185744524002075,-9.615846633911133,0.15794505178928375
1777561215779410400,10.453410400390625,1.7481473684310913,-9.646371841430664,0.2487511783838272
1777561215797940200,10.471940185546876,1.7020891904830933,-9.65227222442627,0.32698118686676025
1777561215816470000,10.490469970703124,1.6896101236343384,-9.653366088867188,0.3579361140727997
1777561215834999600,10.50899951171875,1.6824476718902588,-9.654606819152832,0.358211874961853
1777561215853529300,10.527529296875,1.6855241060256958,-9.654131889343262,0.35656479001045227
1777561215872059100,10.54605908203125,1.70867121219635,-9.650176048278809,0.35343536734580994
1777561215890589000,10.5645888671875,1.7673799991607666,-9.639909744262695,0.34481358528137207
1777561215909118500,10.583118408203125,1.8455597162246704,-9.624201774597168,0.3728877604007721
1777561215927648300,10.601648193359376,1.9359163045883179,-9.602351188659668,0.46634480357170105
1777561215946178000,10.620177978515626,2.0648891925811768,-9.571664810180664,0.5383882522583008
1777561215964707800,10.638707763671874,2.222264528274536,-9.538976669311523,0.48974817991256714
1777561215983237600,10.657237548828125,2.3663723468780518,-9.509227752685547,0.38111555576324463
1777561216001767400,10.675767333984375,2.502042293548584,-9.47652816772461,0.3249486982822418
1777561216020297000,10.694296875,2.687638282775879,-9.425244331359863,0.3343043625354767
1777561216038826800,10.71282666015625,3.022223711013794,-9.32263469696045,0.35357773303985596
1777561216057356500,10.7313564453125,3.550236463546753,-9.129164695739746,0.4738854765892029
1777561216075886300,10.74988623046875,4.100588321685791,-8.876038551330566,0.7559813857078552
1777561216094416000,10.768415771484374,4.601557731628418,-8.600859642028809,1.010568380355835
1777561216112945700,10.786945556640624,5.030579090118408,-8.34978199005127,1.069960355758667
1777561216131475200,10.80547509765625,5.317656517028809,-8.17088794708252,1.0627830028533936
1777561216150005000,10.8240048828125,5.502682685852051,-8.050216674804688,1.0415812730789185
1777561216168534800,10.84253466796875,5.603700160980225,-7.98423957824707,1.0103768110275269
1777561216187064600,10.861064697265626,5.633369445800781,-7.962093830108643,1.0200982093811035
1777561216205594400,10.879594482421876,5.57513427734375,-7.994192123413086,1.0868093967437744
1777561216224124200,10.898124267578124,5.4028000831604,-8.107941627502441,1.1141932010650635
1777561216242654000,10.916654052734375,5.126637935638428,-8.295851707458496,1.0328766107559204
1777561216261183500,10.93518359375,4.777883529663086,-8.51728630065918,0.8933459520339966
1777561216279713300,10.95371337890625,4.387429237365723,-8.737597465515137,0.7584467530250549
1777561216298243000,10.9722431640625,3.949507713317871,-8.952507019042969,0.6514566540718079
1777561216316772600,10.990772705078125,3.4878368377685547,-9.147769927978516,0.568942129611969
1777561216335302400,11.009302490234376,3.014085054397583,-9.317747116088867,0.5150304436683655
1777561216353832200,11.027832275390624,2.5021097660064697,-9.465392112731934,0.5623041987419128
1777561216372362000,11.046362060546874,2.0122697353363037,-9.57032585144043,0.7280298471450806
1777561216390891800,11.064891845703125,1.7229769229888916,-9.612823486328125,0.8918266296386719
1777561216409421300,11.08342138671875,1.519728660583496,-9.63248062133789,1.037363886833191
1777561216427951000,11.101951171875,1.378078579902649,-9.65552043914795,1.0208910703659058
1777561216446481000,11.12048095703125,1.361724615097046,-9.673346519470215,0.8616660833358765
1777561216465010400,11.139010498046876,1.3751729726791382,-9.689889907836914,0.6207377910614014
1777561216483540200,11.157540283203126,1.2785111665725708,-9.714837074279785,0.3971521258354187
1777561216502070000,11.176070068359374,1.1142603158950806,-9.739645957946777,0.2609732151031494
1777561216520599800,11.194599853515625,1.0914503335952759,-9.741490364074707,0.28719228506088257
1777561216539129600,11.213129638671875,1.029924750328064,-9.735486030578613,0.5744099617004395
1777561216557659400,11.231659423828125,1.0072730779647827,-9.725909233093262,0.7499889135360718
1777561216576189000,11.25018896484375,1.2407890558242798,-9.713409423828125,0.5296433568000793
1777561216594718700,11.26871875,1.541251301765442,-9.67791748046875,0.3644694983959198
1777561216613248500,11.28724853515625,1.8381996154785156,-9.630706787109375,0.20219793915748596
1777561216631778000,11.305778076171874,1.8931457996368408,-9.621667861938477,0.09949170798063278
1777561216650307800,11.324307861328125,1.620438575744629,-9.671250343322754,0.10714936256408691
1777561216668837600,11.342837646484375,1.2301162481307983,-9.728002548217773,0.15221861004829407
1777561216687367400,11.361367431640625,1.0027114152908325,-9.753861427307129,0.16478408873081207
1777561216705897000,11.37989697265625,0.9344959259033203,-9.760849952697754,0.15136778354644775
1777561216724426800,11.3984267578125,0.8610881567001343,-9.768213272094727,0.10453351587057114
1777561216742956500,11.41695654296875,0.7472553849220276,-9.778057098388672,0.04012693092226982
1777561216761486300,11.435486328125,0.6470998525619507,-9.785276412963867,0.0014089418109506369
1777561216780015900,11.454015869140624,0.5688096880912781,-9.790056228637695,0.04060357064008713
1777561216798545700,11.472545654296875,0.5725300908088684,-9.78865909576416,0.15732832252979279
1777561216817075500,11.491075439453125,0.7147209644317627,-9.775177001953125,0.32478585839271545
1777561216835605000,11.50960498046875,0.8975703120231628,-9.755946159362793,0.4316234588623047
1777561216854134800,11.528134765625,1.0349117517471313,-9.74079704284668,0.4650062918663025
1777561216872664600,11.54666455078125,1.1599162817001343,-9.726655960083008,0.4659903943538666
1777561216891194400,11.5651943359375,1.3168061971664429,-9.708255767822266,0.43149304389953613
1777561216909724200,11.58372412109375,1.5080889463424683,-9.68167781829834,0.4014677107334137
1777561216928253700,11.602253662109375,1.6720662117004395,-9.654459953308105,0.40741199254989624
1777561216946783500,11.620783447265625,1.7980992794036865,-9.630881309509277,0.4281894266605377
1777561216965313300,11.639313232421875,1.926795244216919,-9.605613708496094,0.43592143058776855
1777561216983842800,11.6578427734375,2.0928635597229004,-9.570412635803223,0.44442903995513916
1777561217002372600,11.67637255859375,2.335336923599243,-9.513443946838379,0.45931780338287354
1777561217020902400,11.69490234375,2.7395198345184326,-9.401055335998535,0.5343934893608093
1777561217039432200,11.71343212890625,3.276865243911743,-9.212933540344238,0.7445699572563171
1777561217057961700,11.731961669921875,3.8230245113372803,-8.96541690826416,1.0845168828964233
1777561217076491500,11.750491455078125,4.301458358764648,-8.715311050415039,1.3081305027008057
1777561217095021300,11.769021240234375,4.716826915740967,-8.474549293518066,1.450498342514038
1777561217113551000,11.787551025390625,5.094430446624756,-8.25228214263916,1.4549912214279175
1777561217132080600,11.80608056640625,5.354473114013672,-8.112317085266113,1.3001153469085693
1777561217150610400,11.8246103515625,5.483352184295654,-8.04102897644043,1.2021174430847168
1777561217169140200,11.84314013671875,5.584304332733154,-7.967203617095947,1.228654146194458
1777561217187670000,11.861669921875,5.629575252532959,-7.926159858703613,1.2861820459365845
1777561217206199600,11.880199462890625,5.53333044052124,-7.996045112609863,1.271177887916565
1777561217224729300,11.898729248046875,5.293673515319824,-8.175943374633789,1.1407681703567505
1777561217243259100,11.917259033203125,4.972325325012207,-8.397951126098633,0.9595752954483032
1777561217261788700,11.93578857421875,4.609304428100586,-8.619507789611816,0.7929614782333374
1777561217280318500,11.954318359375,4.195587635040283,-8.83879566192627,0.6656709313392639
1777561217298848300,11.97284814453125,3.726668119430542,-9.053297996520996,0.5657942891120911
1777561217317378000,11.9913779296875,3.2353336811065674,-9.245274543762207,0.47740721702575684
1777561217335907600,12.009907470703125,2.7171990871429443,-9.412575721740723,0.4366145133972168
1777561217354437400,12.028437255859375,2.1939878463745117,-9.545578002929688,0.4886096119880676
1777561217372967200,12.04696728515625,1.7297883033752441,-9.630782127380371,0.6528657674789429
1777561217391496700,12.06549658203125,1.4477511644363403,-9.659425735473633,0.8774372935295105
1777561217410026500,12.084026611328126,1.3787217140197754,-9.65286636352539,1.0448390245437622
1777561217428556300,12.102556396484376,1.284828782081604,-9.6599702835083,1.0975303649902344
1777561217447085800,12.1210859375,1.2319083213806152,-9.677809715270996,0.9963878393173218
1777561217465615600,12.13961572265625,1.260754942893982,-9.688055992126465,0.8499676585197449
1777561217484145400,12.1581455078125,1.3109289407730103,-9.696849822998047,0.6503432393074036
1777561217502675200,12.17667529296875,1.3515621423721313,-9.70329475402832,0.43558329343795776
1777561217521205000,12.195205078125,1.420780897140503,-9.69748306274414,0.33255210518836975
1777561217539734500,12.213734619140626,1.360055685043335,-9.686491966247559,0.701795756816864
1777561217558264300,12.232264404296876,1.2843449115753174,-9.674515724182129,0.9615541100502014
1777561217576794000,12.250794189453124,1.774648904800415,-9.619983673095703,0.6905871033668518
1777561217595323600,12.26932373046875,2.103675603866577,-9.572208404541016,0.34316468238830566
1777561217613853400,12.287853515625,2.132802724838257,-9.570146560668945,0.18397437036037445
1777561217632383200,12.30638330078125,1.869795799255371,-9.62390422821045,0.2339339256286621
1777561217650913000,12.3249130859375,1.527586579322815,-9.680634498596191,0.34954363107681274
1777561217669442600,12.343442626953125,1.3771960735321045,-9.701441764831543,0.39464789628982544
1777561217687972400,12.361972412109376,1.2729030847549438,-9.717267990112305,0.3532751202583313
1777561217706502100,12.380502197265624,1.1610053777694702,-9.732088088989258,0.3300321400165558
1777561217725031700,12.39903173828125,1.0927436351776123,-9.73964786529541,0.3399460017681122
1777561217743561500,12.4175615234375,1.0529338121414185,-9.742976188659668,0.36895909905433655
1777561217762091300,12.43609130859375,1.0293495655059814,-9.744242668151855,0.400716096162796
1777561217780621000,12.45462109375,1.0591905117034912,-9.739118576049805,0.44504591822624207
1777561217799150600,12.473150634765625,1.182517409324646,-9.72109317779541,0.5219057202339172
1777561217817680400,12.491680419921876,1.3434282541275024,-9.698410987854004,0.5535469055175781
1777561217836210200,12.510210205078126,1.4749267101287842,-9.681778907775879,0.5080828070640564
1777561217854739700,12.52873974609375,1.5442156791687012,-9.671411514282227,0.49959754943847656
1777561217873269500,12.54726953125,1.5616326332092285,-9.665989875793457,0.5480222702026367
1777561217891799300,12.56579931640625,1.635764479637146,-9.650144577026367,0.6077542304992676
1777561217910329000,12.5843291015625,1.8361690044403076,-9.614664077758789,0.5975748896598816
1777561217928858600,12.602858642578125,2.0564088821411133,-9.574846267700195,0.5137112140655518
1777561217947388400,12.621388427734376,2.2307748794555664,-9.53686809539795,0.4921139180660248
1777561217965918200,12.639918212890626,2.490967273712158,-9.469038009643555,0.5502622723579407
1777561217984447700,12.65844775390625,2.9087469577789307,-9.345230102539062,0.6133866906166077
1777561218002977500,12.6769775390625,3.435415744781494,-9.156393051147461,0.7271627187728882
1777561218021507300,12.69550732421875,3.960559129714966,-8.912349700927734,1.026837706565857
1777561218049301800,12.7233017578125,4.557596683502197,-8.57205867767334,1.3851029872894287
1777561218067831600,12.74183154296875,4.827898025512695,-8.417755126953125,1.4153416156768799
1777561218086361300,12.760361328125,4.988877773284912,-8.331570625305176,1.3661667108535767
1777561218104891000,12.778890869140625,5.08825159072876,-8.289938926696777,1.2478021383285522
1777561218123420700,12.797420654296875,5.091822147369385,-8.299781799316406,1.1650595664978027
1777561218141950500,12.815950439453125,5.047508716583252,-8.320530891418457,1.2090494632720947
1777561218160480000,12.83447998046875,4.946313858032227,-8.373709678649902,1.2591050863265991
1777561218179009800,12.853009765625,4.730043888092041,-8.50333309173584,1.2208118438720703
1777561218197539600,12.87153955078125,4.4128851890563965,-8.690001487731934,1.0866011381149292
1777561218216069400,12.8900693359375,4.032857894897461,-8.89328670501709,0.9032776951789856
1777561218234599000,12.908598876953125,3.6073524951934814,-9.091233253479004,0.7119492888450623
1777561218253128700,12.927128662109375,3.1522107124328613,-9.270829200744629,0.5344904065132141
1777561218271658500,12.945658447265625,2.6461148262023926,-9.433463096618652,0.4221765697002411
1777561218290188000,12.96418798828125,2.0662357807159424,-9.577409744262695,0.4174746870994568
1777561218308717800,12.9827177734375,1.4866541624069214,-9.679695129394531,0.5135629177093506
1777561218327247600,13.00124755859375,1.0774730443954468,-9.724852561950684,0.6608219742774963
1777561218345777400,13.01977734375,0.9632028341293335,-9.72642993927002,0.7994991540908813
1777561218364307000,13.038306884765625,0.9263097047805786,-9.720020294189453,0.912987470626831
1777561218382836700,13.056836669921875,0.9590533375740051,-9.724141120910645,0.8316730260848999
1777561218401366500,13.075366455078125,1.0287680625915527,-9.73430061340332,0.5961644649505615
1777561218419896000,13.09389599609375,1.1288173198699951,-9.736120223999023,0.3226814568042755
1777561218438425900,13.11242578125,1.2148942947387695,-9.730953216552734,0.054278869181871414
1777561218456955600,13.13095556640625,1.30857515335083,-9.717808723449707,-0.14898410439491272
1777561218475485400,13.1494853515625,1.1531777381896973,-9.734689712524414,0.276344358921051
1777561218494015000,13.168014892578125,1.5235637426376343,-9.667490005493164,0.6235234141349792
1777561218512544800,13.186544677734375,2.041027784347534,-9.585927963256836,0.33848512172698975
1777561218531074600,13.205074462890625,2.2407939434051514,-9.54720401763916,0.012027036398649216
1777561218549604000,13.22360400390625,2.1796762943267822,-9.56115436553955,-0.06102999672293663
1777561218568134000,13.2421337890625,1.934638500213623,-9.613734245300293,0.06072983890771866
1777561218586663700,13.26066357421875,1.650002121925354,-9.66455364227295,0.21047745645046234
1777561218605193200,13.279193115234374,1.4631856679916382,-9.693083763122559,0.271290123462677
1777561218623722500,13.297722412109374,1.3507864475250244,-9.709306716918945,0.2740885615348816
1777561218642252300,13.316252197265625,1.2469284534454346,-9.723151206970215,0.275469034910202
1777561218670047000,13.344046875,1.1036258935928345,-9.740951538085938,0.2573966979980469
1777561218688576500,13.362576416015624,1.038193702697754,-9.749302864074707,0.2089231014251709
1777561218707106300,13.381106201171875,1.0061731338500977,-9.753350257873535,0.17365439236164093
1777561218725635800,13.3996357421875,1.018264651298523,-9.751126289367676,0.2214760035276413
1777561218744165600,13.41816552734375,1.0874625444412231,-9.74062728881836,0.32863444089889526
1777561218762695400,13.4366953125,1.1577060222625732,-9.730246543884277,0.390405535697937
1777561218781225000,13.455224853515626,1.2089334726333618,-9.724815368652344,0.3698993921279907
1777561218799754800,13.473754638671876,1.2904162406921387,-9.716842651367188,0.29694128036499023
1777561218818284500,13.492284423828124,1.3988680839538574,-9.703252792358398,0.24584084749221802
1777561218836814300,13.510814453125,1.581465244293213,-9.674084663391113,0.28536561131477356
1777561218855343900,13.52934375,1.9430009126663208,-9.605817794799805,0.35129934549331665
1777561218873873700,13.547873779296875,2.444173812866211,-9.48770523071289,0.42410793900489807
1777561218892403500,13.566403564453125,3.003344774246216,-9.317540168762207,0.5777100324630737
1777561218910933000,13.58493310546875,3.57535719871521,-9.088305473327637,0.88877272605896
1777561218929462800,13.603462890625,4.051517963409424,-8.836283683776855,1.2944849729537964
1777561218947992600,13.62199267578125,4.44132137298584,-8.622184753417969,1.4501715898513794
1777561218966522400,13.6405224609375,4.7039361000061035,-8.50410270690918,1.3128656148910522
1777561218985052000,13.659052001953125,4.806727886199951,-8.479722023010254,1.0770615339279175
1777561219003581700,13.677581787109375,4.813990592956543,-8.49623966217041,0.899878978729248
1777561219022111500,13.696111572265625,4.848646640777588,-8.474172592163086,0.9216316938400269
1777561219040641000,13.71464111328125,4.869314670562744,-8.451645851135254,1.0148156881332397
1777561219059170800,13.7331708984375,4.72206449508667,-8.529258728027344,1.0603034496307373
1777561219077700600,13.75170068359375,4.449981689453125,-8.678241729736328,1.0276939868927002
1777561219096230400,13.77023046875,4.147305488586426,-8.834632873535156,0.9589093923568726
1777561219114760000,13.788760009765625,3.828080654144287,-8.984341621398926,0.8931938409805298
1777561219133289700,13.807289794921875,3.514355421066284,-9.116984367370605,0.8368299603462219
1777561219151819500,13.825819580078125,3.2153849601745605,-9.230535507202148,0.7930344343185425
1777561219170349000,13.84434912109375,2.890645742416382,-9.340167999267578,0.7588279247283936
1777561219188878800,13.86287890625,2.513237476348877,-9.449295997619629,0.7515521049499512
1777561219207408600,13.88140869140625,2.120945453643799,-9.542451858520508,0.7833096981048584
1777561219225938400,13.8999384765625,1.816043496131897,-9.599322319030762,0.8517029285430908
1777561219244468000,13.918468017578125,1.6427092552185059,-9.628783226013184,0.8708831667900085
1777561219262997800,13.936997802734375,1.7035833597183228,-9.627379417419434,0.7627250552177429
1777561219281527600,13.955527587890625,1.8315632343292236,-9.613212585449219,0.6339600682258606
1777561219300057000,13.97405712890625,1.9247268438339233,-9.598024368286133,0.5862957239151001
1777561219318587000,13.9925869140625,2.0508344173431396,-9.572214126586914,0.5806690454483032
1777561219337116700,14.01111669921875,2.209641218185425,-9.53675651550293,0.5815067887306213
1777561219355646500,14.029646484375,2.361020088195801,-9.499350547790527,0.598586916923523
1777561219374176000,14.048176025390624,2.431565761566162,-9.47451400756836,0.7010399103164673
1777561219392705800,14.066705810546875,2.451281785964966,-9.464900016784668,0.7597883939743042
1777561219411235600,14.085235595703125,2.467893123626709,-9.475852012634277,0.5367608666419983
1777561219429765000,14.10376513671875,2.3370909690856934,-9.518492698669434,0.3266334533691406
1777561219448295000,14.122294921875,2.230546712875366,-9.544829368591309,0.3021356165409088
1777561219466824700,14.14082470703125,2.4001972675323486,-9.50638198852539,0.19528910517692566
1777561219485354200,14.159354248046874,2.487009048461914,-9.486047744750977,0.008871255442500114
1777561219503884000,14.177884033203124,2.226233720779419,-9.546717643737793,-0.272855281829834
1777561219522413800,14.196413818359375,1.6157684326171875,-9.657919883728027,-0.5331798791885376
1777561219540943600,14.214943603515625,0.9263659715652466,-9.736588478088379,-0.7149019837379456
1777561219559473200,14.23347314453125,0.3529031276702881,-9.765873908996582,-0.8207051753997803
1777561219578003000,14.2520029296875,-0.1292402595281601,-9.76462459564209,-0.8976597785949707
1777561219596532700,14.27053271484375,-0.5283483862876892,-9.744901657104492,-0.9633968472480774
1777561219615062300,14.289062255859376,-0.8492974638938904,-9.719747543334961,-0.987721860408783
1777561219633592000,14.307592041015624,-1.1203562021255493,-9.695002555847168,-0.9602640867233276
1777561219652121900,14.326121826171875,-1.3527235984802246,-9.670858383178711,-0.9027856588363647
1777561219670651600,14.344651611328125,-1.6025116443634033,-9.640218734741211,-0.8176368474960327
1777561219689181200,14.36318115234375,-1.8521530628204346,-9.603260040283203,-0.7192497253417969
1777561219707711000,14.3817109375,-2.0620551109313965,-9.569005012512207,-0.5936765670776367
1777561219726240800,14.40024072265625,-2.2297542095184326,-9.5394287109375,-0.44485631585121155
1777561219744770300,14.418770263671876,-2.359919786453247,-9.513958930969238,-0.29280367493629456
1777561219763300000,14.437300048828124,-2.470095157623291,-9.488999366760254,-0.16701574623584747
1777561219781830000,14.455829833984374,-2.5665252208709717,-9.46461296081543,-0.06667149811983109
1777561219800359700,14.474359619140625,-2.6451661586761475,-9.443154335021973,-0.01788121648132801
1777561219818889500,14.492889404296875,-2.6937015056610107,-9.42941951751709,-0.020203957334160805
1777561219837419000,14.5114189453125,-2.7133255004882812,-9.423758506774902,-0.0322590135037899
1777561219855948800,14.52994873046875,-2.705670118331909,-9.425926208496094,-0.04064589738845825
1777561219874478600,14.548478515625,-2.6441802978515625,-9.443315505981445,-0.04986806586384773
1777561219893008100,14.567008056640624,-2.4818592071533203,-9.487035751342773,-0.08315511792898178
1777561219911538000,14.585537841796874,-2.16810941696167,-9.562641143798828,-0.15997304022312164
1777561219930067700,14.604067626953125,-1.712028980255127,-9.652375221252441,-0.26642686128616333
1777561219948597500,14.622597412109375,-1.0933572053909302,-9.739455223083496,-0.3434891700744629
1777561219967127000,14.641126953125,-0.2930756211280823,-9.796937942504883,-0.3232397735118866
1777561219985656800,14.65965673828125,0.4990275204181671,-9.79311752319336,-0.1272691935300827
1777561220004186600,14.6781865234375,1.1585546731948853,-9.73641586303711,0.17422044277191162
1777561220022716200,14.696716064453126,1.6995183229446411,-9.642090797424316,0.5586737990379333
1777561220050510800,14.7245107421875,2.459453582763672,-9.413912773132324,1.224635362625122
1777561220069040400,14.743040283203126,3.065474510192871,-9.199450492858887,1.464028000831604
1777561220087570200,14.761570068359376,3.5721099376678467,-9.002596855163574,1.5374236106872559
1777561220106100000,14.780099853515624,3.7807743549346924,-8.899669647216797,1.6346280574798584
1777561220124629800,14.798629638671875,3.986051559448242,-8.796417236328125,1.7043545246124268
1777561220143159600,14.81715966796875,4.309577465057373,-8.637970924377441,1.727249026298523
1777561220161689000,14.835689208984375,4.579280376434326,-8.488455772399902,1.7738879919052124
1777561220180219000,14.854218994140625,4.7658514976501465,-8.354737281799316,1.9119147062301636
1777561220198748700,14.872748779296876,4.880695343017578,-8.24070930480957,2.107105255126953
1777561220217278200,14.8912783203125,4.929559707641602,-8.175148010253906,2.2442822456359863
1777561220235808000,14.90980810546875,4.90155029296875,-8.174468994140625,2.3072171211242676
1777561220254337800,14.928337890625,4.794183254241943,-8.240655899047852,2.297340154647827
1777561220272867600,14.94686767578125,4.622745990753174,-8.370214462280273,2.177178382873535
1777561220291397400,14.9653974609375,4.416287422180176,-8.542582511901855,1.9212207794189453
1777561220309927000,14.983927001953125,4.226090908050537,-8.704992294311523,1.5917458534240723
1777561220328456700,15.002456787109375,4.1793742179870605,-8.784049987792969,1.2424534559249878
1777561220346986500,15.020986572265626,4.288018703460693,-8.767221450805664,0.9587080478668213
1777561220365516000,15.03951611328125,4.3218560218811035,-8.761171340942383,0.856639564037323
1777561220384045800,15.0580458984375,4.399234294891357,-8.722838401794434,0.8539511561393738
1777561220402575600,15.07657568359375,4.554018020629883,-8.630908012390137,0.9688766002655029
1777561220421105400,15.09510546875,4.780526161193848,-8.47463607788086,1.223718285560608
1777561220439635000,15.113635009765625,5.083929538726807,-8.231575965881348,1.6016262769699097
1777561220458164700,15.132164794921875,5.0817060470581055,-8.15410041809082,1.9640015363693237
1777561220476694500,15.150694580078126,4.835186004638672,-8.29811954498291,1.9830702543258667
1777561220495224300,15.169224365234374,4.691100597381592,-8.442926406860352,1.697342038154602
1777561220513753900,15.18775390625,4.520719528198242,-8.548088073730469,1.6320722103118896
1777561220532283600,15.20628369140625,4.19346284866333,-8.73719596862793,1.4988842010498047
1777561220550813400,15.2248134765625,3.750976800918579,-8.992831230163574,1.1088521480560303
1777561220569343200,15.24334326171875,3.2279958724975586,-9.222312927246094,0.8362847566604614
1777561220587872800,15.261872802734375,2.770366668701172,-9.374005317687988,0.7895981669425964
1777561220606402600,15.280402587890626,2.5249245166778564,-9.444620132446289,0.7709043025970459
1777561220624932400,15.298932373046876,2.3798296451568604,-9.491839408874512,0.6416993737220764
1777561220643462100,15.317462158203124,2.102876901626587,-9.56741714477539,0.4613242447376251
1777561220661991700,15.33599169921875,1.7234599590301514,-9.651873588562012,0.20351530611515045
1777561220680521500,15.354521484375,1.5551257133483887,-9.67680549621582,-0.33377379179000854
1777561220699051300,15.37305126953125,1.501265048980713,-9.642118453979492,-0.9726958274841309
1777561220717580800,15.391580810546875,0.5394392609596252,-9.707406044006348,-1.2828295230865479
1777561220736110600,15.410110595703125,-0.3368663489818573,-9.708443641662598,-1.342771291732788
1777561220754640400,15.428640380859376,-0.44531500339508057,-9.705646514892578,-1.3313559293746948
1777561220773170200,15.447170166015624,-0.4208155572414398,-9.736632347106934,-1.0914573669433594
1777561220791700000,15.465699951171874,-0.5666079521179199,-9.747672080993652,-0.9122697114944458
1777561220810229500,15.4842294921875,-0.8251310586929321,-9.73244857788086,-0.8769317269325256
1777561220828759300,15.50275927734375,-1.0953296422958374,-9.70800495147705,-0.8516472578048706
1777561220847289000,15.5212890625,-1.2914789915084839,-9.689435958862305,-0.7856834530830383
1777561220865818600,15.539818603515625,-1.4786484241485596,-9.670068740844727,-0.6883010268211365
1777561220884348400,15.558348388671876,-1.6598180532455444,-9.649017333984375,-0.5584428310394287
1777561220902878200,15.576878173828124,-1.8101158142089844,-9.629646301269531,-0.4047028422355652
1777561220921408000,15.595407958984374,-1.9491530656814575,-9.60738468170166,-0.2633224129676819
1777561220939937800,15.613937744140625,-2.065471887588501,-9.585512161254883,-0.14887669682502747
1777561220958467300,15.63246728515625,-2.150334119796753,-9.567840576171875,-0.05361120030283928
1777561220976997000,15.6509970703125,-2.1950018405914307,-9.557805061340332,0.026868373155593872
1777561220995527000,15.66952685546875,-2.2300729751586914,-9.549362182617188,0.08282969892024994
1777561221014056400,15.688056396484376,-2.273254156112671,-9.539019584655762,0.09905145317316055
1777561221032586200,15.706586181640626,-2.2655560970306396,-9.54101276397705,0.08211430162191391
1777561221051116000,15.725115966796874,-2.156200408935547,-9.5664701461792,0.06211411580443382
1777561221069645800,15.743645751953125,-1.9073591232299805,-9.619296073913574,0.038785334676504135
1777561221088175600,15.762175537109375,-1.4818087816238403,-9.69402027130127,-0.02455947734415531
1777561221106705200,15.780705078125,-0.8544294834136963,-9.768506050109863,-0.1289227455854416
1777561221125235000,15.79923486328125,-0.08268459141254425,-9.804089546203613,-0.2083013504743576
1777561221143764700,15.8177646484375,0.7422407865524292,-9.777297973632812,-0.1546189785003662
1777561221162294300,15.836294189453126,1.4893395900726318,-9.692303657531738,0.10718664526939392
1777561221180824000,15.854823974609374,2.1603176593780518,-9.553993225097656,0.4739616811275482
1777561221199353900,15.873353759765624,2.774966239929199,-9.37801456451416,0.7230404019355774
1777561221217883600,15.891883544921875,3.320035696029663,-9.185736656188965,0.8774935603141785
1777561221236413400,15.910413330078125,3.7738940715789795,-9.004790306091309,0.917528510093689
1777561221254943000,15.92894287109375,4.152738094329834,-8.844042778015137,0.8414670825004578
1777561221273472800,15.94747265625,4.405490875244141,-8.730977058410645,0.7294250130653381
1777561221292002600,15.96600244140625,4.505937099456787,-8.689615249633789,0.5979119539260864
1777561221310532000,15.984531982421874,4.619500160217285,-8.639827728271484,0.4289454221725464
1777561221329062000,16.003061767578124,4.782591342926025,-8.553154945373535,0.3751493990421295
1777561221347591700,16.021591796875,4.940443992614746,-8.458581924438477,0.46346578001976013
1777561221366121500,16.04012158203125,5.0514044761657715,-8.384506225585938,0.5947754979133606
1777561221384651000,16.058651123046875,5.055860996246338,-8.375439643859863,0.6787295937538147
1777561221403180800,16.077180908203125,4.940958023071289,-8.443066596984863,0.6869837641716003
1777561221421710600,16.095710693359376,4.718308925628662,-8.574217796325684,0.625087559223175
1777561221440240400,16.114240478515626,4.365989685058594,-8.764921188354492,0.5335502028465271
1777561221458770000,16.13277001953125,3.8677103519439697,-9.000337600708008,0.4529034495353699
1777561221477299700,16.1512998046875,3.244271755218506,-9.244830131530762,0.42212387919425964
1777561221495829500,16.16982958984375,2.602534532546997,-9.442455291748047,0.48706647753715515
1777561221514359300,16.188359375,2.1758499145507812,-9.547126770019531,0.5370491743087769
1777561221532888800,16.206888916015625,2.188652753829956,-9.553244590759277,0.3401546776294708
1777561221551418600,16.225418701171876,2.1868808269500732,-9.559252738952637,0.09293675422668457
1777561221569948400,16.243948486328126,2.059722900390625,-9.587528228759766,-0.08504618704319
1777561221588478200,16.262478271484376,1.930010437965393,-9.612467765808105,-0.21425628662109375
1777561221607008000,16.281008056640626,1.800641655921936,-9.635581016540527,-0.2892211675643921
1777561221625537500,16.29953759765625,1.6483527421951294,-9.6615629196167,-0.3279065489768982
1777561221644067300,16.3180673828125,1.5233246088027954,-9.682097434997559,-0.32690441608428955
1777561221662597000,16.33659716796875,1.4823813438415527,-9.692232131958008,-0.1831783950328827
1777561221681126700,16.355126708984375,1.3947924375534058,-9.70637035369873,-0.10643884539604187
1777561221699656400,16.373656494140626,1.4282314777374268,-9.701591491699219,-0.0982552245259285
1777561221718186200,16.392186279296876,1.9436745643615723,-9.611556053161621,0.10245976597070694
1777561221736716000,16.410716064453126,2.4583771228790283,-9.49039363861084,-0.243321031332016
1777561221755245800,16.429245849609377,2.697819709777832,-9.404623985290527,-0.6672220826148987
1777561221773775400,16.447775390625,2.6890830993652344,-9.39280891418457,-0.8451935648918152
1777561221792305200,16.46630517578125,2.417003631591797,-9.474360466003418,-0.7516573667526245
1777561221810835000,16.4848349609375,2.1067214012145996,-9.566742897033691,-0.45774003863334656
1777561221829364500,16.503364501953126,2.116621494293213,-9.574145317077637,-0.16134092211723328
1777561221847894300,16.521894287109376,2.2594428062438965,-9.54277229309082,-0.02835615538060665
1777561221866424000,16.540424072265626,2.2253670692443848,-9.55081558227539,0.007890835404396057
1777561221884953900,16.558953857421876,2.1988165378570557,-9.55651569366455,0.09274578839540482
1777561221903483400,16.5774833984375,2.3245182037353516,-9.523199081420898,0.27511200308799744
1777561221922013200,16.59601318359375,2.5918617248535156,-9.450678825378418,0.37055501341819763
1777561221940543000,16.61454296875,2.9108164310455322,-9.354500770568848,0.4368439018726349
1777561221959072500,16.633072509765626,3.4387803077697754,-9.158967971801758,0.6771063804626465
1777561221977602300,16.651602294921876,4.0967302322387695,-8.86190414428711,0.9240332245826721
1777561221996132000,16.670132080078126,4.64279317855835,-8.560417175292969,1.1550402641296387
1777561222014662000,16.688661865234376,5.065410614013672,-8.26711654663086,1.472003698348999
1777561222033191400,16.70719140625,5.444047927856445,-7.976863861083984,1.7036325931549072
1777561222051721200,16.72572119140625,5.7948317527771,-7.737687110900879,1.6487895250320435
1777561222070251000,16.7442509765625,5.985228061676025,-7.608246326446533,1.5690809488296509
1777561222088780800,16.76278076171875,6.031907558441162,-7.568384170532227,1.5830471515655518
1777561222107310300,16.781310302734376,5.8676652908325195,-7.729997634887695,1.4099754095077515
1777561222125840100,16.799840087890626,5.449762344360352,-8.080211639404297,1.0865687131881714
1777561222144370000,16.818369873046876,4.856690883636475,-8.476136207580566,0.8590993881225586
1777561222162899500,16.8368994140625,4.1400933265686035,-8.855812072753906,0.777559220790863
1777561222181429200,16.85542919921875,3.435426712036133,-9.147316932678223,0.833556056022644
1777561222199959000,16.873958984375,2.961162805557251,-9.295413970947266,0.9985866546630859
1777561222218488800,16.89248876953125,2.7109668254852295,-9.35942268371582,1.1055562496185303
1777561222237018600,16.9110185546875,2.446845054626465,-9.432418823242188,1.1012846231460571
1777561222255548200,16.929548095703126,2.0666680335998535,-9.538213729858398,0.9600749611854553
1777561222274078000,16.948077880859376,1.7202016115188599,-9.629902839660645,0.6901207566261292
1777561222292607700,16.966607666015626,1.4716017246246338,-9.686393737792969,0.4225498139858246
1777561222311137300,16.98513720703125,1.3104135990142822,-9.716556549072266,0.20430824160575867
1777561222329667000,17.0036669921875,1.2712061405181885,-9.723910331726074,-0.0031719233375042677
1777561222348196900,17.02219677734375,1.4141570329666138,-9.703725814819336,-0.09099944680929184
1777561222366726700,17.0407265625,1.5189625024795532,-9.686003684997559,0.21086247265338898
1777561222385256400,17.05925634765625,1.5189348459243774,-9.677801132202148,0.4509747624397278
1777561222403786000,17.077785888671876,1.8214720487594604,-9.623690605163574,0.48706281185150146
1777561222422315800,17.096315673828126,2.191537380218506,-9.549757957458496,0.41191577911376953
1777561222440845600,17.114845458984377,2.42182993888855,-9.498988151550293,0.27265119552612305
1777561222459375000,17.133375,2.5757055282592773,-9.455033302307129,0.3721315264701843
1777561222477905000,17.15190478515625,2.6589741706848145,-9.416630744934082,0.6536837220191956
1777561222496434700,17.1704345703125,2.675222396850586,-9.391989707946777,0.8967204093933105
1777561222514964500,17.188964599609374,2.606818199157715,-9.393994331359863,1.0619593858718872
1777561222533494000,17.207493896484376,2.515831708908081,-9.41250991821289,1.1160788536071777
1777561222552023800,17.22602392578125,2.554882287979126,-9.405302047729492,1.0877805948257446
1777561222570553600,17.2445537109375,2.8011083602905273,-9.333332061767578,1.101408839225769
1777561222589083100,17.263083251953127,3.229631185531616,-9.182905197143555,1.1891661882400513
1777561222607613000,17.281613037109373,3.7440531253814697,-8.964417457580566,1.338532567024231
1777561222626142700,17.300142822265624,4.407675266265869,-8.609631538391113,1.6177191734313965
1777561222644672300,17.31867236328125,5.073643684387207,-8.188098907470703,1.8394426107406616
1777561222663202000,17.3372021484375,5.597973346710205,-7.808271884918213,1.9657000303268433
1777561222681731800,17.35573193359375,5.95073127746582,-7.557228088378906,1.9098379611968994
1777561222700261600,17.37426171875,6.17665958404541,-7.4342451095581055,1.6586889028549194
1777561222728056300,17.402056396484376,6.371209621429443,-7.298052787780762,1.5220019817352295
1777561222746585900,17.4205859375,6.347606182098389,-7.327256679534912,1.479727864265442
1777561222765115600,17.43911572265625,6.19841194152832,-7.481097221374512,1.3353949785232544
1777561222783645400,17.4576455078125,5.975553035736084,-7.690014839172363,1.1518754959106445
1777561222802175000,17.476175048828125,5.643077373504639,-7.953306198120117,1.0348827838897705
1777561222820704800,17.494704833984375,5.123140335083008,-8.305601119995117,0.9699477553367615
1777561222839234600,17.513234619140626,4.411075592041016,-8.706564903259277,0.9531639218330383
1777561222857764400,17.531764404296876,3.6027090549468994,-9.066089630126953,0.9984362721443176
1777561222876294000,17.5502939453125,2.8617234230041504,-9.316394805908203,1.0889050960540771
1777561222894823700,17.56882373046875,2.3317813873291016,-9.466887474060059,1.054146647453308
1777561222913353500,17.587353515625,1.870853066444397,-9.574141502380371,1.0030481815338135
1777561222931883000,17.605883056640625,1.527431845664978,-9.649775505065918,0.8480282425880432
1777561222950412800,17.624412841796875,1.4109734296798706,-9.685648918151855,0.606418251991272
1777561222968942600,17.642942626953126,1.3823342323303223,-9.701573371887207,0.3728410303592682
1777561222987472400,17.661472412109376,1.2712029218673706,-9.722057342529297,0.18983569741249084
1777561223006002200,17.680002197265626,1.1932553052902222,-9.733314514160156,-0.09547793120145798
1777561223024531700,17.69853173828125,1.280990481376648,-9.71889877319336,-0.2691980302333832
1777561223043061500,17.7170615234375,1.3836069107055664,-9.708405494689941,0.053640417754650116
1777561223061591300,17.73559130859375,1.615242838859558,-9.665773391723633,0.3663369417190552
1777561223080120800,17.754120849609375,2.0692267417907715,-9.582003593444824,0.27184394001960754
1777561223098650600,17.772650634765625,2.2770416736602783,-9.538474082946777,-0.05464233085513115
1777561223156585000,17.8305849609375,1.967310905456543,-9.579885482788086,0.725174605846405
1777561223175114800,17.84911474609375,1.8370585441589355,-9.582777976989746,0.9828293919563293
1777561223193644500,17.86764453125,1.7827192544937134,-9.586746215820312,1.042397379875183
1777561223212174300,17.88617431640625,1.76242196559906,-9.597497940063477,0.9758470058441162
1777561223230703900,17.904703857421875,1.7366149425506592,-9.605597496032715,0.9418346285820007
1777561223249233700,17.923233642578126,1.7030295133590698,-9.611939430236816,0.9384638667106628
1777561223267763500,17.941763427734376,1.731084942817688,-9.600993156433105,0.9973304867744446
1777561223286293200,17.960293212890626,1.853162407875061,-9.565473556518555,1.1126049757003784
1777561223304822800,17.97882275390625,2.07354736328125,-9.506706237792969,1.2220147848129272
1777561223323352600,17.9973525390625,2.4106218814849854,-9.413204193115234,1.3232076168060303
1777561223341882400,18.01588232421875,2.8640732765197754,-9.275250434875488,1.3918367624282837
1777561223360412200,18.034412109375,3.4859402179718018,-9.040668487548828,1.511600136756897
1777561223378941700,18.052941650390625,4.179027080535889,-8.698134422302246,1.7460147142410278
1777561223397471500,18.071471435546876,4.716984272003174,-8.358586311340332,2.0135750770568848
1777561223425266200,18.09926611328125,5.339972972869873,-7.972368240356445,2.023958683013916
1777561223443795700,18.117795654296874,5.616303443908691,-7.7814788818359375,2.0189385414123535
1777561223462325500,18.136325439453124,5.811417102813721,-7.648038387298584,1.9761914014816284
1777561223480855300,18.154855224609374,5.890883922576904,-7.595232963562012,1.9443061351776123
1777561223499385000,18.173385009765624,5.859510898590088,-7.625181198120117,1.9217513799667358
1777561223517914600,18.19191455078125,5.727302551269531,-7.734104156494141,1.8846821784973145
1777561223536444400,18.2104443359375,5.495566368103027,-7.9116530418396,1.8370840549468994
1777561223554974200,18.22897412109375,5.13065242767334,-8.172050476074219,1.7505391836166382
1777561223573504000,18.24750390625,4.601491928100586,-8.508962631225586,1.6106553077697754
1777561223592033500,18.266033447265624,3.9623115062713623,-8.852177619934082,1.4523831605911255
1777561223610563300,18.284563232421874,3.3362135887145996,-9.128462791442871,1.3081406354904175
1777561223629093000,18.303093017578124,2.7549338340759277,-9.33463191986084,1.2022303342819214
1777561223647623000,18.321622802734375,2.219871759414673,-9.482913970947266,1.1475681066513062
1777561223666152400,18.34015234375,1.8041943311691284,-9.57918643951416,1.0744482278823853
1777561223684682200,18.35868212890625,1.490397334098816,-9.634747505187988,1.0586506128311157
1777561223703212000,18.3772119140625,1.1940134763717651,-9.66809368133545,1.1281368732452393
1777561223721741800,18.395741943359376,1.0347546339035034,-9.685598373413086,1.1352753639221191
1777561223740271400,18.414271240234374,1.0193814039230347,-9.696478843688965,1.0533519983291626
1777561223758801200,18.43280126953125,1.0388360023498535,-9.706100463867188,0.9395905137062073
1777561223777331000,18.4513310546875,0.9810003042221069,-9.722291946411133,0.8276879787445068
1777561223795860500,18.469860595703125,0.9259479641914368,-9.7389554977417,0.6824770569801331
1777561223814390300,18.488390380859375,1.0152833461761475,-9.739422798156738,0.5321788787841797
1777561223832920000,18.506920166015625,0.9361339807510376,-9.743229866027832,0.6029009819030762
1777561223851449900,18.525449951171876,1.0343002080917358,-9.723392486572266,0.7458237409591675
1777561223869979400,18.5439794921875,1.5035821199417114,-9.669058799743652,0.6472545266151428
1777561223888509200,18.56250927734375,1.8569151163101196,-9.616231918334961,0.5003234148025513
1777561223907039000,18.5810390625,2.1370410919189453,-9.563716888427734,0.37251946330070496
1777561223925568800,18.59956884765625,2.2944464683532715,-9.528099060058594,0.3481736481189728
1777561223944098300,18.618098388671875,2.2465639114379883,-9.534961700439453,0.45587655901908875
1777561223962628000,18.636628173828125,1.9978071451187134,-9.583907127380371,0.572608470916748
1777561223981158000,18.655157958984375,1.6777698993682861,-9.640201568603516,0.6496076583862305
1777561223999687700,18.673687744140626,1.5568195581436157,-9.659961700439453,0.6571492552757263
1777561224018217200,18.69221728515625,1.5460186004638672,-9.66549015045166,0.5987734198570251
1777561224036747000,18.7107470703125,1.4810435771942139,-9.675816535949707,0.5962070226669312
1777561224055276800,18.72927685546875,1.4148499965667725,-9.68323802947998,0.6352030634880066
1777561224073806600,18.747806640625,1.3906036615371704,-9.683398246765137,0.6844109892845154
1777561224092336000,18.766336181640625,1.4012936353683472,-9.677638053894043,0.7416771054267883
1777561224110866000,18.784865966796875,1.4366825819015503,-9.66651439666748,0.8153595924377441
1777561224129395700,18.803395751953126,1.4979394674301147,-9.650221824645996,0.8942994475364685
1777561224147925500,18.821925537109376,1.5912625789642334,-9.63004207611084,0.9489765167236328
1777561224166455000,18.840455078125,1.6939622163772583,-9.609566688537598,0.9783110022544861
1777561224184984800,18.85898486328125,1.8061506748199463,-9.58302116394043,1.036293625831604
1777561224203514600,18.8775146484375,1.966254711151123,-9.539986610412598,1.137056827545166
1777561224222044400,18.89604443359375,2.2005503177642822,-9.474260330200195,1.2515449523925781
1777561224240574200,18.91457421875,2.5484213829040527,-9.366490364074707,1.394560694694519
1777561224259103700,18.933103759765626,3.0240046977996826,-9.196372032165527,1.5660505294799805
1777561224277633500,18.951633544921876,3.549496650695801,-8.97081184387207,1.7595452070236206
1777561224296163300,18.970163330078126,4.033105373382568,-8.730888366699219,1.9172998666763306
1777561224314693000,18.988693115234376,4.393422603607178,-8.550719261169434,1.9373706579208374
1777561224333222700,19.00722265625,4.638566017150879,-8.435320854187012,1.8706820011138916
1777561224351752400,19.02575244140625,4.790441513061523,-8.368465423583984,1.7862941026687622
1777561224370282200,19.0442822265625,4.843385696411133,-8.35665512084961,1.6965636014938354
1777561224388812000,19.06281201171875,4.831579208374023,-8.384536743164062,1.589263916015625
1777561224407341800,19.081341796875,4.737013339996338,-8.441483497619629,1.57239830493927
1777561224425871400,19.099871337890626,4.571840286254883,-8.511316299438477,1.681121826171875
1777561224444401200,19.118401123046876,4.3190484046936035,-8.626190185546875,1.7621171474456787
1777561224462931000,19.136930908203126,3.9656968116760254,-8.799357414245605,1.7363569736480713
1777561224481460700,19.155460693359377,3.5528950691223145,-8.996472358703613,1.6158010959625244
1777561224499990300,19.173990234375,3.1141083240509033,-9.184120178222656,1.4576232433319092
1777561224518520000,19.19252001953125,2.648040533065796,-9.350323677062988,1.315179705619812
1777561224537049900,19.2110498046875,2.1230907440185547,-9.493888854980469,1.236509919166565
1777561224555579600,19.22957958984375,1.5450953245162964,-9.606491088867188,1.2240910530090332
1777561224574109200,19.248109130859376,1.0332764387130737,-9.675915718078613,1.2163065671920776
1777561224592639000,19.266638916015626,0.7373155355453491,-9.70434284210205,1.2051820755004883
1777561224611168800,19.285168701171877,0.5605447888374329,-9.701981544494629,1.3144354820251465
1777561224629698600,19.303698486328123,0.5698367953300476,-9.691171646118164,1.3881187438964844
1777561224648228400,19.322228271484374,0.7149516940116882,-9.685981750488281,1.3568241596221924
1777561224676022800,19.350022705078125,0.8635079860687256,-9.691588401794434,1.2238680124282837
1777561224694552600,19.368552490234375,0.8611964583396912,-9.703289031982422,1.129109263420105
1777561224713082400,19.387082275390625,0.8677893280982971,-9.712285041809082,1.043474793434143
1777561224731612200,19.405612060546876,0.9116271734237671,-9.721410751342773,0.9129714965820312
1777561224750142000,19.424141845703126,0.7419586181640625,-9.73636245727539,0.9072712659835815
1777561224768671500,19.44267138671875,0.5784782767295837,-9.732911109924316,1.0517585277557373
1777561224787201300,19.461201171875,0.759498655796051,-9.729494094848633,0.964623212814331
1777561224805731000,19.47973095703125,0.9921913743019104,-9.723913192749023,0.7946392297744751
1777561224824260900,19.4982607421875,1.2487493753433228,-9.709345817565918,0.5827800035476685
1777561224842790700,19.516790771484374,1.4371236562728882,-9.690339088439941,0.4498860836029053
1777561224861320400,19.535320556640624,1.364736795425415,-9.700078010559082,0.4651627540588379
1777561224879850000,19.55385009765625,1.0074198246002197,-9.740333557128906,0.5304656028747559
1777561224898379800,19.5723798828125,0.5311110019683838,-9.776651382446289,0.5526237487792969
1777561224916909600,19.59090966796875,0.2669268250465393,-9.788744926452637,0.5287867188453674
1777561224935439400,19.609439453125,0.1473294347524643,-9.792848587036133,0.49879929423332214
1777561224953969200,19.62796923828125,-0.019454164430499077,-9.796269416809082,0.450660765171051
1777561224972498700,19.646498779296873,-0.20988894999027252,-9.796374320983887,0.3967045247554779
1777561224991028500,19.665028564453124,-0.39044055342674255,-9.791604995727539,0.3773737847805023
1777561225009558300,19.683558349609374,-0.5371873378753662,-9.78342342376709,0.40797197818756104
1777561225028088000,19.702088134765624,-0.6626755595207214,-9.772878646850586,0.47126689553260803
1777561225046617900,19.720617919921875,-0.7702261209487915,-9.760659217834473,0.553784966468811
1777561225065147600,19.739147705078125,-0.8678395748138428,-9.74724006652832,0.6391894221305847
1777561225083677400,19.757677490234375,-0.9578670859336853,-9.732903480529785,0.7234997153282166
1777561225102207000,19.77620703125,-1.0271538496017456,-9.720115661621094,0.7966845035552979
1777561225120736800,19.79473681640625,-1.0533519983291626,-9.711406707763672,0.8656980991363525
1777561225139266600,19.8132666015625,-1.0196377038955688,-9.708090782165527,0.9400644302368164
1777561225157796400,19.83179638671875,-0.9134921431541443,-9.70931625366211,1.0320454835891724
1777561225176326100,19.850326171875,-0.7211320400238037,-9.715024948120117,1.126335859298706
1777561225194856000,19.86885595703125,-0.39751800894737244,-9.725759506225586,1.1924703121185303
1777561225213385700,19.8873857421875,0.053264960646629333,-9.730449676513672,1.218971848487854
1777561225231915500,19.90591552734375,0.5786349177360535,-9.710467338562012,1.241930603981018
1777561225250445000,19.924445068359375,1.1087037324905396,-9.656106948852539,1.3041390180587769
1777561225268974800,19.942974853515626,1.6192344427108765,-9.573473930358887,1.3773446083068848
1777561225287504600,19.961504638671876,2.128866672515869,-9.467195510864258,1.4179247617721558
1777561225306034400,19.980034423828126,2.5867810249328613,-9.351325035095215,1.4253661632537842
1777561225324564200,19.998564208984376,2.9375250339508057,-9.246541976928711,1.429268479347229
1777561225343094000,20.017093994140627,3.2581958770751953,-9.13318920135498,1.4626688957214355
1777561225361623800,20.035623779296873,3.550732374191284,-9.010859489440918,1.5385340452194214
1777561225380153600,20.054153564453124,3.7449355125427246,-8.92108154296875,1.6000490188598633
1777561225398683100,20.07268310546875,3.8004117012023926,-8.892147064208984,1.630027174949646
1777561225417213000,20.091212890625,3.7749149799346924,-8.902314186096191,1.6337727308273315
1777561225435742700,20.10974267578125,3.7894952297210693,-8.899185180664062,1.6169809103012085
1777561225454272500,20.1282724609375,3.850511312484741,-8.87889289855957,1.584047794342041
1777561225472802300,20.14680224609375,3.8927340507507324,-8.866433143615723,1.5502815246582031
1777561225491332000,20.16533203125,3.9051337242126465,-8.867380142211914,1.5132336616516113
1777561225509862000,20.18386181640625,3.8758580684661865,-8.887957572937012,1.4670809507369995
1777561225528391700,20.2023916015625,3.811469316482544,-8.924249649047852,1.4145228862762451
1777561225546921200,20.220921142578124,3.737859010696411,-8.96184253692627,1.3726575374603271
1777561225565451000,20.239450927734374,3.725517749786377,-8.9744234085083,1.3231191635131836
1777561225583980800,20.257980712890625,3.8111565113067627,-8.949206352233887,1.2478712797164917
1777561225602510600,20.276510498046875,3.9092729091644287,-8.918747901916504,1.1592791080474854
1777561225621040400,20.295040283203125,3.9481241703033447,-8.903332710266113,1.146012544631958
1777561225639570200,20.313570068359375,3.9405288696289062,-8.903738975524902,1.1687824726104736
1777561225658100000,20.332099853515626,3.9220170974731445,-8.915460586547852,1.1413685083389282
1777561225676629800,20.350629638671876,3.945899724960327,-8.910840034484863,1.0941648483276367
1777561225695159600,20.36915966796875,4.059257507324219,-8.862203598022461,1.0743168592453003
1777561225713689300,20.387689453125,4.101015090942383,-8.847016334533691,1.0403647422790527
1777561225732219100,20.40621923828125,4.013785362243652,-8.887418746948242,1.036192536354065
1777561225750749000,20.4247490234375,3.7289633750915527,-8.99085521697998,1.195722222328186
1777561225769278700,20.44327880859375,3.545353651046753,-9.077052116394043,1.0990763902664185
1777561225787808300,20.461808349609374,3.4010708332061768,-9.13895034790039,1.0405149459838867
1777561225806338000,20.480338134765624,3.1263091564178467,-9.240558624267578,1.004321813583374
1777561225824867800,20.498867919921874,2.7841665744781494,-9.36414909362793,0.8552807569503784
1777561225843397600,20.517397705078125,2.487783432006836,-9.460616111755371,0.691429853439331
1777561225861927400,20.535927490234375,2.199545383453369,-9.534524917602539,0.6520841717720032
1777561225880457200,20.554457275390625,1.8910648822784424,-9.601889610290527,0.6308462619781494
1777561225898987000,20.572987060546875,1.5831772089004517,-9.663350105285645,0.5325430631637573
1777561225917516800,20.591516845703126,1.2566334009170532,-9.720449447631836,0.3226517140865326
1777561225936046600,20.610046630859376,0.8950201869010925,-9.765692710876465,-0.02407313883304596
1777561225954576400,20.628576416015626,0.49570080637931824,-9.786871910095215,-0.3765738010406494
1777561225973106200,20.647106201171876,0.13034990429878235,-9.787107467651367,-0.6049295663833618
1777561225991636000,20.665635986328127,-0.1506561040878296,-9.781606674194336,-0.6839991211891174
1777561226010165800,20.684165771484373,-0.37552252411842346,-9.77782917022705,-0.6507256031036377
1777561226028695600,20.702695556640624,-0.6184450387954712,-9.769275665283203,-0.5909149050712585
1777561226047225300,20.721225341796874,-0.890705943107605,-9.751150131225586,-0.540461540222168
1777561226065755100,20.739755126953124,-1.1294320821762085,-9.727835655212402,-0.5137878060340881
1777561226084285000,20.758284912109374,-1.3632402420043945,-9.699318885803223,-0.4849568009376526
1777561226102814700,20.776814697265625,-1.5735280513763428,-9.670259475708008,-0.4248174726963043
1777561226121344500,20.795344482421875,-1.7418477535247803,-9.644311904907227,-0.3515821397304535
1777561226139874300,20.813874267578125,-1.8744512796401978,-9.622142791748047,-0.26681753993034363
1777561226158404000,20.832404052734375,-1.9756780862808228,-9.604223251342773,-0.16118864715099335
1777561226176934000,20.850933837890626,-2.068756103515625,-9.58580493927002,-0.054687805473804474
1777561226195463700,20.869463623046876,-2.1599440574645996,-9.565770149230957,0.032683115452528
1777561226213993500,20.887993408203126,-2.219985246658325,-9.55154037475586,0.10065022110939026
1777561226232523300,20.906523193359376,-2.247457504272461,-9.544418334960938,0.15301094949245453
1777561226251053000,20.925052978515627,-2.2689695358276367,-9.538866996765137,0.17938193678855896
1777561226269582800,20.943582763671873,-2.297840118408203,-9.532054901123047,0.1739230901002884
1777561226288112600,20.962112548828124,-2.318690776824951,-9.527372360229492,0.15239083766937256
1777561226306642400,20.980642333984374,-2.291008949279785,-9.5343656539917,0.13243624567985535
1777561226325172200,20.999172119140624,-2.182600498199463,-9.559943199157715,0.1188766360282898
1777561226343702000,21.017701904296874,-1.9520223140716553,-9.60989761352539,0.09930883347988129
1777561226362231800,21.036231689453125,-1.568902850151062,-9.680163383483887,0.05803330987691879
1777561226380761600,21.05476171875,-1.0574666261672974,-9.749466896057129,-0.0067510162480175495
1777561226399291400,21.07329150390625,-0.44405314326286316,-9.796320915222168,-0.07272922992706299
1777561226417821200,21.0918212890625,0.2672116756439209,-9.802719116210938,-0.07543612271547318
1777561226436351000,21.11035107421875,0.9577425718307495,-9.759651184082031,0.04834996536374092
1777561226454880800,21.128880859375,1.5554696321487427,-9.678160667419434,0.28999319672584534
1777561226473410600,21.14741064453125,2.06718111038208,-9.564167022705078,0.6510570049285889
1777561226491940400,21.1659404296875,2.5325798988342285,-9.422530174255371,0.9860754013061523
1777561226510470100,21.18447021484375,3.031813859939575,-9.251258850097656,1.1801263093948364
1777561226529000000,21.203,3.502296209335327,-9.07080078125,1.2747094631195068
1777561226547529700,21.22152978515625,3.78214168548584,-8.941364288330078,1.3848378658294678
1777561226566059500,21.2400595703125,3.957859992980957,-8.849685668945312,1.479457139968872
1777561226584589300,21.25858935546875,4.230831623077393,-8.723484992980957,1.4735139608383179
1777561226603119000,21.277119140625,4.4949564933776855,-8.585168838500977,1.5035432577133179
1777561226621649000,21.29564892578125,4.692905426025391,-8.455636978149414,1.6276438236236572
1777561226640178700,21.3141787109375,4.842844486236572,-8.336423873901367,1.7947964668273926
1777561226658708500,21.33270849609375,4.929441452026367,-8.248416900634766,1.9582160711288452
1777561226677238300,21.35123828125,4.93398380279541,-8.226420402526855,2.0376954078674316
1777561226695768000,21.36976806640625,4.847131252288818,-8.281370162963867,2.02351450920105
1777561226714297900,21.3882978515625,4.663304328918457,-8.410016059875488,1.9223945140838623
1777561226732827600,21.40682763671875,4.400529384613037,-8.589982032775879,1.7372223138809204
1777561226751357400,21.425357421875,4.100778102874756,-8.784278869628906,1.4800176620483398
1777561226769887200,21.44388720703125,3.81451416015625,-8.957765579223633,1.1740158796310425
1777561226788417000,21.4624169921875,3.625934362411499,-9.069669723510742,0.8741214871406555
1777561226806946800,21.48094677734375,3.675748109817505,-9.072754859924316,0.5868458151817322
1777561226825476600,21.4994765625,3.8271217346191406,-9.018691062927246,0.43213319778442383
1777561226844006400,21.51800634765625,3.94903826713562,-8.965130805969238,0.44933435320854187
1777561226862536200,21.5365361328125,4.03589391708374,-8.921051979064941,0.5447854399681091
1777561226881066000,21.55506591796875,4.099019527435303,-8.879518508911133,0.7228901982307434
1777561226899595800,21.573595703125,4.126450061798096,-8.840085983276367,0.9978389739990234
1777561226918125800,21.592125732421874,4.140839576721191,-8.803315162658691,1.2351040840148926
1777561226936655600,21.610655517578124,4.19589376449585,-8.762150764465332,1.3377481698989868
1777561226955185400,21.629185302734374,4.224659442901611,-8.737339973449707,1.407666802406311
1777561226973715200,21.647715087890624,4.097789764404297,-8.791069984436035,1.447618842124939
1777561226992245000,21.666244873046875,3.9135446548461914,-8.9016695022583,1.270756721496582
1777561227010774800,21.68477490234375,3.745053768157959,-8.999994277954102,1.0700807571411133
1777561227029304600,21.7033046875,3.495028495788574,-9.110509872436523,0.9766185879707336
1777561227047834400,21.72183447265625,3.139425039291382,-9.249357223510742,0.873947024345398
1777561227066364200,21.7403642578125,2.777190685272217,-9.373093605041504,0.7763532400131226
1777561227084894000,21.75889404296875,2.523104190826416,-9.443284034729004,0.7929165363311768
1777561227103423700,21.777423828125,2.2918851375579834,-9.503766059875488,0.7720694541931152
1777561227121953500,21.79595361328125,2.024670362472534,-9.572859764099121,0.6568631529808044
1777561227140483300,21.8144833984375,1.7325687408447266,-9.641843795776367,0.45103251934051514
1777561227159013000,21.83301318359375,1.4324514865875244,-9.700522422790527,0.13537462055683136
1777561227177543000,21.85154296875,1.0880839824676514,-9.743032455444336,-0.24451494216918945
1777561227196072700,21.87007275390625,0.7053864002227783,-9.765005111694336,-0.5634632706642151
1777561227214602800,21.888602783203126,0.3384513258934021,-9.772059440612793,-0.7501401901245117
1777561227233132500,21.907132568359376,0.02999710664153099,-9.774214744567871,-0.7963696122169495
1777561227251662300,21.925662353515627,-0.23451556265354156,-9.77450180053711,-0.7579578757286072
1777561227270192000,21.944192138671873,-0.47513794898986816,-9.770654678344727,-0.6920433044433594
1777561227288722000,21.962721923828123,-0.6899057626724243,-9.763011932373047,-0.6148225665092468
1777561227307251700,21.981251708984374,-0.8939616680145264,-9.75147533416748,-0.5291023254394531
1777561227325781500,21.999781494140624,-1.08872652053833,-9.736008644104004,-0.4418022930622101
1777561227344311300,22.018311279296874,-1.2740269899368286,-9.716567039489746,-0.3681756854057312
1777561227362841000,22.036841064453125,-1.434562087059021,-9.696322441101074,-0.3061820864677429
1777561227381371000,22.055370849609375,-1.5606050491333008,-9.678804397583008,-0.23589731752872467
1777561227399900700,22.073900634765625,-1.6824169158935547,-9.660043716430664,-0.15303511917591095
1777561227418430500,22.092430419921875,-1.8092347383499146,-9.638127326965332,-0.059685949236154556
1777561227436960500,22.11096044921875,-1.907151222229004,-9.619359016418457,0.03313548490405083
1777561227455490300,22.129490234375,-1.9787886142730713,-9.604256629943848,0.11422612518072128
1777561227474020000,22.14802001953125,-2.028944253921509,-9.593131065368652,0.16001412272453308
1777561227492550000,22.1665498046875,-2.0517070293426514,-9.587847709655762,0.18456368148326874
1777561227511079700,22.18507958984375,-2.0561022758483887,-9.58657169342041,0.20120316743850708
1777561227529609500,22.203609375,-2.025240421295166,-9.59283447265625,0.21519175171852112
1777561227548139300,22.22213916015625,-1.9039561748504639,-9.617819786071777,0.20704372227191925
1777561227566669000,22.2406689453125,-1.680510401725769,-9.660198211669922,0.16383953392505646
1777561227585198800,22.25919873046875,-1.3806072473526,-9.708717346191406,0.07161908596754074
1777561227603728600,22.277728759765626,-0.9613776206970215,-9.759361267089844,-0.031639836728572845
1777561227622258700,22.2962587890625,-0.3727297782897949,-9.799210548400879,-0.08325362205505371
1777561227640788500,22.31478857421875,0.34125250577926636,-9.800439834594727,-0.07281351834535599
1777561227659318300,22.333318359375,1.0502163171768188,-9.750252723693848,0.0015366949373856187
1777561227677848000,22.35184814453125,1.658806562423706,-9.664051055908203,0.15765079855918884
1777561227696377900,22.3703779296875,2.1363847255706787,-9.561502456665039,0.4288724362850189
1777561227733437400,22.4074375,2.840597629547119,-9.327169418334961,1.051328182220459
1777561227751967200,22.42596728515625,3.2774343490600586,-9.170679092407227,1.1521540880203247
1777561227770497000,22.4444970703125,3.6451313495635986,-9.0244722366333,1.2009608745574951
1777561227789026800,22.46302685546875,3.8358850479125977,-8.934490203857422,1.2772082090377808
1777561227807556900,22.481556884765624,3.974517822265625,-8.868243217468262,1.3144848346710205
1777561227826086700,22.500086669921874,4.203596115112305,-8.763956069946289,1.3012458086013794
1777561227844616400,22.518616455078124,4.4211506843566895,-8.652820587158203,1.3238252401351929
1777561227863146200,22.537146240234375,4.576918125152588,-8.563031196594238,1.3772052526474
1777561227881676000,22.555676025390625,4.670642375946045,-8.505829811096191,1.4164552688598633
1777561227900205800,22.574205810546875,4.685218334197998,-8.501043319702148,1.3969231843948364
1777561227918735600,22.592735595703125,4.599568843841553,-8.561182022094727,1.3116891384124756
1777561227937265400,22.611265380859376,4.399028301239014,-8.685211181640625,1.177308201789856
1777561227955795500,22.62979541015625,4.097507953643799,-8.852472305297852,1.007246494293213
1777561227974325200,22.6483251953125,3.7360260486602783,-9.032974243164062,0.78604656457901
1777561227992855000,22.66685498046875,3.3945088386535645,-9.186919212341309,0.49822694063186646
1777561228011384800,22.685384765625,3.1429591178894043,-9.287222862243652,0.19922423362731934
1777561228029914600,22.70391455078125,3.003232955932617,-9.335463523864746,-0.010570351034402847
1777561228048444400,22.7224443359375,2.9261586666107178,-9.359540939331055,-0.08349548280239105
1777561228066974200,22.74097412109375,2.902761697769165,-9.36662483215332,-0.10345335304737091
1777561228085504000,22.75950390625,2.96292781829834,-9.347794532775879,-0.1009383276104927
1777561228104033800,22.77803369140625,3.035238265991211,-9.324885368347168,-0.06501584500074387
1777561228122563800,22.796563720703126,3.0421509742736816,-9.322842597961426,-0.01794050633907318
1777561228141093600,22.81509375,3.0332558155059814,-9.32575798034668,-0.0012859456473961473
1777561228159623400,22.83362353515625,3.0022358894348145,-9.335779190063477,0.01355220191180706
1777561228178153200,22.8521533203125,3.053582191467285,-9.318802833557129,0.07712650299072266
1777561228196683000,22.87068310546875,3.1648881435394287,-9.281577110290527,0.07871957123279572
1777561228215212800,22.889212890625,3.2231955528259277,-9.261359214782715,0.09277292340993881
1777561228233742600,22.90774267578125,3.1290500164031982,-9.292577743530273,0.1656191498041153
1777561228252272400,22.9262724609375,2.8777225017547607,-9.370654106140137,0.2827174663543701
1777561228270802400,22.944802490234373,2.651078224182129,-9.432706832885742,0.4077109694480896
1777561228289332200,22.963332275390623,2.560525417327881,-9.450411796569824,0.5511889457702637
1777561228307862000,22.981862060546874,2.5206100940704346,-9.456201553344727,0.6302054524421692
1777561228326391800,23.000391845703124,2.362222194671631,-9.498482704162598,0.6075440645217896
1777561228344921600,23.018921630859374,2.140721559524536,-9.559917449951172,0.44237178564071655
1777561228363451400,23.037451416015625,1.91401207447052,-9.616679191589355,0.1625775247812271
1777561228381981200,23.055981201171875,1.6593372821807861,-9.664844512939453,-0.0880366787314415
1777561228400511000,23.074510986328125,1.4068427085876465,-9.702071189880371,-0.2469593733549118
1777561228419041000,23.093041015625,1.2080987691879272,-9.7275390625,-0.29300954937934875
1777561228437570800,23.11157080078125,1.079187273979187,-9.744132995605469,-0.24000045657157898
1777561228456100600,23.1301005859375,0.9968644380569458,-9.754878044128418,-0.1378568559885025
1777561228474630400,23.14863037109375,0.9257214665412903,-9.7627534866333,-0.045514363795518875
1777561228493160200,23.16716015625,0.8574751019477844,-9.769087791442871,0.006887102033942938
1777561228511690000,23.18568994140625,0.8348445892333984,-9.770991325378418,0.033892035484313965
1777561228530219800,23.2042197265625,0.8741645812988281,-9.7673921585083,0.06528440117835999
1777561228548749800,23.222749755859375,0.9579424858093262,-9.759138107299805,0.10932762175798416
1777561228567279600,23.241279541015626,1.1196088790893555,-9.741178512573242,0.1621628701686859
1777561228585809400,23.259809326171876,1.3791115283966064,-9.706642150878906,0.22255395352840424
1777561228604339200,23.278339111328126,1.6581368446350098,-9.660226821899414,0.3178168833255768
1777561228622869000,23.296868896484376,1.8736165761947632,-9.615296363830566,0.4539022445678711
1777561228641398800,23.315398681640627,2.037632703781128,-9.574483871459961,0.5896586775779724
1777561228659928600,23.333928466796873,2.228595018386841,-9.52816390991211,0.6464119553565979
1777561228678458400,23.352458251953124,2.4296212196350098,-9.479109764099121,0.6432807445526123
1777561228696988400,23.370988525390626,2.583038330078125,-9.438284873962402,0.6458262801170349
1777561228715518200,23.389518310546876,2.682835817337036,-9.406579971313477,0.6993072032928467
1777561228734048000,23.408048095703126,2.783159017562866,-9.370655059814453,0.7843729853630066
1777561228752577800,23.426577880859377,2.928659200668335,-9.318562507629395,0.8704801797866821
1777561228771107600,23.445107666015623,3.1465561389923096,-9.239035606384277,0.9538416862487793
1777561228789637400,23.463637451171873,3.486060619354248,-9.103558540344238,1.0691030025482178
1777561228808167200,23.482167236328124,3.9099009037017822,-8.913216590881348,1.1990158557891846
1777561228826697200,23.500697265625,4.301456928253174,-8.720824241638184,1.2708570957183838
1777561228845227000,23.51922705078125,4.682742595672607,-8.508090019226074,1.3618721961975098
1777561228863756800,23.5377568359375,4.972193717956543,-8.335979461669922,1.3996896743774414
1777561228882286600,23.55628662109375,5.127490997314453,-8.2676362991333,1.2350728511810303
1777561228900816400,23.57481640625,5.157716274261475,-8.277926445007324,1.0219019651412964
1777561228919346200,23.59334619140625,5.119851589202881,-8.313806533813477,0.9154883027076721
1777561228937876000,23.6118759765625,5.10026741027832,-8.323692321777344,0.9347773790359497
1777561228956405800,23.63040576171875,5.095737457275391,-8.310380935668945,1.068366289138794
1777561228974935800,23.648935791015624,5.016550540924072,-8.349433898925781,1.1364697217941284
1777561228993465600,23.667465576171875,4.814662933349609,-8.476319313049316,1.0683711767196655
1777561229011995400,23.685995361328125,4.517427444458008,-8.653480529785156,0.9383615255355835
1777561229030525200,23.704525146484375,4.171202659606934,-8.840296745300293,0.7877766489982605
1777561229049055000,23.723054931640625,3.810309886932373,-9.012726783752441,0.650131344795227
1777561229067584800,23.741584716796876,3.4300506114959717,-9.17046070098877,0.554781436920166
1777561229086114600,23.760114501953126,3.018059492111206,-9.315268516540527,0.5361640453338623
