time,seconds_elapsed,z,y,x
1777561205439887000,0.11388720703125,0.2328922003507614,-0.2889390289783478,-0.06887500733137131
1777561205458416400,0.13241650390625,0.24083344638347626,-0.2657261788845062,-0.02000582218170166
1777561205495475200,0.16947509765625,0.2237292230129242,-0.4050033390522003,0.14248420298099518
1777561205514004700,0.188004638671875,0.21945317089557648,-0.45937031507492065,0.17547090351581573
1777561205532534300,0.2065341796875,0.23655737936496735,-0.5473348498344421,0.19135339558124542
1777561205551063800,0.225063720703125,0.2750418782234192,-0.5406153202056885,0.2084576040506363
1777561205569593300,0.24359326171875,0.2591593861579895,-0.4984656572341919,0.191964253783226
1777561205588122600,0.26212255859375,0.1870773434638977,-0.49418962001800537,0.1663079410791397
1777561205606652200,0.280652099609375,0.16019928455352783,-0.5131264328956604,0.09422589093446732
1777561205625181700,0.299181640625,0.15225805342197418,-0.5235111117362976,0.03375028073787689
1777561205643711000,0.3177109375,0.16569706797599792,-0.5119046568870544,-0.0591011680662632
1777561205662240500,0.336240478515625,0.24694208800792694,-0.6530144214630127,-0.125074565410614
1777561205680769800,0.354769775390625,0.3257436454296112,-0.7183769941329956,-0.19471314549446106
1777561205699299300,0.37329931640625,0.3202458620071411,-0.6682860851287842,-0.4182896614074707
1777561205717828900,0.391828857421875,0.20540328323841095,-0.7024945020675659,-0.5502364635467529
1777561205736358100,0.410358154296875,0.09972367435693741,-0.7635809779167175,-0.5361865758895874
1777561205754887700,0.4288876953125,0.05818486958742142,-0.7086031436920166,-0.402407169342041
1777561205773417200,0.447417236328125,0.11377356201410294,-0.730594277381897,-0.06887500733137131
1777561205791946500,0.465946533203125,0.11743875592947006,-0.5827649831771851,0.3733910918235779
1777561205810476000,0.48447607421875,-0.012675444595515728,-0.3640754222869873,0.4173733592033386
1777561205829005600,0.503005615234375,-0.0591011680662632,-0.16126830875873566,-0.031001387163996696
1777561205847535000,0.52153515625,-0.09941824525594711,0.2779434621334076,-0.6540834903717041
1777561205866064400,0.540064453125,-0.29184064269065857,0.31031930446624756,-0.781143307685852
1777561205884594000,0.558593994140625,-0.5954404473304749,0.8063415288925171,-0.771980345249176
1777561205903123500,0.57712353515625,-0.7591522336006165,2.0720534324645996,-1.2392919063568115
1777561205921652700,0.59565283203125,-0.7738129496574402,2.288910388946533,-1.1458295583724976
1777561205940182300,0.614182373046875,-0.4738783538341522,1.0598503351211548,-0.616209864616394
1777561205958711600,0.632711669921875,-0.13362666964530945,0.5888736248016357,-0.6791289448738098
1777561205977241000,0.651240966796875,0.09728021919727325,0.9321796298027039,-1.0841323137283325
1777561205995770600,0.6697705078125,0.162031888961792,0.9370665550231934,-1.253341794013977
1777561206014300000,0.6882998046875,-0.017562363296747208,0.4153880476951599,-1.050534725189209
1777561206032829400,0.706829345703125,-0.14462223649024963,-0.3695732057094574,-0.8281798958778381
1777561206051359000,0.72535888671875,-0.2234237939119339,-0.749531090259552,-0.8703296184539795
1777561206069888300,0.74388818359375,-0.13973531126976013,-0.4783071279525757,-1.0725258588790894
1777561206088417800,0.762417724609375,0.15592323243618011,0.16554436087608337,-1.5459460020065308
1777561206106947000,0.780947021484375,0.10644318908452988,0.6866120100021362,-1.5813761949539185
1777561206125476600,0.7994765625,-0.07009673118591309,0.9645555019378662,-1.215468168258667
1777561206144006100,0.818006103515625,-0.13484840095043182,0.8265000581741333,-1.0529781579971313
1777561206162535700,0.83653564453125,-0.03894263133406639,0.5174024701118469,-0.9925025701522827
1777561206181065000,0.85506494140625,0.191964253783226,0.5534434914588928,-1.0279327630996704
1777561206199594500,0.873594482421875,0.25121814012527466,0.8399390578269958,-0.9888373613357544
1777561206218124000,0.8921240234375,0.20906847715377808,0.9950987100601196,-0.8617774844169617
1777561206236653300,0.9106533203125,0.09422589093446732,1.0122029781341553,-0.669965922832489
1777561206255182800,0.929182861328125,-0.057268574833869934,0.9297361969947815,-0.559399425983429
1777561206273712400,0.94771240234375,-0.17883066833019257,0.8393282294273376,-0.5404626131057739
1777561206292241700,0.96624169921875,-0.25579962134361267,0.8155044913291931,-0.5661189556121826
1777561206310771200,0.984771240234375,-0.27168211340904236,0.7837395071983337,-0.6052142977714539
1777561206329300700,1.00330078125,-0.23075416684150696,0.7452550530433655,-0.7115047574043274
1777561206347830000,1.021830078125,-0.208152174949646,0.6921098232269287,-0.7664825916290283
1777561206366359600,1.040359619140625,-0.17944152653217316,0.7825177907943726,-0.6925679445266724
1777561206384889000,1.05888916015625,-0.10980294644832611,0.952949047088623,-0.5160280466079712
1777561206403418400,1.07741845703125,-0.040775224566459656,1.0885610580444336,-0.3620901107788086
1777561206421948000,1.095947998046875,-0.005955931730568409,1.0751219987869263,-0.3058905303478241
1777561206440477200,1.114477294921875,0.028863361105322838,0.9853248596191406,-0.2704603672027588
1777561206459006700,1.1330068359375,0.06123919412493706,0.9321796298027039,-0.1207985132932663
1777561206477536300,1.151536376953125,0.0539088174700737,0.833219587802887,0.06795870512723923
1777561206496065500,1.1700654296875,0.058795735239982605,0.583375871181488,0.32818710803985596
1777561206514595000,1.188594970703125,0.09056070446968079,0.18875721096992493,0.615293562412262
1777561206533124600,1.20712451171875,0.22678354382514954,-0.24495677649974823,0.892015278339386
1777561206551654000,1.22565380859375,0.3404043912887573,-0.5485565662384033,1.2750275135040283
1777561206570183400,1.244183349609375,0.29825472831726074,-0.9914335608482361,1.8773401975631714
1777561206588712700,1.262712646484375,0.2182314395904541,-1.5949679613113403,2.6109888553619385
1777561206607242200,1.2812421875,0.16997312009334564,-1.8814635276794434,3.2456772327423096
1777561206625771800,1.299771728515625,0.15470150113105774,-1.703091025352478,3.4442083835601807
1777561206644301000,1.318301025390625,-0.08231402933597565,-0.9126319885253906,3.252396821975708
1777561206662830600,1.33683056640625,-0.5661189556121826,-0.5070177912712097,3.0581417083740234
1777561206681360100,1.355360107421875,-1.2527309656143188,-1.3536763191223145,2.6195409297943115
1777561206699889400,1.373889404296875,-1.662621259689331,-1.580307126045227,2.157727003097534
1777561206718419000,1.3924189453125,-1.3920080661773682,-0.11484257876873016,1.9708025455474854
1777561206736948500,1.410948486328125,-0.6198750138282776,1.92361319065094,1.9989023208618164
1777561206755477800,1.429477783203125,0.17424917221069336,1.196073293685913,1.4393501281738281
1777561206774007300,1.44800732421875,0.42042768001556396,1.3573415279388428,-0.46838057041168213
1777561206792536800,1.466536865234375,0.8510873317718506,-2.4233005046844482,3.503462314605713
1777561206811066400,1.48506640625,0.5474875569343567,-2.1172573566436768,3.162599563598633
1777561206829595600,1.503595703125,0.4686860144138336,-1.8985676765441895,1.4216350317001343
1777561206848125200,1.522125244140625,0.48212501406669617,-1.6511675119400024,0.9390518665313721
1777561206866654500,1.540654541015625,0.4082103967666626,-1.1777472496032715,0.6812669634819031
1777561206885184000,1.55918408203125,0.38011062145233154,-0.555276095867157,0.30253079533576965
1777561206903713500,1.577713623046875,0.37522369623184204,0.010995565913617611,-0.1104138121008873
1777561206922242800,1.596242919921875,0.4173733592033386,0.5033525824546814,-0.5062541961669922
1777561206940772400,1.6147724609375,0.5761982202529907,0.7379246354103088,-0.9057597517967224
1777561206959302000,1.633302001953125,0.827874481678009,0.7886264324188232,-1.2490657567977905
1777561206977831200,1.6518310546875,1.0557270050048828,0.8564324378967285,-1.5288418531417847
1777561206996360700,1.670360595703125,0.939662754535675,0.9975422024726868,-1.5435025691986084
1777561207014890000,1.688889892578125,0.6256782412528992,0.8527672290802002,-1.2050834894180298
1777561207033419500,1.70741943359375,0.4222602844238281,0.1637117564678192,-0.6327031850814819
1777561207051949000,1.725948974609375,0.43569931387901306,-0.6420188546180725,0.006872228812426329
1777561207070478600,1.744478515625,0.41187557578086853,-1.0177006721496582,0.47174033522605896
1777561207089007900,1.7630078125,0.17363831400871277,-1.1215476989746094,0.6262891292572021
1777561207107537400,1.781537353515625,-0.054214250296354294,-1.4275909662246704,0.551152765750885
1777561207126067000,1.80006689453125,-0.2338084876537323,-1.073289394378662,0.32452189922332764
1777561207144596500,1.818596435546875,-0.45249807834625244,-0.32681265473365784,0.2231183648109436
1777561207163125800,1.837125732421875,-1.307708740234375,0.8765909671783447,-0.15745039284229279
1777561207181655300,1.8556552734375,-1.9796600341796875,-0.46425724029541016,1.154076337814331
1777561207200184600,1.8741845703125,-1.2667808532714844,0.02932151034474373,0.12721258401870728
1777561207218714000,1.892714111328125,-0.22647811472415924,1.8008294105529785,-0.4280634820461273
1777561207237243600,1.91124365234375,0.35445427894592285,1.8570289611816406,-1.0315978527069092
1777561207255773000,1.92977294921875,-0.16783510148525238,2.880838394165039,-1.2954914569854736
1777561207274302500,1.948302490234375,-0.9332486391067505,3.700007915496826,-1.2209659814834595
1777561207292832000,1.96683203125,-1.5685480833053589,3.208261728286743,-1.420718789100647
1777561207311361500,1.985361572265625,-1.8416045904159546,2.078772783279419,-1.6033673286437988
1777561207329890800,2.003890869140625,-0.671187698841095,-0.0720820426940918,-1.067638874053955
1777561207348420400,2.02242041015625,0.34468045830726624,-0.721431314945221,-0.8776599764823914
1777561207366950000,2.040949951171875,0.7845031023025513,0.9450078010559082,-0.6504182815551758
1777561207385479200,2.059479248046875,1.0545053482055664,1.6481131315231323,-0.7469348907470703
1777561207404008700,2.0780087890625,1.052061915397644,1.9242240190505981,-1.0719150304794312
1777561207422538200,2.096538330078125,0.6696605086326599,1.53510320186615,-1.2918262481689453
1777561207441067500,2.115067626953125,0.06123919412493706,0.7483093738555908,-0.9350812435150146
1777561207459597000,2.13359716796875,-0.37552911043167114,-0.04764745384454727,-0.2228129357099533
1777561207478126600,2.152126708984375,-0.4237874448299408,-0.35185810923576355,0.0386371985077858
1777561207496656100,2.17065625,-0.2228129357099533,0.024434590712189674,-0.01695149764418602
1777561207515185400,2.189185302734375,-0.07315105944871902,0.6243038177490234,0.16569706797599792
1777561207533715000,2.20771484375,-0.0798705667257309,0.7806851863861084,0.4546361267566681
1777561207552244500,2.226244384765625,-0.25091269612312317,0.33597561717033386,0.6635518670082092
1777561207570774000,2.24477392578125,-0.6241511106491089,0.2003636509180069,0.7863357067108154
1777561207589303300,2.26330322265625,-0.7286089658737183,0.8930842876434326,0.7686206102371216
1777561207607832800,2.281832763671875,-0.6553052067756653,0.9004147052764893,0.9482148289680481
1777561207626362400,2.3003623046875,-0.6944005489349365,0.5112938284873962,1.3672680854797363
1777561207644892000,2.318891845703125,-0.6748528480529785,0.6640099883079529,1.4931062459945679
1777561207672685800,2.346685791015625,-0.5319104790687561,0.6908880472183228,0.8315396904945374
1777561207691215400,2.36521533203125,-0.4555523991584778,0.7867938280105591,0.6586649417877197
1777561207709745000,2.383744873046875,-0.5917752385139465,1.1032217741012573,1.0019710063934326
1777561207728274400,2.4022744140625,-0.7396045327186584,0.8429933786392212,1.7942625284194946
1777561207746804000,2.420803955078125,-0.7988584041595459,-0.48013970255851746,3.235292673110962
1777561207765333200,2.439333251953125,-0.7585413455963135,-0.04764745384454727,3.8125598430633545
1777561207783862800,2.45786279296875,-0.39996370673179626,-0.5925388336181641,3.322035312652588
1777561207802392300,2.476392333984375,0.09544762223958969,-1.0757328271865845,3.2701117992401123
1777561207820921900,2.494921875,0.5279398560523987,-0.5925388336181641,2.5053091049194336
1777561207839451100,2.513451171875,0.6476693749427795,0.10445787757635117,1.0551161766052246
1777561207857980700,2.531980712890625,0.6000219583511353,0.34147340059280396,-0.07192932814359665
1777561207876510200,2.55051025390625,0.2023489624261856,-0.07819069176912308,-0.48670652508735657
1777561207895039700,2.569039794921875,-0.35537058115005493,-0.16004657745361328,-0.8636100888252258
1777561207913569300,2.5875693359375,-0.11163553595542908,0.5528326034545898,-1.5544981956481934
1777561207932098600,2.6060986328125,0.33429574966430664,1.0836740732192993,-2.3651156425476074
1777561207950628000,2.624628173828125,0.5285507440567017,1.12765634059906,-2.900844097137451
1777561207969157600,2.64315771484375,0.44608399271965027,1.0018181800842285,-3.0450081825256348
1777561207987687200,2.661687255859375,0.19379685819149017,1.0329723358154297,-2.9326090812683105
1777561208006216400,2.680216552734375,-0.10858121514320374,0.6120865345001221,-2.6112942695617676
1777561208024746000,2.69874609375,-0.43600472807884216,-0.7092140316963196,-1.9637775421142578
1777561208043275500,2.717275634765625,-0.2741255760192871,-1.9816453456878662,-1.243567943572998
1777561208061805000,2.73580517578125,0.3862192630767822,-2.452622175216675,-1.1195623874664307
1777561208080334600,2.75433447265625,0.5566505193710327,-1.266933560371399,-1.3590214252471924
1777561208098863900,2.77286376953125,0.7643445730209351,0.47586366534233093,-1.0651954412460327
1777561208117393400,2.791393310546875,1.0447314977645874,1.1606431007385254,-0.8721621632575989
1777561208135923000,2.8099228515625,1.2621994018554688,1.758679747581482,-1.169653296470642
1777561208154452500,2.828452392578125,1.2793035507202148,1.9889757633209229,-1.6265802383422852
1777561208172981800,2.846981689453125,0.8999565243721008,1.0891718864440918,-1.74203360080719
1777561208191511300,2.86551123046875,0.295811265707016,-0.347582072019577,-1.2405136823654175
1777561208210040800,2.884040771484375,-0.3174969553947449,-2.0488405227661133,-0.7579304575920105
1777561208228570400,2.9025703125,-0.6583595275878906,-3.6053240299224854,-0.7200568318367004
1777561208247100000,2.921099853515625,-0.6870701313018799,-2.5130977630615234,0.08200860023498535
1777561208265629400,2.93962939453125,-0.08109229803085327,3.498422622680664,1.3978112936019897
1777561208284159000,2.958158935546875,0.4332558512687683,2.391535520553589,1.1956150531768799
1777561208302688300,2.976688232421875,-0.790917158126831,-0.34636032581329346,1.983630657196045
1777561208321217800,2.9952177734375,-0.29794928431510925,1.1881320476531982,2.7533202171325684
1777561208339747300,3.013747314453125,0.17486004531383514,0.8680388331413269,1.4698933362960815
1777561208358276900,3.03227685546875,0.5529853701591492,0.35613417625427246,-0.7359393239021301
1777561208376806400,3.050806396484375,0.346513032913208,-0.8295543789863586,-2.0749549865722656
1777561208395336000,3.0693359375,-0.19654574990272522,-0.13927717506885529,-0.48181959986686707
1777561208413865200,3.087865234375,-0.4702131748199463,0.8344413042068481,0.45646870136260986
1777561208432394800,3.106394775390625,-0.2503018379211426,0.2822195291519165,0.05696314200758934
1777561208450924300,3.12492431640625,-0.145843967795372,-0.08674279600381851,-0.32910341024398804
1777561208469453800,3.143453857421875,-0.23564109206199646,-0.3451386094093323,-0.4127918779850006
1777561208487983400,3.1619833984375,-0.36392268538475037,-0.8210022449493408,-0.4298960864543915
1777561208506513000,3.180512939453125,-0.38102689385414124,-0.972496747970581,-0.23441936075687408
1777561208525042200,3.199042236328125,-0.32971426844596863,-0.5222893953323364,0.30863943696022034
1777561208543572000,3.217572021484375,-0.3572031855583191,0.21685700118541718,0.7063124179840088
1777561208571366100,3.2453662109375,-0.30283620953559875,0.05436696484684944,0.4992292523384094
1777561208589895700,3.263895751953125,-0.16539163887500763,0.5803215503692627,0.3782780170440674
1777561208608425200,3.28242529296875,-0.14401137828826904,0.8600975871086121,0.5676460862159729
1777561208626954500,3.30095458984375,-0.18066325783729553,1.1068869829177856,0.585972011089325
1777561208645484300,3.319484375,-0.2741255760192871,0.4062250852584839,0.531605064868927
1777561208664013600,3.338013671875,-0.4708240330219269,-0.6731730103492737,0.7136427760124207
1777561208682543000,3.356543212890625,-0.4451677203178406,0.015271619893610477,1.4576760530471802
1777561208701072600,3.37507275390625,-0.37003132700920105,-0.42271843552589417,2.1723878383636475
1777561208719602200,3.393602294921875,-0.5312996506690979,-0.8045089244842529,2.6732969284057617
1777561208738131700,3.412131591796875,-0.7609847784042358,-0.6181951761245728,2.724609613418579
1777561208756661200,3.4306611328125,-0.33337944746017456,-0.8521563410758972,3.255451202392578
1777561208775190800,3.449190673828125,0.6110175251960754,-1.37078058719635,3.1729843616485596
1777561208793720300,3.46772021484375,0.6513345837593079,-0.565049946308136,2.1980443000793457
1777561208812249900,3.486249755859375,0.2683223485946655,-0.5100721120834351,1.2780818939208984
1777561208830779400,3.504779296875,-0.2393062710762024,-1.3292417526245117,1.0380120277404785
1777561208849309000,3.523308837890625,-0.44211336970329285,-1.1184934377670288,0.5658134818077087
1777561208867838500,3.54183837890625,-0.20998476445674896,0.14110976457595825,-0.393244206905365
1777561208886367700,3.56036767578125,0.521831214427948,0.646905779838562,-1.3406955003738403
1777561208904897300,3.578897216796875,0.9195042252540588,0.7238747477531433,-1.8965823650360107
1777561208923426800,3.5974267578125,1.0441206693649292,0.675616443157196,-2.1781911849975586
1777561208941956400,3.615956298828125,1.0111339092254639,0.6023126840591431,-2.4219260215759277
1777561208960486000,3.63448583984375,0.8529199361801147,0.6041452884674072,-2.5526511669158936
1777561208979015400,3.653015380859375,0.5945241451263428,0.7476984858512878,-2.5489859580993652
1777561208997545000,3.671544921875,0.19929464161396027,0.7745765447616577,-2.402989387512207
1777561209016074500,3.690074462890625,-0.3040579557418823,0.3249800503253937,-2.16536283493042
1777561209034604000,3.70860400390625,-0.7927497625350952,-0.7452550530433655,-1.7597486972808838
1777561209053133600,3.727133544921875,-0.9699005484580994,-1.682321548461914,-1.243567943572998
1777561209071663000,3.7456630859375,-0.2692386507987976,-2.0360124111175537,-0.772591233253479
1777561209090192600,3.764192626953125,0.6543889045715332,-1.1160500049591064,-1.1281145811080933
1777561209108722200,3.78272216796875,0.8199332356452942,0.4459312856197357,-1.4537054300308228
1777561209127251700,3.801251708984375,0.6904299259185791,1.3469568490982056,-0.893542468547821
1777561209145781200,3.81978125,0.9543235301971436,1.7495167255401611,-0.29794928431510925
1777561209164310800,3.838310791015625,0.9555452466011047,1.0702351331710815,-0.5618428587913513
1777561209182840300,3.85684033203125,0.780837893486023,-0.4923570156097412,-0.9717331528663635
1777561209201369900,3.875369873046875,0.22495095431804657,-1.5595377683639526,-0.6094903349876404
1777561209219899400,3.8938994140625,-0.23136503994464874,-0.565049946308136,0.2188423126935959
1777561209238429000,3.912428955078125,-0.6149880886077881,-2.564410448074341,-0.08170316368341446
1777561209256958500,3.93095849609375,-0.6302597522735596,-2.017686367034912,-0.8196278214454651
1777561209275488300,3.94948828125,-0.2240346521139145,2.8649559020996094,1.262810230255127
1777561209294017500,3.968017578125,0.20540328323841095,4.883863925933838,2.142455577850342
1777561209312547000,3.986547119140625,1.0233511924743652,2.511875867843628,1.8626794815063477
1777561209331076900,4.005076904296875,0.8174898028373718,0.16737695038318634,0.3513999581336975
1777561209349606100,4.023606201171875,0.0746782198548317,-2.10687255859375,-1.4793617725372314
1777561209368136000,4.042135986328125,-0.2136499583721161,-2.539975643157959,-1.6290236711502075
1777561209386665500,4.06066552734375,-0.13179408013820648,-0.7947350740432739,-0.7316632866859436
1777561209405195000,4.079195068359375,-0.07315105944871902,0.9462295174598694,-0.40607234835624695
1777561209423724500,4.097724609375,0.03130681812763214,0.5540543794631958,-0.3040579557418823
1777561209442254000,4.116254150390625,-0.043829549103975296,-0.2919933497905731,-0.48365217447280884
1777561209460783600,4.13478369140625,-0.04199695214629173,-0.5192350745201111,-0.44761115312576294
1777561209479313200,4.153313232421875,-0.17333288490772247,-0.7764091491699219,-0.32849252223968506
1777561209497842700,4.1718427734375,-0.23625195026397705,-0.8265000581741333,-0.0487164668738842
1777561209516372200,4.190372314453125,-0.20387612283229828,-0.19853104650974274,0.41126471757888794
1777561209534901800,4.20890185546875,-0.18493930995464325,0.7244856357574463,0.6391173005104065
1777561209553431300,4.227431396484375,-0.19898919761180878,0.6291907429695129,0.5584831237792969
1777561209571960800,4.2459609375,-0.3199404180049896,-0.05864302068948746,0.41065385937690735
1777561209590490600,4.26449072265625,-0.26740604639053345,0.4062250852584839,0.5248855352401733
1777561209609020200,4.283020263671875,-0.19104796648025513,0.5803215503692627,0.7619010806083679
1777561209627549700,4.3015498046875,-0.2753472924232483,-0.16798780858516693,0.7203623056411743
1777561209646079200,4.320079345703125,-0.31383177638053894,-0.6462949514389038,0.5981893539428711
1777561209664608800,4.33860888671875,-0.18005239963531494,0.26022839546203613,0.7435751557350159
1777561209683138300,4.35713818359375,-0.10186170041561127,1.073289394378662,1.0190751552581787
1777561209701667800,4.375667724609375,-0.16416990756988525,0.6120865345001221,1.3336704969406128
1777561209720197600,4.39419775390625,-0.2551887631416321,-0.5870410799980164,2.207818031311035
1777561209738727200,4.41272705078125,-0.6339249014854431,-1.064737319946289,3.162599563598633
1777561209757256700,4.431256591796875,-1.068860650062561,-0.9071341753005981,3.328144073486328
1777561209785051100,4.459051025390625,-0.9234748482704163,-0.9920443892478943,3.0251550674438477
1777561209803580700,4.47758056640625,0.3831649422645569,0.6811142563819885,2.087477684020996
1777561209822110200,4.496110107421875,0.8077159523963928,0.2419024556875229,1.243262529373169
1777561209840639700,4.5146396484375,0.37400195002555847,-1.2553271055221558,1.151021957397461
1777561209859169300,4.533169189453125,-0.41095927357673645,-1.5375466346740723,0.9036217331886292
1777561209877699000,4.551698974609375,-0.8122974634170532,-0.40866854786872864,-0.0743727833032608
1777561209896228600,4.570228515625,-0.5215258002281189,0.31031930446624756,-0.9338595271110535
1777561209914758100,4.588758056640625,0.1357647031545639,0.45875945687294006,-1.4543163776397705
1777561209933287700,4.60728759765625,0.37522369623184204,0.5406153202056885,-1.7487531900405884
1777561209951817200,4.625817138671875,0.49373146891593933,0.6835576891899109,-2.107330799102783
1777561209970347000,4.644346923828125,0.5480984449386597,0.833219587802887,-2.4720170497894287
1777561209988876500,4.66287646484375,0.5426006317138672,1.0207550525665283,-2.624122381210327
1777561210007406000,4.681406005859375,0.3611738085746765,1.249218463897705,-2.6448917388916016
1777561210025935600,4.699935546875,-0.0383317656815052,1.2443315982818604,-2.743851900100708
1777561210044465400,4.71846533203125,-0.39996370673179626,0.7922916412353516,-2.735910654067993
1777561210062995000,4.736994873046875,-0.1776089370250702,-0.5503891706466675,-1.9515602588653564
1777561210081524500,4.7555244140625,0.4637990891933441,-2.696357250213623,-0.8257364630699158
1777561210100054000,4.774053955078125,0.3251327872276306,-2.640768527984619,-1.39445161819458
1777561210118583600,4.79258349609375,0.3776671588420868,0.17226386070251465,-1.136055827140808
1777561210137113300,4.81111328125,0.5340485572814941,2.0439536571502686,-0.2857320010662079
1777561210155643000,4.829642822265625,0.6702713966369629,1.5418226718902588,-0.010842849500477314
1777561210174172400,4.84817236328125,0.6470585465431213,0.5143481492996216,-0.2649625837802887
1777561210192702200,4.8667021484375,0.5823068618774414,0.38789913058280945,-0.45127636194229126
1777561210211231700,4.885231689453125,0.3556760251522064,0.1997527778148651,-0.03649916872382164
1777561210229761300,4.90376123046875,-0.17638720571994781,-0.4257727563381195,0.5743656158447266
1777561210248290800,4.922290771484375,-0.8898772597312927,-3.489259719848633,-0.1611155867576599
1777561210266820600,4.940820556640625,-0.45188722014427185,-0.5564978122711182,-0.043829549103975296
1777561210285350100,4.95935009765625,0.1614210158586502,3.489870548248291,1.1192569732666016
1777561210303879700,4.977879638671875,0.11255183815956116,3.098917007446289,2.1662793159484863
1777561210322409500,4.996409423828125,0.3257436454296112,1.6560543775558472,2.163224935531616
1777561210340939000,5.01493896484375,0.4686860144138336,-0.5192350745201111,0.7185297012329102
1777561210359468500,5.033468505859375,0.2237292230129242,-1.543655276298523,-1.705992579460144
1777561210377998300,5.051998291015625,0.016035201027989388,-1.387273907661438,-1.8458806276321411
1777561210396527900,5.07052783203125,-0.1672242283821106,0.09407317638397217,-0.3119991719722748
1777561210415057700,5.0890576171875,-0.13973531126976013,0.832608699798584,-0.310166597366333
1777561210433587200,5.107587158203125,-0.03283398225903511,0.13255766034126282,-0.3633118271827698
1777561210452116700,5.12611669921875,-0.09392046183347702,-0.28527384996414185,-0.41706791520118713
1777561210470646500,5.144646484375,-0.1568395346403122,-0.37323838472366333,-0.4848739206790924
1777561210489176000,5.163176025390625,-0.1922696828842163,-0.5332849621772766,-0.5575668215751648
1777561210507705900,5.181705810546875,-0.22953243553638458,-0.7776308655738831,-0.425009161233902
1777561210526235400,5.2002353515625,-0.31444263458251953,-0.8222240209579468,-0.1415679156780243
1777561210544765000,5.218764892578125,-0.36392268538475037,-0.06475166976451874,0.18035782873630524
1777561210563294700,5.237294677734375,-0.3822486400604248,0.056199558079242706,0.31719154119491577
1777561210581824300,5.25582421875,-0.36942046880722046,-0.12705987691879272,0.2811505198478699
1777561210600354000,5.27435400390625,-0.38591381907463074,-0.11056652665138245,0.4045451879501343
1777561210618883600,5.292883544921875,-0.35903576016426086,0.13500112295150757,0.5346593856811523
1777561210637413000,5.3114130859375,-0.30283620953559875,0.25900667905807495,0.7203623056411743
1777561210655943000,5.32994287109375,-0.3614792227745056,-0.04764745384454727,0.706923246383667
1777561210674472400,5.348472412109375,-0.33460119366645813,0.17898337543010712,0.7716749310493469
1777561210693002200,5.367002197265625,-0.3309359848499298,0.2101374864578247,0.9592103958129883
1777561210711531800,5.38553173828125,-0.37369653582572937,0.04764745384454727,1.4234676361083984
1777561210730061600,5.4040615234375,-0.29672756791114807,-0.3170388340950012,2.1699445247650146
1777561210748591000,5.422591064453125,-0.47265663743019104,-1.4288127422332764,3.0721917152404785
1777561210767120600,5.44112060546875,-0.7560978531837463,-1.8466442823410034,3.392284870147705
1777561210785650400,5.459650390625,-0.8165735006332397,-1.1148282289505005,3.212690591812134
1777561210804180000,5.478179931640625,-0.3883572816848755,-0.9755510687828064,2.92008638381958
1777561210822709800,5.496709716796875,0.2805396616458893,-0.8619301915168762,2.5474588871002197
1777561210841239300,5.5152392578125,0.6104066371917725,-0.34697118401527405,1.576183795928955
1777561210859769000,5.53376904296875,0.4552469849586487,-0.4764745235443115,0.9121738076210022
1777561210878298600,5.552298583984375,0.09239330142736435,-0.618806004524231,0.5010618567466736
1777561210896828400,5.570828369140625,-0.09147699922323227,-0.2809978127479553,-0.2179260104894638
1777561210915358000,5.58935791015625,0.10827577859163284,0.0922405794262886,-0.9424116611480713
1777561210933887700,5.6078876953125,0.5597048401832581,0.25473061203956604,-1.4720313549041748
1777561210952417300,5.626417236328125,0.9543235301971436,0.33536475896835327,-1.891695499420166
1777561210970947000,5.644947021484375,1.1357502937316895,0.3787361681461334,-2.388939380645752
1777561210989476600,5.6634765625,1.0777181386947632,0.33047783374786377,-2.7756168842315674
1777561211008006400,5.68200634765625,0.9133955836296082,0.7483093738555908,-2.9906413555145264
1777561211026536000,5.700535888671875,0.6885973215103149,1.6395610570907593,-3.0615015029907227
1777561211045065700,5.719065673828125,0.337350070476532,2.313344955444336,-3.0694427490234375
1777561211063595300,5.73759521484375,-0.20448698103427887,1.9394956827163696,-2.944826364517212
1777561211082125000,5.756125,-0.6968439817428589,0.4318813979625702,-2.346789836883545
1777561211100654600,5.774654541015625,-0.2539670467376709,-1.9211697578430176,-0.8568905591964722
1777561211119184400,5.793184326171875,0.02458730712532997,-3.216202974319458,-0.7512109875679016
1777561211137714200,5.811714111328125,0.3715584874153137,-1.6969823837280273,-1.743866205215454
1777561211156243700,5.83024365234375,0.2683223485946655,1.3597849607467651,-0.6565269231796265
1777561211174773200,5.848773193359375,0.388051837682724,1.556483507156372,0.346513032913208
1777561211193303000,5.867302978515625,0.5816959738731384,1.441640853881836,0.46624255180358887
1777561211211832800,5.885832763671875,0.6366738080978394,1.110552191734314,0.052687086164951324
1777561211230362400,5.9043623046875,0.4021017551422119,-0.8570432662963867,-0.007177661173045635
1777561211248892200,5.92289208984375,-0.19410228729248047,-0.7446441650390625,0.9873101711273193
1777561211267421700,5.941421630859375,-0.23136503994464874,1.6267329454421997,1.4436261653900146
1777561211285951500,5.959951416015625,0.18890993297100067,-2.29624080657959,-0.5178605914115906
1777561211304481300,5.978481201171875,-0.3828594982624054,-0.9645555019378662,-1.2441788911819458
1777561211323010800,5.9970107421875,-0.06337722390890121,3.3463172912597656,2.0215041637420654
1777561211341540600,6.01554052734375,0.3306305706501007,2.548527956008911,1.760054111480713
1777561211360070100,6.034070068359375,0.4656316637992859,0.389120876789093,0.37400195002555847
1777561211378600000,6.052599853515625,0.47784897685050964,-1.137430191040039,-1.4158318042755127
1777561211397129500,6.07112939453125,0.20906847715377808,-0.5241219997406006,-1.5288418531417847
1777561211415659300,6.0896591796875,0.008093958720564842,0.9902117848396301,-0.7927497625350952
1777561211434189000,6.10818896484375,-0.13240493834018707,1.3732240200042725,-0.7035635113716125
1777561211452718600,6.126718505859375,-0.2606865465641022,0.1899789422750473,-0.5422952175140381
1777561211471248400,6.145248291015625,-0.3462076187133789,-0.6591231226921082,-0.6033816933631897
1777561211489778000,6.16377783203125,-0.3254382014274597,-0.6029235124588013,-0.5710058808326721
1777561211508307700,6.1823076171875,-0.2802342176437378,-0.4972439408302307,-0.33887723088264465
1777561211526837500,6.20083740234375,-0.2808450758457184,-0.7470875978469849,-0.09636391699314117
1777561211545367000,6.219366943359375,-0.1617264449596405,-0.001832594396546483,0.07284562289714813
1777561211563896800,6.237896728515625,-0.13179408013820648,0.5503891706466675,0.32879796624183655
1777561211582426400,6.25642626953125,-0.2887863218784332,0.16004657745361328,0.39477136731147766
1777561211600956200,6.2749560546875,-0.2955058515071869,0.4734202027320862,0.4540252387523651
1777561211619486000,6.29348583984375,-0.19104796648025513,0.860708475112915,0.4943423271179199
1777561211638015500,6.312015380859375,-0.1971566081047058,0.6927206516265869,0.6586649417877197
1777561211656545300,6.330545166015625,-0.16355904936790466,0.4618137776851654,0.735633909702301
1777561211675074800,6.34907470703125,-0.23014330863952637,-0.28038692474365234,0.7649554014205933
1777561211693604600,6.3676044921875,-0.31383177638053894,0.40744680166244507,1.1198678016662598
1777561211712134400,6.386134521484375,-0.23991714417934418,1.1209368705749512,1.670867919921875
1777561211730664200,6.404664306640625,-0.1727220118045807,-0.16737695038318634,2.441779136657715
1777561211749193700,6.42319384765625,-0.4897608458995819,-1.221118688583374,3.0550875663757324
1777561211767723500,6.4417236328125,-0.5929969549179077,-0.360410213470459,2.91397762298584
1777561211786253000,6.460253173828125,-0.41157013177871704,-1.1759146451950073,2.4570508003234863
1777561211804782800,6.478782958984375,0.06490438431501389,-1.5344923734664917,2.218202829360962
1777561211823312400,6.4973125,0.3990474045276642,-1.4404191970825195,1.4796671867370605
1777561211841842200,6.51584228515625,0.6311760544776917,-0.7018836140632629,0.6501128673553467
1777561211860372000,6.5343720703125,0.585972011089325,-0.2816086709499359,0.24999640882015228
1777561211878901800,6.55290185546875,-0.024892739951610565,-0.1594357043504715,-0.031612250953912735
1777561211897431300,6.571431396484375,-0.1562286615371704,-0.14233149588108063,-0.41034841537475586
1777561211915961000,6.589961181640625,0.2029598206281662,-0.28527384996414185,-0.8232930302619934
1777561211934490600,6.60849072265625,0.7912226319313049,-0.2577849328517914,-1.2851067781448364
1777561211953020400,6.6270205078125,1.215773582458496,-0.030543239787220955,-1.6894992589950562
1777561211971550200,6.64555029296875,1.218217134475708,-0.10751219838857651,-1.815948247909546
1777561211990080000,6.664080078125,0.8914044499397278,0.010995565913617611,-1.7206534147262573
1777561212008609500,6.682609619140625,0.4387536346912384,0.10140355676412582,-1.7359249591827393
1777561212027139300,6.701139404296875,0.03558287397027016,0.2767217457294464,-1.8251112699508667
1777561212045669000,6.719669189453125,-0.21609342098236084,0.21319180727005005,-1.8202242851257324
1777561212064198700,6.73819873046875,-0.45310893654823303,0.1380554437637329,-1.5563308000564575
1777561212082728400,6.756728515625,-0.7304415702819824,-0.1649334877729416,-1.0083850622177124
1777561212101258200,6.77525830078125,-0.35903576016426086,-0.41844236850738525,-0.44211336970329285
1777561212119787800,6.793787841796875,0.30375251173973083,0.07757982611656189,-0.11957678198814392
1777561212138317600,6.812317626953125,0.21639885008335114,0.4214966893196106,-0.14828743040561676
1777561212156847400,6.830847412109375,0.1565341055393219,0.31093016266822815,-0.041386090219020844
1777561212175377000,6.849376953125,0.347123920917511,0.5839866995811462,-0.07009673118591309
1777561212193906700,6.86790673828125,0.3685041666030884,0.471587598323822,-0.08597921580076218
1777561212212436500,6.8864365234375,0.1510363221168518,0.1637117564678192,0.10338886082172394
1777561212230966300,6.90496630859375,-0.18066325783729553,-0.8991929292678833,0.5988001823425293
1777561212249495800,6.923495849609375,-0.43600472807884216,-1.431867003440857,1.4967714548110962
1777561212268025600,6.942025634765625,0.06490438431501389,2.525315046310425,1.149800181388855
1777561212286555400,6.960555419921875,0.6519454121589661,2.4886631965637207,0.6562215089797974
1777561212305085000,6.9790849609375,-0.30772313475608826,0.45998117327690125,-0.5612320303916931
1777561212323614700,6.99761474609375,-1.0218240022659302,1.8661918640136719,0.7197514176368713
1777561212342144500,7.01614453125,-0.36880961060523987,1.9364413022994995,0.7655662894248962
1777561212360674000,7.034674072265625,0.6452259421348572,1.9199479818344116,-0.948520302772522
1777561212379203800,7.053203857421875,1.3208423852920532,2.883281707763672,-2.4231479167938232
1777561212397733600,7.071733642578125,1.345276951789856,3.6615235805511475,-3.03401255607605
1777561212416263400,7.090263427734375,1.0184643268585205,3.4526076316833496,-3.135416269302368
1777561212434793000,7.10879296875,0.8077159523963928,2.5528039932250977,-2.564868450164795
1777561212453322800,7.12732275390625,0.449138343334198,2.564410448074341,-2.0077598094940186
1777561212471852500,7.1458525390625,0.27809619903564453,2.939481258392334,-1.9259039163589478
1777561212490382000,7.164382080078125,0.49739664793014526,3.369530200958252,-1.7890702486038208
1777561212508911900,7.182911865234375,0.27259841561317444,3.3542585372924805,-1.4628684520721436
1777561212527441700,7.201441650390625,-0.05787943676114082,3.137401580810547,-0.8636100888252258
1777561212545971500,7.219971435546875,-0.28817546367645264,3.1300711631774902,-0.773202121257782
1777561212564501000,7.2385009765625,-0.4751000702381134,3.135568857192993,-0.948520302772522
1777561212583030800,7.25703076171875,-0.8000801205635071,2.743393659591675,-0.9998329281806946
1777561212601560600,7.275560546875,-0.9228639602661133,1.9938626289367676,-0.8587231636047363
1777561212620090000,7.294090087890625,-0.7060069441795349,1.0348049402236938,-0.7701478004455566
1777561212638620000,7.312619873046875,-0.37919431924819946,1.0109812021255493,-0.8245147466659546
1777561212657149700,7.331149658203125,0.036193739622831345,1.9285000562667847,-0.6284271478652954
1777561212675679500,7.349679443359375,0.304974228143692,1.9199479818344116,-0.4378373324871063
1777561212694209000,7.368208984375,0.34468045830726624,1.2156208753585815,-0.4292852282524109
1777561212712738800,7.38673876953125,0.27320927381515503,0.6047561168670654,-0.2906189262866974
1777561212731268600,7.4052685546875,0.10277800261974335,0.740368127822876,-0.0694858655333519
1777561212749798400,7.42379833984375,0.15897755324840546,1.1508692502975464,0.1259908676147461
1777561212768328000,7.442327880859375,0.2945895493030548,1.1068869829177856,0.4595230221748352
1777561212786857700,7.460857666015625,0.4637990891933441,0.758083164691925,1.0569487810134888
1777561212805387500,7.479387451171875,0.5780308246612549,0.23396120965480804,1.6116139888763428
1777561212823917300,7.497917236328125,0.44119709730148315,-0.44348782300949097,2.4124577045440674
1777561212842446800,7.51644677734375,-0.0334448479115963,-1.1502584218978882,3.394728183746338
1777561212860976600,7.5349765625,-0.4494437575340271,-1.6120721101760864,4.073399066925049
1777561212879506400,7.55350634765625,-0.826958179473877,-2.177122116088867,4.027584075927734
1777561212898036000,7.572035888671875,-0.9851721525192261,-0.8344413042068481,3.2285730838775635
1777561212916565800,7.590565673828125,-1.1556034088134766,-1.0836740732192993,2.5908303260803223
1777561212935095600,7.609095458984375,-1.532507061958313,-1.156977891921997,2.355647325515747
1777561212953625300,7.627625244140625,-1.3877320289611816,0.8753692507743835,2.7087271213531494
1777561212972155000,7.64615478515625,-1.1110103130340576,2.4709479808807373,2.7710354328155518
1777561212990684700,7.6646845703125,-0.8520036339759827,1.5625921487808228,2.2334742546081543
1777561213009214500,7.68321435546875,-0.503810703754425,-0.6884446144104004,1.5291472673416138
1777561213027744300,7.701744140625,-0.31871870160102844,-0.4257727563381195,2.0098979473114014
1777561213046274000,7.720274169921875,-0.281455934047699,0.050090912729501724,2.2145376205444336
1777561213064803600,7.738803466796875,-0.2955058515071869,-0.3170388340950012,1.726456642150879
1777561213083333400,7.75733349609375,-0.2838993966579437,-0.8631519079208374,1.2982404232025146
1777561213101863200,7.77586328125,-0.26618432998657227,-0.6536253094673157,0.8498656153678894
1777561213120392700,7.794392822265625,-0.2631300091743469,0.01588248461484909,0.30314165353775024
1777561213138922500,7.812922607421875,-0.19898919761180878,0.6078104376792908,-0.2124282270669937
1777561213157452300,7.831452392578125,-0.031612250953912735,1.0708459615707397,-0.6217076182365417
1777561213175982000,7.849982177734375,0.2756527364253998,1.4306453466415405,-0.9839504361152649
1777561213194512000,7.868511962890625,0.5542070865631104,1.792277216911316,-1.1763728857040405
1777561213213041400,7.88704150390625,0.8547525405883789,1.728136420249939,-1.001665472984314
1777561213231571200,7.9055712890625,0.9384410381317139,1.8338160514831543,-0.5227475166320801
1777561213250101000,7.92410107421875,0.5053378939628601,1.6768238544464111,-0.04321868345141411
1777561213268630500,7.942630615234375,0.03252854943275452,0.9908226728439331,-0.19471314549446106
1777561213287160300,7.961160400390625,-0.24297146499156952,0.19364413619041443,-0.3773617148399353
1777561213305690000,7.979690185546875,-0.38652467727661133,-0.6511818766593933,-0.2692386507987976
1777561213324220000,7.998219970703125,-0.6430879235267639,-1.100778341293335,0.6348412036895752
1777561213342749700,8.016749755859376,-1.2527309656143188,-0.8258891701698303,0.8975130915641785
1777561213361279500,8.035279541015624,-1.1293362379074097,-0.16249002516269684,-0.23197589814662933
1777561213379809000,8.05380908203125,-0.18860450387001038,1.9474369287490845,-1.575878381729126
1777561213398338800,8.0723388671875,0.20051635801792145,3.5106399059295654,-1.2997674942016602
1777561213416868600,8.09086865234375,0.3678933084011078,0.9505056142807007,-1.468366265296936
1777561213435398100,8.109398193359375,-0.034666575491428375,3.716501235961914,-2.693150043487549
1777561213453928000,8.127927978515626,-0.43722647428512573,6.401863098144531,-3.1952810287475586
1777561213472457700,8.146457763671876,-1.104901671409607,6.327948093414307,-3.1372487545013428
1777561213490987500,8.164987548828124,-1.6265802383422852,4.897303104400635,-1.8923063278198242
1777561213509517300,8.183517333984375,-0.4127918779850006,1.6297872066497803,-0.6400335431098938
1777561213528047000,8.202047119140625,0.3355174660682678,-0.08796452730894089,-1.0932952165603638
1777561213546576600,8.22057666015625,0.6898190379142761,1.1985167264938354,-1.964388370513916
1777561213565106400,8.2391064453125,1.3623812198638916,3.2711808681488037,-2.3260204792022705
1777561213583636200,8.25763623046875,1.4381283521652222,4.594314098358154,-2.2838706970214844
1777561213602165800,8.276165771484376,1.1107048988342285,4.417774200439453,-1.9759948253631592
1777561213620695600,8.294695556640624,0.5926915407180786,3.431838274002075,-1.5483895540237427
1777561213639225300,8.313225341796874,0.061850059777498245,2.4049746990203857,-1.1733185052871704
1777561213657755100,8.331755126953125,-0.20693044364452362,1.7269147634506226,-1.107956051826477
1777561213676284700,8.35028466796875,-0.2759581506252289,1.5943571329116821,-1.1494947671890259
1777561213694814500,8.368814453125,-0.3254382014274597,2.12580943107605,-1.001665472984314
1777561213713344300,8.38734423828125,-0.32299473881721497,2.395200729370117,-0.9130901098251343
1777561213731874000,8.4058740234375,-0.24602578580379486,2.2290456295013428,-1.0468695163726807
1777561213750403800,8.42440380859375,-0.18005239963531494,1.848476767539978,-0.9149227142333984
1777561213768933400,8.442933349609374,-0.21914774179458618,1.5308271646499634,-0.7286089658737183
1777561213787463200,8.461463134765625,-0.20509785413742065,1.5393792390823364,-0.7945823669433594
1777561213805993000,8.479992919921875,-0.2845102846622467,1.2284491062164307,-0.8080213665962219
1777561213824522500,8.4985224609375,-0.37980517745018005,0.6310232877731323,-0.7078395485877991
1777561213843052300,8.51705224609375,-0.28817546367645264,0.5381718873977661,-0.6082686185836792
1777561213861582000,8.53558203125,-0.1415679156780243,0.8845322132110596,-0.4384481906890869
1777561213880111900,8.55411181640625,-0.0487164668738842,1.2516618967056274,-0.3633118271827698
1777561213898641700,8.5726416015625,0.0435241162776947,1.3536763191223145,-0.2600756883621216
1777561213917171500,8.59117138671875,0.18463388085365295,1.3078614473342896,-0.07559451460838318
1777561213935701200,8.609701171875,0.41187557578086853,1.163697361946106,0.3159697949886322
1777561213954230800,8.628230712890625,0.5804742574691772,0.6786707639694214,0.8797979950904846
1777561213972760600,8.646760498046875,0.7851139307022095,0.24312418699264526,1.320231556892395
1777561213991290400,8.665290283203126,0.8119919896125793,-0.17165300250053406,1.9451462030410767
1777561214009820200,8.683820068359376,0.3312414288520813,-0.9181297421455383,3.018435478210449
1777561214028349700,8.702349609375,-0.09697478264570236,-1.2614357471466064,3.855320453643799
1777561214046879500,8.72087939453125,-0.4805978536605835,-0.9950987100601196,4.051407814025879
1777561214065409300,8.7394091796875,-0.7237220406532288,0.05436696484684944,3.4661993980407715
1777561214083939000,8.75793896484375,-0.9839504361152649,-0.3225366175174713,2.9720098972320557
1777561214102468900,8.77646875,-1.2680025100708008,-1.2467750310897827,2.575558662414551
1777561214120998700,8.79499853515625,-1.3388628959655762,0.6579013466835022,2.5169155597686768
1777561214139528200,8.813528076171876,-0.9607375860214233,2.308458089828491,2.6061017513275146
1777561214158058000,8.83205810546875,-0.6192641854286194,1.9859213829040527,2.377638339996338
1777561214176587800,8.850587890625,-0.3321577310562134,0.04520399495959282,1.6659809350967407
1777561214195117600,8.86911767578125,-0.1415679156780243,-0.27427828311920166,1.5285364389419556
1777561214213647000,8.887647216796875,-0.11102467030286789,-0.07086031138896942,1.985463261604309
1777561214232177000,8.906177001953125,-0.22586725652217865,-0.3530798554420471,1.9219332933425903
1777561214250706700,8.924706787109375,-0.3113883137702942,-0.7935133576393127,1.6207770109176636
1777561214269236500,8.943236572265626,-0.29367324709892273,-0.880256175994873,1.30923593044281
1777561214287766300,8.961766357421874,-0.18371757864952087,-0.5516108870506287,0.7667880058288574
1777561214306296000,8.980296142578124,-0.10308343172073364,-0.003665188793092966,0.13881902396678925
1777561214324825600,8.99882568359375,-0.0010690133785828948,0.3543015718460083,-0.5001455545425415
1777561214343355400,9.01735546875,0.22739441692829132,0.7531962990760803,-1.2136355638504028
1777561214361885200,9.03588525390625,0.4692968726158142,1.359174132347107,-1.8806999921798706
1777561214380415000,9.0544150390625,0.7423534393310547,1.8661918640136719,-2.313192129135132
1777561214398944500,9.072944580078126,1.0441206693649292,2.072664260864258,-2.489121198654175
1777561214417474300,9.091474365234374,1.3489421606063843,1.9370522499084473,-2.17147159576416
1777561214436004000,9.110004150390624,1.3226749897003174,1.9559890031814575,-1.1574360132217407
1777561214454534000,9.128533935546875,0.653167188167572,1.616348147392273,0.09850194305181503
1777561214473063400,9.1470634765625,-0.20570871233940125,0.21197007596492767,0.633619487285614
1777561214491593200,9.16559326171875,-0.3584249019622803,-0.7336485981941223,0.7228057384490967
1777561214510123000,9.184123046875,-0.42012226581573486,-1.7818925380706787,1.1253656148910522
1777561214528652800,9.20265283203125,-0.5716167092323303,-2.232710838317871,1.0911571979522705
1777561214547182600,9.2211826171875,-0.4586067199707031,-1.7220277786254883,0.2188423126935959
1777561214565712400,9.23971240234375,-0.17638720571994781,0.18631376326084137,-0.02306014485657215
1777561214584242200,9.2582421875,-0.5019781589508057,2.117868185043335,0.7460185885429382
1777561214602771700,9.276771728515625,-1.3907864093780518,1.1893537044525146,0.04413498193025589
1777561214621301500,9.295301513671875,-0.6272054314613342,1.2180644273757935,-0.12996147572994232
1777561214639831300,9.313831298828125,-0.17944152653217316,1.094058871269226,-0.40546149015426636
1777561214658361000,9.332361083984376,-0.08414662629365921,0.45448338985443115,-1.0994038581848145
1777561214676890600,9.350890625,-0.6400335431098938,2.606559991836548,-1.9979859590530396
1777561214695420400,9.36942041015625,-1.0511455535888672,4.972439289093018,-2.0767874717712402
1777561214713950200,9.3879501953125,-1.3009892702102661,5.296197414398193,-1.5740457773208618
1777561214732480000,9.40647998046875,-1.5178462266921997,3.6902341842651367,-0.8019127249717712
1777561214751009800,9.425009765625,-0.4195113778114319,-0.6933315396308899,-1.001665472984314
1777561214769539600,9.44353955078125,0.2994764447212219,-0.7012727856636047,-1.2985458374023438
1777561214788069400,9.4620693359375,0.706923246383667,1.324354887008667,-1.0138828754425049
1777561214806599000,9.480598876953126,0.975092887878418,1.9486587047576904,-1.272889494895935
1777561214825128700,9.499128662109374,0.939662754535675,1.7330234050750732,-1.4274382591247559
1777561214843658500,9.517658447265624,0.7063124179840088,1.3322961330413818,-1.2282963991165161
1777561214862188300,9.536188232421875,0.2707658112049103,0.6456840634346008,-0.8098539710044861
1777561214880717800,9.5547177734375,-0.25213444232940674,0.17348559200763702,-0.27656903862953186
1777561214899247600,9.57324755859375,-0.6382009983062744,0.009162971749901772,0.1156061589717865
1777561214917777400,9.59177734375,-0.8434515595436096,-0.2761108875274658,0.1980729103088379
1777561214936307200,9.61030712890625,-0.8495602011680603,-0.2211330533027649,0.19624030590057373
1777561214954837000,9.6288369140625,-0.7096721529960632,0.26878049969673157,0.4179842174053192
1777561214973366800,9.64736669921875,-0.5441278219223022,0.998763918876648,0.6482802629470825
1777561214991896600,9.665896484375,-0.32788166403770447,1.378721833229065,0.8712459206581116
1777561215010426000,9.684426025390625,-0.43661558628082275,0.9566142559051514,1.086881160736084
1777561215028956000,9.702955810546875,-0.5508472919464111,0.4563159942626953,1.1418589353561401
1777561215047485700,9.721485595703125,-0.569173276424408,-1.0958913564682007,1.245095133781433
1777561215066015500,9.740015380859376,-0.6937896609306335,-1.4825688600540161,1.0526727437973022
1777561215084545000,9.758544921875,-0.5367974042892456,0.7550288438796997,1.0887137651443481
1777561215103074800,9.77707470703125,-0.39018988609313965,1.5821397304534912,1.1461350917816162
1777561215121604600,9.7956044921875,-0.44577857851982117,1.342680811882019,0.9665408134460449
1777561215140134400,9.814134521484375,-0.5123628377914429,0.9676098227500916,1.032514214515686
1777561215158664200,9.832664306640625,-0.476321816444397,0.4196641147136688,1.3868157863616943
1777561215177194000,9.851194091796875,-0.33337944746017456,0.003665188793092966,2.333045244216919
1777561215195723500,9.8697236328125,-0.6950113773345947,-0.6511818766593933,3.039815902709961
1777561215214253300,9.88825341796875,-0.864220917224884,-1.4929535388946533,2.9915575981140137
1777561215232783000,9.906783203125,-0.18432845175266266,-0.84177166223526,2.2261440753936768
1777561215251313000,9.92531298828125,0.29336780309677124,-1.7892229557037354,2.981172800064087
1777561215269842400,9.943842529296875,0.366060733795166,-0.5528326034545898,1.3947570323944092
1777561215288372200,9.962372314453125,0.6195695996284485,0.02871064469218254,0.19379685819149017
1777561215306902000,9.980902099609375,0.8040507435798645,0.35246896743774414,-0.7683151960372925
1777561215325431800,9.999431884765626,0.05757400393486023,0.8167262077331543,-1.3449715375900269
1777561215343961600,10.017961669921876,-0.47754353284835815,1.2290599346160889,-1.4818052053451538
1777561215362491100,10.0364912109375,-0.17088942229747772,1.0042617321014404,-1.9069671630859375
1777561215381021000,10.05502099609375,0.5071704983711243,0.6695078015327454,-2.592968225479126
1777561215399550700,10.07355078125,0.7124210596084595,0.5497782826423645,-2.927722215652466
1777561215418080500,10.09208056640625,0.471129447221756,0.5180133581161499,-2.897178888320923
1777561215436610300,10.1106103515625,0.05024362727999687,0.4508182108402252,-2.79394268989563
1777561215455140000,10.12914013671875,-0.26618432998657227,-0.15577052533626556,-2.6229007244110107
1777561215473669600,10.147669677734376,-0.33337944746017456,-1.6701042652130127,-2.121380567550659
1777561215492199400,10.166199462890624,0.24755294620990753,-2.8014259338378906,-0.9008728265762329
1777561215510729200,10.184729248046875,0.43081238865852356,-1.5228859186172485,-0.3663661479949951
1777561215538524000,10.21252392578125,0.4399753510951996,0.5937605500221252,-0.5178605914115906
1777561215557053400,10.231053466796874,0.5749764442443848,0.6798924803733826,-0.5203040838241577
1777561215575583200,10.249583251953124,0.8834632039070129,0.3072649836540222,-0.9155336022377014
1777561215594113000,10.268113037109375,0.5951350331306458,1.1264346837997437,-0.4812087416648865
1777561215612642800,10.286642822265625,-0.12812888622283936,0.07391463965177536,0.5090031027793884
1777561215631172600,10.305172607421875,-0.41218101978302,-1.796553373336792,0.0032070400193333626
1777561215649702400,10.323702392578125,0.37033677101135254,2.967581033706665,0.15775582194328308
1777561215668232000,10.34223193359375,0.975092887878418,2.8368561267852783,0.8523091077804565
1777561215686761700,10.36076171875,-0.4237874448299408,-0.9077450633049011,0.8700241446495056
1777561215705291500,10.37929150390625,0.15470150113105774,1.8912373781204224,1.3727658987045288
1777561215723821300,10.3978212890625,0.2897026240825653,1.1074978113174438,0.5615374445915222
1777561215742350800,10.416350830078125,-0.003512472379952669,0.034208428114652634,-0.6931788325309753
1777561215760880600,10.434880615234375,-0.09392046183347702,-0.5962040424346924,-1.2014182806015015
1777561215779410400,10.453410400390625,-0.3773617148399353,-0.7531962990760803,-0.8177952170372009
1777561215797940200,10.471940185546876,-0.43050694465637207,0.1496618688106537,-0.29245150089263916
1777561215816470000,10.490469970703124,-0.26129740476608276,0.47097674012184143,-0.15256348252296448
1777561215834999600,10.50899951171875,-0.12690715491771698,0.36163195967674255,-0.10063996911048889
1777561215853529300,10.527529296875,-0.09086613357067108,0.2669478952884674,-0.07376192510128021
1777561215872059100,10.54605908203125,-0.02611446939408779,0.3597993552684784,0.07040216773748398
1777561215890589000,10.5645888671875,0.005039634648710489,0.695164144039154,0.31841325759887695
1777561215909118500,10.583118408203125,-0.23564109206199646,0.2889390289783478,0.46624255180358887
1777561215927648300,10.601648193359376,-0.44577857851982117,-0.5051851868629456,0.5474875569343567
1777561215946178000,10.620177978515626,-0.310166597366333,0.05497783049941063,0.6611084342002869
1777561215964707800,10.638707763671874,0.02519817277789116,1.6065744161605835,0.6580541133880615
1777561215983237600,10.657237548828125,0.162031888961792,1.5473204851150513,0.7386882305145264
1777561216001767400,10.675767333984375,0.02153298258781433,0.49480047821998596,0.8242093324661255
1777561216020297000,10.694296875,-0.09636391699314117,-0.22296564280986786,1.187673807144165
1777561216038826800,10.71282666015625,-0.053603384643793106,-0.4477638900279999,2.173609495162964
1777561216057356500,10.7313564453125,-0.5893318057060242,-1.1068869829177856,3.268890142440796
1777561216075886300,10.74988623046875,-1.2875502109527588,-1.3506220579147339,3.45398211479187
1777561216094416000,10.768415771484374,-0.8446732759475708,-1.056185245513916,3.4106106758117676
1777561216112945700,10.786945556640624,0.28848087787628174,-0.7470875978469849,2.8956518173217773
1777561216131475200,10.80547509765625,0.6947059631347656,-0.8503237962722778,2.0239477157592773
1777561216150005000,10.8240048828125,0.8058833479881287,-0.8350521326065063,1.3361139297485352
1777561216168534800,10.84253466796875,0.7869465351104736,-0.7812960743904114,0.7087558507919312
1777561216187064600,10.861064697265626,0.2084576040506363,-0.40317076444625854,0.06307178735733032
1777561216205594400,10.879594482421876,-0.44638943672180176,0.0873536616563797,-0.6430879235267639
1777561216224124200,10.898124267578124,-0.3272708058357239,0.471587598323822,-1.355356216430664
1777561216242654000,10.916654052734375,0.22556181252002716,0.7195987105369568,-1.9246822595596313
1777561216261183500,10.93518359375,0.5047270059585571,0.7122683525085449,-2.2472188472747803
1777561216279713300,10.95371337890625,0.5157225728034973,0.6181951761245728,-2.4512476921081543
1777561216298243000,10.9722431640625,0.3825540542602539,0.5332849621772766,-2.6980369091033936
1777561216316772600,10.990772705078125,0.23716825246810913,0.6872228980064392,-2.796386241912842
1777561216335302400,11.009302490234376,0.030695954337716103,0.7086031436920166,-2.8623595237731934
1777561216353832200,11.027832275390624,-0.38102689385414124,-0.18264856934547424,-2.973536968231201
1777561216372362000,11.046362060546874,-0.6907353401184082,-1.6035200357437134,-2.5153884887695312
1777561216390891800,11.064891845703125,-0.28206682205200195,-3.721999168395996,-0.9466876983642578
1777561216409421300,11.08342138671875,-0.12446369975805283,-4.230849266052246,-0.9259182810783386
1777561216427951000,11.101951171875,0.388051837682724,-0.8344413042068481,-0.8629992008209229
1777561216446481000,11.12048095703125,0.7392991185188293,1.8668028116226196,-0.4225656986236572
1777561216465010400,11.139010498046876,1.0630574226379395,2.4208571910858154,-0.2503018379211426
1777561216483540200,11.157540283203126,1.0459532737731934,1.7146974802017212,-0.7188351154327393
1777561216502070000,11.176070068359374,0.5395463109016418,2.1728460788726807,-0.7848085165023804
1777561216520599800,11.194599853515625,-0.25763222575187683,0.841160774230957,0.34345871210098267
1777561216539129600,11.213129638671875,-1.0041090250015259,-5.544208526611328,-0.1928805559873581
1777561216557659400,11.231659423828125,-0.4897608458995819,-0.18325942754745483,-0.07742711156606674
1777561216576189000,11.25018896484375,0.7368556261062622,3.6700756549835205,0.7392991185188293
1777561216594718700,11.26871875,0.2860374450683594,2.592510223388672,1.7166827917099
1777561216613248500,11.28724853515625,0.6116283535957336,2.1697916984558105,1.769827961921692
1777561216631778000,11.305778076171874,0.44241881370544434,-0.0769689604640007,0.18952079117298126
1777561216650307800,11.324307861328125,0.10705405473709106,-1.3237439393997192,-1.6027565002441406
1777561216668837600,11.342837646484375,0.008093958720564842,-1.8380920886993408,-1.9833252429962158
1777561216687367400,11.361367431640625,-0.003512472379952669,-0.2620609998703003,-1.1464405059814453
1777561216705897000,11.37989697265625,-0.06887500733137131,0.9144645929336548,-0.41523534059524536
1777561216724426800,11.3984267578125,0.13881902396678925,0.7483093738555908,-0.4909825623035431
1777561216742956500,11.41695654296875,0.24266603589057922,0.4923570156097412,-0.6553052067756653
1777561216761486300,11.435486328125,0.11133010685443878,0.268169641494751,-0.5801688432693481
1777561216780015900,11.454015869140624,-0.17944152653217316,-0.43982264399528503,-0.3975202441215515
1777561216798545700,11.472545654296875,-0.49770209193229675,-0.9303470849990845,0.12843431532382965
1777561216817075500,11.491075439453125,-0.7793107628822327,-0.28588470816612244,0.7832813858985901
1777561216835605000,11.50960498046875,-0.5282453298568726,0.6517927050590515,0.8785762786865234
1777561216854134800,11.528134765625,-0.27840161323547363,0.7263182401657104,0.6739365458488464
1777561216872664600,11.54666455078125,-0.11652245372533798,0.8002328872680664,0.6207913160324097
1777561216891194400,11.5651943359375,0.014202605932950974,1.1404845714569092,0.8321505188941956
1777561216909724200,11.58372412109375,-0.028557928279042244,0.720820426940918,1.039233684539795
1777561216928253700,11.602253662109375,-0.11407899856567383,-0.02260199747979641,0.8865175247192383
1777561216946783500,11.620783447265625,-0.13545925915241241,-0.08491020649671555,0.6708822250366211
1777561216965313300,11.639313232421875,-0.11163553595542908,0.056810423731803894,0.6849321126937866
1777561216983842800,11.6578427734375,-0.10674861818552017,-0.020769402384757996,0.9274454712867737
1777561217002372600,11.67637255859375,-0.02306014485657215,-0.7648026943206787,1.5267038345336914
1777561217020902400,11.69490234375,-0.2655734717845917,-1.1972949504852295,2.529132843017578
1777561217039432200,11.71343212890625,-0.8410080671310425,-2.0781619548797607,3.4417648315429688
1777561217057961700,11.731961669921875,-1.1501057147979736,-2.2229368686676025,3.493077516555786
1777561217076491500,11.750491455078125,-0.7316632866859436,-0.84177166223526,3.1167848110198975
1777561217095021300,11.769021240234375,-0.09941824525594711,-1.1563670635223389,2.9891140460968018
1777561217113551000,11.787551025390625,0.4247037470340729,-0.018325943499803543,2.5382959842681885
1777561217132080600,11.80608056640625,0.9042325615882874,0.3995055556297302,1.5242602825164795
1777561217150610400,11.8246103515625,0.8480330109596252,-0.638353705406189,1.0001384019851685
1777561217169140200,11.84314013671875,0.3165806829929352,-0.9107993841171265,0.8309288024902344
1777561217187670000,11.861669921875,-0.17883066833019257,-0.2559523284435272,0.08750637620687485
1777561217206199600,11.880199462890625,0.04413498193025589,0.4819723069667816,-0.9870047569274902
1777561217224729300,11.898729248046875,0.5517635941505432,0.7367029190063477,-1.8269438743591309
1777561217243259100,11.917259033203125,0.8370374441146851,0.6071996092796326,-2.1549782752990723
1777561217261788700,11.93578857421875,0.771064043045044,0.4575377106666565,-2.299753189086914
1777561217280318500,11.954318359375,0.6287325620651245,0.23945899307727814,-2.5630359649658203
1777561217298848300,11.97284814453125,0.49373146891593933,0.2938259541988373,-2.8232643604278564
1777561217317378000,11.9913779296875,0.30375251173973083,0.5778780579566956,-2.9319982528686523
1777561217335907600,12.009907470703125,-0.0798705667257309,0.7904590368270874,-3.090823173522949
1777561217354437400,12.028437255859375,-0.596662163734436,0.8772017955780029,-3.046229839324951
1777561217372967200,12.04696728515625,-1.0389282703399658,0.19364413619041443,-2.548375129699707
1777561217391496700,12.06549658203125,-0.846505880355835,-2.0573925971984863,-1.0743584632873535
1777561217410026500,12.084026611328126,-0.3816377818584442,-4.076300621032715,0.016646064817905426
1777561217428556300,12.102556396484376,0.11133010685443878,-1.5906919240951538,-0.6730202436447144
1777561217447085800,12.1210859375,0.4222602844238281,1.007315993309021,-0.578336238861084
1777561217465615600,12.13961572265625,0.6659952998161316,1.4104868173599243,0.0154243353754282
1777561217484145400,12.1581455078125,1.0184643268585205,1.3005311489105225,0.15225805342197418
1777561217502675200,12.17667529296875,0.6745474338531494,4.845990180969238,0.09850194305181503
1777561217521205000,12.195205078125,0.18524473905563354,2.1978914737701416,0.7411317229270935
1777561217539734500,12.213734619140626,-1.2954914569854736,-7.561284065246582,-0.07131846249103546
1777561217558264300,12.232264404296876,-0.7121156454086304,-0.5381718873977661,-0.36880961060523987
1777561217576794000,12.250794189453124,0.5096139311790466,6.382925987243652,2.039830207824707
1777561217595323600,12.26932373046875,0.9866993427276611,3.520413637161255,1.8693989515304565
1777561217613853400,12.287853515625,0.7680097222328186,-0.347582072019577,0.14431680738925934
1777561217632383200,12.30638330078125,0.12843431532382965,-2.2809691429138184,-1.476918339729309
1777561217650913000,12.3249130859375,-0.2234237939119339,-1.8655810356140137,-1.761581301689148
1777561217669442600,12.343442626953125,-0.249690979719162,0.4367683231830597,-0.7878628373146057
1777561217687972400,12.361972412109376,-0.02306014485657215,1.2907572984695435,-0.6968439817428589
1777561217706502100,12.380502197265624,-0.05299251899123192,0.3084867000579834,-0.5386300086975098
1777561217725031700,12.39903173828125,-0.10858121514320374,-0.10079269111156464,-0.32421648502349854
1777561217743561500,12.4175615234375,-0.17027856409549713,-0.13561198115348816,-0.26618432998657227
1777561217762091300,12.43609130859375,-0.13423752784729004,-0.1178968995809555,-0.17577634751796722
1777561217780621000,12.45462109375,-0.1879936307668686,-0.22663083672523499,0.16997312009334564
1777561217799150600,12.473150634765625,-0.3675878942012787,-0.040317077189683914,0.633008599281311
1777561217817680400,12.491680419921876,-0.25152358412742615,1.599854826927185,0.6391173005104065
1777561217836210200,12.510210205078126,-0.07681624591350555,2.3426663875579834,0.6006327867507935
1777561217854739700,12.52873974609375,-0.1721111536026001,0.7159335017204285,0.3764454126358032
1777561217873269500,12.54726953125,-0.19349141418933868,-0.554665207862854,0.14431680738925934
1777561217891799300,12.56579931640625,-0.23441936075687408,-0.2706131041049957,0.42959064245224
1777561217910329000,12.5843291015625,-0.10186170041561127,1.5955787897109985,0.9659299254417419
1777561217928858600,12.602858642578125,0.009926552884280682,1.9688172340393066,1.0374010801315308
1777561217947388400,12.621388427734376,-0.22464552521705627,0.5607738494873047,1.022740364074707
1777561217965918200,12.639918212890626,-0.36942046880722046,-0.41905322670936584,1.6562070846557617
1777561217984447700,12.65844775390625,-0.3712530732154846,-0.25961753726005554,2.5193591117858887
1777561218002977500,12.6769775390625,-0.7200568318367004,-0.6914989352226257,3.180314779281616
1777561218021507300,12.69550732421875,-1.236237645149231,-2.028681993484497,3.386176109313965
1777561218049301800,12.7233017578125,-0.3407098352909088,-1.1380411386489868,2.6445863246917725
1777561218067831600,12.74183154296875,0.5462658405303955,-1.0360267162322998,1.956141710281372
1777561218086361300,12.760361328125,0.9934188723564148,-0.8497129082679749,1.2719731330871582
1777561218104891000,12.778890869140625,1.2395973205566406,-0.5705476999282837,0.6782126426696777
1777561218123420700,12.797420654296875,0.8755219578742981,-0.7012727856636047,0.011148282326757908
1777561218141950500,12.815950439453125,0.0154243353754282,-0.5919279456138611,-0.2942841053009033
1777561218160480000,12.83447998046875,-0.1971566081047058,0.026878049597144127,-0.8061888217926025
1777561218179009800,12.853009765625,0.22189663350582123,0.31093016266822815,-1.5202897787094116
1777561218197539600,12.87153955078125,0.7490729093551636,0.42455101013183594,-2.048687696456909
1777561218216069400,12.8900693359375,1.0374010801315308,0.29138249158859253,-2.33273983001709
1777561218234599000,12.908598876953125,1.1210895776748657,0.14782927930355072,-2.520886182785034
1777561218253128700,12.927128662109375,0.8797979950904846,0.4923570156097412,-2.6998696327209473
1777561218271658500,12.945658447265625,0.35873034596443176,0.7189878225326538,-3.026071310043335
1777561218290188000,12.96418798828125,-0.17944152653217316,0.3995055556297302,-3.364490509033203
1777561218308717800,12.9827177734375,-0.6039925217628479,-0.10690133273601532,-3.1537420749664307
1777561218327247600,13.00124755859375,-0.6027708053588867,-1.6377284526824951,-1.8153374195098877
1777561218345777400,13.01977734375,-0.41584619879722595,-4.291325092315674,-0.1311832070350647
1777561218364307000,13.038306884765625,-0.19043709337711334,-3.37014102935791,-0.10858121514320374
1777561218382836700,13.056836669921875,0.57008957862854,0.5998691916465759,-0.25213444232940674
1777561218401366500,13.075366455078125,1.2011128664016724,2.1056509017944336,0.1516471803188324
1777561218419896000,13.09389599609375,1.297629475593567,1.635895848274231,0.43142324686050415
1777561218438425900,13.11242578125,1.0306816101074219,5.54970645904541,0.6122392416000366
1777561218456955600,13.13095556640625,0.7344121932983398,1.6694934368133545,0.8058833479881287
1777561218475485400,13.1494853515625,-1.5838196277618408,-8.394503593444824,-0.7499892115592957
1777561218494015000,13.168014892578125,-1.5257874727249146,2.190561056137085,2.2230896949768066
1777561218512544800,13.186544677734375,0.6843212842941284,5.509389400482178,2.2053744792938232
1777561218531074600,13.205074462890625,1.0526727437973022,2.18261981010437,1.2774709463119507
1777561218549604000,13.22360400390625,0.35995206236839294,-0.6933315396308899,-0.35475972294807434
1777561218568134000,13.2421337890625,-0.3407098352909088,-1.7263038158416748,-1.3547453880310059
1777561218586663700,13.26066357421875,-0.41706791520118713,-1.517388105392456,-1.53983736038208
1777561218605193200,13.279193115234374,-0.3309359848499298,0.2467893660068512,-1.030987024307251
1777561218623722500,13.297722412109374,-0.24174973368644714,1.1417062282562256,-0.7041743993759155
1777561218642252300,13.316252197265625,-0.17577634751796722,0.5039634704589844,-0.6149880886077881
1777561218670047000,13.344046875,0.05146535858511925,0.2254091054201126,-0.607046902179718
1777561218688576500,13.362576416015624,0.18585561215877533,1.1282672882080078,-0.49220430850982666
1777561218707106300,13.381106201171875,0.08261945843696594,1.0403027534484863,-0.1922696828842163
1777561218725635800,13.3996357421875,-0.31444263458251953,-0.14110976457595825,0.14859285950660706
1777561218744165600,13.41816552734375,-0.5331322550773621,-0.6065887212753296,0.39965829253196716
1777561218762695400,13.4366953125,-0.27229297161102295,0.02626718580722809,0.2701549530029297
1777561218781225000,13.455224853515626,0.030695954337716103,0.9303470849990845,0.1455385386943817
1777561218799754800,13.473754638671876,0.2078467458486557,1.4123194217681885,0.42164942622184753
1777561218827549400,13.501549560546875,-0.08659008145332336,-0.37201663851737976,0.847422182559967
1777561218846079200,13.520079345703126,-0.3119991719722748,-0.4575377106666565,1.6000075340270996
1777561218864608800,13.53860888671875,-0.42195484042167664,0.2724456787109375,2.4802637100219727
1777561218883138600,13.557138671875,-0.5813905596733093,-0.3536907136440277,3.107621908187866
1777561218901668000,13.575668212890625,-1.0132719278335571,-1.4898991584777832,3.498575210571289
1777561218920198000,13.594197998046875,-1.4860812425613403,-2.545473575592041,3.4833037853240967
1777561218938727700,13.612727783203125,-0.8025236129760742,-1.9511021375656128,3.025765895843506
1777561218957257500,13.631257568359375,0.6513345837593079,-0.0409279391169548,2.149174928665161
1777561218975787300,13.649787353515626,1.254258155822754,0.5247328281402588,0.9268345832824707
1777561218994316800,13.66831689453125,1.3972004652023315,0.17898337543010712,0.1357647031545639
1777561219012846600,13.6868466796875,0.48273590207099915,-0.41233372688293457,0.08872810751199722
1777561219031376100,13.705376220703124,-0.6155989766120911,0.16249002516269684,0.162031888961792
1777561219049906000,13.723906005859375,-0.6748528480529785,0.46975502371788025,-0.6553052067756653
1777561219068435700,13.742435791015625,0.08872810751199722,-0.05436696484684944,-1.4347686767578125
1777561219086965500,13.760965576171875,0.5841394662857056,-0.4373791813850403,-1.6326888799667358
1777561219105495300,13.779495361328125,0.7044798135757446,-0.6505709886550903,-1.7597486972808838
1777561219124024800,13.79802490234375,0.6067414283752441,-0.6200277805328369,-1.7976223230361938
1777561219142554600,13.8165546875,0.35873034596443176,-0.18081597983837128,-1.7737985849380493
1777561219161084200,13.835084228515624,0.11743875592947006,0.43493571877479553,-1.9051345586776733
1777561219179614000,13.853614013671875,-0.0102319847792387,0.5876519083976746,-2.198349714279175
1777561219198143700,13.872143798828125,-0.1464548259973526,0.36163195967674255,-2.358396291732788
1777561219216673500,13.890673583984375,-0.33399030566215515,0.2565632164478302,-2.031583547592163
1777561219235203300,13.909203369140625,-0.2338084876537323,-0.32070401310920715,-1.3168717622756958
1777561219253732900,13.92773291015625,0.4436405599117279,-0.2559523284435272,-0.19960007071495056
1777561219272262700,13.9462626953125,0.5688678026199341,1.2718204259872437,0.39965829253196716
1777561219290792200,13.964792236328124,0.11255183815956116,1.5015056133270264,0.29886558651924133
1777561219309322000,13.983322021484375,0.008093958720564842,0.4673115611076355,0.5792525410652161
1777561219327851800,14.001851806640625,0.1516471803188324,-0.45326167345046997,0.8657481074333191
1777561219346381600,14.020381591796875,0.26221370697021484,-0.9590576887130737,0.9146173000335693
1777561219364911400,14.038911376953125,0.004428769461810589,-1.1148282289505005,0.5303833484649658
1777561219383441000,14.05744091796875,-0.40607234835624695,-0.5094612240791321,0.23961171507835388
1777561219401970700,14.075970703125,0.2701549530029297,2.3744313716888428,0.16508620977401733
1777561219420500200,14.094500244140624,0.7246383428573608,3.344484567642212,-0.2075413018465042
1777561219439030000,14.113030029296874,-0.17883066833019257,2.2870776653289795,-1.1073451042175293
1777561219457559800,14.131559814453125,-0.11163553595542908,2.469726324081421,0.8431460857391357
1777561219476089300,14.15008935546875,0.09666935354471207,2.8790056705474854,1.0135773420333862
1777561219494619100,14.168619140625,0.8174898028373718,2.8912229537963867,-0.5716167092323303
1777561219513149000,14.18714892578125,0.9610430002212524,3.307832717895508,-2.698647975921631
1777561219531678700,14.2056787109375,0.7643445730209351,3.266294002532959,-3.629605770111084
1777561219550208500,14.22420849609375,0.45097091794013977,3.5637850761413574,-3.0779948234558105
1777561219568738000,14.242738037109374,0.33490660786628723,3.749488115310669,-2.4793474674224854
1777561219587267800,14.261267822265625,0.4705185890197754,4.182590961456299,-1.9711079597473145
1777561219605797400,14.27979736328125,0.4405862092971802,3.8069093227386475,-1.4982986450195312
1777561219624327200,14.2983271484375,0.12904518842697144,2.775158643722534,-1.2551743984222412
1777561219642857000,14.31685693359375,0.009926552884280682,2.464228630065918,-1.0621411800384521
1777561219661386800,14.33538671875,-0.0951421856880188,2.6273293495178223,-1.0877974033355713
1777561219679916500,14.35391650390625,-0.11407899856567383,2.6059491634368896,-1.190422773361206
1777561219698446000,14.372446044921874,-0.20937390625476837,2.5943427085876465,-1.0694714784622192
1777561219716975900,14.390975830078125,-0.3065013885498047,2.6047275066375732,-0.8947641849517822
1777561219735505700,14.409505615234375,-0.37369653582572937,2.528369426727295,-0.7481566667556763
1777561219754035200,14.42803515625,-0.36453354358673096,1.9095633029937744,-0.669965922832489
1777561219772565000,14.44656494140625,-0.383470356464386,1.2822052240371704,-0.5948295593261719
1777561219791094800,14.4650947265625,-0.249690979719162,0.9669989347457886,-0.5447386503219604
1777561219809624600,14.48362451171875,0.0642935186624527,0.9505056142807007,-0.4641045033931732
1777561219828154000,14.502154052734374,0.32757624983787537,1.2357794046401978,-0.3162752389907837
1777561219846684000,14.520683837890624,0.41004297137260437,1.4043781757354736,-0.16783510148525238
1777561219865213700,14.539213623046875,0.4430296719074249,1.4312561750411987,0.09605848789215088
1777561219883743200,14.5577431640625,0.5267181396484375,1.3267983198165894,0.5676460862159729
1777561219902273000,14.57627294921875,0.6690496206283569,0.9932661056518555,1.399643898010254
1777561219920802800,14.594802734375,0.7148644924163818,0.2364046722650528,2.2334742546081543
1777561219939332600,14.61333251953125,0.4961749315261841,-0.5980366468429565,3.081965446472168
1777561219957862100,14.631862060546876,0.12293653935194016,-1.1612539291381836,4.064236164093018
1777561219976392000,14.650391845703124,-0.6638572812080383,-1.635895848274231,4.540099620819092
1777561219994921700,14.668921630859375,-1.3523019552230835,-0.9944878816604614,4.02575159072876
1777561220013451300,14.687451171875,-1.66934072971344,-0.24006985127925873,3.392284870147705
1777561220031981000,14.70598095703125,-2.1659739017486572,-1.3292417526245117,2.852891206741333
1777561220050510800,14.7245107421875,-2.272264242172241,0.5174024701118469,2.948186159133911
1777561220069040400,14.743040283203126,-1.9497276544570923,2.9578073024749756,3.1980297565460205
1777561220087570200,14.761570068359376,-1.1843141317367554,2.0402884483337402,2.5700607299804688
1777561220106100000,14.780099853515624,-0.6944005489349365,0.09285144507884979,1.2567015886306763
1777561220124629800,14.798629638671875,-0.5978838801383972,0.546113133430481,1.4778345823287964
1777561220143159600,14.81715966796875,-0.5850557684898376,0.5772672295570374,1.9817980527877808
1777561220161689000,14.835689208984375,-0.453719824552536,-0.13622283935546875,1.7050763368606567
1777561220180219000,14.854218994140625,-0.5984947681427002,-0.8930842876434326,1.3642138242721558
1777561220198748700,14.872748779296876,-0.7133373618125916,-0.8503237962722778,0.901789128780365
1777561220217278200,14.8912783203125,-0.5954404473304749,-0.18264856934547424,0.29336780309677124
1777561220235808000,14.90980810546875,-0.4341721534729004,0.3182605504989624,-0.38652467727661133
1777561220254337800,14.928337890625,-0.2582430839538574,0.8497129082679749,-1.0719150304794312
1777561220272867600,14.94686767578125,0.12354740500450134,1.536935806274414,-1.6766711473464966
1777561220291397400,14.9653974609375,0.6354520916938782,2.2430953979492188,-2.0279183387756348
1777561220309927000,14.983927001953125,0.9983057379722595,2.2253804206848145,-1.7756311893463135
1777561220328456700,15.002456787109375,1.0826051235198975,2.3622140884399414,-0.5380191802978516
1777561220346986500,15.020986572265626,0.5175551772117615,2.367100954055786,0.23961171507835388
1777561220365516000,15.03951611328125,0.10155627131462097,0.9334014058113098,0.05451968312263489
1777561220384045800,15.0580458984375,-0.13301581144332886,0.4153880476951599,0.5969675779342651
1777561220402575600,15.07657568359375,-0.4482220411300659,-1.0207550525665283,1.0917680263519287
1777561220421105400,15.09510546875,-0.8122974634170532,-1.4972295761108398,1.7026329040527344
1777561220439635000,15.113635009765625,-1.6870558261871338,-1.1209368705749512,2.031278133392334
1777561220458164700,15.132164794921875,-1.5331178903579712,-0.9865466356277466,-0.3254382014274597
1777561220476694500,15.150694580078126,-0.607046902179718,1.9388848543167114,-1.8703151941299438
1777561220495224300,15.169224365234374,-0.10125083476305008,3.822791814804077,-1.458592414855957
1777561220513753900,15.18775390625,-0.02977965772151947,0.6261364221572876,-1.4341577291488647
1777561220532283600,15.20628369140625,-0.27168211340904236,3.520413637161255,-2.766453981399536
1777561220550813400,15.2248134765625,-0.4402807950973511,6.684693336486816,-3.5550804138183594
1777561220569343200,15.24334326171875,-1.0639737844467163,6.345052242279053,-3.4487898349761963
1777561220587872800,15.261872802734375,-1.3761255741119385,4.789179801940918,-2.6216788291931152
1777561220606402600,15.280402587890626,-0.8184061050415039,3.3267695903778076,-1.114675521850586
1777561220624932400,15.298932373046876,0.23655737936496735,1.5485422611236572,-0.7585413455963135
1777561220643462100,15.317462158203124,0.6195695996284485,1.0415244102478027,-1.724318504333496
1777561220661991700,15.33599169921875,1.0337358713150024,2.723845958709717,-2.327242136001587
1777561220680521500,15.354521484375,3.1002914905548096,0.6585122346878052,-0.3627009689807892
1777561220699051300,15.37305126953125,2.9329144954681396,3.7617053985595703,-1.1580469608306885
1777561220717580800,15.391580810546875,0.6788234710693359,8.159320831298828,-4.968621253967285
1777561220736110600,15.410110595703125,0.5389354228973389,4.59248161315918,-3.25819993019104
1777561220754640400,15.428640380859376,-0.22953243553638458,0.4373791813850403,0.09178243577480316
1777561220773170200,15.447170166015624,-1.3889538049697876,-0.01893680728971958,0.014202605932950974
1777561220791700000,15.465699951171874,-0.7292198538780212,1.2315033674240112,-0.9326378107070923
1777561220810229500,15.4842294921875,0.05451968312263489,2.679863691329956,-1.3199260234832764
1777561220828759300,15.50275927734375,0.025809036567807198,2.9107706546783447,-1.2032508850097656
1777561220847289000,15.5212890625,-0.21670427918434143,1.9920300245285034,-0.8703296184539795
1777561220865818600,15.539818603515625,-0.3309359848499298,1.8185445070266724,-0.9595158696174622
1777561220884348400,15.558348388671876,-0.513584554195404,1.4306453466415405,-0.9020945429801941
1777561220902878200,15.576878173828124,-0.7041743993759155,0.9010255336761475,-0.8025236129760742
1777561220921408000,15.595407958984374,-0.6583595275878906,0.5827649831771851,-0.7829759120941162
1777561220939937800,15.613937744140625,-0.5716167092323303,0.5064069032669067,-0.6742420196533203
1777561220958467300,15.63246728515625,-0.4555523991584778,0.648127555847168,-0.5184714794158936
1777561220976997000,15.6509970703125,-0.27656903862953186,1.0916153192520142,-0.31261005997657776
1777561220995527000,15.66952685546875,-0.0591011680662632,1.2156208753585815,-0.29184064269065857
1777561221014056400,15.688056396484376,0.11377356201410294,0.9401208758354187,-0.3113883137702942
1777561221032586200,15.706586181640626,0.19624030590057373,0.5937605500221252,0.020311253145337105
1777561221051116000,15.725115966796874,0.1821904182434082,0.646905779838562,0.5737547278404236
1777561221069645800,15.743645751953125,0.18096868693828583,0.44959646463394165,1.4167481660842896
1777561221088175600,15.762175537109375,0.2897026240825653,-0.49541133642196655,2.508974313735962
1777561221106705200,15.780705078125,0.34956738352775574,-1.7611231803894043,3.6482372283935547
1777561221125235000,15.79923486328125,0.29275694489479065,-2.332892656326294,4.326908111572266
1777561221143764700,15.8177646484375,-0.24236060678958893,-1.61085045337677,4.4802350997924805
1777561221162294300,15.836294189453126,-1.3577996492385864,-0.287106454372406,4.111272811889648
1777561221180824000,15.854823974609374,-1.9326233863830566,1.3041963577270508,3.8186683654785156
1777561221199353900,15.873353759765624,-1.5599958896636963,2.238208532333374,3.4069457054138184
1777561221217883600,15.891883544921875,-1.6442952156066895,3.059821605682373,2.914588689804077
1777561221236413400,15.910413330078125,-1.1213949918746948,2.6816964149475098,2.5474588871002197
1777561221254943000,15.92894287109375,-0.5031998753547668,2.276693105697632,2.2365286350250244
1777561221273472800,15.94747265625,-0.0896444097161293,1.3451242446899414,1.4253002405166626
1777561221292002600,15.96600244140625,0.41492989659309387,0.6591231226921082,0.6947059631347656
1777561221310532000,15.984531982421874,0.6354520916938782,0.49541133642196655,0.8675807118415833
1777561221329062000,16.003061767578124,0.10399972647428513,-0.10079269111156464,1.1082614660263062
1777561221347591700,16.021591796875,-0.3920224606990814,-0.5290089249610901,1.0459532737731934
1777561221366121500,16.04012158203125,-0.5606211423873901,-0.3225366175174713,0.6452259421348572
1777561221384651000,16.058651123046875,-0.48304131627082825,0.29138249158859253,-0.17333288490772247
1777561221403180800,16.077180908203125,-0.42562004923820496,1.0702351331710815,-1.0083850622177124
1777561221421710600,16.095710693359376,-0.42073312401771545,1.7690644264221191,-1.7456988096237183
1777561221440240400,16.114240478515626,-0.3877464234828949,1.989586591720581,-2.5276057720184326
1777561221458770000,16.13277001953125,-0.3987419903278351,1.8759657144546509,-3.311345338821411
1777561221477299700,16.1512998046875,-0.44638943672180176,1.349400281906128,-3.8018696308135986
1777561221495829500,16.16982958984375,-0.6278162598609924,0.20952661335468292,-3.596619129180908
1777561221514359300,16.188359375,0.17119485139846802,-1.1123847961425781,-1.7695225477218628
1777561221532888800,16.206888916015625,1.029459834098816,0.6120865345001221,0.141262486577034
1777561221551418600,16.225418701171876,0.7539598345756531,2.1410810947418213,-0.4543306827545166
1777561221569948400,16.243948486328126,0.4192059636116028,2.1441354751586914,-0.8318451046943665
1777561221588478200,16.262478271484376,0.3526217043399811,1.6438370943069458,-0.718224287033081
1777561221607008000,16.281008056640626,0.29703301191329956,0.7104357481002808,-0.7212786078453064
1777561221625537500,16.29953759765625,0.29703301191329956,-0.01954767294228077,-0.8074105381965637
1777561221644067300,16.3180673828125,0.2493855506181717,-1.3103049993515015,-0.54962557554245
1777561221662597000,16.33659716796875,-0.35048365592956543,-2.872897148132324,-0.23686282336711884
1777561221681126700,16.355126708984375,-0.08597921580076218,0.05803215503692627,-0.5258018374443054
1777561221699656400,16.373656494140626,-0.11468986421823502,-1.922391414642334,0.337350070476532
1777561221718186200,16.392186279296876,-1.1824815273284912,3.327380418777466,2.646419048309326
1777561221736716000,16.410716064453126,0.7777835726737976,6.34260892868042,3.0941827297210693
1777561221755245800,16.429245849609377,1.3599376678466797,2.66886830329895,1.6623157262802124
1777561221773775400,16.447775390625,1.2261583805084229,-1.7831143140792847,-0.2240346521139145
1777561221792305200,16.46630517578125,0.022754713892936707,-2.9718570709228516,-1.9142974615097046
1777561221810835000,16.4848349609375,-0.9454659819602966,-3.2003204822540283,-1.799454927444458
1777561221829364500,16.503364501953126,-1.5917608737945557,0.3946186602115631,0.31413722038269043
1777561221847894300,16.521894287109376,-0.9063706398010254,1.3078614473342896,0.5798633694648743
1777561221866424000,16.540424072265626,-0.3822486400604248,0.3402516841888428,-0.27107125520706177
1777561221884953900,16.558953857421876,-0.5923861265182495,-0.2718348205089569,-0.08720094710588455
1777561221903483400,16.5774833984375,-0.9246965646743774,-0.42271843552589417,0.755181610584259
1777561221922013200,16.59601318359375,-0.5832231640815735,1.3640609979629517,1.3373357057571411
1777561221940543000,16.61454296875,-0.8477275967597961,1.536935806274414,1.8767293691635132
1777561221959072500,16.633072509765626,-1.5728241205215454,0.22663083672523499,3.40022611618042
1777561221977602300,16.651602294921876,-1.7731877565383911,1.0439679622650146,3.797288179397583
1777561221996132000,16.670132080078126,-1.504407286643982,-0.22418737411499023,3.5144577026367188
1777561222014662000,16.688661865234376,-0.8904881477355957,-2.3567163944244385,3.3660175800323486
1777561222033191400,16.70719140625,0.1101083755493164,-2.3573272228240967,3.2096362113952637
1777561222051721200,16.72572119140625,1.0349576473236084,-0.6640099883079529,2.3953535556793213
1777561222070251000,16.7442509765625,0.5395463109016418,-0.3555232882499695,0.9897536635398865
1777561222088780800,16.76278076171875,0.025809036567807198,0.30604326725006104,-0.13362666964530945
1777561222107310300,16.781310302734376,0.263435423374176,1.99936044216156,-1.9943207502365112
1777561222125840100,16.799840087890626,0.12354740500450134,3.1117451190948486,-3.5776822566986084
1777561222144370000,16.818369873046876,-0.31261005997657776,2.6132795810699463,-4.156782150268555
1777561222162899500,16.8368994140625,-0.32910341024398804,1.0708459615707397,-4.484816551208496
1777561222181429200,16.85542919921875,-0.36942046880722046,-0.7134900689125061,-3.8684539794921875
1777561222199959000,16.873958984375,-0.3816377818584442,-2.3848161697387695,-2.2056798934936523
1777561222218488800,16.89248876953125,0.4747946560382843,-3.4666576385498047,-0.9265291690826416
1777561222237018600,16.9110185546875,0.8174898028373718,-2.802036762237549,-1.486692190170288
1777561222255548200,16.929548095703126,1.1925607919692993,-0.6695078015327454,-2.291811943054199
1777561222274078000,16.948077880859376,1.5438079833984375,0.38789913058280945,-1.9527820348739624
1777561222292607700,16.966607666015626,1.4900518655776978,0.1490510106086731,-1.3266456127166748
1777561222311137300,16.98513720703125,1.2145519256591797,0.1899789422750473,-0.7890845537185669
1777561222329667000,17.0036669921875,0.7814487814903259,3.872271776199341,-0.17394374310970306
1777561222348196900,17.02219677734375,0.23777911067008972,-0.38850998878479004,1.2292126417160034
1777561222366726700,17.0407265625,-0.7188351154327393,-6.346274375915527,0.4650208055973053
1777561222385256400,17.05925634765625,-0.6601921319961548,-2.254701852798462,0.10277800261974335
1777561222403786000,17.077785888671876,-0.569173276424408,1.5906919240951538,1.6494876146316528
1777561222422315800,17.096315673828126,-0.1879936307668686,3.532020092010498,1.742339015007019
1777561222440845600,17.114845458984377,0.49250972270965576,0.861319363117218,1.5749621391296387
1777561222459375000,17.133375,-0.27229297161102295,-1.9688172340393066,1.0826051235198975
1777561222477905000,17.15190478515625,-1.0120502710342407,-1.852752923965454,0.5010618567466736
1777561222496434700,17.1704345703125,-1.2136355638504028,-0.48930269479751587,-0.0383317656815052
1777561222514964500,17.188964599609374,-0.9063706398010254,0.09285144507884979,-0.5746710300445557
1777561222533494000,17.207493896484376,-0.1360701322555542,-0.4819723069667816,-0.41645705699920654
1777561222552023800,17.22602392578125,0.10399972647428513,0.22785256803035736,0.2683223485946655
1777561222570553600,17.2445537109375,-0.40118545293807983,0.5864301919937134,1.458287000656128
1777561222589083100,17.263083251953127,-0.883768618106842,1.1954623460769653,2.372751474380493
1777561222607613000,17.281613037109373,-1.3687952756881714,1.166751742362976,3.0221006870269775
1777561222626142700,17.300142822265624,-1.7805181741714478,0.3347539007663727,4.275595188140869
1777561222644672300,17.31867236328125,-1.2276854515075684,-0.20769402384757996,4.396546363830566
1777561222663202000,17.3372021484375,-0.18371757864952087,-0.7788525819778442,3.851044178009033
1777561222681731800,17.35573193359375,1.0367902517318726,-0.4367683231830597,2.6115996837615967
1777561222700261600,17.37426171875,1.6433789730072021,0.13439024984836578,1.532812476158142
1777561222728056300,17.402056396484376,-0.1879936307668686,0.5491674542427063,0.5676460862159729
1777561222746585900,17.4205859375,-0.42073312401771545,1.1404845714569092,-0.5826122760772705
1777561222765115600,17.43911572265625,-0.36942046880722046,2.0299036502838135,-1.5453351736068726
1777561222783645400,17.4576455078125,-0.34315329790115356,1.9816453456878662,-1.9527820348739624
1777561222802175000,17.476175048828125,-0.2130390852689743,1.1679733991622925,-2.6143486499786377
1777561222820704800,17.494704833984375,0.023365577682852745,0.37201663851737976,-3.7267332077026367
1777561222839234600,17.513234619140626,0.0844520553946495,-0.21258094906806946,-4.638754367828369
1777561222857764400,17.531764404296876,-0.09269873052835464,-0.6151408553123474,-4.842172622680664
1777561222876294000,17.5502939453125,0.11682789027690887,-1.7550145387649536,-3.906938314437866
1777561222894823700,17.56882373046875,1.0679444074630737,-2.8154757022857666,-2.5001168251037598
1777561222913353500,17.587353515625,0.6592758297920227,-1.2168426513671875,-2.637561321258545
1777561222931883000,17.605883056640625,0.7820596098899841,1.2382229566574097,-2.030972719192505
1777561222950412800,17.624412841796875,1.0050252676010132,1.7702860832214355,-0.6528617143630981
1777561222968942600,17.642942626953126,1.0349576473236084,0.19242240488529205,-0.2136499583721161
1777561222987472400,17.661472412109376,0.9048434495925903,0.750141978263855,-0.7921388745307922
1777561223006002200,17.680002197265626,1.1180353164672852,4.617527008056641,-0.32421648502349854
1777561223024531700,17.69853173828125,0.8077159523963928,-1.8576397895812988,0.921336829662323
1777561223043061500,17.7170615234375,-1.188590168952942,-4.889972686767578,0.2909243404865265
1777561223061591300,17.73559130859375,-1.1892009973526,-0.7739656567573547,1.6281073093414307
1777561223080120800,17.754120849609375,0.2176205813884735,3.2094836235046387,1.9506440162658691
1777561223098650600,17.772650634765625,0.9537126421928406,3.7097818851470947,1.2536472082138062
1777561223156585000,17.8305849609375,-1.2967132329940796,-2.8845036029815674,-0.6962331533432007
1777561223175114800,17.84911474609375,-0.8446732759475708,-2.676809549331665,-0.523969292640686
1777561223193644500,17.86764453125,-0.3058905303478241,0.3384190797805786,-0.4995346665382385
1777561223212174300,17.88617431640625,0.02764163166284561,1.2449424266815186,-0.27229297161102295
1777561223230703900,17.904703857421875,-0.028557928279042244,0.4740310609340668,-0.23441936075687408
1777561223249233700,17.923233642578126,-0.027336198836565018,-0.19425499439239502,-0.1464548259973526
1777561223267763500,17.941763427734376,-0.2887863218784332,-0.6414080262184143,0.25793763995170593
1777561223295558000,17.969557861328123,-0.48181959986686707,-0.5192350745201111,1.0080796480178833
1777561223314087700,17.988087646484374,-0.49281516671180725,-0.3433060050010681,1.585957646369934
1777561223332617500,18.006617431640624,-0.5416843295097351,0.6401863098144531,2.1858267784118652
1777561223351147300,18.025147216796874,-0.8055779337882996,0.9004147052764893,3.146106243133545
1777561223369676800,18.0436767578125,-1.1745402812957764,-0.023212861269712448,4.3043060302734375
1777561223388206600,18.06220654296875,-1.1085668802261353,-1.7165300846099854,4.118603229522705
1777561223406736400,18.080736328125,-0.14706569910049438,-0.9285144805908203,3.671450138092041
1777561223425266200,18.09926611328125,0.5920807123184204,-0.9590576887130737,2.9017603397369385
1777561223443795700,18.117795654296874,0.6507236957550049,-0.9590576887130737,2.297004222869873
1777561223462325500,18.136325439453124,0.7374665141105652,-0.38850998878479004,1.3697115182876587
1777561223480855300,18.154855224609374,0.5297724604606628,-0.23457208275794983,0.41676250100135803
1777561223499385000,18.173385009765624,0.23044873774051666,0.16737695038318634,-0.5117519497871399
1777561223517914600,18.19191455078125,-0.10674861818552017,0.6585122346878052,-1.2777763605117798
1777561223536444400,18.2104443359375,-0.2338084876537323,0.8588758707046509,-1.936288595199585
1777561223554974200,18.22897412109375,-0.002901607658714056,1.0299180746078491,-2.7792820930480957
1777561223573504000,18.24750390625,0.4332558512687683,0.8906408548355103,-3.640601396560669
1777561223592033500,18.266033447265624,0.6592758297920227,0.665842592716217,-4.0107855796813965
1777561223610563300,18.284563232421874,0.540768027305603,0.831997811794281,-3.788430690765381
1777561223629093000,18.303093017578124,0.3110828995704651,0.9382883310317993,-3.4878852367401123
1777561223647623000,18.321622802734375,0.22556181252002716,0.38240134716033936,-3.054171085357666
1777561223666152400,18.34015234375,0.7875574231147766,-1.6713260412216187,-1.957058072090149
1777561223684682200,18.35868212890625,0.4173733592033386,-2.926042318344116,-1.5343396663665771
1777561223703212000,18.3772119140625,-0.15928299725055695,-2.3115122318267822,-1.5221222639083862
1777561223721741800,18.395741943359376,-0.001679878099821508,-0.3811796307563782,-0.8941532969474792
1777561223740271400,18.414271240234374,0.366060733795166,0.943175196647644,-0.29306238889694214
1777561223758801200,18.43280126953125,0.5590940117835999,0.5888736248016357,-0.05849030241370201
1777561223777331000,18.4513310546875,0.5896372199058533,0.6023126840591431,-0.4995346665382385
1777561223795860500,18.469860595703125,0.6287325620651245,2.9736897945404053,-0.1818849891424179
1777561223814390300,18.488390380859375,0.6165152788162231,2.8625123500823975,0.7002037763595581
1777561223832920000,18.506920166015625,-0.12018764764070511,-4.971217632293701,-0.3468184769153595
1777561223851449900,18.525449951171876,-0.5539016127586365,-0.8197805285453796,0.7124210596084595
1777561223869979400,18.5439794921875,0.14004075527191162,3.3634214401245117,2.2090396881103516
1777561223888509200,18.56250927734375,0.25732678174972534,3.0860888957977295,1.8645119667053223
1777561223907039000,18.5810390625,0.21090106666088104,2.114813804626465,1.6898046731948853
1777561223925568800,18.59956884765625,-0.12996147572994232,0.7257073521614075,0.8883501291275024
1777561223944098300,18.618098388671875,-0.5465712547302246,-0.6426297426223755,-0.32971426844596863
1777561223962628000,18.636628173828125,-0.2900080680847168,-1.684765100479126,-1.3975058794021606
1777561223981158000,18.655157958984375,-0.14217877388000488,-1.7434080839157104,-1.7175990343093872
1777561223999687700,18.673687744140626,-0.12263110280036926,0.831997811794281,-0.7426588535308838
1777561224018217200,18.69221728515625,-0.06765327602624893,2.13191819190979,-0.28328853845596313
1777561224036747000,18.7107470703125,-0.20937390625476837,0.768467903137207,-0.44211336970329285
1777561224055276800,18.72927685546875,-0.2643517255783081,-0.0769689604640007,-0.3614792227745056
1777561224073806600,18.747806640625,-0.2948949635028839,-0.1380554437637329,-0.11835505068302155
1777561224092336000,18.766336181640625,-0.32421648502349854,-0.35674503445625305,0.09666935354471207
1777561224110866000,18.784865966796875,-0.37064221501350403,-0.6304124593734741,0.25182899832725525
1777561224129395700,18.803395751953126,-0.3584249019622803,-0.49968740344047546,0.3507890999317169
1777561224147925500,18.821925537109376,-0.281455934047699,0.030543239787220955,0.448527455329895
1777561224166455000,18.840455078125,-0.23136503994464874,0.41905322670936584,0.5071704983711243
1777561224184984800,18.85898486328125,-0.3877464234828949,-0.1649334877729416,0.672104001045227
1777561224203514600,18.8775146484375,-0.5477929711341858,-0.45326167345046997,0.9873101711273193
1777561224222044400,18.89604443359375,-0.6149880886077881,-0.5400044918060303,1.4723368883132935
1777561224240574200,18.91457421875,-0.6944005489349365,-1.0971131324768066,2.268904447555542
1777561224259103700,18.933103759765626,-0.7518218159675598,-1.3182462453842163,3.070358991622925
1777561224277633500,18.951633544921876,-0.7835868000984192,-1.4062107801437378,3.4442083835601807
1777561224296163300,18.970163330078126,-0.48914995789527893,-0.8979712128639221,3.1009023189544678
1777561224314693000,18.988693115234376,0.3098611533641815,-0.3799578845500946,2.366642951965332
1777561224333222700,19.00722265625,0.8755219578742981,-0.7159335017204285,1.800982117652893
1777561224351752400,19.02575244140625,1.2750275135040283,-1.296255111694336,1.2780818939208984
1777561224370282200,19.0442822265625,1.3764311075210571,-1.3182462453842163,0.5523744821548462
1777561224388812000,19.06281201171875,1.1516327857971191,-0.6426297426223755,-0.10125083476305008
1777561224407341800,19.081341796875,0.27809619903564453,-0.5302306413650513,-0.6974548697471619
1777561224425871400,19.099871337890626,-0.41584619879722595,-0.4618137776851654,-1.0517563819885254
1777561224444401200,19.118401123046876,-0.27168211340904236,-0.11117739230394363,-1.632077932357788
1777561224462931000,19.136930908203126,0.1876882016658783,0.38850998878479004,-2.2808163166046143
1777561224481460700,19.155460693359377,0.46135562658309937,0.9859357476234436,-2.657109022140503
1777561224499990300,19.173990234375,0.5053378939628601,1.4062107801437378,-2.804938316345215
1777561224518520000,19.19252001953125,0.42592546343803406,1.3206896781921387,-2.911228895187378
1777561224537049900,19.2110498046875,0.2597702443599701,0.6010909676551819,-3.129918336868286
1777561224555579600,19.22957958984375,0.0435241162776947,0.11239911615848541,-3.2948520183563232
1777561224574109200,19.248109130859376,0.23044873774051666,-0.8478803038597107,-2.4995059967041016
1777561224592639000,19.266638916015626,0.17791436612606049,-2.646266222000122,-1.0664172172546387
1777561224611168800,19.285168701171877,-0.5209149122238159,-3.554011344909668,-0.6363683938980103
1777561224629698600,19.303698486328123,-0.27290382981300354,-1.0177006721496582,0.02825249545276165
1777561224648228400,19.322228271484374,0.11927134543657303,1.4782928228378296,0.31780239939689636
1777561224676022800,19.350022705078125,0.46746426820755005,0.9285144805908203,0.22739441692829132
1777561224694552600,19.368552490234375,0.541989803314209,-0.06230820715427399,0.03558287397027016
1777561224713082400,19.387082275390625,0.44180795550346375,1.5344923734664917,0.14798198640346527
1777561224731612200,19.405612060546876,0.6360629796981812,2.7000222206115723,0.2286161482334137
1777561224750142000,19.424141845703126,0.05940660089254379,-2.2259912490844727,-0.9796743988990784
1777561224768671500,19.44267138671875,-0.5612320303916931,-1.0763437747955322,-0.8526145219802856
1777561224787201300,19.461201171875,0.30253079533576965,3.596771717071533,0.5267181396484375
1777561224805731000,19.47973095703125,0.48701193928718567,3.7458229064941406,0.8565851449966431
1777561224824260900,19.4982607421875,0.6812669634819031,3.6835145950317383,1.5383102893829346
1777561224842790700,19.516790771484374,0.39049530029296875,1.1716386079788208,1.0337358713150024
1777561224861320400,19.535320556640624,-0.1153007298707962,-0.7562506198883057,-0.5312996506690979
1777561224879850000,19.55385009765625,-0.20937390625476837,-1.469740629196167,-2.01692271232605
1777561224898379800,19.5723798828125,-0.027336198836565018,-1.4306453466415405,-2.581361770629883
1777561224916909600,19.59090966796875,0.04108065739274025,0.9285144805908203,-1.4329360723495483
1777561224935439400,19.609439453125,0.08017600327730179,1.7397428750991821,-0.836732029914856
1777561224953969200,19.62796923828125,0.23533566296100616,1.275485634803772,-1.059086799621582
1777561224972498700,19.646498779296873,0.2805396616458893,1.043357014656067,-1.136055827140808
1777561224991028500,19.665028564453124,0.09239330142736435,0.647516667842865,-1.0358740091323853
1777561225009558300,19.683558349609374,-0.12996147572994232,0.41783151030540466,-0.8379537463188171
1777561225028088000,19.702088134765624,-0.31322091817855835,0.2101374864578247,-0.7292198538780212
1777561225046617900,19.720617919921875,-0.42073312401771545,0.41416633129119873,-0.6363683938980103
1777561225065147600,19.739147705078125,-0.4549415409564972,0.4557051360607147,-0.5899426341056824
1777561225083677400,19.757677490234375,-0.47204574942588806,0.4776962697505951,-0.5752819180488586
1777561225102207000,19.77620703125,-0.4036289155483246,0.5607738494873047,-0.4848739206790924
1777561225120736800,19.79473681640625,-0.3779725730419159,0.6719512343406677,-0.26740604639053345
1777561225139266600,19.8132666015625,-0.4231765866279602,0.6108647584915161,0.11621702462434769
1777561225157796400,19.83179638671875,-0.5893318057060242,0.14782927930355072,0.5731438994407654
1777561225176326100,19.850326171875,-0.6467530727386475,-0.41416633129119873,1.1717913150787354
1777561225194856000,19.86885595703125,-0.503810703754425,-0.831997811794281,1.9683589935302734
1777561225213385700,19.8873857421875,-0.2435823380947113,-1.0775654315948486,2.6525275707244873
1777561225231915500,19.90591552734375,-0.1311832070350647,-1.3255765438079834,3.1009023189544678
1777561225250445000,19.924445068359375,-0.20204351842403412,-1.7934989929199219,3.265835762023926
1777561225268974800,19.942974853515626,-0.2130390852689743,-0.6976075768470764,3.045924425125122
1777561225287504600,19.961504638671876,-0.0798705667257309,0.26511532068252563,2.9213080406188965
1777561225306034400,19.980034423828126,0.04108065739274025,0.3750709891319275,2.4912593364715576
1777561225324564200,19.998564208984376,-0.18127411603927612,0.675616443157196,1.8767293691635132
1777561225343094000,20.017093994140627,-0.39141160249710083,0.12583814561367035,1.9536982774734497
1777561225361623800,20.035623779296873,-0.39018988609313965,-0.5949822664260864,1.928041934967041
1777561225380153600,20.054153564453124,-0.011453714221715927,-1.0384701490402222,1.3599376678466797
1777561225398683100,20.07268310546875,0.5542070865631104,-1.7275255918502808,0.6989820003509521
1777561225417213000,20.091212890625,0.9695951342582703,-2.134361505508423,0.3556760251522064
1777561225435742700,20.10974267578125,1.0025818347930908,-1.7556253671646118,0.5939132571220398
1777561225454272500,20.1282724609375,0.9451605081558228,-1.3732240200042725,0.6892082095146179
1777561225472802300,20.14680224609375,0.7704532146453857,-1.0555742979049683,0.42042768001556396
1777561225491332000,20.16533203125,0.5554288029670715,-0.5473348498344421,0.09178243577480316
1777561225509862000,20.18386181640625,0.3868301212787628,-0.05864302068948746,-0.27107125520706177
1777561225528391700,20.2023916015625,0.2683223485946655,0.2626718580722809,-0.504421591758728
1777561225546921200,20.220921142578124,0.15470150113105774,0.3799578845500946,-0.5166388750076294
1777561225565451000,20.239450927734374,0.05696314200758934,0.7696896195411682,-0.14278964698314667
1777561225583980800,20.257980712890625,-0.04932733252644539,1.3463460206985474,0.2787070572376251
1777561225602510600,20.276510498046875,-0.08720094710588455,1.3671153783798218,0.23472478985786438
1777561225621040400,20.295040283203125,-0.08231402933597565,-0.06352993845939636,0.08567378669977188
1777561225639570200,20.313570068359375,0.2328922003507614,-0.7330377101898193,-0.05238165333867073
1777561225658100000,20.332099853515626,0.33307403326034546,-0.11606431007385254,-0.15500694513320923
1777561225676629800,20.350629638671876,0.12293653935194016,0.4618137776851654,0.09544762223958969
1777561225695159600,20.36915966796875,0.010537417605519295,0.09651663154363632,0.5963567495346069
1777561225713689300,20.387689453125,-0.1727220118045807,1.4147628545761108,-0.22098033130168915
1777561225732219100,20.40621923828125,-0.8764382600784302,1.3573415279388428,-0.6937896609306335
1777561225750749000,20.4247490234375,-1.141553521156311,1.2168426513671875,-1.690721035003662
1777561225769278700,20.44327880859375,-0.10674861818552017,2.4495677947998047,-0.9332486391067505
1777561225787808300,20.461808349609374,0.5554288029670715,-0.5424479246139526,-0.817184329032898
1777561225806338000,20.480338134765624,0.06673697382211685,1.2229512929916382,-1.9876012802124023
1777561225824867800,20.498867919921874,-0.5734493136405945,5.14225959777832,-2.374889612197876
1777561225843397600,20.517397705078125,-0.7835868000984192,6.115978240966797,-1.9399538040161133
1777561225861927400,20.535927490234375,-0.9949460029602051,4.1954193115234375,-1.7078251838684082
1777561225880457200,20.554457275390625,-0.1519526094198227,0.7770199775695801,-1.5184571743011475
1777561225898987000,20.572987060546875,0.47845983505249023,0.03543015569448471,-1.6894992589950562
1777561225917516800,20.591516845703126,0.8914044499397278,2.5106542110443115,-2.0633485317230225
1777561225936046600,20.610046630859376,1.5645774602890015,4.590037822723389,-2.1916301250457764
1777561225954576400,20.628576416015626,1.5780164003372192,4.830718517303467,-2.0743441581726074
1777561225973106200,20.647106201171876,1.0832159519195557,3.9364125728607178,-1.622304081916809
1777561225991636000,20.665635986328127,0.37949973344802856,2.763552188873291,-1.1470513343811035
1777561226010165800,20.684165771484373,-0.14462223649024963,1.6798781156539917,-1.0041090250015259
1777561226028695600,20.702695556640624,-0.23747368156909943,1.5051708221435547,-1.3046544790267944
1777561226047225300,20.721225341796874,-0.10674861818552017,2.2223260402679443,-1.4072797298431396
1777561226065755100,20.739755126953124,0.17791436612606049,3.165501356124878,-1.1629338264465332
1777561226084285000,20.758284912109374,0.22067490220069885,3.4220645427703857,-1.1018472909927368
1777561226102814700,20.776814697265625,0.01908952370285988,2.7794346809387207,-0.9601266980171204
1777561226121344500,20.795344482421875,-0.10063996911048889,2.0659446716308594,-0.8147408962249756
1777561226139874300,20.813874267578125,-0.1824958473443985,1.8264856338500977,-0.680350661277771
1777561226158404000,20.832404052734375,-0.2753472924232483,1.7776165008544922,-0.5606211423873901
1777561226176934000,20.850933837890626,-0.31810784339904785,1.342680811882019,-0.5569559335708618
1777561226195463700,20.869463623046876,-0.3217730224132538,0.8637627959251404,-0.569173276424408
1777561226213993500,20.887993408203126,-0.2606865465641022,0.9297361969947815,-0.4127918779850006
1777561226232523300,20.906523193359376,-0.04932733252644539,1.508836030960083,-0.27717989683151245
1777561226251053000,20.925052978515627,0.21945317089557648,1.858250617980957,-0.23197589814662933
1777561226269582800,20.943582763671873,0.3611738085746765,1.4624103307724,-0.2551887631416321
1777561226288112600,20.962112548828124,0.3721693754196167,1.0238093137741089,-0.19410228729248047
1777561226306642400,20.980642333984374,0.36972591280937195,1.0299180746078491,0.07712167501449585
1777561226325172200,20.999172119140624,0.3721693754196167,1.1423171758651733,0.5560396909713745
1777561226343702000,21.017701904296874,0.28298309445381165,0.7183769941329956,1.326951026916504
1777561226362231800,21.036231689453125,0.2793179154396057,0.1637117564678192,2.2200353145599365
1777561226380761600,21.05476171875,0.2487746775150299,-0.7709113359451294,2.9652903079986572
1777561226399291400,21.07329150390625,0.27687445282936096,-1.2327251434326172,3.473529815673828
1777561226417821200,21.0918212890625,-0.0102319847792387,-1.4184280633926392,4.012312412261963
1777561226436351000,21.11035107421875,-0.5477929711341858,-1.3988803625106812,3.849822521209717
1777561226454880800,21.128880859375,-1.1733185052871704,-0.41783151030540466,3.3684611320495605
1777561226473410600,21.14741064453125,-1.74508798122406,-0.6304124593734741,2.8797693252563477
1777561226491940400,21.1659404296875,-1.6742275953292847,0.4776962697505951,2.5780019760131836
1777561226510470100,21.18447021484375,-1.735314130783081,2.7513349056243896,2.6061017513275146
1777561226529000000,21.203,-1.4628684520721436,2.439793825149536,2.5633413791656494
1777561226547529700,21.22152978515625,-0.873994767665863,0.024434590712189674,1.7374521493911743
1777561226566059500,21.2400595703125,-0.2851211428642273,-0.6548470258712769,1.356272578239441
1777561226584589300,21.25858935546875,-0.07620538026094437,0.23823726177215576,1.799760341644287
1777561226603119000,21.277119140625,-0.2680169343948364,-0.2406807243824005,1.6898046731948853
1777561226621649000,21.29564892578125,-0.32788166403770447,-1.0152572393417358,1.4564543962478638
1777561226640178700,21.3141787109375,-0.45616328716278076,-1.043357014656067,1.152243733406067
1777561226658708500,21.33270849609375,-0.44150251150131226,-0.7916807532310486,0.662330150604248
1777561226677238300,21.35123828125,-0.27656903862953186,0.010995565913617611,-0.08048143237829208
1777561226695768000,21.36976806640625,-0.1360701322555542,0.7574723362922668,-0.884379506111145
1777561226714297900,21.3882978515625,0.04230238497257233,1.4001020193099976,-1.6479604244232178
1777561226732827600,21.40682763671875,0.2964221239089966,1.9388848543167114,-2.1781911849975586
1777561226751357400,21.425357421875,0.5615374445915222,2.3713769912719727,-2.363893985748291
1777561226769887200,21.44388720703125,0.8352048993110657,2.4178028106689453,-2.1354305744171143
1777561226788417000,21.4624169921875,1.0526727437973022,1.6896519660949707,-1.2032508850097656
1777561226806946800,21.48094677734375,0.892626166343689,1.8448116779327393,0.3116937577724457
1777561226825476600,21.4994765625,0.2280052751302719,1.2021819353103638,0.7661771774291992
1777561226844006400,21.51800634765625,-0.33276858925819397,0.27488914132118225,0.5926915407180786
1777561226862536200,21.5365361328125,-0.5893318057060242,0.026878049597144127,0.3874409794807434
1777561226881066000,21.55506591796875,-0.8006910085678101,-0.916297197341919,0.3556760251522064
1777561226899595800,21.573595703125,-0.8239038586616516,-1.9401065111160278,0.29703301191329956
1777561226918125800,21.592125732421874,-0.6137663722038269,-1.2791508436203003,0.191964253783226
1777561226936655600,21.610655517578124,-0.6149880886077881,0.7513636946678162,0.3165806829929352
1777561226955185400,21.629185302734374,-0.9253074526786804,0.7745765447616577,0.03191768378019333
1777561226973715200,21.647715087890624,-0.29733842611312866,0.831997811794281,-0.8794925808906555
1777561226992245000,21.666244873046875,0.10583232343196869,3.059210777282715,-1.3779581785202026
1777561227010774800,21.68477490234375,0.3513999581336975,2.190561056137085,-1.2032508850097656
1777561227029304600,21.7033046875,0.06307178735733032,1.507614254951477,-1.8458806276321411
1777561227047834400,21.72183447265625,-0.8067996501922607,4.482525825500488,-2.5410447120666504
1777561227066364200,21.7403642578125,-1.4909682273864746,6.39941930770874,-2.3712244033813477
1777561227084894000,21.75889404296875,-1.6998839378356934,5.1703596115112305,-1.399949312210083
1777561227103423700,21.777423828125,-0.32788166403770447,1.3158026933670044,-1.1531599760055542
1777561227121953500,21.79595361328125,0.5004509687423706,0.11484257876873016,-1.4427099227905273
1777561227140483300,21.8144833984375,0.7790052890777588,1.5479313135147095,-1.7774637937545776
1777561227159013000,21.83301318359375,1.3348922729492188,3.1972663402557373,-1.826332926750183
1777561227177543000,21.85154296875,1.650098443031311,4.057363986968994,-1.9582797288894653
1777561227196072700,21.87007275390625,1.409417748451233,4.057363986968994,-1.9094105958938599
1777561227214602800,21.888602783203126,0.8327614068984985,3.450164318084717,-1.6748385429382324
1777561227233132500,21.907132568359376,0.19501857459545135,2.5692973136901855,-1.3865103721618652
1777561227251662300,21.925662353515627,-0.15928299725055695,2.0891575813293457,-1.253341794013977
1777561227270192000,21.944192138671873,-0.2802342176437378,2.1563527584075928,-1.1458295583724976
1777561227288722000,21.962721923828123,-0.3095557391643524,2.153909206390381,-1.0089958906173706
1777561227307251700,21.981251708984374,-0.360868364572525,2.1355831623077393,-0.967457115650177
1777561227325781500,21.999781494140624,-0.3462076187133789,2.0696098804473877,-0.9564615488052368
1777561227344311300,22.018311279296874,-0.21426081657409668,2.1917827129364014,-0.9442442059516907
1777561227362841000,22.036841064453125,-0.10186170041561127,2.27119517326355,-0.8184061050415039
1777561227381371000,22.055370849609375,-0.13484840095043182,2.0048582553863525,-0.6644681692123413
1777561227399900700,22.073900634765625,-0.2240346521139145,1.5418226718902588,-0.7072287201881409
1777561227418430500,22.092430419921875,-0.3877464234828949,0.8539889454841614,-0.7072287201881409
1777561227436960500,22.11096044921875,-0.5062541961669922,0.36285367608070374,-0.5447386503219604
1777561227455490300,22.129490234375,-0.40607234835624695,0.6511818766593933,-0.5019781589508057
1777561227474020000,22.14802001953125,-0.08842267841100693,1.1410953998565674,-0.38102689385414124
1777561227492550000,22.1665498046875,0.09850194305181503,1.276707410812378,-0.20143266022205353
1777561227511079700,22.18507958984375,0.08628465235233307,0.8735366463661194,-0.09147699922323227
1777561227529609500,22.203609375,0.08261945843696594,0.7391464114189148,0.12843431532382965
1777561227548139300,22.22213916015625,0.18402300775051117,0.6438514590263367,0.7099775671958923
1777561227566669000,22.2406689453125,0.30375251173973083,0.3384190797805786,1.2609776258468628
1777561227585198800,22.25919873046875,0.49189886450767517,-0.2211330533027649,1.6995785236358643
1777561227603728600,22.277728759765626,0.4760163724422455,-0.8222240209579468,2.4130685329437256
1777561227622258700,22.2962587890625,0.21578797698020935,-1.51616632938385,3.3574655055999756
1777561227640788500,22.31478857421875,-0.03711003437638283,-1.4453060626983643,4.000095367431641
1777561227659318300,22.333318359375,-0.30833399295806885,-0.6304124593734741,3.942673921585083
1777561227677848000,22.35184814453125,-0.7884737253189087,-0.07941242307424545,3.4075565338134766
1777561227696377900,22.3703779296875,-1.2844959497451782,-0.9932661056518555,2.7062838077545166
1777561227733437400,22.4074375,-1.4066689014434814,0.5009090900421143,2.053880214691162
1777561227751967200,22.42596728515625,-1.1281145811080933,2.0134103298187256,2.419177293777466
1777561227770497000,22.4444970703125,-0.8226821422576904,1.1239912509918213,2.0795364379882812
1777561227789026800,22.46302685546875,-0.32421648502349854,-0.5668824911117554,1.2829687595367432
1777561227807556900,22.481556884765624,0.15836669504642487,-0.7232639193534851,1.121700406074524
1777561227826086700,22.500086669921874,0.12415826320648193,-0.15027274191379547,1.539531946182251
1777561227844616400,22.518616455078124,0.004428769461810589,-0.3848448097705841,1.3965896368026733
1777561227863146200,22.537146240234375,-0.018784092739224434,-0.564439058303833,1.0398445129394531
1777561227881676000,22.555676025390625,0.06673697382211685,-0.3530798554420471,0.6024653911590576
1777561227900205800,22.574205810546875,0.20967933535575867,0.1905898153781891,-0.02306014485657215
1777561227918735600,22.592735595703125,0.3306305706501007,0.6866120100021362,-0.7683151960372925
1777561227937265400,22.611265380859376,0.45769044756889343,0.9761618971824646,-1.5074615478515625
1777561227955795500,22.62979541015625,0.5798633694648743,1.1447606086730957,-2.0914483070373535
1777561227974325200,22.6483251953125,0.809548556804657,1.4196497201919556,-2.3993241786956787
1777561227992855000,22.66685498046875,0.9659299254417419,2.1282529830932617,-2.207512617111206
1777561228011384800,22.685384765625,0.8840740323066711,2.386037826538086,-1.5795435905456543
1777561228029914600,22.70391455078125,0.5297724604606628,1.6420044898986816,-0.856279730796814
1777561228048444400,22.7224443359375,0.2133445292711258,0.12217295914888382,-0.5056433081626892
1777561228066974200,22.74097412109375,0.19135339558124542,-0.5180133581161499,-0.11713331937789917
1777561228085504000,22.75950390625,0.0019853105768561363,-0.39339691400527954,0.42653632164001465
1777561228104033800,22.77803369140625,-0.06276635825634003,-0.6059778332710266,0.37400195002555847
1777561228122563800,22.796563720703126,-0.0639880821108818,-0.5925388336181641,-0.06337722390890121
1777561228141093600,22.81509375,-0.26190826296806335,0.7965676784515381,-0.1879936307668686
1777561228159623400,22.83362353515625,-0.8055779337882996,2.6083927154541016,-0.15745039284229279
1777561228178153200,22.8521533203125,-0.6650790572166443,1.4001020193099976,0.7014254927635193
1777561228196683000,22.87068310546875,-0.09453132748603821,0.7904590368270874,0.9078977704048157
1777561228215212800,22.889212890625,0.03741546720266342,-0.0818558782339096,0.39965829253196716
1777561228233742600,22.90774267578125,-0.006566796451807022,-1.0494656562805176,-0.753654420375824
1777561228252272400,22.9262724609375,-0.8165735006332397,0.8026763200759888,-1.595426082611084
1777561228270802400,22.944802490234373,-1.5337287187576294,2.8967208862304688,-1.2386810779571533
1777561228289332200,22.963332275390623,-1.698662281036377,3.0445499420166016,-0.3724747896194458
1777561228307862000,22.981862060546874,-0.6907353401184082,0.7757982611656189,-0.13179408013820648
1777561228326391800,23.000391845703124,0.22189663350582123,-0.851545512676239,-0.9014837145805359
1777561228344921600,23.018921630859374,0.8144354820251465,0.8161153197288513,-1.3119847774505615
1777561228363451400,23.037451416015625,1.1296416521072388,2.0964879989624023,-1.3608540296554565
1777561228381981200,23.055981201171875,0.9671516418457031,2.1526875495910645,-1.4427099227905273
1777561228400511000,23.074510986328125,0.6397281289100647,1.4294235706329346,-1.3327542543411255
1777561228419041000,23.093041015625,0.162031888961792,0.4618137776851654,-1.0053306818008423
1777561228437570800,23.11157080078125,-0.291229784488678,-0.1539379209280014,-0.6522508859634399
1777561228456100600,23.1301005859375,-0.5086976289749146,-0.5754346251487732,-0.4396699368953705
1777561228474630400,23.14863037109375,-0.4488328993320465,-0.6047561168670654,-0.4384481906890869
1777561228493160200,23.16716015625,-0.281455934047699,-0.05864302068948746,-0.4445568323135376
1777561228511690000,23.18568994140625,-0.23014330863952637,0.6206386089324951,-0.15867212414741516
1777561228530219800,23.2042197265625,-0.2545779049396515,0.7330377101898193,0.18585561215877533
1777561228548749800,23.222749755859375,-0.31444263458251953,0.46547895669937134,0.42653632164001465
1777561228567279600,23.241279541015626,-0.34865108132362366,0.2981020212173462,0.9237802624702454
1777561228585809400,23.259809326171876,-0.3975202441215515,0.14049890637397766,1.5322015285491943
1777561228604339200,23.278339111328126,-0.4964803457260132,-0.7134900689125061,1.6201660633087158
1777561228622869000,23.296868896484376,-0.49892380833625793,-1.8741331100463867,1.2328778505325317
1777561228641398800,23.315398681640627,-0.38652467727661133,-1.6676608324050903,0.9286671876907349
1777561228659928600,23.333928466796873,-0.1727220118045807,-0.1747073233127594,1.004414439201355
