time,seconds_elapsed,z,y,x
1777561205495475200,0.16947509765625,0.2254091054201126,-0.40378162264823914,0.14721840620040894
1777561205514004700,0.188004638671875,0.2211330533027649,-0.4581485986709595,0.1802051067352295
1777561205532534300,0.2065341796875,0.23823726177215576,-0.546113133430481,0.19608759880065918
1777561205551063800,0.225063720703125,0.2767217457294464,-0.5393936038017273,0.21319180727005005
1777561205569593300,0.24359326171875,0.2608392536640167,-0.4972439408302307,0.19669845700263977
1777561205588122600,0.26212255859375,0.18875721096992493,-0.4929678738117218,0.17104214429855347
1777561205606652200,0.280652099609375,0.16187916696071625,-0.5119046568870544,0.09896009415388107
1777561205625181700,0.299181640625,0.1539379209280014,-0.5222893953323364,0.03848448023200035
1777561205643711000,0.3177109375,0.16737695038318634,-0.5106829404830933,-0.05436696484684944
1777561205662240500,0.336240478515625,0.24862197041511536,-0.6517927050590515,-0.12034036219120026
1777561205680769800,0.354769775390625,0.3274235129356384,-0.7171552777290344,-0.1899789422750473
1777561205699299300,0.37329931640625,0.32192572951316833,-0.667064368724823,-0.41355544328689575
1777561205717828900,0.391828857421875,0.20708316564559937,-0.7012727856636047,-0.545502245426178
1777561205736358100,0.410358154296875,0.10140355676412582,-0.7623592615127563,-0.5314523577690125
1777561205754887700,0.4288876953125,0.059864748269319534,-0.7073814272880554,-0.39767298102378845
1777561205773417200,0.447417236328125,0.11545344442129135,-0.7293725609779358,-0.06414080411195755
1777561205791946500,0.465946533203125,0.11911863088607788,-0.5815432667732239,0.37812530994415283
1777561205810476000,0.48447607421875,-0.010995565913617611,-0.36285367608070374,0.4221075773239136
1777561205829005600,0.503005615234375,-0.05742128938436508,-0.16004657745361328,-0.02626718580722809
1777561205847535000,0.52153515625,-0.0977383628487587,0.27916520833969116,-0.6493492722511292
1777561205866064400,0.540064453125,-0.29016077518463135,0.31154105067253113,-0.7764091491699219
1777561205884594000,0.558593994140625,-0.5937605500221252,0.8075632452964783,-0.7672461867332458
1777561205903123500,0.57712353515625,-0.7574723362922668,2.073275089263916,-1.2345577478408813
1777561205921652700,0.59565283203125,-0.7721330523490906,2.2901320457458496,-1.1410953998565674
1777561205940182300,0.614182373046875,-0.472198486328125,1.0610721111297607,-0.6114756464958191
1777561205958711600,0.632711669921875,-0.13194678723812103,0.5900954008102417,-0.6743947267532349
1777561205977241000,0.651240966796875,0.09896009415388107,0.9334014058113098,-1.0793980360031128
1777561205995770600,0.6697705078125,0.1637117564678192,0.9382883310317993,-1.2486076354980469
1777561206014300000,0.6882998046875,-0.01588248461484909,0.4166097939014435,-1.0458004474639893
1777561206032829400,0.706829345703125,-0.14294235408306122,-0.36835145950317383,-0.823445737361908
1777561206051359000,0.72535888671875,-0.22174391150474548,-0.7483093738555908,-0.8655954003334045
1777561206069888300,0.74388818359375,-0.1380554437637329,-0.4770853817462921,-1.0677915811538696
1777561206088417800,0.762417724609375,0.15760311484336853,0.16676609218120575,-1.5412118434906006
1777561206106947000,0.780947021484375,0.1081230640411377,0.6878337264060974,-1.5766420364379883
1777561206125476600,0.7994765625,-0.06841685622930527,0.9657772183418274,-1.2107340097427368
1777561206144006100,0.818006103515625,-0.1331685185432434,0.8277217745780945,-1.0482439994812012
1777561206162535700,0.83653564453125,-0.037262752652168274,0.5186241865158081,-0.9877683520317078
1777561206181065000,0.85506494140625,0.19364413619041443,0.554665207862854,-1.0231984853744507
1777561206199594500,0.873594482421875,0.2528980076313019,0.841160774230957,-0.9841031432151794
1777561206218124000,0.8921240234375,0.2107483446598053,0.9963204264640808,-0.8570432662963867
1777561206236653300,0.9106533203125,0.09590577334165573,1.0134246349334717,-0.6652317643165588
1777561206255182800,0.929182861328125,-0.05558869615197182,0.9309579133987427,-0.554665207862854
1777561206273712400,0.94771240234375,-0.17715078592300415,0.8405499458312988,-0.535728394985199
1777561206292241700,0.96624169921875,-0.25411975383758545,0.8167262077331543,-0.5613847374916077
1777561206310771200,0.984771240234375,-0.27000224590301514,0.7849612236022949,-0.6004800796508789
1777561206329300700,1.00330078125,-0.22907429933547974,0.7464767694473267,-0.7067705392837524
1777561206347830000,1.021830078125,-0.20647229254245758,0.6933315396308899,-0.7617483735084534
1777561206366359600,1.040359619140625,-0.17776164412498474,0.7837395071983337,-0.6878337264060974
1777561206384889000,1.05888916015625,-0.1081230640411377,0.9541707634925842,-0.5112938284873962
1777561206403418400,1.07741845703125,-0.03909534588456154,1.08978271484375,-0.35735589265823364
1777561206421948000,1.095947998046875,-0.004276053514331579,1.0763437747955322,-0.30115634202957153
1777561206440477200,1.114477294921875,0.030543239787220955,0.9865466356277466,-0.2657261788845062
1777561206459006700,1.1330068359375,0.06291907280683517,0.9334014058113098,-0.11606431007385254
1777561206477536300,1.151536376953125,0.05558869615197182,0.8344413042068481,0.07269290834665298
1777561206496065500,1.1700654296875,0.06047561392188072,0.5845975875854492,0.3329212963581085
1777561206514595000,1.188594970703125,0.0922405794262886,0.1899789422750473,0.6200277805328369
1777561206533124600,1.20712451171875,0.22846342623233795,-0.24373504519462585,0.8967494964599609
1777561206551654000,1.22565380859375,0.34208428859710693,-0.5473348498344421,1.2797616720199585
1777561206570183400,1.244183349609375,0.29993459582328796,-0.9902117848396301,1.8820743560791016
1777561206588712700,1.262712646484375,0.21991132199764252,-1.5937461853027344,2.615722894668579
1777561206607242200,1.2812421875,0.17165300250053406,-1.8802417516708374,3.2504115104675293
1777561206625771800,1.299771728515625,0.15638138353824615,-1.701869249343872,3.4489426612854004
1777561206644301000,1.318301025390625,-0.08063415437936783,-0.9114102721214294,3.2571310997009277
1777561206662830600,1.33683056640625,-0.564439058303833,-0.5057960152626038,3.062875986099243
1777561206681360100,1.355360107421875,-1.2510510683059692,-1.352454662322998,2.6242752075195312
1777561206699889400,1.373889404296875,-1.6609413623809814,-1.5790854692459106,2.162461280822754
1777561206718419000,1.3924189453125,-1.390328288078308,-0.11362084746360779,1.9755367040634155
1777561206736948500,1.410948486328125,-0.6181951761245728,1.924834966659546,2.003636360168457
1777561206755477800,1.429477783203125,0.17592905461788177,1.1972949504852295,1.4440842866897583
1777561206774007300,1.44800732421875,0.4221075773239136,1.3585633039474487,-0.46364638209342957
1777561206792536800,1.466536865234375,0.8527672290802002,-2.422078847885132,3.5081963539123535
1777561206811066400,1.48506640625,0.5491674542427063,-2.1160356998443604,3.1673338413238525
1777561206829595600,1.503595703125,0.47036588191986084,-1.897346019744873,1.426369309425354
1777561206848125200,1.522125244140625,0.4838049113750458,-1.6499457359313965,0.943786084651947
1777561206866654500,1.540654541015625,0.4098902642726898,-1.176525592803955,0.6860011219978333
1777561206885184000,1.55918408203125,0.38179048895835876,-0.5540543794631958,0.3072649836540222
1777561206903713500,1.577713623046875,0.37690356373786926,0.012217295356094837,-0.10567960888147354
1777561206922242800,1.596242919921875,0.41905322670936584,0.5045742988586426,-0.5015199780464172
1777561206940772400,1.6147724609375,0.5778780579566956,0.7391464114189148,-0.9010255336761475
1777561206959302000,1.633302001953125,0.8295543789863586,0.7898481488227844,-1.2443315982818604
1777561206977831200,1.6518310546875,1.0574069023132324,0.8576541543006897,-1.524107575416565
1777561206996360700,1.670360595703125,0.9413426518440247,0.998763918876648,-1.5387684106826782
1777561207014890000,1.688889892578125,0.6273581385612488,0.8539889454841614,-1.2003493309020996
1777561207033419500,1.70741943359375,0.42394015192985535,0.1649334877729416,-0.627968966960907
1777561207051949000,1.725948974609375,0.4373791813850403,-0.6407971382141113,0.011606430634856224
1777561207070478600,1.744478515625,0.41355544328689575,-1.0164790153503418,0.4764745235443115
1777561207089007900,1.7630078125,0.17531819641590118,-1.120326042175293,0.6310232877731323
1777561207107537400,1.781537353515625,-0.05253437161445618,-1.426369309425354,0.5558869242668152
1777561207126067000,1.80006689453125,-0.23212862014770508,-1.0720677375793457,0.3292561173439026
1777561207144596500,1.818596435546875,-0.4508182108402252,-0.32559093832969666,0.22785256803035736
1777561207163125800,1.837125732421875,-1.3060288429260254,0.8778126835823059,-0.15271618962287903
1777561207181655300,1.8556552734375,-1.977980136871338,-0.4630354940891266,1.1588104963302612
1777561207200184600,1.8741845703125,-1.2651009559631348,0.030543239787220955,0.13194678723812103
1777561207218714000,1.892714111328125,-0.22479823231697083,1.802051067352295,-0.42332929372787476
1777561207237243600,1.91124365234375,0.35613417625427246,1.858250617980957,-1.026863694190979
1777561207255773000,1.92977294921875,-0.16615521907806396,2.8820600509643555,-1.2907572984695435
1777561207274302500,1.948302490234375,-0.9315688014030457,3.7012298107147217,-1.2162318229675293
1777561207292832000,1.96683203125,-1.5668681859970093,3.2094836235046387,-1.4159845113754272
1777561207311361500,1.985361572265625,-1.839924693107605,2.0799946784973145,-1.5986331701278687
1777561207329890800,2.003890869140625,-0.6695078015327454,-0.07086031138896942,-1.062904715538025
1777561207348420400,2.02242041015625,0.34636032581329346,-0.7202095985412598,-0.8729257583618164
1777561207366950000,2.040949951171875,0.7861829996109009,0.9462295174598694,-0.6456840634346008
1777561207385479200,2.059479248046875,1.056185245513916,1.6493349075317383,-0.7422007322311401
1777561207404008700,2.0780087890625,1.053741693496704,1.925445795059204,-1.0671807527542114
1777561207422538200,2.096538330078125,0.6713404059410095,1.5363249778747559,-1.2870920896530151
1777561207441067500,2.115067626953125,0.06291907280683517,0.749531090259552,-0.9303470849990845
1777561207459597000,2.13359716796875,-0.3738492429256439,-0.046425722539424896,-0.21807873249053955
1777561207478126600,2.152126708984375,-0.4221075773239136,-0.35063639283180237,0.043371398001909256
1777561207496656100,2.17065625,-0.2211330533027649,0.0256563201546669,-0.012217295356094837
1777561207515185400,2.189185302734375,-0.07147117704153061,0.6255255341529846,0.17043127119541168
1777561207533715000,2.20771484375,-0.07819069176912308,0.7819069027900696,0.45937031507492065
1777561207552244500,2.226244384765625,-0.24923282861709595,0.33719736337661743,0.6682860851287842
1777561207570774000,2.24477392578125,-0.6224712133407593,0.20158538222312927,0.7910698652267456
1777561207589303300,2.26330322265625,-0.7269290685653687,0.8943060636520386,0.7733548283576965
1777561207607832800,2.281832763671875,-0.6536253094673157,0.9016364216804504,0.952949047088623
1777561207626362400,2.3003623046875,-0.6927206516265869,0.5125155448913574,1.3720022439956665
1777561207644892000,2.318891845703125,-0.6731730103492737,0.6652317643165588,1.497840404510498
1777561207672685800,2.346685791015625,-0.5302306413650513,0.6921098232269287,0.8362739086151123
1777561207691215400,2.36521533203125,-0.45387253165245056,0.7880155444145203,0.6633991599082947
1777561207709745000,2.383744873046875,-0.5900954008102417,1.1044435501098633,1.0067051649093628
1777561207728274400,2.4022744140625,-0.7379246354103088,0.8442151546478271,1.7989968061447144
1777561207746804000,2.420803955078125,-0.7971785664558411,-0.4789179861545563,3.2400267124176025
1777561207765333200,2.439333251953125,-0.7568614482879639,-0.046425722539424896,3.817294120788574
1777561207783862800,2.45786279296875,-0.39828383922576904,-0.5913171172142029,3.3267695903778076
1777561207802392300,2.476392333984375,0.09712749719619751,-1.074511170387268,3.274846076965332
1777561207820921900,2.494921875,0.5296197533607483,-0.5913171172142029,2.5100433826446533
1777561207839451100,2.513451171875,0.6493492722511292,0.10567960888147354,1.0598503351211548
1777561207857980700,2.531980712890625,0.6017017960548401,0.3426951467990875,-0.06719512492418289
1777561207876510200,2.55051025390625,0.20402882993221283,-0.0769689604640007,-0.4819723069667816
1777561207895039700,2.569039794921875,-0.3536907136440277,-0.1588248461484909,-0.8588758707046509
1777561207913569300,2.5875693359375,-0.10995566099882126,0.5540543794631958,-1.5497639179229736
1777561207932098600,2.6060986328125,0.33597561717033386,1.0848958492279053,-2.360381603240967
1777561207950628000,2.624628173828125,0.5302306413650513,1.128878116607666,-2.8961098194122314
1777561207969157600,2.64315771484375,0.4477638900279999,1.0030399560928345,-3.040273904800415
1777561207987687200,2.661687255859375,0.1954767256975174,1.0341941118240356,-2.927874803543091
1777561208006216400,2.680216552734375,-0.10690133273601532,0.6133082509040833,-2.606559991836548
1777561208024746000,2.69874609375,-0.43432486057281494,-0.7079922556877136,-1.9590433835983276
1777561208043275500,2.717275634765625,-0.2724456787109375,-1.9804235696792603,-1.2388337850570679
1777561208061805000,2.73580517578125,0.38789913058280945,-2.4514002799987793,-1.1148282289505005
1777561208080334600,2.75433447265625,0.5583304166793823,-1.265711784362793,-1.3542872667312622
1777561208098863900,2.77286376953125,0.7660244107246399,0.4770853817462921,-1.0604612827301025
1777561208117393400,2.791393310546875,1.046411395072937,1.1618647575378418,-0.8674280047416687
1777561208135923000,2.8099228515625,1.2638791799545288,1.7599014043807983,-1.164919137954712
1777561208154452500,2.828452392578125,1.2809834480285645,1.9901974201202393,-1.6218459606170654
1777561208172981800,2.846981689453125,0.9016364216804504,1.0903936624526978,-1.7372994422912598
1777561208191511300,2.86551123046875,0.2974911332130432,-0.34636032581329346,-1.2357794046401978
1777561208210040800,2.884040771484375,-0.31581708788871765,-2.0476186275482178,-0.7531962990760803
1777561208228570400,2.9025703125,-0.656679630279541,-3.60410213470459,-0.7153226733207703
1777561208247100000,2.921099853515625,-0.685390293598175,-2.511875867843628,0.08674279600381851
1777561208265629400,2.93962939453125,-0.07941242307424545,3.4996442794799805,1.4025455713272095
1777561208284159000,2.958158935546875,0.43493571877479553,2.3927574157714844,1.2003493309020996
1777561208302688300,2.976688232421875,-0.7892373204231262,-0.3451386094093323,1.988364815711975
1777561208321217800,2.9952177734375,-0.29626941680908203,1.1893537044525146,2.758054494857788
1777561208339747300,3.013747314453125,0.17653992772102356,0.8692606091499329,1.4746276140213013
1777561208358276900,3.03227685546875,0.554665207862854,0.35735589265823364,-0.7312051653862
1777561208376806400,3.050806396484375,0.3481929302215576,-0.8283326625823975,-2.070220708847046
1777561208395336000,3.0693359375,-0.1948658674955368,-0.1380554437637329,-0.4770853817462921
1777561208413865200,3.087865234375,-0.4685332775115967,0.8356630206108093,0.4612029194831848
1777561208432394800,3.106394775390625,-0.24862197041511536,0.2834412455558777,0.0616973415017128
1777561208450924300,3.12492431640625,-0.1441640853881836,-0.08552107214927673,-0.3243691921234131
1777561208469453800,3.143453857421875,-0.23396120965480804,-0.3439168632030487,-0.40805765986442566
1777561208487983400,3.1619833984375,-0.36224281787872314,-0.8197805285453796,-0.4251618981361389
1777561208506513000,3.180512939453125,-0.379347026348114,-0.9712749719619751,-0.22968515753746033
1777561208525042200,3.199042236328125,-0.3280344009399414,-0.5210676789283752,0.3133736252784729
1777561208543572000,3.217572021484375,-0.3555232882499695,0.21807873249053955,0.711046576499939
1777561208571366100,3.2453662109375,-0.30115634202957153,0.05558869615197182,0.5039634704589844
1777561208589895700,3.263895751953125,-0.1637117564678192,0.5815432667732239,0.38301220536231995
1777561208608425200,3.28242529296875,-0.14233149588108063,0.861319363117218,0.5723803043365479
1777561208626954500,3.30095458984375,-0.17898337543010712,1.1081087589263916,0.5907062292098999
1777561208645484300,3.319484375,-0.2724456787109375,0.40744680166244507,0.536339282989502
1777561208664013600,3.338013671875,-0.46914416551589966,-0.6719512343406677,0.7183769941329956
1777561208682543000,3.356543212890625,-0.44348782300949097,0.01649334840476513,1.4624103307724
1777561208701072600,3.37507275390625,-0.36835145950317383,-0.4214966893196106,2.177122116088867
1777561208719602200,3.393602294921875,-0.5296197533607483,-0.8032872080802917,2.6780312061309814
1777561208738131700,3.412131591796875,-0.759304940700531,-0.6169734001159668,2.729343891143799
1777561208756661200,3.4306611328125,-0.33169957995414734,-0.850934624671936,3.2601852416992188
1777561208775190800,3.449190673828125,0.6126973628997803,-1.3695588111877441,3.1777186393737793
1777561208793720300,3.46772021484375,0.6530144214630127,-0.56382817029953,2.2027783393859863
1777561208812249900,3.486249755859375,0.27000224590301514,-0.5088503360748291,1.2828160524368286
1777561208830779400,3.504779296875,-0.23762640357017517,-1.3280199766159058,1.0427461862564087
1777561208849309000,3.523308837890625,-0.4404335021972656,-1.1172716617584229,0.5705476999282837
1777561208867838500,3.54183837890625,-0.20830489695072174,0.14233149588108063,-0.38850998878479004
1777561208886367700,3.56036767578125,0.5235111117362976,0.648127555847168,-1.3359612226486206
1777561208904897300,3.578897216796875,0.9211840629577637,0.7250964641571045,-1.8918482065200806
1777561208923426800,3.5974267578125,1.0458004474639893,0.6768381595611572,-2.173456907272339
1777561208941956400,3.615956298828125,1.0128138065338135,0.6035344004631042,-2.417191982269287
1777561208960486000,3.63448583984375,0.8545998334884644,0.6053670048713684,-2.547916889190674
1777561208979015400,3.653015380859375,0.5962040424346924,0.748920202255249,-2.5442519187927246
1777561208997545000,3.671544921875,0.2009745091199875,0.7757982611656189,-2.3982551097869873
1777561209016074500,3.690074462890625,-0.3023780584335327,0.32620179653167725,-2.1606287956237793
1777561209034604000,3.70860400390625,-0.7910698652267456,-0.7440332770347595,-1.7550145387649536
1777561209053133600,3.727133544921875,-0.9682206511497498,-1.6810998916625977,-1.2388337850570679
1777561209071663000,3.7456630859375,-0.2675587832927704,-2.034790515899658,-0.767857015132904
1777561209090192600,3.764192626953125,0.6560688018798828,-1.1148282289505005,-1.1233803033828735
1777561209108722200,3.78272216796875,0.8216131329536438,0.4471530318260193,-1.4489712715148926
1777561209127251700,3.801251708984375,0.6921098232269287,1.3481786251068115,-0.8888082504272461
1777561209145781200,3.81978125,0.9560033679008484,1.750738501548767,-0.2932150959968567
1777561209164310800,3.838310791015625,0.9572250843048096,1.071456789970398,-0.5571087002754211
1777561209182840300,3.85684033203125,0.7825177907943726,-0.49113526940345764,-0.9669989347457886
1777561209201369900,3.875369873046875,0.22663083672523499,-1.5583161115646362,-0.6047561168670654
1777561209219899400,3.8938994140625,-0.22968515753746033,-0.56382817029953,0.22357651591300964
1777561209238429000,3.912428955078125,-0.6133082509040833,-2.5631885528564453,-0.0769689604640007
1777561209256958500,3.93095849609375,-0.62857985496521,-2.0164647102355957,-0.8148936033248901
1777561209275488300,3.94948828125,-0.22235478460788727,2.866177558898926,1.2675443887710571
1777561209294017500,3.968017578125,0.20708316564559937,4.885085582733154,2.1471896171569824
1777561209312547000,3.986547119140625,1.0250310897827148,2.5130977630615234,1.8674136400222778
1777561209331076900,4.005076904296875,0.8191696405410767,0.16859868168830872,0.35613417625427246
1777561209349606100,4.023606201171875,0.07635809481143951,-2.1056509017944336,-1.4746276140213013
1777561209368136000,4.042135986328125,-0.21197007596492767,-2.5387539863586426,-1.6242893934249878
1777561209386665500,4.06066552734375,-0.13011419773101807,-0.7935133576393127,-0.7269290685653687
1777561209405195000,4.079195068359375,-0.07147117704153061,0.9474512934684753,-0.4013381600379944
1777561209423724500,4.097724609375,0.03298669680953026,0.555276095867157,-0.2993237376213074
1777561209442254000,4.116254150390625,-0.04214967042207718,-0.29077163338661194,-0.4789179861545563
1777561209460783600,4.13478369140625,-0.040317077189683914,-0.5180133581161499,-0.4428769648075104
1777561209479313200,4.153313232421875,-0.17165300250053406,-0.7751874327659607,-0.3237583339214325
1777561209497842700,4.1718427734375,-0.23457208275794983,-0.8252783417701721,-0.043982263654470444
1777561209516372200,4.190372314453125,-0.20219624042510986,-0.19730933010578156,0.4159989058971405
1777561209534901800,4.20890185546875,-0.18325942754745483,0.7257073521614075,0.6438514590263367
1777561209553431300,4.227431396484375,-0.19730933010578156,0.6304124593734741,0.5632173418998718
1777561209571960800,4.2459609375,-0.3182605504989624,-0.05742128938436508,0.4153880476951599
1777561209590490600,4.26449072265625,-0.2657261788845062,0.40744680166244507,0.5296197533607483
1777561209609020200,4.283020263671875,-0.1893680840730667,0.5815432667732239,0.7666352987289429
1777561209627549700,4.3015498046875,-0.27366742491722107,-0.16676609218120575,0.7250964641571045
1777561209646079200,4.320079345703125,-0.3121519088745117,-0.6450732350349426,0.6029235124588013
1777561209664608800,4.33860888671875,-0.17837251722812653,0.2614501118659973,0.7483093738555908
1777561209683138300,4.35713818359375,-0.10018182545900345,1.074511170387268,1.0238093137741089
1777561209701667800,4.375667724609375,-0.16249002516269684,0.6133082509040833,1.3384047746658325
1777561209720197600,4.39419775390625,-0.25350889563560486,-0.5858193039894104,2.212552309036255
1777561209738727200,4.41272705078125,-0.6322450637817383,-1.063515543937683,3.1673338413238525
1777561209757256700,4.431256591796875,-1.0671807527542114,-0.905912458896637,3.332878351211548
1777561209785051100,4.459051025390625,-0.9217949509620667,-0.9908226728439331,3.0298893451690674
1777561209803580700,4.47758056640625,0.3848448097705841,0.6823359727859497,2.092211961746216
1777561209822110200,4.496110107421875,0.8093958497047424,0.24312418699264526,1.2479966878890991
1777561209840639700,4.5146396484375,0.3756818473339081,-1.2541054487228394,1.1557561159133911
1777561209859169300,4.533169189453125,-0.40927940607070923,-1.5363249778747559,0.9083559513092041
1777561209877699000,4.551698974609375,-0.8106175661087036,-0.40744680166244507,-0.06963858753442764
1777561209896228600,4.570228515625,-0.5198459029197693,0.31154105067253113,-0.9291253089904785
1777561209914758100,4.588758056640625,0.13744457066059113,0.45998117327690125,-1.4495820999145508
1777561209933287700,4.60728759765625,0.37690356373786926,0.5418370366096497,-1.7440189123153687
1777561209951817200,4.625817138671875,0.49541133642196655,0.6847794055938721,-2.1025965213775635
1777561209970347000,4.644346923828125,0.5497782826423645,0.8344413042068481,-2.467282772064209
1777561209988876500,4.66287646484375,0.5442805290222168,1.0219768285751343,-2.6193881034851074
1777561210007406000,4.681406005859375,0.36285367608070374,1.250440239906311,-2.640157461166382
1777561210025935600,4.699935546875,-0.036651886999607086,1.2455532550811768,-2.7391176223754883
1777561210044465400,4.71846533203125,-0.39828383922576904,0.7935133576393127,-2.7311763763427734
1777561210062995000,4.736994873046875,-0.17592905461788177,-0.5491674542427063,-1.9468261003494263
1777561210081524500,4.7555244140625,0.46547895669937134,-2.6951353549957275,-0.8210022449493408
1777561210100054000,4.774053955078125,0.32681265473365784,-2.6395466327667236,-1.3897173404693604
1777561210118583600,4.79258349609375,0.379347026348114,0.17348559200763702,-1.1313215494155884
1777561210137113300,4.81111328125,0.535728394985199,2.045175313949585,-0.2809978127479553
1777561210155643000,4.829642822265625,0.6719512343406677,1.5430444478988647,-0.006108647678047419
1777561210174172400,4.84817236328125,0.6487383842468262,0.5155698657035828,-0.26022839546203613
1777561210192702200,4.8667021484375,0.5839866995811462,0.389120876789093,-0.4465421438217163
1777561210211231700,4.885231689453125,0.35735589265823364,0.2009745091199875,-0.03176496922969818
1777561210239026200,4.913026123046875,-0.573602020740509,-2.000582218170166,0.45998117327690125
1777561210257555700,4.9315556640625,-0.8081740736961365,-2.6774203777313232,-0.3915643095970154
1777561210276085500,4.95008544921875,-0.026878049597144127,1.740964651107788,0.5998691916465759
1777561210294615000,4.968614990234375,0.08124501258134842,3.930914878845215,1.6413936614990234
1777561210313144600,4.98714453125,0.2632827162742615,2.288910388946533,2.3310599327087402
1777561210331674400,5.00567431640625,0.3952295184135437,0.8032872080802917,1.7012584209442139
1777561210350204000,5.024203857421875,0.3707949221134186,-1.2449424266815186,-0.5632173418998718
1777561210368733400,5.0427333984375,0.14110976457595825,-1.7269147634506226,-2.243706226348877
1777561210387263200,5.06126318359375,-0.0873536616563797,-0.648127555847168,-0.9169080257415771
1777561210405792800,5.079792724609375,-0.1905898153781891,0.7000510096549988,-0.20280711352825165
1777561210424322300,5.098322265625,-0.06352993845939636,0.5070177912712097,-0.34636032581329346
1777561210442852000,5.11685205078125,-0.05803215503692627,-0.15271618962287903,-0.38728827238082886
1777561210461381600,5.135381591796875,-0.12461641430854797,-0.32620179653167725,-0.4367683231830597
1777561210479911200,5.1539111328125,-0.1740964651107788,-0.4581485986709595,-0.5302306413650513
1777561210498441000,5.17244091796875,-0.20341797173023224,-0.6212494969367981,-0.5125155448913574
1777561210516970500,5.190970458984375,-0.2669478952884674,-0.8894191384315491,-0.28405213356018066
1777561210535500300,5.209500244140625,-0.3396408259868622,-0.46364638209342957,0.02871064469218254
1777561210554029800,5.22802978515625,-0.37690356373786926,0.14599667489528656,0.28466299176216125
1777561210572559400,5.246559326171875,-0.3787361681461334,-0.0873536616563797,0.3042106628417969
1777561210591089200,5.265089111328125,-0.36712974309921265,-0.1130099818110466,0.3329212963581085
1777561210609618700,5.28361865234375,-0.3952295184135437,-0.0256563201546669,0.46914416551589966
1777561210628148200,5.302148193359375,-0.3066541254520416,0.2669478952884674,0.647516667842865
1777561210646678000,5.320677978515625,-0.3335321843624115,0.09834922850131989,0.7379246354103088
1777561210665207800,5.339207763671875,-0.3585776388645172,0.004886918235570192,0.721431314945221
1777561210683737300,5.3577373046875,-0.3194822669029236,0.2669478952884674,0.8619301915168762
1777561210702267000,5.376266845703125,-0.34697118401527405,0.1178968995809555,1.1459823846817017
1777561210720796700,5.394796630859375,-0.34697118401527405,-0.010995565913617611,1.7708970308303833
1777561210739326200,5.413326171875,-0.3445277214050293,-0.9199623465538025,2.6303837299346924
1777561210757856000,5.43185595703125,-0.6108647584915161,-1.8087706565856934,3.3536477088928223
1777561210776385500,5.450385498046875,-0.823445737361908,-1.5296053886413574,3.3267695903778076
1777561210794915300,5.468915283203125,-0.6560688018798828,-0.833219587802887,3.0726499557495117
1777561210813444900,5.48744482421875,-0.023212861269712448,-1.1368193626403809,2.797149896621704
1777561210831974700,5.505974609375,0.4972439408302307,-0.5277871489524841,2.104429244995117
1777561210850504200,5.524504150390625,0.5888736248016357,-0.32620179653167725,1.1716386079788208
1777561210869034000,5.543033935546875,0.27000224590301514,-0.6102539300918579,0.7269290685653687
1777561210887563500,5.5615634765625,-0.03176496922969818,-0.5216785073280334,0.1795942485332489
1777561210906093000,5.580093017578125,-0.040317077189683914,-0.05864302068948746,-0.5955931544303894
1777561210924622800,5.598622802734375,0.33108872175216675,0.2003636509180069,-1.2302817106246948
1777561210943152400,5.61715234375,0.778241753578186,0.287106454372406,-1.6743803024291992
1777561210961682200,5.63568212890625,1.0800089836120605,0.3744601011276245,-2.1300854682922363
1777561210980212000,5.6542119140625,1.1380411386489868,0.33231043815612793,-2.6022839546203613
1777561210998741500,5.672741455078125,0.9957095980644226,0.4770853817462921,-2.8954989910125732
1777561211017271000,5.69127099609375,0.8161153197288513,1.163697361946106,-3.034776210784912
1777561211035800800,5.70980078125,0.5375609993934631,2.0689990520477295,-3.065319538116455
1777561211054330600,5.72833056640625,0.0873536616563797,2.2931864261627197,-3.040273904800415
1777561211072860200,5.746860107421875,-0.48991355299949646,1.3261874914169312,-2.721402645111084
1777561211091389700,5.7653896484375,-0.573602020740509,-0.7440332770347595,-1.6475023031234741
1777561211109919500,5.78391943359375,-0.11239911615848541,-2.9150466918945312,-0.43493571877479553
1777561211128449300,5.80244921875,0.2260199636220932,-2.828303813934326,-1.3976585865020752
1777561211146978800,5.820978759765625,0.36163195967674255,0.07574722915887833,-1.313359260559082
1777561211165508600,5.839508544921875,0.28954991698265076,1.7232495546340942,-0.056199558079242706
1777561211184038100,5.8580380859375,0.48441576957702637,1.3891065120697021,0.5119046568870544
1777561211202568000,5.87656787109375,0.6517927050590515,1.5082250833511353,0.29443681240081787
1777561211221097700,5.89509765625,0.5784889459609985,0.24556763470172882,-0.1026252806186676
1777561211239627300,5.913627197265625,0.07330377399921417,-1.426369309425354,0.41844236850738525
1777561211258157000,5.932156982421875,-0.2987128794193268,0.7745765447616577,1.37078058719635
1777561211276686600,5.9506865234375,0.010384701192378998,0.9236275553703308,1.0396918058395386
1777561211295216000,5.969216064453125,-0.01588248461484909,-3.7262752056121826,-1.8124357461929321
1777561211313746000,5.987745849609375,-0.4068359434604645,2.3170101642608643,0.7990111112594604
1777561211332275700,6.006275634765625,0.2211330533027649,3.1202971935272217,2.0769402980804443
1777561211350805200,6.02480517578125,0.3848448097705841,1.7550145387649536,1.240666389465332
1777561211369335000,6.0433349609375,0.5503891706466675,-0.8026763200759888,-0.6261364221572876
1777561211387864600,6.061864501953125,0.3396408259868622,-1.033583164215088,-1.7171409130096436
1777561211406394400,6.080394287109375,0.09590577334165573,0.2877173125743866,-1.1136064529418945
1777561211424924200,6.098924072265625,-0.043982263654470444,1.3964369297027588,-0.6866120100021362
1777561211443453700,6.11745361328125,-0.2052505612373352,0.8875865340232849,-0.6359102129936218
1777561211461983500,6.1359833984375,-0.3127627670764923,-0.3481929302215576,-0.5412262082099915
1777561211480513000,6.154512939453125,-0.3384190797805786,-0.7061597108840942,-0.6139190793037415
1777561211499042800,6.173042724609375,-0.30054548382759094,-0.5033525824546814,-0.4618137776851654
1777561211517572600,6.191572509765625,-0.26878049969673157,-0.6059778332710266,-0.20280711352825165
1777561211536102100,6.21010205078125,-0.258395791053772,-0.5558869242668152,-0.03543015569448471
1777561211554632000,6.2286318359375,-0.09834922850131989,0.44837474822998047,0.24312418699264526
1777561211573161500,6.247161376953125,-0.21441353857517242,0.35796675086021423,0.36651885509490967
1777561211591691300,6.265691162109375,-0.31581708788871765,0.20830489695072174,0.43921178579330444
1777561211610221000,6.284220947265625,-0.2370155304670334,0.7648026943206787,0.46975502371788025
1777561211628750800,6.302750732421875,-0.1844811588525772,0.7666352987289429,0.5754346251487732
1777561211647280400,6.3212802734375,-0.18631376326084137,0.6750055551528931,0.7238747477531433
1777561211665810200,6.33981005859375,-0.17348559200763702,0.03176496922969818,0.7373138070106506
1777561211684339700,6.358339599609375,-0.2877173125743866,-0.1484401375055313,0.9028581380844116
1777561211702869500,6.376869384765625,-0.29443681240081787,0.9651663303375244,1.390328288078308
1777561211721399300,6.3953994140625,-0.16126830875873566,0.7483093738555908,2.0237951278686523
1777561211739928800,6.4139287109375,-0.3231474757194519,-1.0305289030075073,2.8319690227508545
1777561211758458600,6.432458740234375,-0.5778780579566956,-0.6927206516265869,3.0775368213653564
1777561211776988400,6.450988525390625,-0.5558869242668152,-0.7079922556877136,2.657261848449707
1777561211804782800,6.478782958984375,0.0665842592716217,-1.5332705974578857,2.2229368686676025
1777561211823312400,6.4973125,0.4007273018360138,-1.4391974210739136,1.4844014644622803
1777561211841842200,6.51584228515625,0.6328558921813965,-0.7006618976593018,0.6548470258712769
1777561211860372000,6.5343720703125,0.5876519083976746,-0.28038692474365234,0.25473061203956604
1777561211878901800,6.55290185546875,-0.023212861269712448,-0.15821397304534912,-0.026878049597144127
1777561211897431300,6.571431396484375,-0.1545487940311432,-0.14110976457595825,-0.4056142270565033
1777561211915961000,6.589961181640625,0.20463970303535461,-0.28405213356018066,-0.8185588121414185
1777561211934490600,6.60849072265625,0.7929024696350098,-0.2565632164478302,-1.2803726196289062
1777561211953020400,6.6270205078125,1.2174534797668457,-0.02932151034474373,-1.684765100479126
1777561211971550200,6.64555029296875,1.219896912574768,-0.10629047453403473,-1.8112140893936157
1777561211990080000,6.664080078125,0.8930842876434326,0.012217295356094837,-1.7159191370010376
1777561212008609500,6.682609619140625,0.4404335021972656,0.1026252806186676,-1.731190800666809
1777561212027139300,6.701139404296875,0.037262752652168274,0.2779434621334076,-1.820376992225647
1777561212045669000,6.719669189453125,-0.21441353857517242,0.21441353857517242,-1.8154901266098022
1777561212064198700,6.73819873046875,-0.4514290690422058,0.13927717506885529,-1.5515965223312378
1777561212082728400,6.756728515625,-0.7287616729736328,-0.1637117564678192,-1.0036507844924927
1777561212101258200,6.77525830078125,-0.35735589265823364,-0.4172206521034241,-0.4373791813850403
1777561212119787800,6.793787841796875,0.30543237924575806,0.07880155742168427,-0.11484257876873016
1777561212138317600,6.812317626953125,0.21807873249053955,0.42271843552589417,-0.143553227186203
1777561212156847400,6.830847412109375,0.15821397304534912,0.3121519088745117,-0.036651886999607086
1777561212175377000,6.849376953125,0.3488037884235382,0.5852084755897522,-0.06536252796649933
1777561212193906700,6.86790673828125,0.370184063911438,0.4728093445301056,-0.08124501258134842
1777561212212436500,6.8864365234375,0.15271618962287903,0.1649334877729416,0.1081230640411377
1777561212230966300,6.90496630859375,-0.17898337543010712,-0.8979712128639221,0.6035344004631042
1777561212249495800,6.923495849609375,-0.43432486057281494,-1.4306453466415405,1.5015056133270264
1777561212268025600,6.942025634765625,0.0665842592716217,2.526536703109741,1.1545344591140747
1777561212286555400,6.960555419921875,0.6536253094673157,2.489884853363037,0.6609556674957275
1777561212305085000,6.9790849609375,-0.30604326725006104,0.4612029194831848,-0.5564978122711182
1777561212323614700,6.99761474609375,-1.0201442241668701,1.8674136400222778,0.7244856357574463
1777561212342144500,7.01614453125,-0.36712974309921265,1.9376630783081055,0.7703005075454712
1777561212360674000,7.034674072265625,0.646905779838562,1.9211697578430176,-0.943786084651947
1777561212379203800,7.053203857421875,1.3225222826004028,2.8845036029815674,-2.4184136390686035
1777561212397733600,7.071733642578125,1.3469568490982056,3.662745237350464,-3.029278516769409
1777561212416263400,7.090263427734375,1.0201442241668701,3.453829526901245,-3.1306819915771484
1777561212434793000,7.10879296875,0.8093958497047424,2.554025650024414,-2.560134172439575
1777561212453322800,7.12732275390625,0.4508182108402252,2.5656321048736572,-2.003025531768799
1777561212471852500,7.1458525390625,0.27977606654167175,2.9407031536102295,-1.9211697578430176
1777561212490382000,7.164382080078125,0.4990765154361725,3.3707518577575684,-1.784335970878601
1777561212508911900,7.182911865234375,0.27427828311920166,3.355480194091797,-1.4581341743469238
1777561212527441700,7.201441650390625,-0.056199558079242706,3.1386232376098633,-0.8588758707046509
1777561212545971500,7.219971435546875,-0.2864955961704254,3.1312928199768066,-0.768467903137207
1777561212564501000,7.2385009765625,-0.4734202027320862,3.1367907524108887,-0.943786084651947
1777561212583030800,7.25703076171875,-0.7984002828598022,2.7446155548095703,-0.9950987100601196
1777561212601560600,7.275560546875,-0.9211840629577637,1.9950844049453735,-0.8539889454841614
1777561212620090000,7.294090087890625,-0.7043271064758301,1.0360267162322998,-0.7654135823249817
1777561212638620000,7.312619873046875,-0.37751442193984985,1.0122029781341553,-0.8197805285453796
1777561212657149700,7.331149658203125,0.03787361457943916,1.9297218322753906,-0.6236929297447205
1777561212675679500,7.349679443359375,0.3066541254520416,1.9211697578430176,-0.43310311436653137
1777561212694209000,7.368208984375,0.34636032581329346,1.2168426513671875,-0.42455101013183594
1777561212712738800,7.38673876953125,0.27488914132118225,0.6059778332710266,-0.28588470816612244
1777561212731268600,7.4052685546875,0.10445787757635117,0.7415898442268372,-0.06475166976451874
1777561212749798400,7.42379833984375,0.16065743565559387,1.1520910263061523,0.13072505593299866
1777561212768328000,7.442327880859375,0.29626941680908203,1.1081087589263916,0.46425724029541016
1777561212786857700,7.460857666015625,0.46547895669937134,0.759304940700531,1.061682939529419
1777561212805387500,7.479387451171875,0.5797106623649597,0.23518294095993042,1.616348147392273
1777561212823917300,7.497917236328125,0.4428769648075104,-0.4422661066055298,2.417191982269287
1777561212842446800,7.51644677734375,-0.03176496922969818,-1.1490366458892822,3.3994624614715576
1777561212860976600,7.5349765625,-0.4477638900279999,-1.61085045337677,4.0781331062316895
1777561212879506400,7.55350634765625,-0.8252783417701721,-2.175900459289551,4.032318592071533
1777561212898036000,7.572035888671875,-0.9834923148155212,-0.833219587802887,3.233307361602783
1777561212916565800,7.590565673828125,-1.153923511505127,-1.082452416419983,2.595564365386963
1777561212935095600,7.609095458984375,-1.5308271646499634,-1.1557561159133911,2.360381603240967
1777561212953625300,7.627625244140625,-1.386052131652832,0.8765909671783447,2.713461399078369
1777561212972155000,7.64615478515625,-1.109330415725708,2.472169876098633,2.7757694721221924
1777561212990684700,7.6646845703125,-0.8503237962722778,1.5638138055801392,2.238208532333374
1777561213009214500,7.68321435546875,-0.5021308660507202,-0.6872228980064392,1.533881425857544
1777561213027744300,7.701744140625,-0.3170388340950012,-0.42455101013183594,2.014631986618042
1777561213046274000,7.720274169921875,-0.27977606654167175,0.0513126403093338,2.219271659851074
1777561213064803600,7.738803466796875,-0.2938259541988373,-0.31581708788871765,1.731190800666809
1777561213083333400,7.75733349609375,-0.2822195291519165,-0.8619301915168762,1.3029745817184448
1777561213101863200,7.77586328125,-0.26450446248054504,-0.6524035930633545,0.8545998334884644
1777561213120392700,7.794392822265625,-0.2614501118659973,0.017104214057326317,0.3078758418560028
1777561213138922500,7.812922607421875,-0.19730933010578156,0.6090322136878967,-0.20769402384757996
1777561213157452300,7.831452392578125,-0.029932374134659767,1.0720677375793457,-0.6169734001159668
1777561213175982000,7.849982177734375,0.277332603931427,1.431867003440857,-0.9792162179946899
1777561213194512000,7.868511962890625,0.5558869242668152,1.7934989929199219,-1.1716386079788208
1777561213213041400,7.88704150390625,0.8564324378967285,1.729358196258545,-0.9969313144683838
1777561213231571200,7.9055712890625,0.9401208758354187,1.8350378274917603,-0.5180133581161499
1777561213250101000,7.92410107421875,0.5070177912712097,1.6780455112457275,-0.03848448023200035
1777561213268630500,7.942630615234375,0.034208428114652634,0.9920443892478943,-0.1899789422750473
1777561213287160300,7.961160400390625,-0.2412915825843811,0.1948658674955368,-0.37262752652168274
1777561213305690000,7.979690185546875,-0.3848448097705841,-0.6499601006507874,-0.26450446248054504
1777561213324220000,7.998219970703125,-0.6414080262184143,-1.099556565284729,0.6395754218101501
1777561213342749700,8.016749755859376,-1.2510510683059692,-0.8246674537658691,0.9022472500801086
1777561213361279500,8.035279541015624,-1.12765634059906,-0.16126830875873566,-0.22724169492721558
1777561213379809000,8.05380908203125,-0.18692462146282196,1.9486587047576904,-1.5711442232131958
1777561213398338800,8.0723388671875,0.20219624042510986,3.511861562728882,-1.29503333568573
1777561213416868600,8.09086865234375,0.3695732057094574,0.9517273306846619,-1.4636319875717163
1777561213435398100,8.109398193359375,-0.03298669680953026,3.7177231311798096,-2.688416004180908
1777561213453928000,8.127927978515626,-0.4355465769767761,6.403084754943848,-3.190546751022339
1777561213472457700,8.146457763671876,-1.1032217741012573,6.329169750213623,-3.132514476776123
1777561213490987500,8.164987548828124,-1.6249003410339355,4.898524761199951,-1.887572169303894
1777561213509517300,8.183517333984375,-0.4111120104789734,1.6310089826583862,-0.6352993845939636
1777561213528047000,8.202047119140625,0.33719736337661743,-0.08674279600381851,-1.0885610580444336
1777561213546576600,8.22057666015625,0.6914989352226257,1.1997383832931519,-1.9596542119979858
1777561213565106400,8.2391064453125,1.3640609979629517,3.27240252494812,-2.321286201477051
1777561213583636200,8.25763623046875,1.4398082494735718,4.595535755157471,-2.2791364192962646
1777561213602165800,8.276165771484376,1.1123847961425781,4.4189958572387695,-1.971260666847229
1777561213620695600,8.294695556640624,0.5943714380264282,3.4330601692199707,-1.543655276298523
1777561213639225300,8.313225341796874,0.06352993845939636,2.406196355819702,-1.1685843467712402
1777561213657755100,8.331755126953125,-0.2052505612373352,1.728136420249939,-1.1032217741012573
1777561213676284700,8.35028466796875,-0.27427828311920166,1.5955787897109985,-1.1447606086730957
1777561213694814500,8.368814453125,-0.3237583339214325,2.127031087875366,-0.9969313144683838
1777561213713344300,8.38734423828125,-0.32131487131118774,2.3964226245880127,-0.9083559513092041
1777561213731874000,8.4058740234375,-0.24434591829776764,2.230267286300659,-1.0421353578567505
1777561213750403800,8.42440380859375,-0.17837251722812653,1.849698543548584,-0.9101884961128235
1777561213768933400,8.442933349609374,-0.21746785938739777,1.5320488214492798,-0.7238747477531433
1777561213787463200,8.461463134765625,-0.20341797173023224,1.5406010150909424,-0.7898481488227844
1777561213805993000,8.479992919921875,-0.2828303873538971,1.229670763015747,-0.8032872080802917
1777561213824522500,8.4985224609375,-0.37812530994415283,0.6322450637817383,-0.7031053900718689
1777561213843052300,8.51705224609375,-0.2864955961704254,0.5393936038017273,-0.6035344004631042
1777561213861582000,8.53558203125,-0.13988803327083588,0.8857539296150208,-0.43371400237083435
1777561213880111900,8.55411181640625,-0.047036588191986084,1.2528836727142334,-0.3585776388645172
1777561213898641700,8.5726416015625,0.04520399495959282,1.3548980951309204,-0.25534147024154663
1777561213917171500,8.59117138671875,0.18631376326084137,1.3090832233428955,-0.07086031138896942
1777561213935701200,8.609701171875,0.41355544328689575,1.164919137954712,0.32070401310920715
1777561213954230800,8.628230712890625,0.5821541547775269,0.6798924803733826,0.8845322132110596
1777561213972760600,8.646760498046875,0.7867938280105591,0.24434591829776764,1.3249657154083252
1777561213991290400,8.665290283203126,0.813671886920929,-0.17043127119541168,1.9498803615570068
1777561214009820200,8.683820068359376,0.3329212963581085,-0.9169080257415771,3.023169755935669
1777561214028349700,8.702349609375,-0.09529490768909454,-1.26021409034729,3.8600544929504395
1777561214046879500,8.72087939453125,-0.4789179861545563,-0.9938769936561584,4.056142330169678
1777561214065409300,8.7394091796875,-0.7220421433448792,0.05558869615197182,3.470933675765991
1777561214083939000,8.75793896484375,-0.9822705388069153,-0.32131487131118774,2.9767441749572754
1777561214102468900,8.77646875,-1.2663227319717407,-1.2455532550811768,2.5802929401397705
1777561214120998700,8.79499853515625,-1.3371829986572266,0.6591231226921082,2.5216498374938965
1777561214139528200,8.813528076171876,-0.9590576887130737,2.3096797466278076,2.6108360290527344
1777561214158058000,8.83205810546875,-0.6175842881202698,1.9871431589126587,2.3823726177215576
1777561214176587800,8.850587890625,-0.33047783374786377,0.046425722539424896,1.6707152128219604
1777561214195117600,8.86911767578125,-0.13988803327083588,-0.2730565667152405,1.5332705974578857
1777561214213647000,8.887647216796875,-0.10934479534626007,-0.06963858753442764,1.9901974201202393
1777561214232177000,8.906177001953125,-0.22418737411499023,-0.35185810923576355,1.92666757106781
1777561214250706700,8.924706787109375,-0.30970844626426697,-0.7922916412353516,1.6255111694335938
1777561214269236500,8.943236572265626,-0.2919933497905731,-0.8790343999862671,1.3139700889587402
1777561214287766300,8.961766357421874,-0.18203771114349365,-0.5503891706466675,0.7715222239494324
1777561214306296000,8.980296142578124,-0.10140355676412582,-0.002443459117785096,0.143553227186203
1777561214324825600,8.99882568359375,0.000610864779446274,0.3555232882499695,-0.49541133642196655
1777561214343355400,9.01735546875,0.22907429933547974,0.7544180154800415,-1.2089014053344727
1777561214361885200,9.03588525390625,0.47097674012184143,1.360395908355713,-1.8759657144546509
1777561214380415000,9.0544150390625,0.7440332770347595,1.8674136400222778,-2.308458089828491
1777561214398944500,9.072944580078126,1.0458004474639893,2.073885917663574,-2.484387159347534
1777561214417474300,9.091474365234374,1.3506220579147339,1.9382739067077637,-2.1667373180389404
1777561214436004000,9.110004150390624,1.324354887008667,1.9572107791900635,-1.1527018547058105
1777561214454534000,9.128533935546875,0.6548470258712769,1.617569923400879,0.10323614627122879
1777561214473063400,9.1470634765625,-0.20402882993221283,0.21319180727005005,0.638353705406189
1777561214491593200,9.16559326171875,-0.35674503445625305,-0.7324268817901611,0.7275399565696716
1777561214510123000,9.184123046875,-0.41844236850738525,-1.7806708812713623,1.130099892616272
1777561214528652800,9.20265283203125,-0.5699368119239807,-2.2314889430999756,1.0958913564682007
1777561214547182600,9.2211826171875,-0.4569268524646759,-1.7208061218261719,0.22357651591300964
1777561214565712400,9.23971240234375,-0.1747073233127594,0.18753549456596375,-0.018325943499803543
1777561214584242200,9.2582421875,-0.500298261642456,2.1190898418426514,0.7507528066635132
1777561214602771700,9.276771728515625,-1.3891065120697021,1.1905754804611206,0.04886918142437935
1777561214621301500,9.295301513671875,-0.6255255341529846,1.2192860841751099,-0.12522727251052856
1777561214639831300,9.313831298828125,-0.17776164412498474,1.0952805280685425,-0.4007273018360138
1777561214658361000,9.332361083984376,-0.0824667438864708,0.4557051360607147,-1.0946696996688843
1777561214676890600,9.350890625,-0.638353705406189,2.6077816486358643,-1.9932518005371094
1777561214695420400,9.36942041015625,-1.0494656562805176,4.973660945892334,-2.0720534324645996
1777561214713950200,9.3879501953125,-1.2993093729019165,5.297419548034668,-1.5693116188049316
1777561214732480000,9.40647998046875,-1.51616632938385,3.691455841064453,-0.7971785664558411
1777561214751009800,9.425009765625,-0.41783151030540466,-0.6921098232269287,-0.9969313144683838
1777561214769539600,9.44353955078125,0.30115634202957153,-0.7000510096549988,-1.293811559677124
1777561214788069400,9.4620693359375,0.7086031436920166,1.3255765438079834,-1.0091485977172852
1777561214806599000,9.480598876953126,0.9767727851867676,1.9498803615570068,-1.2681553363800049
1777561214825128700,9.499128662109374,0.9413426518440247,1.7342450618743896,-1.4227041006088257
1777561214843658500,9.517658447265624,0.7079922556877136,1.3335177898406982,-1.2235621213912964
1777561214862188300,9.536188232421875,0.2724456787109375,0.646905779838562,-0.8051197528839111
1777561214880717800,9.5547177734375,-0.25045454502105713,0.1747073233127594,-0.2718348205089569
1777561214899247600,9.57324755859375,-0.6365211009979248,0.010384701192378998,0.12034036219120026
1777561214917777400,9.59177734375,-0.84177166223526,-0.27488914132118225,0.20280711352825165
1777561214936307200,9.61030712890625,-0.8478803038597107,-0.21991132199764252,0.2009745091199875
1777561214954837000,9.6288369140625,-0.7079922556877136,0.27000224590301514,0.42271843552589417
1777561214973366800,9.64736669921875,-0.5424479246139526,0.9999856352806091,0.6530144214630127
1777561214991896600,9.665896484375,-0.32620179653167725,1.3799434900283813,0.8759800791740417
1777561215010426000,9.684426025390625,-0.43493571877479553,0.9578359723091125,1.0916153192520142
1777561215028956000,9.702955810546875,-0.5491674542427063,0.4575377106666565,1.1465932130813599
1777561215047485700,9.721485595703125,-0.5674933791160583,-1.0946696996688843,1.2498292922973633
1777561215066015500,9.740015380859376,-0.6921098232269287,-1.4813470840454102,1.0574069023132324
1777561215084545000,9.758544921875,-0.5351175665855408,0.7562506198883057,1.0934479236602783
1777561215103074800,9.77707470703125,-0.38850998878479004,1.5833615064620972,1.1508692502975464
1777561215121604600,9.7956044921875,-0.44409868121147156,1.3439024686813354,0.9712749719619751
1777561215140134400,9.814134521484375,-0.5106829404830933,0.9688315391540527,1.0372483730316162
1777561215158664200,9.832664306640625,-0.47464191913604736,0.42088583111763,1.3915499448776245
1777561215177194000,9.851194091796875,-0.33169957995414734,0.004886918235570192,2.3377795219421387
1777561215195723500,9.8697236328125,-0.6933315396308899,-0.6499601006507874,3.0445499420166016
1777561215214253300,9.88825341796875,-0.8625410795211792,-1.4917317628860474,2.9962916374206543
1777561215242048000,9.916048095703125,0.29016077518463135,-1.981034517288208,3.263850450515747
1777561215260577800,9.934577880859376,0.2919933497905731,-1.1527018547058105,2.1917827129364014
1777561215279107300,9.953107421875,0.4728093445301056,-0.18692462146282196,0.739757239818573
1777561215297637000,9.97163720703125,0.7855721116065979,0.19181154668331146,-0.2993237376213074
1777561215316167000,9.9901669921875,0.5406153202056885,0.5528326034545898,-1.1325433254241943
1777561215334696700,10.00869677734375,-0.32559093832969666,1.0934479236602783,-1.4135410785675049
1777561215353226200,10.027226318359375,-0.4202749729156494,1.1924080848693848,-1.6310089826583862
1777561215371756000,10.045756103515625,0.20280711352825165,0.7874047160148621,-2.2583670616149902
1777561215390285800,10.064285888671876,0.6805033683776855,0.5900954008102417,-2.8148648738861084
1777561215408815600,10.082815673828126,0.6328558921813965,0.5412262082099915,-2.933983564376831
1777561215427345400,10.101345458984374,0.2663370370864868,0.5070177912712097,-2.836245059967041
1777561215445875200,10.119875244140625,-0.14477495849132538,0.2712239623069763,-2.7256786823272705
1777561215464404700,10.13840478515625,-0.32070401310920715,-0.8313869833946228,-2.4275765419006348
1777561215482934500,10.1569345703125,-0.09712749719619751,-2.4495677947998047,-1.5662572383880615
1777561215501464300,10.17546435546875,0.4111120104789734,-2.500880479812622,-0.45387253165245056
1777561215519994000,10.193994140625,0.42332929372787476,-0.42394015192985535,-0.4202749729156494
1777561215538524000,10.21252392578125,0.4416552484035492,0.5949822664260864,-0.5131264328956604
1777561215557053400,10.231053466796874,0.5766563415527344,0.6811142563819885,-0.5155698657035828
1777561215575583200,10.249583251953124,0.8851430416107178,0.3084867000579834,-0.9107993841171265
1777561215594113000,10.268113037109375,0.5968148708343506,1.12765634059906,-0.4764745235443115
1777561215612642800,10.286642822265625,-0.12644900381565094,0.07513637095689774,0.5137372612953186
1777561215631172600,10.305172607421875,-0.4105011224746704,-1.795331597328186,0.007941242307424545
1777561215649702400,10.323702392578125,0.37201663851737976,2.9688029289245605,0.16249002516269684
1777561215668232000,10.34223193359375,0.9767727851867676,2.8380777835845947,0.8570432662963867
1777561215686761700,10.36076171875,-0.4221075773239136,-0.9065233469009399,0.8747583627700806
1777561215705291500,10.37929150390625,0.15638138353824615,1.8924590349197388,1.377500057220459
1777561215723821300,10.3978212890625,0.29138249158859253,1.1087195873260498,0.5662716627120972
1777561215742350800,10.416350830078125,-0.001832594396546483,0.03543015569448471,-0.6884446144104004
1777561215760880600,10.434880615234375,-0.0922405794262886,-0.5949822664260864,-1.1966841220855713
1777561215779410400,10.453410400390625,-0.3756818473339081,-0.7519745230674744,-0.813060998916626
1777561215797940200,10.471940185546876,-0.42882707715034485,0.15088360011577606,-0.2877173125743866
1777561215816470000,10.490469970703124,-0.25961753726005554,0.472198486328125,-0.14782927930355072
1777561215834999600,10.50899951171875,-0.12522727251052856,0.36285367608070374,-0.09590577334165573
1777561215853529300,10.527529296875,-0.08918625861406326,0.268169641494751,-0.06902772188186646
1777561215872059100,10.54605908203125,-0.024434590712189674,0.3610210716724396,0.07513637095689774
1777561215890589000,10.5645888671875,0.006719512399286032,0.6963858604431152,0.3231474757194519
1777561215909118500,10.583118408203125,-0.23396120965480804,0.29016077518463135,0.47097674012184143
1777561215927648300,10.601648193359376,-0.44409868121147156,-0.5039634704589844,0.5522217750549316
1777561215946178000,10.620177978515626,-0.3084867000579834,0.056199558079242706,0.665842592716217
1777561215964707800,10.638707763671874,0.026878049597144127,1.6077960729599,0.6627882719039917
1777561215983237600,10.657237548828125,0.1637117564678192,1.5485422611236572,0.7434224486351013
1777561216001767400,10.675767333984375,0.023212861269712448,0.49602219462394714,0.8289434909820557
1777561216020297000,10.694296875,-0.09468404203653336,-0.22174391150474548,1.1924080848693848
1777561216038826800,10.71282666015625,-0.05192350596189499,-0.4465421438217163,2.1783437728881836
1777561216057356500,10.7313564453125,-0.5876519083976746,-1.1056652069091797,3.2736244201660156
1777561216075886300,10.74988623046875,-1.2858703136444092,-1.349400281906128,3.45871639251709
1777561216094416000,10.768415771484374,-0.8429933786392212,-1.05496346950531,3.4153449535369873
1777561216112945700,10.786945556640624,0.29016077518463135,-0.7458658814430237,2.900385856628418
1777561216131475200,10.80547509765625,0.6963858604431152,-0.8491020202636719,2.028681993484497
1777561216150005000,10.8240048828125,0.8075632452964783,-0.8338304162025452,1.3408482074737549
1777561216168534800,10.84253466796875,0.7886264324188232,-0.7800742983818054,0.7134900689125061
1777561216187064600,10.861064697265626,0.2101374864578247,-0.401949018239975,0.06780599057674408
1777561216205594400,10.879594482421876,-0.44470956921577454,0.08857539296150208,-0.638353705406189
1777561216224124200,10.898124267578124,-0.32559093832969666,0.4728093445301056,-1.3506220579147339
1777561216242654000,10.916654052734375,0.22724169492721558,0.720820426940918,-1.9199479818344116
1777561216261183500,10.93518359375,0.5064069032669067,0.7134900689125061,-2.2424845695495605
1777561216279713300,10.95371337890625,0.5174024701118469,0.6194168925285339,-2.4465134143829346
1777561216298243000,10.9722431640625,0.3842339515686035,0.5345066785812378,-2.693302869796753
1777561216316772600,10.990772705078125,0.23884813487529755,0.6884446144104004,-2.791651964187622
1777561216335302400,11.009302490234376,0.03237583488225937,0.7098248600959778,-2.8576254844665527
1777561216353832200,11.027832275390624,-0.379347026348114,-0.18142683804035187,-2.9688029289245605
1777561216372362000,11.046362060546874,-0.6890554428100586,-1.6022982597351074,-2.5106542110443115
1777561216390891800,11.064891845703125,-0.28038692474365234,-3.7207772731781006,-0.9419534802436829
1777561216409421300,11.08342138671875,-0.12278381735086441,-4.22962760925293,-0.9211840629577637
1777561216427951000,11.101951171875,0.3897317349910736,-0.833219587802887,-0.8582650423049927
1777561216446481000,11.12048095703125,0.7409789562225342,1.868024468421936,-0.41783151030540466
1777561216465010400,11.139010498046876,1.064737319946289,2.422078847885132,-0.24556763470172882
1777561216483540200,11.157540283203126,1.0476330518722534,1.7159191370010376,-0.7141009569168091
1777561216502070000,11.176070068359374,0.5412262082099915,2.174067735671997,-0.7800742983818054
1777561216520599800,11.194599853515625,-0.2559523284435272,0.842382550239563,0.3481929302215576
1777561216539129600,11.213129638671875,-1.0024291276931763,-5.542986869812012,-0.18814635276794434
1777561216557659400,11.231659423828125,-0.4880809485912323,-0.18203771114349365,-0.07269290834665298
1777561216576189000,11.25018896484375,0.7385355234146118,3.671297311782837,0.7440332770347595
1777561216594718700,11.26871875,0.2877173125743866,2.5937318801879883,1.72141695022583
1777561216613248500,11.28724853515625,0.6133082509040833,2.171013355255127,1.7745622396469116
1777561216631778000,11.305778076171874,0.44409868121147156,-0.07574722915887833,0.19425499439239502
1777561216650307800,11.324307861328125,0.10873392969369888,-1.3225222826004028,-1.598022222518921
1777561216668837600,11.342837646484375,0.009773836471140385,-1.8368704319000244,-1.978590965270996
1777561216687367400,11.361367431640625,-0.001832594396546483,-0.2608392536640167,-1.1417062282562256
1777561216705897000,11.37989697265625,-0.06719512492418289,0.915686309337616,-0.4105011224746704
1777561216724426800,11.3984267578125,0.14049890637397766,0.749531090259552,-0.4862483739852905
1777561216742956500,11.41695654296875,0.24434591829776764,0.4935787320137024,-0.6505709886550903
1777561216761486300,11.435486328125,0.1130099818110466,0.26939135789871216,-0.5754346251487732
1777561216780015900,11.454015869140624,-0.17776164412498474,-0.43860089778900146,-0.39278605580329895
1777561216798545700,11.472545654296875,-0.49602219462394714,-0.9291253089904785,0.1331685185432434
1777561216817075500,11.491075439453125,-0.7776308655738831,-0.28466299176216125,0.7880155444145203
1777561216835605000,11.50960498046875,-0.526565432548523,0.6530144214630127,0.8833104968070984
1777561216854134800,11.528134765625,-0.2767217457294464,0.7275399565696716,0.6786707639694214
1777561216872664600,11.54666455078125,-0.11484257876873016,0.8014546036720276,0.6255255341529846
1777561216891194400,11.5651943359375,0.01588248461484909,1.1417062282562256,0.8368847370147705
1777561216909724200,11.58372412109375,-0.026878049597144127,0.7220421433448792,1.0439679622650146
1777561216928253700,11.602253662109375,-0.11239911615848541,-0.021380268037319183,0.8912517428398132
1777561216946783500,11.620783447265625,-0.1337793916463852,-0.08368847519159317,0.675616443157196
1777561216965313300,11.639313232421875,-0.10995566099882126,0.05803215503692627,0.6896663308143616
1777561216983842800,11.6578427734375,-0.10506874322891235,-0.01954767294228077,0.9321796298027039
1777561217002372600,11.67637255859375,-0.021380268037319183,-0.7635809779167175,1.5314379930496216
1777561217020902400,11.69490234375,-0.26389357447624207,-1.196073293685913,2.533867120742798
1777561217039432200,11.71343212890625,-0.8393282294273376,-2.0769402980804443,3.4464991092681885
1777561217057961700,11.731961669921875,-1.148425817489624,-2.221715211868286,3.497811794281006
1777561217076491500,11.750491455078125,-0.729983389377594,-0.8405499458312988,3.121519088745117
1777561217095021300,11.769021240234375,-0.0977383628487587,-1.155145287513733,2.9938483238220215
1777561217113551000,11.787551025390625,0.4263836145401001,-0.017104214057326317,2.543030023574829
1777561217132080600,11.80608056640625,0.905912458896637,0.4007273018360138,1.5289945602416992
1777561217150610400,11.8246103515625,0.8497129082679749,-0.6371319890022278,1.0048725605010986
1777561217169140200,11.84314013671875,0.3182605504989624,-0.9095776677131653,0.8356630206108093
1777561217187670000,11.861669921875,-0.17715078592300415,-0.25473061203956604,0.0922405794262886
1777561217206199600,11.880199462890625,0.04581485688686371,0.4831940531730652,-0.9822705388069153
1777561217224729300,11.898729248046875,0.5534434914588928,0.7379246354103088,-1.8222095966339111
1777561217243259100,11.917259033203125,0.8387173414230347,0.6084213256835938,-2.1502439975738525
1777561217261788700,11.93578857421875,0.7727439403533936,0.45875945687294006,-2.2950189113616943
1777561217280318500,11.954318359375,0.6304124593734741,0.2406807243824005,-2.5583016872406006
1777561217298848300,11.97284814453125,0.49541133642196655,0.29504770040512085,-2.8185300827026367
1777561217317378000,11.9913779296875,0.30543237924575806,0.5790998339653015,-2.9272639751434326
1777561217335907600,12.009907470703125,-0.07819069176912308,0.7916807532310486,-3.0860888957977295
1777561217354437400,12.028437255859375,-0.5949822664260864,0.8784235715866089,-3.0414958000183105
1777561217372967200,12.04696728515625,-1.0372483730316162,0.1948658674955368,-2.5436408519744873
1777561217391496700,12.06549658203125,-0.8448259830474854,-2.05617094039917,-1.0696241855621338
1777561217410026500,12.084026611328126,-0.3799578845500946,-4.075078964233398,0.021380268037319183
1777561217428556300,12.102556396484376,0.1130099818110466,-1.5894701480865479,-0.6682860851287842
1777561217447085800,12.1210859375,0.42394015192985535,1.008537769317627,-0.573602020740509
1777561217465615600,12.13961572265625,0.6676751971244812,1.4117084741592407,0.020158538594841957
1777561217484145400,12.1581455078125,1.0201442241668701,1.3017528057098389,0.15699224174022675
1777561217502675200,12.17667529296875,0.676227331161499,4.847211837768555,0.10323614627122879
1777561217521205000,12.195205078125,0.18692462146282196,2.199113130569458,0.7458658814430237
1777561217539734500,12.213734619140626,-1.293811559677124,-7.560062408447266,-0.0665842592716217
1777561217558264300,12.232264404296876,-0.7104357481002808,-0.5369501113891602,-0.3640754222869873
1777561217576794000,12.250794189453124,0.5112938284873962,6.384147644042969,2.0445644855499268
1777561217595323600,12.26932373046875,0.9883792400360107,3.5216355323791504,1.8741331100463867
1777561217613853400,12.287853515625,0.7696896195411682,-0.34636032581329346,0.1490510106086731
1777561217632383200,12.30638330078125,0.13011419773101807,-2.279747247695923,-1.4721840620040894
1777561217650913000,12.3249130859375,-0.22174391150474548,-1.8643592596054077,-1.7568471431732178
1777561217669442600,12.343442626953125,-0.24801109731197357,0.4379900395870209,-0.7831286191940308
1777561217687972400,12.361972412109376,-0.021380268037319183,1.2919789552688599,-0.6921098232269287
1777561217706502100,12.380502197265624,-0.0513126403093338,0.30970844626426697,-0.5338957905769348
1777561217725031700,12.39903173828125,-0.10690133273601532,-0.09957095980644226,-0.3194822669029236
1777561217743561500,12.4175615234375,-0.16859868168830872,-0.13439024984836578,-0.2614501118659973
1777561217762091300,12.43609130859375,-0.13255766034126282,-0.11667517572641373,-0.17104214429855347
1777561217780621000,12.45462109375,-0.18631376326084137,-0.2254091054201126,0.1747073233127594
1777561217799150600,12.473150634765625,-0.3659079968929291,-0.03909534588456154,0.637742817401886
1777561217817680400,12.491680419921876,-0.24984370172023773,1.601076602935791,0.6438514590263367
1777561217836210200,12.510210205078126,-0.07513637095689774,2.3438880443573,0.6053670048713684
1777561217854739700,12.52873974609375,-0.17043127119541168,0.7171552777290344,0.3811796307563782
1777561217873269500,12.54726953125,-0.19181154668331146,-0.5534434914588928,0.1490510106086731
1777561217891799300,12.56579931640625,-0.23273947834968567,-0.26939135789871216,0.43432486057281494
1777561217910329000,12.5843291015625,-0.10018182545900345,1.5968005657196045,0.9706641435623169
1777561217928858600,12.602858642578125,0.011606430634856224,1.970038890838623,1.0421353578567505
1777561217947388400,12.621388427734376,-0.22296564280986786,0.5619956254959106,1.0274745225906372
1777561217965918200,12.639918212890626,-0.36774060130119324,-0.41783151030540466,1.6609413623809814
1777561217984447700,12.65844775390625,-0.3695732057094574,-0.258395791053772,2.5240931510925293
1777561218002977500,12.6769775390625,-0.7183769941329956,-0.6902772188186646,3.185049057006836
1777561218021507300,12.69550732421875,-1.2345577478408813,-2.0274600982666016,3.3909103870391846
1777561218049301800,12.7233017578125,-0.3390299379825592,-1.1368193626403809,2.649320602416992
1777561218067831600,12.74183154296875,0.5479456782341003,-1.0348049402236938,1.9608759880065918
1777561218086361300,12.760361328125,0.9950987100601196,-0.8484911918640137,1.276707410812378
1777561218104891000,12.778890869140625,1.2412772178649902,-0.5693259835243225,0.6829468011856079
1777561218123420700,12.797420654296875,0.8772017955780029,-0.7000510096549988,0.01588248461484909
1777561218141950500,12.815950439453125,0.017104214057326317,-0.5907062292098999,-0.28954991698265076
1777561218160480000,12.83447998046875,-0.1954767256975174,0.028099779039621353,-0.8014546036720276
1777561218179009800,12.853009765625,0.22357651591300964,0.3121519088745117,-1.515555500984192
1777561218197539600,12.87153955078125,0.7507528066635132,0.4257727563381195,-2.0439536571502686
1777561218216069400,12.8900693359375,1.0390809774398804,0.2926042377948761,-2.328005790710449
1777561218234599000,12.908598876953125,1.1227694749832153,0.1490510106086731,-2.5161521434783936
1777561218253128700,12.927128662109375,0.8814778923988342,0.4935787320137024,-2.6951353549957275
1777561218271658500,12.945658447265625,0.360410213470459,0.7202095985412598,-3.0213372707366943
1777561218290188000,12.96418798828125,-0.17776164412498474,0.4007273018360138,-3.3597562313079834
1777561218308717800,12.9827177734375,-0.6023126840591431,-0.10567960888147354,-3.14900803565979
1777561218327247600,13.00124755859375,-0.6010909676551819,-1.6365067958831787,-1.8106032609939575
1777561218345777400,13.01977734375,-0.41416633129119873,-4.290103435516357,-0.12644900381565094
1777561218364307000,13.038306884765625,-0.18875721096992493,-3.3689193725585938,-0.10384701192378998
1777561218382836700,13.056836669921875,0.5717694163322449,0.6010909676551819,-0.24740023910999298
1777561218401366500,13.075366455078125,1.202792763710022,2.10687255859375,0.15638138353824615
1777561218419896000,13.09389599609375,1.2993093729019165,1.637117624282837,0.4361574649810791
1777561218438425900,13.11242578125,1.0323615074157715,5.550928115844727,0.6169734001159668
1777561218456955600,13.13095556640625,0.7360920310020447,1.6707152128219604,0.8106175661087036
1777561218475485400,13.1494853515625,-1.5821397304534912,-8.393281936645508,-0.7452550530433655
1777561218494015000,13.168014892578125,-1.524107575416565,2.1917827129364014,2.2278237342834473
1777561218512544800,13.186544677734375,0.6860011219978333,5.510611057281494,2.210108757019043
1777561218531074600,13.205074462890625,1.0543526411056519,2.1838417053222656,1.2822052240371704
1777561218549604000,13.22360400390625,0.36163195967674255,-0.6921098232269287,-0.3500255048274994
1777561218568134000,13.2421337890625,-0.3390299379825592,-1.7250821590423584,-1.3500111103057861
1777561218586663700,13.26066357421875,-0.4153880476951599,-1.51616632938385,-1.53510320186615
1777561218605193200,13.279193115234374,-0.3292561173439026,0.24801109731197357,-1.0262528657913208
1777561218623722500,13.297722412109374,-0.24006985127925873,1.1429280042648315,-0.6994401812553406
1777561218642252300,13.316252197265625,-0.1740964651107788,0.5051851868629456,-0.6102539300918579
1777561218670047000,13.344046875,0.053145237267017365,0.22663083672523499,-0.6023126840591431
1777561218688576500,13.362576416015624,0.18753549456596375,1.1294889450073242,-0.4874700903892517
1777561218707106300,13.381106201171875,0.08429934084415436,1.0415244102478027,-0.18753549456596375
1777561218725635800,13.3996357421875,-0.3127627670764923,-0.13988803327083588,0.1533270627260208
1777561218744165600,13.41816552734375,-0.5314523577690125,-0.6053670048713684,0.4043924808502197
1777561218762695400,13.4366953125,-0.2706131041049957,0.027488915249705315,0.27488914132118225
1777561218781225000,13.455224853515626,0.03237583488225937,0.9315688014030457,0.15027274191379547
1777561218799754800,13.473754638671876,0.20952661335468292,1.4135410785675049,0.4263836145401001
1777561218818284500,13.492284423828124,0.09529490768909454,0.360410213470459,0.6902772188186646
1777561218836814300,13.510814453125,-0.22785256803035736,-0.6646208763122559,1.1704169511795044
1777561218855343900,13.52934375,-0.37262752652168274,-0.03298669680953026,2.0720534324645996
1777561218873873700,13.547873779296875,-0.48502662777900696,0.1692095398902893,2.835634231567383
1777561218892403500,13.566403564453125,-0.7281508445739746,-0.9804379940032959,3.3292131423950195
1777561218910933000,13.58493310546875,-1.3542872667312622,-1.9749258756637573,3.5808892250061035
1777561218929462800,13.603462890625,-1.286481261253357,-2.7568328380584717,3.249800682067871
1777561218947992600,13.62199267578125,-0.05742128938436508,-0.8002328872680664,2.6835289001464844
1777561218966522400,13.6405224609375,1.0146464109420776,0.4013381600379944,1.536935806274414
1777561218985052000,13.659052001953125,1.4178171157836914,0.45448338985443115,0.45875945687294006
1777561219003581700,13.677581787109375,1.0671807527542114,-0.22785256803035736,0.012217295356094837
1777561219022111500,13.696111572265625,-0.1545487940311432,-0.2254091054201126,0.21258094906806946
1777561219040641000,13.71464111328125,-0.7929024696350098,0.44837474822998047,-0.14477495849132538
1777561219059170800,13.7331708984375,-0.32681265473365784,0.2626718580722809,-1.1264346837997437
1777561219077700600,13.75170068359375,0.4068359434604645,-0.2889390289783478,-1.5693116188049316
1777561219096230400,13.77023046875,0.6872228980064392,-0.5577195286750793,-1.693317174911499
1777561219114760000,13.788760009765625,0.665842592716217,-0.6652317643165588,-1.786779522895813
1777561219133289700,13.807289794921875,0.5045742988586426,-0.46364638209342957,-1.7812817096710205
1777561219151819500,13.825819580078125,0.21930044889450073,0.16004657745361328,-1.8032728433609009
1777561219170349000,13.84434912109375,0.053145237267017365,0.5766563415527344,-2.045175313949585
1777561219188878800,13.86287890625,-0.07330377399921417,0.4783071279525757,-2.307847023010254
1777561219207408600,13.88140869140625,-0.23762640357017517,0.30482152104377747,-2.2791364192962646
1777561219225938400,13.8999384765625,-0.3836230933666229,0.024434590712189674,-1.6572761535644531
1777561219244468000,13.918468017578125,0.13011419773101807,-0.5229002237319946,-0.833219587802887
1777561219262997800,13.936997802734375,0.6065887212753296,0.5027416944503784,0.27855435013771057
1777561219281527600,13.955527587890625,0.3341430425643921,1.599854826927185,0.3274235129356384
1777561219300057000,13.97405712890625,0.012217295356094837,1.0641264915466309,0.39889469742774963
1777561219318587000,13.9925869140625,0.06475166976451874,-0.05803215503692627,0.7635809779167175
1777561219337116700,14.01111669921875,0.22479823231697083,-0.7446441650390625,0.924238383769989
1777561219355646500,14.029646484375,0.22174391150474548,-1.035415768623352,0.7984002828598022
1777561219374176000,14.048176025390624,-0.31031930446624756,-1.062904715538025,0.33231043815612793
1777561219392705800,14.066705810546875,-0.14049890637397766,0.5479456782341003,0.2364046722650528
1777561219411235600,14.085235595703125,0.647516667842865,3.5442373752593994,0.11484257876873016
1777561219429765000,14.10376513671875,0.3597993552684784,2.5436408519744873,-0.963333785533905
1777561219448295000,14.122294921875,-0.26511532068252563,2.378096580505371,-0.16126830875873566
1777561219466824700,14.14082470703125,-0.0409279391169548,2.649320602416992,1.2089014053344727
1777561219485354200,14.159354248046874,0.46486809849739075,2.8881685733795166,0.3952295184135437
1777561219503884000,14.177884033203124,0.9621120095252991,3.1392340660095215,-1.6743803024291992
1777561219522413800,14.196413818359375,0.8918625712394714,3.258352756500244,-3.403127670288086
1777561219540943600,14.214943603515625,0.6096430420875549,3.398240804672241,-3.4410014152526855
1777561219559473200,14.23347314453125,0.3439168632030487,3.693288564682007,-2.736063241958618
1777561219578003000,14.2520029296875,0.4068359434604645,3.9321365356445312,-2.221715211868286
1777561219596532700,14.27053271484375,0.4935787320137024,4.160600185394287,-1.712864875793457
1777561219615062300,14.289062255859376,0.28466299176216125,3.27240252494812,-1.3292417526245117
1777561219633592000,14.307592041015624,0.06108647957444191,2.5124869346618652,-1.164919137954712
1777561219652121900,14.326121826171875,-0.05070177838206291,2.550971269607544,-1.025641918182373
1777561219670651600,14.344651611328125,-0.10323614627122879,2.6413793563842773,-1.1575887203216553
1777561219689181200,14.36318115234375,-0.14782927930355072,2.5809037685394287,-1.1447606086730957
1777561219707711000,14.3817109375,-0.258395791053772,2.596175193786621,-0.9718858599662781
1777561219726240800,14.40024072265625,-0.3500255048274994,2.6254968643188477,-0.8142827749252319
1777561219744770300,14.418770263671876,-0.37323838472366333,2.263864755630493,-0.6976075768470764
1777561219763300000,14.437300048828124,-0.3591884970664978,1.5473204851150513,-0.6181951761245728
1777561219781830000,14.455829833984374,-0.3402516841888428,1.092226266860962,-0.5595521330833435
1777561219800359700,14.474359619140625,-0.10567960888147354,0.9065233469009399,-0.5088503360748291
1777561219818889500,14.492889404296875,0.22846342623233795,1.0720677375793457,-0.38728827238082886
1777561219837419000,14.5114189453125,0.37751442193984985,1.3671153783798218,-0.2461785078048706
1777561219855948800,14.52994873046875,0.43004879355430603,1.406821608543396,-0.04764745384454727
1777561219874478600,14.548478515625,0.48013970255851746,1.4110976457595825,0.3029889166355133
1777561219893008100,14.567008056640624,0.5968148708343506,1.1905754804611206,0.9547816514968872
1777561219911538000,14.585537841796874,0.7226530313491821,0.6866120100021362,1.8362594842910767
1777561219930067700,14.604067626953125,0.6316341757774353,-0.2211330533027649,2.654207468032837
1777561219948597500,14.622597412109375,0.3439168632030487,-0.8686497211456299,3.554622173309326
1777561219967127000,14.641126953125,-0.24495677649974823,-1.5106686353683472,4.490467071533203
1777561219985656800,14.65965673828125,-1.0500766038894653,-1.4453060626983643,4.3041534423828125
1777561220004186600,14.6781865234375,-1.4874557256698608,-0.3634645342826843,3.730551242828369
1777561220022716200,14.696716064453126,-1.9572107791900635,-0.8955277800559998,3.056767463684082
1777561220050510800,14.7245107421875,-2.2705843448638916,0.5186241865158081,2.952920436859131
1777561220069040400,14.743040283203126,-1.9480477571487427,2.959028959274292,3.2027640342712402
1777561220087570200,14.761570068359376,-1.1826342344284058,2.0415101051330566,2.5747950077056885
1777561220106100000,14.780099853515624,-0.6927206516265869,0.09407317638397217,1.2614357471466064
1777561220124629800,14.798629638671875,-0.5962040424346924,0.5473348498344421,1.4825688600540161
1777561220143159600,14.81715966796875,-0.583375871181488,0.5784889459609985,1.986532211303711
1777561220161689000,14.835689208984375,-0.4520399272441864,-0.13500112295150757,1.709810495376587
1777561220180219000,14.854218994140625,-0.5968148708343506,-0.8918625712394714,1.368947982788086
1777561220198748700,14.872748779296876,-0.7116574645042419,-0.8491020202636719,0.9065233469009399
1777561220217278200,14.8912783203125,-0.5937605500221252,-0.18142683804035187,0.2981020212173462
1777561220235808000,14.90980810546875,-0.4324922561645508,0.3194822669029236,-0.38179048895835876
1777561220254337800,14.928337890625,-0.2565632164478302,0.850934624671936,-1.0671807527542114
1777561220272867600,14.94686767578125,0.12522727251052856,1.5381574630737305,-1.6719368696212769
1777561220291397400,14.9653974609375,0.6371319890022278,2.2443172931671143,-2.023184061050415
1777561220309927000,14.983927001953125,0.9999856352806091,2.226602077484131,-1.7708970308303833
1777561220328456700,15.002456787109375,1.084285020828247,2.363435745239258,-0.5332849621772766
1777561220346986500,15.020986572265626,0.5192350745201111,2.3683228492736816,0.24434591829776764
1777561220365516000,15.03951611328125,0.10323614627122879,0.934623122215271,0.05925388261675835
1777561220384045800,15.0580458984375,-0.13133592903614044,0.4166097939014435,0.6017017960548401
1777561220402575600,15.07657568359375,-0.4465421438217163,-1.0195332765579224,1.0965023040771484
1777561220421105400,15.09510546875,-0.8106175661087036,-1.4960078001022339,1.7073670625686646
1777561220439635000,15.113635009765625,-1.6853759288787842,-1.1197150945663452,2.0360124111175537
1777561220458164700,15.132164794921875,-1.5314379930496216,-0.9853248596191406,-0.32070401310920715
1777561220476694500,15.150694580078126,-0.6053670048713684,1.9401065111160278,-1.8655810356140137
1777561220495224300,15.169224365234374,-0.09957095980644226,3.8240134716033936,-1.4538581371307373
1777561220513753900,15.18775390625,-0.028099779039621353,0.6273581385612488,-1.4294235706329346
1777561220532283600,15.20628369140625,-0.27000224590301514,3.5216355323791504,-2.7617197036743164
1777561220550813400,15.2248134765625,-0.43860089778900146,6.685914993286133,-3.5503461360931396
1777561220569343200,15.24334326171875,-1.0622938871383667,6.346274375915527,-3.4440555572509766
1777561220587872800,15.261872802734375,-1.3744457960128784,4.790401458740234,-2.6169447898864746
1777561220606402600,15.280402587890626,-0.8167262077331543,3.327991247177124,-1.1099413633346558
1777561220624932400,15.298932373046876,0.23823726177215576,1.5497639179229736,-0.7538071274757385
1777561220643462100,15.317462158203124,0.6212494969367981,1.0427461862564087,-1.719584345817566
1777561220661991700,15.33599169921875,1.035415768623352,2.7250678539276123,-2.322507858276367
1777561220680521500,15.354521484375,3.101971387863159,0.6597339510917664,-0.35796675086021423
1777561220699051300,15.37305126953125,2.9345943927764893,3.7629270553588867,-1.1533126831054688
1777561220717580800,15.391580810546875,0.6805033683776855,8.160542488098145,-4.9638872146606445
1777561220736110600,15.410110595703125,0.5406153202056885,4.593703269958496,-3.2534658908843994
1777561220754640400,15.428640380859376,-0.22785256803035736,0.43860089778900146,0.09651663154363632
1777561220773170200,15.447170166015624,-1.387273907661438,-0.017715077847242355,0.01893680728971958
1777561220791700000,15.465699951171874,-0.7275399565696716,1.2327251434326172,-0.9279035925865173
1777561220810229500,15.4842294921875,0.056199558079242706,2.6810855865478516,-1.3151918649673462
1777561220828759300,15.50275927734375,0.027488915249705315,2.911992311477661,-1.1985167264938354
1777561220847289000,15.5212890625,-0.21502439677715302,1.9932518005371094,-0.8655954003334045
1777561220865818600,15.539818603515625,-0.3292561173439026,1.8197661638259888,-0.9547816514968872
1777561220884348400,15.558348388671876,-0.5119046568870544,1.431867003440857,-0.8973603844642639
1777561220902878200,15.576878173828124,-0.7024945020675659,0.9022472500801086,-0.7977893948554993
1777561220921408000,15.595407958984374,-0.656679630279541,0.5839866995811462,-0.778241753578186
1777561220939937800,15.613937744140625,-0.5699368119239807,0.5076286196708679,-0.6695078015327454
1777561220958467300,15.63246728515625,-0.45387253165245056,0.6493492722511292,-0.5137372612953186
1777561220976997000,15.6509970703125,-0.27488914132118225,1.0928370952606201,-0.3078758418560028
1777561220995527000,15.66952685546875,-0.05742128938436508,1.2168426513671875,-0.287106454372406
1777561221014056400,15.688056396484376,0.11545344442129135,0.9413426518440247,-0.3066541254520416
1777561221032586200,15.706586181640626,0.19792018830776215,0.5949822664260864,0.025045456364750862
1777561221051116000,15.725115966796874,0.18387030065059662,0.648127555847168,0.5784889459609985
1777561221069645800,15.743645751953125,0.18264856934547424,0.4508182108402252,1.4214823246002197
1777561221088175600,15.762175537109375,0.29138249158859253,-0.49418962001800537,2.5137085914611816
1777561221106705200,15.780705078125,0.35124725103378296,-1.7599014043807983,3.6529712677001953
1777561221125235000,15.79923486328125,0.29443681240081787,-2.3316707611083984,4.331642150878906
1777561221143764700,15.8177646484375,-0.2406807243824005,-1.609628677368164,4.484969139099121
1777561221162294300,15.836294189453126,-1.3561197519302368,-0.28588470816612244,4.116006851196289
1777561221180824000,15.854823974609374,-1.9309436082839966,1.3054180145263672,3.8234026432037354
1777561221199353900,15.873353759765624,-1.5583161115646362,2.2394301891326904,3.411679744720459
1777561221217883600,15.891883544921875,-1.6426154375076294,3.0610435009002686,2.9193227291107178
1777561221236413400,15.910413330078125,-1.1197150945663452,2.682918071746826,2.5521931648254395
1777561221254943000,15.92894287109375,-0.5015199780464172,2.2779147624969482,2.241262912750244
1777561221273472800,15.94747265625,-0.08796452730894089,1.3463460206985474,1.4300343990325928
1777561221292002600,15.96600244140625,0.4166097939014435,0.6603448390960693,0.6994401812553406
1777561221310532000,15.984531982421874,0.6371319890022278,0.49663305282592773,0.8723149299621582
1777561221329062000,16.003061767578124,0.10567960888147354,-0.09957095980644226,1.1129956245422363
1777561221347591700,16.021591796875,-0.3903425931930542,-0.5277871489524841,1.0506874322891235
1777561221366121500,16.04012158203125,-0.5589412450790405,-0.32131487131118774,0.6499601006507874
1777561221384651000,16.058651123046875,-0.481361448764801,0.2926042377948761,-0.16859868168830872
1777561221403180800,16.077180908203125,-0.42394015192985535,1.071456789970398,-1.0036507844924927
1777561221421710600,16.095710693359376,-0.41905322670936584,1.7702860832214355,-1.740964651107788
1777561221440240400,16.114240478515626,-0.3860665261745453,1.990808367729187,-2.522871494293213
1777561221458770000,16.13277001953125,-0.3970620930194855,1.8771874904632568,-3.3066110610961914
1777561221477299700,16.1512998046875,-0.44470956921577454,1.3506220579147339,-3.797135353088379
1777561221495829500,16.16982958984375,-0.6261364221572876,0.2107483446598053,-3.5918848514556885
1777561221514359300,16.188359375,0.17287473380565643,-1.1111630201339722,-1.7647883892059326
1777561221532888800,16.206888916015625,1.0311397314071655,0.6133082509040833,0.14599667489528656
1777561221551418600,16.225418701171876,0.7556397318840027,2.1423027515411377,-0.44959646463394165
1777561221569948400,16.243948486328126,0.42088583111763,2.145357131958008,-0.8271108865737915
1777561221588478200,16.262478271484376,0.3543015718460083,1.6450588703155518,-0.7134900689125061
1777561221607008000,16.281008056640626,0.2987128794193268,0.7116574645042419,-0.7165443897247314
1777561221625537500,16.29953759765625,0.2987128794193268,-0.018325943499803543,-0.8026763200759888
1777561221644067300,16.3180673828125,0.2510654330253601,-1.3090832233428955,-0.544891357421875
1777561221662597000,16.33659716796875,-0.3488037884235382,-2.8716752529144287,-0.23212862014770508
1777561221681126700,16.355126708984375,-0.08429934084415436,0.05925388261675835,-0.5210676789283752
1777561221699656400,16.373656494140626,-0.1130099818110466,-1.9211697578430176,0.34208428859710693
1777561221718186200,16.392186279296876,-1.1808016300201416,3.3286020755767822,2.651153087615967
1777561221736716000,16.410716064453126,0.7794634699821472,6.343830585479736,3.098917007446289
1777561221755245800,16.429245849609377,1.3616175651550293,2.6700899600982666,1.6670500040054321
1777561221773775400,16.447775390625,1.227838158607483,-1.7818925380706787,-0.21930044889450073
1777561221792305200,16.46630517578125,0.024434590712189674,-2.970635414123535,-1.9095633029937744
1777561221810835000,16.4848349609375,-0.943786084651947,-3.199098825454712,-1.7947207689285278
1777561221829364500,16.503364501953126,-1.590080976486206,0.3958403766155243,0.318871408700943
1777561221847894300,16.521894287109376,-0.9046907424926758,1.3090832233428955,0.5845975875854492
1777561221866424000,16.540424072265626,-0.3805687427520752,0.34147340059280396,-0.2663370370864868
1777561221884953900,16.558953857421876,-0.5907062292098999,-0.2706131041049957,-0.0824667438864708
1777561221903483400,16.5774833984375,-0.9230166673660278,-0.4214966893196106,0.7599157691001892
1777561221922013200,16.59601318359375,-0.5815432667732239,1.3652827739715576,1.3420698642730713
1777561221940543000,16.61454296875,-0.8460476994514465,1.5381574630737305,1.8814635276794434
1777561221959072500,16.633072509765626,-1.5711442232131958,0.22785256803035736,3.4049603939056396
1777561221977602300,16.651602294921876,-1.7715078592300415,1.045189619064331,3.8020224571228027
1777561221996132000,16.670132080078126,-1.5027273893356323,-0.22296564280986786,3.5191919803619385
1777561222014662000,16.688661865234376,-0.8888082504272461,-2.355494499206543,3.3707518577575684
1777561222033191400,16.70719140625,0.11178825795650482,-2.3561055660247803,3.2143704891204834
1777561222051721200,16.72572119140625,1.036637544631958,-0.6627882719039917,2.400087833404541
1777561222070251000,16.7442509765625,0.5412262082099915,-0.3543015718460083,0.9944878816604614
1777561222088780800,16.76278076171875,0.027488915249705315,0.3072649836540222,-0.1288924664258957
1777561222107310300,16.781310302734376,0.26511532068252563,2.000582218170166,-1.989586591720581
1777561222125840100,16.799840087890626,0.12522727251052856,3.112967014312744,-3.5729479789733887
1777561222144370000,16.818369873046876,-0.31093016266822815,2.6145012378692627,-4.152048110961914
1777561222162899500,16.8368994140625,-0.3274235129356384,1.0720677375793457,-4.4800825119018555
1777561222181429200,16.85542919921875,-0.36774060130119324,-0.7122683525085449,-3.8637197017669678
1777561222199959000,16.873958984375,-0.3799578845500946,-2.383594274520874,-2.2009458541870117
1777561222218488800,16.89248876953125,0.4764745235443115,-3.4654359817504883,-0.9217949509620667
1777561222237018600,16.9110185546875,0.8191696405410767,-2.8008151054382324,-1.4819579124450684
1777561222255548200,16.929548095703126,1.194240689277649,-0.6682860851287842,-2.2870776653289795
1777561222274078000,16.948077880859376,1.545487880706787,0.389120876789093,-1.9480477571487427
1777561222292607700,16.966607666015626,1.4917317628860474,0.15027274191379547,-1.321911334991455
1777561222311137300,16.98513720703125,1.2162318229675293,0.19120067358016968,-0.7843503952026367
1777561222329667000,17.0036669921875,0.7831286191940308,3.8734936714172363,-0.1692095398902893
1777561222348196900,17.02219677734375,0.23945899307727814,-0.38728827238082886,1.2339468002319336
1777561222366726700,17.0407265625,-0.7171552777290344,-6.345052242279053,0.46975502371788025
1777561222385256400,17.05925634765625,-0.6585122346878052,-2.2534801959991455,0.10751219838857651
1777561222403786000,17.077785888671876,-0.5674933791160583,1.5919135808944702,1.654221773147583
1777561222422315800,17.096315673828126,-0.18631376326084137,3.5332419872283936,1.7470732927322388
1777561222440845600,17.114845458984377,0.49418962001800537,0.8625410795211792,1.5796962976455688
1777561222459375000,17.133375,-0.2706131041049957,-1.9675954580307007,1.0873392820358276
1777561222477905000,17.15190478515625,-1.0103703737258911,-1.8515311479568481,0.5057960152626038
1777561222496434700,17.1704345703125,-1.2119556665420532,-0.4880809485912323,-0.033597562462091446
1777561222514964500,17.188964599609374,-0.9046907424926758,0.09407317638397217,-0.5699368119239807
1777561222533494000,17.207493896484376,-0.13439024984836578,-0.48075059056282043,-0.411722868680954
1777561222552023800,17.22602392578125,0.10567960888147354,0.22907429933547974,0.2730565667152405
1777561222570553600,17.2445537109375,-0.3995055556297302,0.5876519083976746,1.463021159172058
1777561222589083100,17.263083251953127,-0.8820887207984924,1.1966841220855713,2.377485752105713
1777561222607613000,17.281613037109373,-1.3671153783798218,1.1679733991622925,3.0268349647521973
1777561222626142700,17.300142822265624,-1.7788382768630981,0.33597561717033386,4.280329704284668
1777561222644672300,17.31867236328125,-1.2260055541992188,-0.20647229254245758,4.401280879974365
1777561222663202000,17.3372021484375,-0.18203771114349365,-0.7776308655738831,3.855778455734253
1777561222681731800,17.35573193359375,1.0384701490402222,-0.4355465769767761,2.6163339614868164
1777561222700261600,17.37426171875,1.6450588703155518,0.13561198115348816,1.5375466346740723
1777561222728056300,17.402056396484376,-0.18631376326084137,0.5503891706466675,0.5723803043365479
1777561222746585900,17.4205859375,-0.41905322670936584,1.1417062282562256,-0.5778780579566956
1777561222765115600,17.43911572265625,-0.36774060130119324,2.03112530708313,-1.5406010150909424
1777561222783645400,17.4576455078125,-0.34147340059280396,1.9828671216964722,-1.9480477571487427
1777561222802175000,17.476175048828125,-0.21135921776294708,1.1691951751708984,-2.609614372253418
1777561222820704800,17.494704833984375,0.025045456364750862,0.37323838472366333,-3.721999168395996
1777561222839234600,17.513234619140626,0.08613193035125732,-0.21135921776294708,-4.6340203285217285
1777561222857764400,17.531764404296876,-0.09101885557174683,-0.6139190793037415,-4.837438106536865
1777561222876294000,17.5502939453125,0.1185077652335167,-1.7537927627563477,-3.9022042751312256
1777561222894823700,17.56882373046875,1.0696241855621338,-2.81425404548645,-2.49538254737854
1777561222913353500,17.587353515625,0.6609556674957275,-1.2156208753585815,-2.6328272819519043
1777561222931883000,17.605883056640625,0.7837395071983337,1.239444613456726,-2.026238441467285
1777561222950412800,17.624412841796875,1.0067051649093628,1.7715078592300415,-0.648127555847168
1777561222968942600,17.642942626953126,1.036637544631958,0.19364413619041443,-0.20891575515270233
1777561222987472400,17.661472412109376,0.9065233469009399,0.7513636946678162,-0.7874047160148621
1777561223006002200,17.680002197265626,1.1197150945663452,4.618748664855957,-0.3194822669029236
1777561223024531700,17.69853173828125,0.8093958497047424,-1.8564180135726929,0.9260709881782532
1777561223043061500,17.7170615234375,-1.1869102716445923,-4.888751029968262,0.29565855860710144
1777561223061591300,17.73559130859375,-1.1875211000442505,-0.7727439403533936,1.6328415870666504
1777561223080120800,17.754120849609375,0.21930044889450073,3.210705280303955,1.9553781747817993
1777561223098650600,17.772650634765625,0.9553925395011902,3.711003541946411,1.2583814859390259
1777561223156585000,17.8305849609375,-1.29503333568573,-2.883281707763672,-0.6914989352226257
1777561223175114800,17.84911474609375,-0.8429933786392212,-2.6755876541137695,-0.5192350745201111
1777561223193644500,17.86764453125,-0.3042106628417969,0.3396408259868622,-0.49480047821998596
1777561223212174300,17.88617431640625,0.02932151034474373,1.2461642026901245,-0.2675587832927704
1777561223230703900,17.904703857421875,-0.026878049597144127,0.47525280714035034,-0.22968515753746033
1777561223249233700,17.923233642578126,-0.0256563201546669,-0.19303326308727264,-0.14172062277793884
1777561223267763500,17.941763427734376,-0.287106454372406,-0.6401863098144531,0.2626718580722809
1777561223286293200,17.960293212890626,-0.4923570156097412,-0.6792816519737244,0.7611374855041504
1777561223304822800,17.97882275390625,-0.4667007029056549,-0.4459312856197357,1.2877029180526733
1777561223323352600,17.9973525390625,-0.5192350745201111,0.04764745384454727,1.896124243736267
1777561223341882400,18.01588232421875,-0.6291907429695129,0.9578359723091125,2.5912883281707764
1777561223360412200,18.034412109375,-1.0042617321014404,0.5534434914588928,3.816683053970337
1777561223378941700,18.052941650390625,-1.2400555610656738,-0.9309579133987427,4.37501335144043
1777561223397471500,18.071471435546876,-0.7073814272880554,-1.6383392810821533,3.8960955142974854
1777561223425266200,18.09926611328125,0.5937605500221252,-0.9578359723091125,2.906494617462158
1777561223443795700,18.117795654296874,0.6524035930633545,-0.9578359723091125,2.3017385005950928
1777561223462325500,18.136325439453124,0.7391464114189148,-0.38728827238082886,1.3744457960128784
1777561223480855300,18.154855224609374,0.5314523577690125,-0.23335035145282745,0.4214966893196106
1777561223499385000,18.173385009765624,0.23212862014770508,0.16859868168830872,-0.5070177912712097
1777561223517914600,18.19191455078125,-0.10506874322891235,0.6597339510917664,-1.2730422019958496
1777561223536444400,18.2104443359375,-0.23212862014770508,0.8600975871086121,-1.9315544366836548
1777561223554974200,18.22897412109375,-0.001221729558892548,1.0311397314071655,-2.774547815322876
1777561223573504000,18.24750390625,0.43493571877479553,0.8918625712394714,-3.635867118835449
1777561223592033500,18.266033447265624,0.6609556674957275,0.667064368724823,-4.006051063537598
1777561223610563300,18.284563232421874,0.5424479246139526,0.833219587802887,-3.783696413040161
1777561223629093000,18.303093017578124,0.3127627670764923,0.9395100474357605,-3.4831509590148926
1777561223647623000,18.321622802734375,0.22724169492721558,0.3836230933666229,-3.0494370460510254
1777561223666152400,18.34015234375,0.7892373204231262,-1.6701042652130127,-1.9523237943649292
1777561223684682200,18.35868212890625,0.41905322670936584,-2.9248206615448,-1.5296053886413574
1777561223703212000,18.3772119140625,-0.15760311484336853,-2.310290575027466,-1.517388105392456
1777561223721741800,18.395741943359376,0,-0.3799578845500946,-0.8894191384315491
1777561223740271400,18.414271240234374,0.36774060130119324,0.94439697265625,-0.2883281707763672
1777561223758801200,18.43280126953125,0.5607738494873047,0.5900954008102417,-0.053756099194288254
1777561223777331000,18.4513310546875,0.5913171172142029,0.6035344004631042,-0.49480047821998596
1777561223795860500,18.469860595703125,0.6304124593734741,2.9749114513397217,-0.17715078592300415
1777561223814390300,18.488390380859375,0.6181951761245728,2.863734006881714,0.7049379348754883
1777561223832920000,18.506920166015625,-0.1185077652335167,-4.969995975494385,-0.34208428859710693
1777561223851449900,18.525449951171876,-0.5522217750549316,-0.8185588121414185,0.7171552777290344
1777561223869979400,18.5439794921875,0.14172062277793884,3.364643096923828,2.2137739658355713
1777561223888509200,18.56250927734375,0.25900667905807495,3.087310552597046,1.869246244430542
1777561223907039000,18.5810390625,0.21258094906806946,2.1160356998443604,1.694538950920105
1777561223925568800,18.59956884765625,-0.1282816082239151,0.7269290685653687,0.8930842876434326
1777561223944098300,18.618098388671875,-0.544891357421875,-0.6414080262184143,-0.3249800503253937
1777561223962628000,18.636628173828125,-0.2883281707763672,-1.68354332447052,-1.3927717208862305
1777561223981158000,18.655157958984375,-0.14049890637397766,-1.7421863079071045,-1.712864875793457
1777561223999687700,18.673687744140626,-0.12095122784376144,0.833219587802887,-0.7379246354103088
1777561224018217200,18.69221728515625,-0.06597339361906052,2.1331398487091064,-0.27855435013771057
1777561224036747000,18.7107470703125,-0.20769402384757996,0.7696896195411682,-0.4373791813850403
1777561224055276800,18.72927685546875,-0.2626718580722809,-0.07574722915887833,-0.35674503445625305
1777561224073806600,18.747806640625,-0.2932150959968567,-0.13683371245861053,-0.11362084746360779
1777561224092336000,18.766336181640625,-0.3225366175174713,-0.3555232882499695,0.10140355676412582
1777561224110866000,18.784865966796875,-0.3689623177051544,-0.6291907429695129,0.2565632164478302
1777561224129395700,18.803395751953126,-0.35674503445625305,-0.4984656572341919,0.3555232882499695
1777561224147925500,18.821925537109376,-0.27977606654167175,0.03176496922969818,0.45326167345046997
1777561224166455000,18.840455078125,-0.22968515753746033,0.4202749729156494,0.5119046568870544
1777561224184984800,18.85898486328125,-0.3860665261745453,-0.1637117564678192,0.6768381595611572
1777561224203514600,18.8775146484375,-0.546113133430481,-0.4520399272441864,0.9920443892478943
1777561224222044400,18.89604443359375,-0.6133082509040833,-0.5387827157974243,1.4770710468292236
1777561224240574200,18.91457421875,-0.6927206516265869,-1.0958913564682007,2.2736387252807617
1777561224259103700,18.933103759765626,-0.750141978263855,-1.3170244693756104,3.0750932693481445
1777561224277633500,18.951633544921876,-0.7819069027900696,-1.4049890041351318,3.4489426612854004
1777561224296163300,18.970163330078126,-0.4874700903892517,-0.8967494964599609,3.1056365966796875
1777561224314693000,18.988693115234376,0.31154105067253113,-0.3787361681461334,2.3713769912719727
1777561224333222700,19.00722265625,0.8772017955780029,-0.7147117853164673,1.8057162761688232
1777561224351752400,19.02575244140625,1.276707410812378,-1.29503333568573,1.2828160524368286
1777561224370282200,19.0442822265625,1.3781108856201172,-1.3170244693756104,0.5571087002754211
1777561224388812000,19.06281201171875,1.1533126831054688,-0.6414080262184143,-0.09651663154363632
1777561224407341800,19.081341796875,0.27977606654167175,-0.5290089249610901,-0.6927206516265869
1777561224425871400,19.099871337890626,-0.41416633129119873,-0.46059203147888184,-1.0470222234725952
1777561224444401200,19.118401123046876,-0.27000224590301514,-0.10995566099882126,-1.627343773841858
1777561224462931000,19.136930908203126,0.1893680840730667,0.3897317349910736,-2.2760822772979736
1777561224481460700,19.155460693359377,0.4630354940891266,0.9871574640274048,-2.6523749828338623
1777561224499990300,19.173990234375,0.5070177912712097,1.4074324369430542,-2.800204038619995
1777561224518520000,19.19252001953125,0.4276053309440613,1.321911334991455,-2.906494617462158
1777561224537049900,19.2110498046875,0.2614501118659973,0.6023126840591431,-3.1251842975616455
1777561224555579600,19.22957958984375,0.04520399495959282,0.11362084746360779,-3.2901177406311035
1777561224574109200,19.248109130859376,0.23212862014770508,-0.8466585874557495,-2.494771718978882
1777561224592639000,19.266638916015626,0.1795942485332489,-2.6450445652008057,-1.061682939529419
1777561224611168800,19.285168701171877,-0.5192350745201111,-3.5527894496917725,-0.6316341757774353
1777561224629698600,19.303698486328123,-0.2712239623069763,-1.0164790153503418,0.03298669680953026
1777561224648228400,19.322228271484374,0.12095122784376144,1.479514479637146,0.3225366175174713
1777561224676022800,19.350022705078125,0.46914416551589966,0.9297361969947815,0.23212862014770508
1777561224694552600,19.368552490234375,0.5436696410179138,-0.06108647957444191,0.040317077189683914
1777561224713082400,19.387082275390625,0.44348782300949097,1.535714030265808,0.15271618962287903
1777561224731612200,19.405612060546876,0.637742817401886,2.7012441158294678,0.23335035145282745
1777561224750142000,19.424141845703126,0.06108647957444191,-2.2247695922851562,-0.9749401807785034
1777561224768671500,19.44267138671875,-0.5595521330833435,-1.0751219987869263,-0.8478803038597107
1777561224787201300,19.461201171875,0.3042106628417969,3.5979936122894287,0.5314523577690125
1777561224805731000,19.47973095703125,0.4886918365955353,3.747044563293457,0.861319363117218
1777561224824260900,19.4982607421875,0.6829468011856079,3.6847362518310547,1.5430444478988647
1777561224842790700,19.516790771484374,0.39217519760131836,1.1728603839874268,1.0384701490402222
1777561224861320400,19.535320556640624,-0.11362084746360779,-0.7550288438796997,-0.526565432548523
1777561224879850000,19.55385009765625,-0.20769402384757996,-1.4685189723968506,-2.012188673019409
1777561224898379800,19.5723798828125,-0.0256563201546669,-1.4294235706329346,-2.576627731323242
1777561224916909600,19.59090966796875,0.04276053607463837,0.9297361969947815,-1.4282019138336182
1777561224935439400,19.609439453125,0.0818558782339096,1.740964651107788,-0.831997811794281
1777561224953969200,19.62796923828125,0.2370155304670334,1.276707410812378,-1.0543526411056519
1777561224972498700,19.646498779296873,0.2822195291519165,1.0445787906646729,-1.1313215494155884
1777561224991028500,19.665028564453124,0.09407317638397217,0.6487383842468262,-1.0311397314071655
1777561225009558300,19.683558349609374,-0.1282816082239151,0.41905322670936584,-0.833219587802887
1777561225028088000,19.702088134765624,-0.31154105067253113,0.21135921776294708,-0.7244856357574463
1777561225046617900,19.720617919921875,-0.41905322670936584,0.4153880476951599,-0.6316341757774353
1777561225065147600,19.739147705078125,-0.45326167345046997,0.4569268524646759,-0.5852084755897522
1777561225083677400,19.757677490234375,-0.47036588191986084,0.4789179861545563,-0.5705476999282837
1777561225102207000,19.77620703125,-0.401949018239975,0.5619956254959106,-0.48013970255851746
1777561225120736800,19.79473681640625,-0.37629270553588867,0.6731730103492737,-0.2626718580722809
1777561225139266600,19.8132666015625,-0.4214966893196106,0.6120865345001221,0.12095122784376144
1777561225157796400,19.83179638671875,-0.5876519083976746,0.1490510106086731,0.5778780579566956
1777561225176326100,19.850326171875,-0.6450732350349426,-0.41294458508491516,1.176525592803955
1777561225194856000,19.86885595703125,-0.5021308660507202,-0.8307760953903198,1.9730932712554932
1777561225213385700,19.8873857421875,-0.2419024556875229,-1.0763437747955322,2.657261848449707
1777561225231915500,19.90591552734375,-0.12950333952903748,-1.324354887008667,3.1056365966796875
1777561225250445000,19.924445068359375,-0.2003636509180069,-1.792277216911316,3.2705700397491455
1777561225268974800,19.942974853515626,-0.21135921776294708,-0.6963858604431152,3.050658702850342
1777561225287504600,19.961504638671876,-0.07819069176912308,0.2663370370864868,2.926042318344116
1777561225306034400,19.980034423828126,0.04276053607463837,0.37629270553588867,2.4959933757781982
1777561225324564200,19.998564208984376,-0.1795942485332489,0.6768381595611572,1.8814635276794434
1777561225343094000,20.017093994140627,-0.3897317349910736,0.12705987691879272,1.9584324359893799
1777561225361623800,20.035623779296873,-0.38850998878479004,-0.5937605500221252,1.9327762126922607
1777561225380153600,20.054153564453124,-0.009773836471140385,-1.0372483730316162,1.3646719455718994
1777561225398683100,20.07268310546875,0.5558869242668152,-1.7263038158416748,0.7037162184715271
1777561225417213000,20.091212890625,0.9712749719619751,-2.1331398487091064,0.360410213470459
1777561225435742700,20.10974267578125,1.0042617321014404,-1.7544035911560059,0.5986474752426147
1777561225454272500,20.1282724609375,0.9468404054641724,-1.3720022439956665,0.6939423680305481
1777561225472802300,20.14680224609375,0.7721330523490906,-1.0543526411056519,0.4251618981361389
1777561225491332000,20.16533203125,0.5571087002754211,-0.546113133430481,0.09651663154363632
1777561225509862000,20.18386181640625,0.38850998878479004,-0.05742128938436508,-0.2663370370864868
1777561225528391700,20.2023916015625,0.27000224590301514,0.26389357447624207,-0.49968740344047546
1777561225546921200,20.220921142578124,0.15638138353824615,0.3811796307563782,-0.5119046568870544
1777561225565451000,20.239450927734374,0.05864302068948746,0.7709113359451294,-0.1380554437637329
1777561225583980800,20.257980712890625,-0.04764745384454727,1.3475676774978638,0.2834412455558777
1777561225602510600,20.276510498046875,-0.08552107214927673,1.3683371543884277,0.23945899307727814
1777561225621040400,20.295040283203125,-0.08063415437936783,-0.06230820715427399,0.09040798991918564
1777561225639570200,20.313570068359375,0.23457208275794983,-0.7318159937858582,-0.04764745384454727
1777561225658100000,20.332099853515626,0.3347539007663727,-0.11484257876873016,-0.15027274191379547
1777561225676629800,20.350629638671876,0.12461641430854797,0.4630354940891266,0.10018182545900345
1777561225695159600,20.36915966796875,0.012217295356094837,0.0977383628487587,0.6010909676551819
1777561225713689300,20.387689453125,-0.17104214429855347,1.4159845113754272,-0.2162461280822754
1777561225732219100,20.40621923828125,-0.8747583627700806,1.3585633039474487,-0.6890554428100586
1777561225750749000,20.4247490234375,-1.1398736238479614,1.2180644273757935,-1.6859867572784424
1777561225769278700,20.44327880859375,-0.10506874322891235,2.450789451599121,-0.9285144805908203
1777561225787808300,20.461808349609374,0.5571087002754211,-0.5412262082099915,-0.8124501705169678
1777561225806338000,20.480338134765624,0.06841685622930527,1.2241730690002441,-1.9828671216964722
1777561225824867800,20.498867919921874,-0.5717694163322449,5.143481254577637,-2.3701553344726562
1777561225843397600,20.517397705078125,-0.7819069027900696,6.117199897766113,-1.935219645500183
1777561225861927400,20.535927490234375,-0.9932661056518555,4.196640968322754,-1.703091025352478
1777561225880457200,20.554457275390625,-0.15027274191379547,0.778241753578186,-1.5137228965759277
1777561225898987000,20.572987060546875,0.48013970255851746,0.036651886999607086,-1.684765100479126
1777561225917516800,20.591516845703126,0.8930842876434326,2.511875867843628,-2.0586142539978027
1777561225936046600,20.610046630859376,1.5662572383880615,4.591259479522705,-2.1868958473205566
1777561225954576400,20.628576416015626,1.5796962976455688,4.831940174102783,-2.0696098804473877
1777561225973106200,20.647106201171876,1.0848958492279053,3.9376344680786133,-1.617569923400879
1777561225991636000,20.665635986328127,0.3811796307563782,2.7647740840911865,-1.1423171758651733
1777561226010165800,20.684165771484373,-0.14294235408306122,1.6810998916625977,-0.9993748068809509
1777561226028695600,20.702695556640624,-0.235793799161911,1.5063925981521606,-1.2999202013015747
1777561226047225300,20.721225341796874,-0.10506874322891235,2.2235476970672607,-1.4025455713272095
1777561226065755100,20.739755126953124,0.1795942485332489,3.1667230129241943,-1.158199667930603
1777561226084285000,20.758284912109374,0.22235478460788727,3.423286199569702,-1.0971131324768066
1777561226102814700,20.776814697265625,0.020769402384757996,2.780656576156616,-0.9553925395011902
1777561226121344500,20.795344482421875,-0.09896009415388107,2.067166328430176,-0.8100066781044006
1777561226139874300,20.813874267578125,-0.18081597983837128,1.8277074098587036,-0.675616443157196
1777561226158404000,20.832404052734375,-0.27366742491722107,1.7788382768630981,-0.5558869242668152
1777561226176934000,20.850933837890626,-0.31642794609069824,1.3439024686813354,-0.5522217750549316
1777561226195463700,20.869463623046876,-0.32009315490722656,0.8649845123291016,-0.564439058303833
1777561226213993500,20.887993408203126,-0.25900667905807495,0.9309579133987427,-0.40805765986442566
1777561226232523300,20.906523193359376,-0.04764745384454727,1.5100576877593994,-0.2724456787109375
1777561226251053000,20.925052978515627,0.2211330533027649,1.859472393989563,-0.22724169492721558
1777561226269582800,20.943582763671873,0.36285367608070374,1.4636319875717163,-0.25045454502105713
1777561226288112600,20.962112548828124,0.3738492429256439,1.0250310897827148,-0.1893680840730667
1777561226306642400,20.980642333984374,0.37140578031539917,1.0311397314071655,0.0818558782339096
1777561226325172200,20.999172119140624,0.3738492429256439,1.1435388326644897,0.5607738494873047
1777561226343702000,21.017701904296874,0.28466299176216125,0.7195987105369568,1.331685185432434
1777561226362231800,21.036231689453125,0.2809978127479553,0.1649334877729416,2.2247695922851562
1777561226380761600,21.05476171875,0.25045454502105713,-0.7696896195411682,2.970024585723877
1777561226399291400,21.07329150390625,0.27855435013771057,-1.2315033674240112,3.478264093399048
1777561226417821200,21.0918212890625,-0.008552107028663158,-1.4172062873840332,4.017046928405762
1777561226436351000,21.11035107421875,-0.546113133430481,-1.3976585865020752,3.8545567989349365
1777561226454880800,21.128880859375,-1.1716386079788208,-0.4166097939014435,3.3731954097747803
1777561226473410600,21.14741064453125,-1.7434080839157104,-0.6291907429695129,2.8845036029815674
1777561226491940400,21.1659404296875,-1.6725478172302246,0.4789179861545563,2.5827362537384033
1777561226510470100,21.18447021484375,-1.7336342334747314,2.752556800842285,2.6108360290527344
1777561226529000000,21.203,-1.461188554763794,2.4410157203674316,2.56807541847229
1777561226547529700,21.22152978515625,-0.8723149299621582,0.0256563201546669,1.7421863079071045
1777561226566059500,21.2400595703125,-0.2834412455558777,-0.6536253094673157,1.361006736755371
1777561226584589300,21.25858935546875,-0.07452550530433655,0.23945899307727814,1.8044945001602173
1777561226603119000,21.277119140625,-0.2663370370864868,-0.23945899307727814,1.694538950920105
1777561226621649000,21.29564892578125,-0.32620179653167725,-1.0140355825424194,1.461188554763794
1777561226640178700,21.3141787109375,-0.45448338985443115,-1.0421353578567505,1.156977891921997
1777561226658708500,21.33270849609375,-0.43982264399528503,-0.7904590368270874,0.667064368724823
1777561226677238300,21.35123828125,-0.27488914132118225,0.012217295356094837,-0.07574722915887833
1777561226695768000,21.36976806640625,-0.13439024984836578,0.758694052696228,-0.8796452879905701
1777561226714297900,21.3882978515625,0.043982263654470444,1.4013237953186035,-1.6432262659072876
1777561226732827600,21.40682763671875,0.2981020212173462,1.9401065111160278,-2.173456907272339
1777561226751357400,21.425357421875,0.5632173418998718,2.372598886489868,-2.3591597080230713
1777561226769887200,21.44388720703125,0.8368847370147705,2.4190244674682617,-2.1306962966918945
1777561226788417000,21.4624169921875,1.0543526411056519,1.6908737421035767,-1.1985167264938354
1777561226806946800,21.48094677734375,0.8943060636520386,1.8460333347320557,0.31642794609069824
1777561226825476600,21.4994765625,0.22968515753746033,1.2034035921096802,0.7709113359451294
1777561226844006400,21.51800634765625,-0.33108872175216675,0.2761108875274658,0.5974257588386536
1777561226862536200,21.5365361328125,-0.5876519083976746,0.028099779039621353,0.39217519760131836
1777561226881066000,21.55506591796875,-0.7990111112594604,-0.915075421333313,0.360410213470459
1777561226899595800,21.573595703125,-0.8222240209579468,-1.9388848543167114,0.3017672002315521
1777561226918125800,21.592125732421874,-0.6120865345001221,-1.2779290676116943,0.19669845700263977
1777561226936655600,21.610655517578124,-0.6133082509040833,0.7525854110717773,0.32131487131118774
1777561226955185400,21.629185302734374,-0.9236275553703308,0.7757982611656189,0.036651886999607086
1777561226973715200,21.647715087890624,-0.29565855860710144,0.833219587802887,-0.8747583627700806
1777561226992245000,21.666244873046875,0.10751219838857651,3.0604324340820312,-1.3732240200042725
1777561227010774800,21.68477490234375,0.3530798554420471,2.1917827129364014,-1.1985167264938354
1777561227029304600,21.7033046875,0.06475166976451874,1.508836030960083,-1.841146469116211
1777561227047834400,21.72183447265625,-0.8051197528839111,4.483747482299805,-2.5363106727600098
1777561227066364200,21.7403642578125,-1.489288330078125,6.400640964508057,-2.366490125656128
1777561227084894000,21.75889404296875,-1.6982040405273438,5.171581268310547,-1.3952151536941528
1777561227103423700,21.777423828125,-0.32620179653167725,1.3170244693756104,-1.148425817489624
1777561227121953500,21.79595361328125,0.5021308660507202,0.11606431007385254,-1.4379756450653076
1777561227140483300,21.8144833984375,0.7806851863861084,1.5491530895233154,-1.7727296352386475
1777561227159013000,21.83301318359375,1.3365721702575684,3.1984879970550537,-1.821598768234253
1777561227177543000,21.85154296875,1.6517783403396606,4.0585856437683105,-1.9535455703735352
1777561227196072700,21.87007275390625,1.4110976457595825,4.0585856437683105,-1.9046764373779297
1777561227214602800,21.888602783203126,0.8344413042068481,3.451385974884033,-1.6701042652130127
1777561227233132500,21.907132568359376,0.19669845700263977,2.570518970489502,-1.3817760944366455
1777561227251662300,21.925662353515627,-0.15760311484336853,2.090379238128662,-1.2486076354980469
1777561227270192000,21.944192138671873,-0.27855435013771057,2.157574415206909,-1.1410953998565674
1777561227288722000,21.962721923828123,-0.3078758418560028,2.1551308631896973,-1.0042617321014404
1777561227307251700,21.981251708984374,-0.3591884970664978,2.1368050575256348,-0.962722897529602
1777561227325781500,21.999781494140624,-0.3445277214050293,2.070831537246704,-0.9517273306846619
1777561227344311300,22.018311279296874,-0.21258094906806946,2.193004608154297,-0.9395100474357605
1777561227362841000,22.036841064453125,-0.10018182545900345,2.2724170684814453,-0.813671886920929
1777561227381371000,22.055370849609375,-0.1331685185432434,2.006079912185669,-0.6597339510917664
1777561227399900700,22.073900634765625,-0.22235478460788727,1.5430444478988647,-0.7024945020675659
1777561227418430500,22.092430419921875,-0.3860665261745453,0.8552106618881226,-0.7024945020675659
1777561227436960500,22.11096044921875,-0.5045742988586426,0.3640754222869873,-0.5400044918060303
1777561227455490300,22.129490234375,-0.4043924808502197,0.6524035930633545,-0.4972439408302307
1777561227474020000,22.14802001953125,-0.08674279600381851,1.1423171758651733,-0.37629270553588867
1777561227492550000,22.1665498046875,0.10018182545900345,1.2779290676116943,-0.19669845700263977
1777561227511079700,22.18507958984375,0.08796452730894089,0.8747583627700806,-0.08674279600381851
1777561227529609500,22.203609375,0.08429934084415436,0.740368127822876,0.1331685185432434
1777561227548139300,22.22213916015625,0.18570289015769958,0.6450732350349426,0.7147117853164673
1777561227566669000,22.2406689453125,0.30543237924575806,0.3396408259868622,1.265711784362793
1777561227585198800,22.25919873046875,0.4935787320137024,-0.21991132199764252,1.7043126821517944
1777561227603728600,22.277728759765626,0.4776962697505951,-0.8210022449493408,2.4178028106689453
1777561227622258700,22.2962587890625,0.21746785938739777,-1.5149446725845337,3.3621997833251953
1777561227640788500,22.31478857421875,-0.03543015569448471,-1.4440842866897583,4.004829406738281
1777561227659318300,22.333318359375,-0.3066541254520416,-0.6291907429695129,3.9474081993103027
1777561227677848000,22.35184814453125,-0.7867938280105591,-0.07819069176912308,3.412290573120117
1777561227696377900,22.3703779296875,-1.2828160524368286,-0.9920443892478943,2.7110178470611572
1777561227733437400,22.4074375,-1.4049890041351318,0.5021308660507202,2.0586142539978027
1777561227751967200,22.42596728515625,-1.1264346837997437,2.014631986618042,2.4239113330841064
1777561227770497000,22.4444970703125,-0.8210022449493408,1.1252129077911377,2.084270715713501
1777561227789026800,22.46302685546875,-0.3225366175174713,-0.5656607747077942,1.2877029180526733
1777561227807556900,22.481556884765624,0.16004657745361328,-0.7220421433448792,1.1264346837997437
1777561227826086700,22.500086669921874,0.12583814561367035,-0.1490510106086731,1.5442661046981812
1777561227844616400,22.518616455078124,0.006108647678047419,-0.3836230933666229,1.4013237953186035
1777561227863146200,22.537146240234375,-0.017104214057326317,-0.5632173418998718,1.0445787906646729
1777561227881676000,22.555676025390625,0.06841685622930527,-0.35185810923576355,0.6071996092796326
1777561227900205800,22.574205810546875,0.21135921776294708,0.19181154668331146,-0.018325943499803543
1777561227918735600,22.592735595703125,0.33231043815612793,0.6878337264060974,-0.7635809779167175
1777561227937265400,22.611265380859376,0.45937031507492065,0.9773836731910706,-1.5027273893356323
1777561227955795500,22.62979541015625,0.5815432667732239,1.1459823846817017,-2.086714029312134
1777561227974325200,22.6483251953125,0.8112284541130066,1.4208714962005615,-2.394589900970459
1777561227992855000,22.66685498046875,0.9676098227500916,2.129474639892578,-2.2027783393859863
1777561228011384800,22.685384765625,0.8857539296150208,2.3872594833374023,-1.5748094320297241
1777561228029914600,22.70391455078125,0.5314523577690125,1.6432262659072876,-0.851545512676239
1777561228048444400,22.7224443359375,0.21502439677715302,0.1233946830034256,-0.5009090900421143
1777561228066974200,22.74097412109375,0.19303326308727264,-0.516791582107544,-0.11239911615848541
1777561228085504000,22.75950390625,0.003665188793092966,-0.39217519760131836,0.4312705397605896
1777561228104033800,22.77803369140625,-0.06108647957444191,-0.6047561168670654,0.3787361681461334
1777561228122563800,22.796563720703126,-0.06230820715427399,-0.5913171172142029,-0.05864302068948746
1777561228141093600,22.81509375,-0.26022839546203613,0.7977893948554993,-0.18325942754745483
1777561228159623400,22.83362353515625,-0.80389803647995,2.609614372253418,-0.15271618962287903
1777561228178153200,22.8521533203125,-0.6633991599082947,1.4013237953186035,0.7061597108840942
1777561228196683000,22.87068310546875,-0.09285144507884979,0.7916807532310486,0.9126319885253906
1777561228215212800,22.889212890625,0.03909534588456154,-0.08063415437936783,0.4043924808502197
1777561228233742600,22.90774267578125,-0.004886918235570192,-1.0482439994812012,-0.748920202255249
1777561228252272400,22.9262724609375,-0.8148936033248901,0.80389803647995,-1.5906919240951538
1777561228270802400,22.944802490234373,-1.5320488214492798,2.897942543029785,-1.2339468002319336
1777561228289332200,22.963332275390623,-1.6969823837280273,3.045771837234497,-0.36774060130119324
1777561228307862000,22.981862060546874,-0.6890554428100586,0.7770199775695801,-0.12705987691879272
1777561228326391800,23.000391845703124,0.22357651591300964,-0.8503237962722778,-0.8967494964599609
1777561228344921600,23.018921630859374,0.8161153197288513,0.8173370957374573,-1.3072506189346313
1777561228363451400,23.037451416015625,1.1313215494155884,2.0977096557617188,-1.3561197519302368
1777561228381981200,23.055981201171875,0.9688315391540527,2.153909206390381,-1.4379756450653076
1777561228400511000,23.074510986328125,0.6414080262184143,1.4306453466415405,-1.3280199766159058
1777561228419041000,23.093041015625,0.1637117564678192,0.4630354940891266,-1.000596523284912
1777561228437570800,23.11157080078125,-0.28954991698265076,-0.15271618962287903,-0.647516667842865
1777561228456100600,23.1301005859375,-0.5070177912712097,-0.574212908744812,-0.43493571877479553
1777561228474630400,23.14863037109375,-0.4471530318260193,-0.6035344004631042,-0.43371400237083435
1777561228493160200,23.16716015625,-0.27977606654167175,-0.05742128938436508,-0.43982264399528503
1777561228511690000,23.18568994140625,-0.22846342623233795,0.6218603253364563,-0.1539379209280014
1777561228530219800,23.2042197265625,-0.2528980076313019,0.7342594861984253,0.1905898153781891
1777561228548749800,23.222749755859375,-0.3127627670764923,0.4667007029056549,0.4312705397605896
1777561228567279600,23.241279541015626,-0.34697118401527405,0.2993237376213074,0.9285144805908203
1777561228585809400,23.259809326171876,-0.3958403766155243,0.14172062277793884,1.536935806274414
1777561228604339200,23.278339111328126,-0.49480047821998596,-0.7122683525085449,1.6249003410339355
1777561228622869000,23.296868896484376,-0.4972439408302307,-1.8729114532470703,1.237612009048462
1777561228641398800,23.315398681640627,-0.3848448097705841,-1.666439175605774,0.9334014058113098
1777561228659928600,23.333928466796873,-0.17104214429855347,-0.17348559200763702,1.0091485977172852
1777561228678458400,23.352458251953124,-0.11239911615848541,0.8148936033248901,1.0103703737258911
1777561228696988400,23.370988525390626,-0.22235478460788727,0.8723149299621582,0.8222240209579468
1777561228715518200,23.389518310546876,-0.3848448097705841,0.22968515753746033,0.544891357421875
