time,seconds_elapsed,z,y,x
1777561205493214500,0.16721435546875,-58.44375228881836,92.1187515258789,120.0562515258789
1777561205503214300,0.17721435546875,-56.868751525878906,91.53750610351562,113.55000305175781
1777561205523214300,0.19721435546875,-57.056251525878906,90.1500015258789,113.43750762939453
1777561205533214500,0.20721435546875,-57.056251525878906,90.1500015258789,113.43750762939453
1777561205543214300,0.21721435546875,-58.462501525878906,89.94375610351562,115.40625762939453
1777561205553214500,0.22721435546875,-62.70000076293945,93.3375015258789,122.36250305175781
1777561205563214300,0.23721435546875,-60.712501525878906,93.58125305175781,123.20625305175781
1777561205573214500,0.24721435546875,-63.07500076293945,91.875,124.3687515258789
1777561205583214300,0.25721435546875,-63.07500076293945,91.875,124.3687515258789
1777561205593214500,0.26721435546875,-61.80000305175781,92.90625,122.83125305175781
1777561205603214300,0.27721435546875,-61.95000076293945,92.5875015258789,121.50000762939453
1777561205613214500,0.28721435546875,-61.968753814697266,91.875,120.93750762939453
1777561205623214300,0.29721435546875,-63.82500076293945,92.2125015258789,124.87500762939453
1777561205633214500,0.30721435546875,-62.56875228881836,92.3062515258789,121.33125305175781
1777561205643214300,0.31721435546875,-63.39375305175781,90.1875,121.21875762939453
1777561205653214500,0.32721435546875,-62.66250228881836,90.5625,123.82500457763672
1777561205663214300,0.33721435546875,-63.843753814697266,90.3375015258789,120.56250762939453
1777561205673214500,0.34721435546875,-62.025001525878906,90.82500457763672,122.3062515258789
1777561205683214300,0.35721435546875,-65.15625,92.5875015258789,123.13125610351562
1777561205693214500,0.36721435546875,-64.03125,91.66875457763672,126.31875610351562
1777561205703214300,0.37721435546875,-65.51250457763672,91.7437515258789,124.25625610351562
1777561205713214500,0.38721435546875,-63.39375305175781,90.54375457763672,122.00625610351562
1777561205723214300,0.39721435546875,-62.306251525878906,92.13750457763672,124.38750457763672
1777561205733214500,0.40721435546875,-64.125,92.00625610351562,123.4312515258789
1777561205743214300,0.41721435546875,-65.17500305175781,91.42500305175781,121.21875762939453
1777561205753214500,0.42721435546875,-63.337501525878906,91.14375305175781,119.28750610351562
1777561205763214300,0.43721435546875,-63.093753814697266,90.9937515258789,122.4937515258789
1777561205773214500,0.44721435546875,-62.26875305175781,92.41875457763672,122.04375457763672
1777561205783214300,0.45721435546875,-64.14375305175781,89.75625610351562,118.33125305175781
1777561205793214500,0.46721435546875,-63.88125228881836,88.95000457763672,119.5875015258789
1777561205803214300,0.47721435546875,-64.10625457763672,91.78125,121.96875762939453
1777561205813214500,0.48721435546875,-65.19375610351562,91.53750610351562,121.95000457763672
1777561205823214300,0.49721435546875,-66.30000305175781,90.22500610351562,122.28750610351562
1777561205833214500,0.50721435546875,-63.03750228881836,91.20000457763672,119.71875762939453
1777561205843214300,0.51721435546875,-62.47500228881836,89.85000610351562,119.8687515258789
1777561205853214500,0.52721435546875,-64.59375,89.92500305175781,119.51250457763672
1777561205863214300,0.53721435546875,-63.35625076293945,91.72500610351562,121.51875305175781
1777561205873214500,0.54721435546875,-63.39375305175781,89.92500305175781,119.47500610351562
1777561205883214300,0.55721435546875,-64.23750305175781,92.15625,121.05000305175781
1777561205893214500,0.56721435546875,-64.21875,92.38125610351562,120.11250305175781
1777561205903214300,0.57721435546875,-61.743751525878906,93.41250610351562,120.39375305175781
1777561205913214500,0.58721435546875,-61.72500228881836,93.69375610351562,119.73750305175781
1777561205923214300,0.59721435546875,-61.14375305175781,92.94375610351562,119.71875762939453
1777561205933214500,0.60721435546875,-59.64375305175781,92.19375610351562,118.81875610351562
1777561205943214300,0.61721435546875,-59.625003814697266,92.94375610351562,119.6812515258789
1777561205953214500,0.62721435546875,-60.656253814697266,94.53750610351562,121.2750015258789
1777561205963214300,0.63721435546875,-57.750003814697266,94.91250610351562,120.4312515258789
1777561205973214500,0.64721435546875,-57.750003814697266,94.91250610351562,120.4312515258789
1777561205983214300,0.65721435546875,-58.593753814697266,93.26250457763672,121.96875762939453
1777561205993214500,0.66721435546875,-57.525001525878906,93.5625,122.26875305175781
1777561206003214300,0.67721435546875,-57.16875076293945,94.51875305175781,121.1812515258789
1777561206013214500,0.68721435546875,-56.212501525878906,95.8125,122.4000015258789
1777561206023214300,0.69721435546875,-54.91875076293945,93.375,120.20625305175781
1777561206033214500,0.70721435546875,-54.69375228881836,94.23750305175781,118.38750457763672
1777561206043214300,0.71721435546875,-52.89375305175781,94.5,120.22500610351562
1777561206053214500,0.72721435546875,-56.08125305175781,94.3687515258789,120.13125610351562
1777561206063214300,0.73721435546875,-54.843753814697266,95.00625610351562,120.22500610351562
1777561206073214500,0.74721435546875,-55.20000076293945,93.6187515258789,120.11250305175781
1777561206083214300,0.75721435546875,-53.94375228881836,94.9312515258789,120.60000610351562
1777561206093214500,0.76721435546875,-54.82500076293945,96.4312515258789,121.48125457763672
1777561206103214300,0.77721435546875,-52.85625076293945,94.96875,119.17500305175781
1777561206113214500,0.78721435546875,-53.64375305175781,95.36250305175781,121.81875610351562
1777561206123214300,0.79721435546875,-52.406253814697266,95.625,121.12500762939453
1777561206133214500,0.80721435546875,-50.868751525878906,96.30000305175781,121.50000762939453
1777561206143214300,0.81721435546875,-51.937503814697266,95.625,120.26250457763672
1777561206153214500,0.82721435546875,-49.650001525878906,95.55000305175781,119.7750015258789
1777561206163214300,0.83721435546875,-49.66875076293945,95.66250610351562,120.48750305175781
1777561206173214500,0.84721435546875,-48.431251525878906,95.75625610351562,119.4937515258789
1777561206183214300,0.85721435546875,-49.05000305175781,95.4000015258789,119.5875015258789
1777561206193214500,0.86721435546875,-49.20000076293945,95.64375305175781,120.48750305175781
1777561206203214300,0.87721435546875,-49.80000305175781,96.6187515258789,121.95000457763672
1777561206213214500,0.88721435546875,-47.34375,97.4625015258789,122.60625457763672
1777561206223214300,0.89721435546875,-47.85000228881836,96.07500457763672,122.4937515258789
1777561206233214500,0.90721435546875,-46.650001525878906,96.37500762939453,123.8062515258789
1777561206243214300,0.91721435546875,-48.618751525878906,95.92500305175781,123.20625305175781
1777561206253214500,0.92721435546875,-45.375,97.48125457763672,122.85000610351562
1777561206263214300,0.93721435546875,-46.48125076293945,96.50625610351562,122.9625015258789
1777561206273214500,0.94721435546875,-45.375,97.12500762939453,122.06250762939453
1777561206283214300,0.95721435546875,-46.181251525878906,95.85000610351562,121.85625457763672
1777561206293214500,0.96721435546875,-45.67500305175781,97.78125762939453,123.18750762939453
1777561206303214300,0.97721435546875,-43.01250076293945,95.51250457763672,122.9625015258789
1777561206313214500,0.98721435546875,-43.743751525878906,96.48750305175781,122.88750457763672
1777561206323214300,0.99721435546875,-43.59375,96.09375762939453,121.81875610351562
1777561206333214500,1.00721435546875,-43.556251525878906,97.33125305175781,123.46875762939453
1777561206343214300,1.01721435546875,-43.33125305175781,98.28750610351562,120.69375610351562
1777561206353214500,1.02721435546875,-43.70625305175781,96.37500762939453,120.3375015258789
1777561206363214300,1.03721435546875,-42.86250305175781,95.71875,123.56250762939453
1777561206373214500,1.04721435546875,-43.06875228881836,97.6500015258789,121.40625762939453
1777561206383214300,1.05721435546875,-40.81875228881836,97.42500305175781,122.43750762939453
1777561206393214500,1.06721435546875,-41.60625076293945,95.60625457763672,120.26250457763672
1777561206403214300,1.07721435546875,-39.150001525878906,96.01875305175781,119.71875762939453
1777561206413214500,1.08721435546875,-39.150001525878906,96.01875305175781,119.71875762939453
1777561206423214300,1.09721435546875,-40.29375076293945,97.91250610351562,119.83125305175781
1777561206433214500,1.10721435546875,-38.66250228881836,96.56250762939453,118.25625610351562
1777561206443214300,1.11721435546875,-37.3125,96.16875457763672,118.98750305175781
1777561206453214500,1.12721435546875,-38.41875076293945,95.5875015258789,121.03125762939453
1777561206463214300,1.13721435546875,-38.36250305175781,96.6187515258789,119.53125762939453
1777561206473214500,1.14721435546875,-36.11250305175781,96,119.64375305175781
1777561206483214300,1.15721435546875,-38.71875,95.70000457763672,120.91875457763672
1777561206493214500,1.16721435546875,-36.150001525878906,94.98750305175781,119.43750762939453
1777561206503214300,1.17721435546875,-35.98125076293945,94.875,117.86250305175781
1777561206513214500,1.18721435546875,-35.83125305175781,94.8375015258789,118.40625762939453
1777561206523214300,1.19721435546875,-36.11250305175781,96,119.64375305175781
1777561206533214500,1.20721435546875,-36.91875076293945,94.72500610351562,119.41875457763672
1777561206543214300,1.21721435546875,-36.75,94.72500610351562,118.5562515258789
1777561206553214500,1.22721435546875,-37.66875076293945,94.72500610351562,119.43750762939453
1777561206563214300,1.23721435546875,-37.66875076293945,95.04375457763672,119.92500305175781
1777561206573214500,1.24721435546875,-38.25,96.3375015258789,121.03125762939453
1777561206583214300,1.25721435546875,-39.67500305175781,94.51875305175781,120.58125305175781
1777561206593214500,1.26721435546875,-40.556251525878906,95.66250610351562,120.67500305175781
1777561206603214300,1.27721435546875,-42.73125076293945,94.38750457763672,121.33125305175781
1777561206613214500,1.28721435546875,-43.21875,94.3687515258789,122.90625762939453
1777561206623214300,1.29721435546875,-43.462501525878906,95.9625015258789,123.48750305175781
1777561206633214500,1.30721435546875,-46.556251525878906,93.84375,121.76250457763672
1777561206643214300,1.31721435546875,-47.55000305175781,95.60625457763672,120.9937515258789
1777561206653214500,1.32721435546875,-47.4375,93.82500457763672,119.10000610351562
1777561206663214300,1.33721435546875,-49.406253814697266,95.28750610351562,123.09375762939453
1777561206673214500,1.34721435546875,-50.75625228881836,95.4937515258789,121.89375305175781
1777561206683214300,1.35721435546875,-49.98750305175781,95.98125457763672,122.6812515258789
1777561206693214500,1.36721435546875,-52.10625076293945,95.13750457763672,120.31875610351562
1777561206703214300,1.37721435546875,-52.42500305175781,94.81875610351562,119.85000610351562
1777561206713214500,1.38721435546875,-53.212501525878906,93.8062515258789,119.66250610351562
1777561206723214300,1.39721435546875,-53.28750228881836,95.71875,119.19375610351562
1777561206733214500,1.40721435546875,-53.718753814697266,96.91875457763672,120.56250762939453
1777561206743214300,1.41721435546875,-56.04375076293945,95.94375610351562,120.7125015258789
1777561206753214500,1.42721435546875,-55.087501525878906,96.16875457763672,118.76250457763672
1777561206763214300,1.43721435546875,-52.81875228881836,95.4000015258789,117.84375762939453
1777561206773214500,1.44721435546875,-52.95000076293945,96.63750457763672,118.6500015258789
1777561206783214300,1.45721435546875,-52.20000076293945,96.91875457763672,120.5250015258789
1777561206793214500,1.46721435546875,-55.275001525878906,96.39375305175781,121.20000457763672
1777561206803214300,1.47721435546875,-56.04375076293945,95.64375305175781,120.37500762939453
1777561206813214500,1.48721435546875,-56.718753814697266,94.03125,121.21875762939453
1777561206823214300,1.49721435546875,-59.10000228881836,94.16250610351562,116.92500305175781
1777561206833214500,1.50721435546875,-57.618751525878906,93.63750457763672,119.32500457763672
1777561206843214300,1.51721435546875,-60.82500076293945,92.98125457763672,118.31250762939453
1777561206853214500,1.52721435546875,-60.82500076293945,92.98125457763672,118.31250762939453
1777561206863214300,1.53721435546875,-61.61250305175781,92.45625305175781,118.9312515258789
1777561206873214500,1.54721435546875,-61.14375305175781,92.73750305175781,118.25625610351562
1777561206883214300,1.55721435546875,-61.14375305175781,93.26250457763672,120.20625305175781
1777561206893214500,1.56721435546875,-61.89375305175781,93.0562515258789,118.76250457763672
1777561206903214300,1.57721435546875,-63.73125076293945,92.64375305175781,119.3062515258789
1777561206913214500,1.58721435546875,-62.250003814697266,91.98750305175781,119.13750457763672
1777561206923214300,1.59721435546875,-61.931251525878906,91.61250305175781,117.35625457763672
1777561206933214500,1.60721435546875,-60.993751525878906,92.19375610351562,118.01250457763672
1777561206943214300,1.61721435546875,-60.82500076293945,93.0562515258789,118.7437515258789
1777561206953214500,1.62721435546875,-60.712501525878906,92.36250305175781,119.17500305175781
1777561206963214300,1.63721435546875,-59.36250305175781,92.4000015258789,120.26250457763672
1777561206973214500,1.64721435546875,-59.47500228881836,93.41250610351562,120.31875610351562
1777561206983214300,1.65721435546875,-58.29375076293945,92.4937515258789,120.97500610351562
1777561206993214500,1.66721435546875,-58.63125228881836,91.33125305175781,119.75625610351562
1777561207003214300,1.67721435546875,-57.281253814697266,89.8687515258789,117.46875762939453
1777561207013214500,1.68721435546875,-56.062503814697266,90.6187515258789,119.13750457763672
1777561207023214300,1.69721435546875,-57.11250305175781,91.53750610351562,121.1812515258789
1777561207033214500,1.70721435546875,-56.19375228881836,92.0250015258789,121.10625457763672
1777561207043214300,1.71721435546875,-56.04375076293945,91.91250610351562,121.21875762939453
1777561207053214500,1.72721435546875,-56.00625228881836,93.6187515258789,122.66250610351562
1777561207063214300,1.73721435546875,-56.51250076293945,92.26875305175781,122.85000610351562
1777561207073214500,1.74721435546875,-55.593753814697266,92.00625610351562,121.9312515258789
1777561207083214300,1.75721435546875,-56.775001525878906,92.55000305175781,121.3687515258789
1777561207093214500,1.76721435546875,-59.19375228881836,93.46875,122.43750762939453
1777561207103214300,1.77721435546875,-58.33125305175781,91.48125457763672,120.76875305175781
1777561207113214500,1.78721435546875,-55.70625305175781,92.55000305175781,120.48750305175781
1777561207123214300,1.79721435546875,-58.81875228881836,91.21875,122.43750762939453
1777561207133214500,1.80721435546875,-57.26250076293945,91.42500305175781,119.60625457763672
1777561207143214300,1.81721435546875,-58.368751525878906,90.1875,120.5250015258789
1777561207153214500,1.82721435546875,-58.57500076293945,92.60625457763672,120.00000762939453
1777561207163214300,1.83721435546875,-58.312503814697266,92.08125305175781,120.60000610351562
1777561207173214500,1.84721435546875,-60.11250305175781,92.625,120.0562515258789
1777561207183214300,1.85721435546875,-58.38750076293945,92.71875,117.3375015258789
1777561207193214500,1.86721435546875,-59.66250228881836,91.80000305175781,118.7437515258789
1777561207203214300,1.87721435546875,-58.38750076293945,93.07500457763672,118.10625457763672
1777561207213214500,1.88721435546875,-58.35000228881836,93.58125305175781,117.22500610351562
1777561207223214300,1.89721435546875,-59.60625076293945,92.83125305175781,117.26250457763672
1777561207233214500,1.90721435546875,-58.181251525878906,93.67500305175781,116.25000762939453
1777561207243214300,1.91721435546875,-57.16875076293945,93.03750610351562,117.78750610351562
1777561207253214500,1.92721435546875,-57.11250305175781,94.85625457763672,119.1187515258789
1777561207263214300,1.93721435546875,-54.712501525878906,94.35000610351562,119.10000610351562
1777561207273214500,1.94721435546875,-54.150001525878906,93.26250457763672,119.45625305175781
1777561207283214300,1.95721435546875,-51.187503814697266,95.0625,119.00625610351562
1777561207293214500,1.96721435546875,-51.187503814697266,95.0625,119.00625610351562
1777561207303214300,1.97721435546875,-49.23750305175781,94.42500305175781,118.8375015258789
1777561207313214500,1.98721435546875,-49.80000305175781,95.55000305175781,118.9312515258789
1777561207323214300,1.99721435546875,-48.11250305175781,96.39375305175781,119.60625457763672
1777561207333214500,2.00721435546875,-46.40625,95.64375305175781,115.33125305175781
1777561207343214300,2.01721435546875,-49.14375305175781,95.55000305175781,115.51875305175781
1777561207353214500,2.02721435546875,-47.306251525878906,95.70000457763672,114.78750610351562
1777561207363214300,2.03721435546875,-48.243751525878906,95.90625,117.11250305175781
1777561207373214500,2.04721435546875,-47.625,95.90625,116.25000762939453
1777561207383214300,2.05721435546875,-48.375003814697266,96.7125015258789,117.56250762939453
1777561207393214500,2.06721435546875,-48.13125228881836,95.28750610351562,117.97500610351562
1777561207403214300,2.07721435546875,-47.04375076293945,95.75625610351562,117.76875305175781
1777561207413214500,2.08721435546875,-44.306251525878906,95.51250457763672,117.91875457763672
1777561207423214300,2.09721435546875,-44.681251525878906,94.44375610351562,119.13750457763672
1777561207433214500,2.10721435546875,-45.86250305175781,94.66875457763672,118.0875015258789
1777561207443214300,2.11721435546875,-43.44375228881836,94.6500015258789,118.87500762939453
1777561207453214500,2.12721435546875,-42.65625,95.15625,117.95625305175781
1777561207463214300,2.13721435546875,-40.875,94.33125305175781,118.31250762939453
1777561207473214500,2.14721435546875,-43.875,94.875,117.78750610351562
1777561207483214300,2.15721435546875,-42.76875305175781,96.18750762939453,118.29375457763672
1777561207493214500,2.16721435546875,-39.39375305175781,97.40625762939453,118.16250610351562
1777561207503214300,2.17721435546875,-42.1875,95.34375,117.54375457763672
1777561207513214500,2.18721435546875,-43.38750076293945,95.98125457763672,117.7125015258789
1777561207523214300,2.19721435546875,-38.79375076293945,96.3375015258789,115.96875762939453
1777561207533214500,2.20721435546875,-41.53125,95.8687515258789,116.08125305175781
1777561207543214300,2.21721435546875,-44.15625,95.25,116.88750457763672
1777561207553214500,2.22721435546875,-41.23125076293945,95.70000457763672,114.91875457763672
1777561207563214300,2.23721435546875,-40.16250228881836,96.35625457763672,116.85000610351562
1777561207573214500,2.24721435546875,-40.63125228881836,95.8687515258789,116.90625762939453
1777561207583214300,2.25721435546875,-41.0625,95.92500305175781,114.8062515258789
1777561207593214500,2.26721435546875,-41.23125076293945,95.23125457763672,113.41875457763672
1777561207603214300,2.27721435546875,-42.95625305175781,94.125,115.21875762939453
1777561207613214500,2.28721435546875,-42.73125076293945,97.06875610351562,117.46875762939453
1777561207623214300,2.29721435546875,-44.90625,95.10000610351562,115.89375305175781
1777561207633214500,2.30721435546875,-44.04375076293945,98.23125457763672,116.04375457763672
1777561207643214300,2.31721435546875,-44.51250076293945,97.44375610351562,115.76250457763672
1777561207653214500,2.32721435546875,-44.47500228881836,98.06250762939453,114.03750610351562
1777561207663214300,2.33721435546875,-45.13125228881836,96.63750457763672,113.64375305175781
1777561207673214500,2.34721435546875,-42.806251525878906,96.84375762939453,110.79375457763672
1777561207683214300,2.35721435546875,-42.60000228881836,98.0250015258789,111.1500015258789
1777561207693214500,2.36721435546875,-44.28750228881836,98.94375610351562,114.0562515258789
1777561207703214300,2.37721435546875,-44.118751525878906,99.2437515258789,113.55000305175781
1777561207713214500,2.38721435546875,-45.48750305175781,98.2125015258789,111.56250762939453
1777561207723214300,2.39721435546875,-45.50625228881836,98.36250305175781,112.57500457763672
1777561207733214500,2.40721435546875,-45.50625228881836,98.36250305175781,112.57500457763672
1777561207743214300,2.41721435546875,-45.50625228881836,98.53125762939453,113.73750305175781
1777561207753214500,2.42721435546875,-46.23750305175781,98.9625015258789,112.42500305175781
1777561207763214300,2.43721435546875,-48.056251525878906,99.39375305175781,112.8375015258789
1777561207773214500,2.44721435546875,-49.368751525878906,99.9937515258789,110.0250015258789
1777561207783214300,2.45721435546875,-47.88750076293945,99.69375610351562,112.33125305175781
1777561207793214500,2.46721435546875,-49.70625305175781,99.30000305175781,111.31875610351562
1777561207803214300,2.47721435546875,-51.712501525878906,98.28750610351562,111.16875457763672
1777561207813214500,2.48721435546875,-54.150001525878906,98.5875015258789,111.4312515258789
1777561207823214300,2.49721435546875,-54.468753814697266,98.3062515258789,112.0875015258789
1777561207833214500,2.50721435546875,-55.66875076293945,97.8375015258789,110.62500762939453
1777561207843214300,2.51721435546875,-55.650001525878906,98.64375305175781,110.06250762939453
1777561207853214500,2.52721435546875,-57.187503814697266,98.04375457763672,110.28750610351562
1777561207863214300,2.53721435546875,-56.118751525878906,98.81250762939453,112.0875015258789
1777561207873214500,2.54721435546875,-55.968753814697266,98.15625762939453,111.11250305175781
1777561207883214300,2.55721435546875,-55.81875228881836,97.98750305175781,110.79375457763672
1777561207893214500,2.56721435546875,-57.39375305175781,96.67500305175781,110.3062515258789
1777561207903214300,2.57721435546875,-54.91875076293945,98.00625610351562,111.76875305175781
1777561207913214500,2.58721435546875,-56.88750076293945,98.41875457763672,112.03125762939453
1777561207923214300,2.59721435546875,-53.83125305175781,98.6812515258789,111.30000305175781
1777561207933214500,2.60721435546875,-54.39375305175781,100.0875015258789,111.45000457763672
1777561207953214500,2.62721435546875,-51.22500228881836,99.31875610351562,111.35625457763672
1777561207963214300,2.63721435546875,-51.431251525878906,97.9312515258789,111.22500610351562
1777561207973214500,2.64721435546875,-49.687503814697266,99.88125610351562,111.00000762939453
1777561207983214300,2.65721435546875,-47.41875076293945,99.69375610351562,112.31250762939453
1777561207993214500,2.66721435546875,-47.306251525878906,98.55000305175781,111.2437515258789
1777561208003214300,2.67721435546875,-45.76875305175781,99.63750457763672,112.81875610351562
1777561208013214500,2.68721435546875,-45.69375228881836,101.94375610351562,113.26875305175781
1777561208023214300,2.69721435546875,-43.3125,100.42500305175781,113.04375457763672
1777561208033214500,2.70721435546875,-45.46875,99.8062515258789,113.98125457763672
1777561208043214300,2.71721435546875,-45.618751525878906,99.4312515258789,112.21875762939453
1777561208053214500,2.72721435546875,-43.63125228881836,99.20625305175781,110.70000457763672
1777561208063214300,2.73721435546875,-44.118751525878906,98.28750610351562,111.2437515258789
1777561208073214500,2.74721435546875,-42.69375228881836,100.01250457763672,111.11250305175781
1777561208083214300,2.75721435546875,-44.681251525878906,99.37500762939453,111.0562515258789
1777561208093214500,2.76721435546875,-43.3125,100.3687515258789,112.76250457763672
1777561208103214300,2.77721435546875,-41.681251525878906,98.83125305175781,111.56250762939453
1777561208113214500,2.78721435546875,-43.48125076293945,98.66250610351562,110.45625305175781
1777561208123214300,2.79721435546875,-41.8125,98.51250457763672,110.25000762939453
1777561208133214500,2.80721435546875,-42.88125228881836,99.76875305175781,112.91250610351562
1777561208143214300,2.81721435546875,-41.400001525878906,99.39375305175781,114.63750457763672
1777561208153214500,2.82721435546875,-39.5625,99.4312515258789,114.88125610351562
1777561208163214300,2.83721435546875,-39.5625,99.4312515258789,114.88125610351562
1777561208173214500,2.84721435546875,-41.4375,98.1187515258789,114.39375305175781
1777561208183214300,2.85721435546875,-39.35625076293945,100.31250762939453,113.2125015258789
1777561208193214500,2.86721435546875,-37.931251525878906,98.43750762939453,114.91875457763672
1777561208203214300,2.87721435546875,-36.41250228881836,97.9312515258789,114.09375762939453
1777561208213214500,2.88721435546875,-37.35000228881836,97.95000457763672,114.95625305175781
1777561208223214300,2.89721435546875,-35.625,98.47500610351562,113.45625305175781
1777561208233214500,2.90721435546875,-37.81875228881836,97.50000762939453,114.46875762939453
1777561208243214300,2.91721435546875,-37.95000076293945,97.0875015258789,112.5562515258789
1777561208253214500,2.92721435546875,-38.17500305175781,99.50625610351562,113.71875762939453
1777561208263214300,2.93721435546875,-38.79375076293945,98.85000610351562,112.63125610351562
1777561208273214500,2.94721435546875,-38.83125305175781,98.4937515258789,114.39375305175781
1777561208283214300,2.95721435546875,-38.26875305175781,96.76875305175781,112.06875610351562
1777561208293214500,2.96721435546875,-38.75625228881836,100.23750305175781,113.60625457763672
1777561208303214300,2.97721435546875,-36.243751525878906,98.66250610351562,113.94375610351562
1777561208313214500,2.98721435546875,-39.375,99.56250762939453,112.35000610351562
1777561208323214300,2.99721435546875,-41.94375228881836,99.95625305175781,112.50000762939453
1777561208333214500,3.00721435546875,-40.29375076293945,99.28125762939453,111.3375015258789
1777561208343214300,3.01721435546875,-40.53750228881836,100.89375305175781,112.06875610351562
1777561208353214500,3.02721435546875,-41.17500305175781,100.21875762939453,112.51875305175781
1777561208363214300,3.03721435546875,-40.875,100.21875762939453,112.51875305175781
1777561208373214500,3.04721435546875,-39.525001525878906,99.65625762939453,112.0875015258789
1777561208383214300,3.05721435546875,-40.556251525878906,100.14375305175781,111.22500610351562
1777561208393214500,3.06721435546875,-38.13750076293945,99.82500457763672,111.67500305175781
1777561208403214300,3.07721435546875,-39.22500228881836,99.28125762939453,111.31875610351562
1777561208413214500,3.08721435546875,-38.75625228881836,100.03125762939453,112.14375305175781
1777561208423214300,3.09721435546875,-39.243751525878906,99.00000762939453,111.95625305175781
1777561208433214500,3.10721435546875,-41.13750076293945,101.64375305175781,113.79375457763672
1777561208443214300,3.11721435546875,-40.53750228881836,100.9312515258789,112.3687515258789
1777561208453214500,3.12721435546875,-38.56875228881836,100.72500610351562,111.84375762939453
1777561208463214300,3.13721435546875,-37.087501525878906,99.37500762939453,111.13125610351562
1777561208473214500,3.14721435546875,-38.75625228881836,99.39375305175781,110.32500457763672
1777561208483214300,3.15721435546875,-39.48750305175781,100.7437515258789,112.72500610351562
1777561208493214500,3.16721435546875,-40.25625228881836,100.89375305175781,113.75625610351562
1777561208503214300,3.17721435546875,-39.16875076293945,101.38125610351562,112.8375015258789
1777561208513214500,3.18721435546875,-39.16875076293945,101.3062515258789,112.40625762939453
1777561208523214300,3.19721435546875,-41.32500076293945,100.14375305175781,111.2437515258789
1777561208533214500,3.20721435546875,-41.25,101.90625762939453,110.45625305175781
1777561208543214300,3.21721435546875,-42.375,100.38750457763672,111.18750762939453
1777561208553214500,3.22721435546875,-40.368751525878906,99.9937515258789,108.50625610351562
1777561208573214500,3.24721435546875,-38.70000076293945,100.61250305175781,110.13750457763672
1777561208583214300,3.25721435546875,-41.08125305175781,101.17500305175781,108.0562515258789
1777561208593214500,3.26721435546875,-41.0625,102.22500610351562,109.23750305175781
1777561208603214300,3.27721435546875,-41.70000076293945,101.8687515258789,110.17500305175781
1777561208613214500,3.28721435546875,-41.70000076293945,101.8687515258789,110.17500305175781
1777561208623214300,3.29721435546875,-43.10625076293945,101.04375457763672,111.31875610351562
1777561208633214500,3.30721435546875,-41.55000305175781,101.8687515258789,111.01875305175781
1777561208643214300,3.31721435546875,-40.5,100.80000305175781,108.8062515258789
1777561208653214500,3.32721435546875,-39.26250076293945,101.56875610351562,109.06875610351562
1777561208663214300,3.33721435546875,-41.025001525878906,102.65625762939453,107.90625762939453
1777561208673214500,3.34721435546875,-40.29375076293945,101.60625457763672,106.70625305175781
1777561208683214300,3.35721435546875,-40.91250228881836,101.23125457763672,107.4937515258789
1777561208693214500,3.36721435546875,-40.931251525878906,100.72500610351562,106.68750762939453
1777561208703214300,3.37721435546875,-43.21875,100.85625457763672,107.47500610351562
1777561208713214500,3.38721435546875,-43.01250076293945,101.70000457763672,105.65625762939453
1777561208723214300,3.39721435546875,-44.66250228881836,102.63750457763672,106.87500762939453
1777561208733214500,3.40721435546875,-44.775001525878906,103.38750457763672,106.03125762939453
1777561208743214300,3.41721435546875,-46.01250076293945,101.85000610351562,104.08125305175781
1777561208753214500,3.42721435546875,-47.10000228881836,101.47500610351562,104.0250015258789
1777561208763214300,3.43721435546875,-45.58125305175781,100.29375457763672,101.92500305175781
1777561208773214500,3.44721435546875,-48,101.45625305175781,103.06875610351562
1777561208783214300,3.45721435546875,-49.48125076293945,101.64375305175781,101.73750305175781
1777561208793214500,3.46721435546875,-49.61250305175781,101.1187515258789,98.94375610351562
1777561208803214300,3.47721435546875,-52.70625305175781,101.23125457763672,102.30000305175781
1777561208813214500,3.48721435546875,-52.743751525878906,100.91250610351562,104.36250305175781
1777561208823214300,3.49721435546875,-54.150001525878906,100.2750015258789,105.11250305175781
1777561208833214500,3.50721435546875,-54.900001525878906,99.75000762939453,104.04375457763672
1777561208843214300,3.51721435546875,-53.98125076293945,100.35000610351562,104.70000457763672
1777561208853214500,3.52721435546875,-52.61250305175781,99.91875457763672,102.6187515258789
1777561208873214500,3.54721435546875,-56.41875076293945,99.30000305175781,102.60000610351562
1777561208883214300,3.55721435546875,-54.431251525878906,100.2750015258789,103.44375610351562
1777561208893214500,3.56721435546875,-55.181251525878906,100.89375305175781,104.98125457763672
1777561208903214300,3.57721435546875,-54.39375305175781,101.7750015258789,105.13125610351562
1777561208913214500,3.58721435546875,-55.61250305175781,102.60000610351562,108.1500015258789
1777561208923214300,3.59721435546875,-55.48125076293945,103.01250457763672,110.19375610351562
1777561208933214500,3.60721435546875,-53.17500305175781,103.57500457763672,109.81875610351562
1777561208943214300,3.61721435546875,-52.687503814697266,104.55000305175781,109.70625305175781
1777561208953214500,3.62721435546875,-51.60000228881836,101.0250015258789,110.26875305175781
1777561208963214300,3.63721435546875,-50.04375076293945,103.25625610351562,112.78125762939453
1777561208973214500,3.64721435546875,-49.275001525878906,102.76875305175781,111.95625305175781
1777561208983214300,3.65721435546875,-48.54375076293945,102.65625762939453,112.91250610351562
1777561208993214500,3.66721435546875,-47.94375228881836,102.45000457763672,112.42500305175781
1777561209003214300,3.67721435546875,-47.51250076293945,101.9625015258789,113.3062515258789
1777561209013214500,3.68721435546875,-43.837501525878906,102.9000015258789,113.81250762939453
1777561209023214300,3.69721435546875,-43.33125305175781,103.21875762939453,111.75000762939453
1777561209033214500,3.70721435546875,-43.96875,102.30000305175781,110.60625457763672
1777561209043214300,3.71721435546875,-43.96875,102.30000305175781,110.60625457763672
1777561209053214500,3.72721435546875,-42.39375305175781,103.3687515258789,109.35000610351562
1777561209063214300,3.73721435546875,-40.875,102.6187515258789,108.46875762939453
1777561209073214500,3.74721435546875,-42.35625076293945,102.9000015258789,106.16250610351562
1777561209083214300,3.75721435546875,-41.70000076293945,103.89375305175781,105.3375015258789
1777561209093214500,3.76721435546875,-41.88750076293945,103.57500457763672,106.5562515258789
1777561209103214300,3.77721435546875,-41.17500305175781,102.2437515258789,105.9937515258789
1777561209113214500,3.78721435546875,-41.00625228881836,101.92500305175781,104.66250610351562
1777561209123214300,3.79721435546875,-37.21875,100.98750305175781,102.54375457763672
1777561209133214500,3.80721435546875,-39.48750305175781,102.22500610351562,104.9625015258789
1777561209143214300,3.81721435546875,-39.11250305175781,98.4937515258789,101.55000305175781
1777561209153214500,3.82721435546875,-36.75,101.04375457763672,101.98125457763672
1777561209163214300,3.83721435546875,-37.23750305175781,100.25625610351562,101.70000457763672
1777561209173214500,3.84721435546875,-34.14375305175781,101.36250305175781,100.8375015258789
1777561209183214300,3.85721435546875,-34.14375305175781,100.61250305175781,99.9937515258789
1777561209193214500,3.86721435546875,-36.88125228881836,101.79375457763672,101.98125457763672
1777561209203214300,3.87721435546875,-34.16250228881836,101.28750610351562,102.95625305175781
1777561209213214500,3.88721435546875,-33.16875076293945,100.25625610351562,104.41875457763672
1777561209223214300,3.89721435546875,-36.82500076293945,100.23750305175781,105.07500457763672
1777561209233214500,3.90721435546875,-37.63125228881836,101.04375457763672,110.62500762939453
1777561209243214300,3.91721435546875,-37.63125228881836,100.20000457763672,109.05000305175781
1777561209253214500,3.92721435546875,-35.60625076293945,100.40625762939453,106.20000457763672
1777561209263214300,3.93721435546875,-36.22500228881836,101.25000762939453,108.63750457763672
1777561209273214500,3.94721435546875,-37.14375305175781,100.91250610351562,108.03750610351562
1777561209283214300,3.95721435546875,-38.53125,100.23750305175781,108.50625610351562
1777561209293214500,3.96721435546875,-37.21875,100.12500762939453,111.13125610351562
1777561209303214300,3.97721435546875,-39.431251525878906,102.86250305175781,114.54375457763672
1777561209313214500,3.98721435546875,-41.25,102.97500610351562,113.47500610351562
1777561209323214300,3.99721435546875,-39.88125228881836,103.06875610351562,114.16875457763672
1777561209333214500,4.00721435546875,-40.087501525878906,100.42500305175781,111.41250610351562
1777561209343214300,4.01721435546875,-39.1875,100.66875457763672,112.2750015258789
1777561209353214500,4.02721435546875,-39.431251525878906,102.16875457763672,112.29375457763672
1777561209363214300,4.03721435546875,-40.5,102.31875610351562,113.34375762939453
1777561209373214500,4.04721435546875,-38.41875076293945,101.6812515258789,114.9937515258789
1777561209383214300,4.05721435546875,-40.95000076293945,103.2750015258789,115.6500015258789
1777561209393214500,4.06721435546875,-40.181251525878906,102.7125015258789,113.4000015258789
1777561209403214300,4.07721435546875,-41.15625,100.89375305175781,112.9312515258789
1777561209413214500,4.08721435546875,-40.556251525878906,100.89375305175781,113.7750015258789
1777561209423214300,4.09721435546875,-37.21875,100.76250457763672,112.95000457763672
1777561209433214500,4.10721435546875,-38.8125,103.25625610351562,113.75625610351562
1777561209443214300,4.11721435546875,-39.60000228881836,102.82500457763672,115.10625457763672
1777561209453214500,4.12721435546875,-39.95625305175781,101.3062515258789,114.95625305175781
1777561209463214300,4.13721435546875,-36.86250305175781,102.46875762939453,114.39375305175781
1777561209473214500,4.14721435546875,-36.86250305175781,102.46875762939453,114.39375305175781
1777561209483214300,4.15721435546875,-40.06875228881836,101.53125762939453,113.0250015258789
1777561209493214500,4.16721435546875,-40.06875228881836,101.53125762939453,113.0250015258789
1777561209503214300,4.17721435546875,-38.4375,101.79375457763672,115.72500610351562
1777561209513214500,4.18721435546875,-38.400001525878906,102.22500610351562,114.39375305175781
1777561209523214300,4.19721435546875,-39.46875,101.38125610351562,112.8375015258789
1777561209533214500,4.20721435546875,-38.8125,102.91875457763672,113.9625015258789
1777561209543214300,4.21721435546875,-38.04375076293945,103.14375305175781,113.00625610351562
1777561209553214500,4.22721435546875,-37.63125228881836,101.55000305175781,112.40625762939453
1777561209563214300,4.23721435546875,-38.8125,102.76875305175781,112.95000457763672
1777561209573214500,4.24721435546875,-40.25625228881836,104.15625762939453,111.4312515258789
1777561209583214300,4.25721435546875,-39.54375076293945,103.80000305175781,113.17500305175781
1777561209593214500,4.26721435546875,-39.13125228881836,102.16875457763672,112.2750015258789
1777561209603214300,4.27721435546875,-39.993751525878906,103.72500610351562,112.7437515258789
1777561209613214500,4.28721435546875,-38.47500228881836,104.08125305175781,113.47500610351562
1777561209623214300,4.29721435546875,-38.83125305175781,102.22500610351562,113.55000305175781
1777561209633214500,4.30721435546875,-40.462501525878906,103.31250762939453,113.23125457763672
1777561209643214300,4.31721435546875,-39.993751525878906,103.14375305175781,111.22500610351562
1777561209653214500,4.32721435546875,-38.73750305175781,104.51250457763672,112.16250610351562
1777561209663214300,4.33721435546875,-42.41250228881836,103.68750762939453,111.5250015258789
1777561209673214500,4.34721435546875,-41.00625228881836,104.4937515258789,111.91875457763672
1777561209683214300,4.35721435546875,-38.70000076293945,104.94375610351562,110.83125305175781
1777561209693214500,4.36721435546875,-41.025001525878906,105.13125610351562,113.73750305175781
1777561209703214300,4.37721435546875,-41.15625,105.5250015258789,113.9625015258789
1777561209713214500,4.38721435546875,-41.60625076293945,105.5250015258789,113.98125457763672
1777561209723214300,4.39721435546875,-40.98750305175781,105.16875457763672,112.33125305175781
1777561209733214500,4.40721435546875,-44.53125,104.71875762939453,113.47500610351562
1777561209743214300,4.41721435546875,-42.5625,103.96875762939453,112.57500457763672
1777561209753214500,4.42721435546875,-46.14375305175781,106.05000305175781,113.2125015258789
1777561209763214300,4.43721435546875,-47.025001525878906,106.01250457763672,111.2437515258789
1777561209773214500,4.44721435546875,-48.54375076293945,105.86250305175781,110.13750457763672
1777561209783214300,4.45721435546875,-49.42500305175781,106.1812515258789,109.80000305175781
1777561209793214500,4.46721435546875,-52.650001525878906,106.16250610351562,112.12500762939453
1777561209803214300,4.47721435546875,-52.85625076293945,104.4937515258789,110.98125457763672
1777561209813214500,4.48721435546875,-53.32500076293945,104.70000457763672,112.44375610351562
1777561209823214300,4.49721435546875,-53.47500228881836,104.4000015258789,111.11250305175781
1777561209833214500,4.50721435546875,-52.406253814697266,104.41875457763672,111.37500762939453
1777561209843214300,4.51721435546875,-53.66250228881836,103.21875762939453,110.75625610351562
1777561209853214500,4.52721435546875,-54.41250228881836,103.70625305175781,111.56250762939453
1777561209863214300,4.53721435546875,-55.20000076293945,102.6187515258789,110.9625015258789
1777561209873214500,4.54721435546875,-56.681251525878906,103.87500762939453,110.9625015258789
1777561209883214300,4.55721435546875,-55.687503814697266,106.33125305175781,111.54375457763672
1777561209893214500,4.56721435546875,-54.806251525878906,104.98125457763672,109.98750305175781
1777561209903214300,4.57721435546875,-53.906253814697266,103.96875762939453,108.22500610351562
1777561209913214500,4.58721435546875,-53.906253814697266,103.96875762939453,108.22500610351562
1777561209923214300,4.59721435546875,-54.618751525878906,105.46875762939453,109.9312515258789
1777561209933214500,4.60721435546875,-55.42500305175781,104.62500762939453,110.08125305175781
1777561209943214300,4.61721435546875,-50.98125076293945,105.30000305175781,109.66875457763672
1777561209963214300,4.63721435546875,-47.681251525878906,104.62500762939453,99.9937515258789
1777561209973214500,4.64721435546875,-50.32500076293945,105.13125610351562,105.09375762939453
1777561209983214300,4.65721435546875,-51.01875305175781,105.16875457763672,111.3375015258789
1777561209993214500,4.66721435546875,-49.20000076293945,104.90625762939453,111.2437515258789
1777561210003214300,4.67721435546875,-46.44375228881836,105.69375610351562,112.44375610351562
1777561210013214500,4.68721435546875,-46.181251525878906,104.41875457763672,112.20000457763672
1777561210023214300,4.69721435546875,-43.743751525878906,104.38125610351562,111.13125610351562
1777561210033214500,4.70721435546875,-44.60625076293945,105.76875305175781,111.28125762939453
1777561210043214300,4.71721435546875,-41.41875076293945,105.28125762939453,110.53125762939453
1777561210053214500,4.72721435546875,-40.931251525878906,106.03125762939453,109.68750762939453
1777561210063214300,4.73721435546875,-39.375,107.4000015258789,110.60625457763672
1777561210073214500,4.74721435546875,-39.712501525878906,106.9312515258789,112.50000762939453
1777561210083214300,4.75721435546875,-39.431251525878906,106.40625762939453,112.25625610351562
1777561210093214500,4.76721435546875,-39.84375,107.36250305175781,112.03125762939453
1777561210103214300,4.77721435546875,-39.337501525878906,104.51250457763672,111.31875610351562
1777561210113214500,4.78721435546875,-40.06875228881836,105.20625305175781,111.75000762939453
1777561210123214300,4.79721435546875,-40.38750076293945,105.37500762939453,112.9312515258789
1777561210133214500,4.80721435546875,-36.69375228881836,106.16250610351562,111.56250762939453
1777561210143214300,4.81721435546875,-36.431251525878906,105.63750457763672,113.00625610351562
1777561210153214500,4.82721435546875,-36.88125228881836,105.95625305175781,113.51250457763672
1777561210163214300,4.83721435546875,-37.57500076293945,103.6500015258789,113.94375610351562
1777561210173214500,4.84721435546875,-34.51875305175781,103.95000457763672,113.4937515258789
1777561210183214300,4.85721435546875,-36.31875228881836,103.96875762939453,111.84375762939453
1777561210193214500,4.86721435546875,-35.55000305175781,104.34375762939453,111.9000015258789
1777561210203214300,4.87721435546875,-35.025001525878906,102.5250015258789,113.08125305175781
1777561210213214500,4.88721435546875,-34.931251525878906,105.3375015258789,113.62500762939453
1777561210223214300,4.89721435546875,-35.587501525878906,104.28750610351562,114.00000762939453
1777561210233214500,4.90721435546875,-32.45625305175781,106.35000610351562,112.91250610351562
1777561210243214300,4.91721435546875,-33.91875076293945,102.95625305175781,111.73125457763672
1777561210253214500,4.92721435546875,-33.11250305175781,104.43750762939453,111.7125015258789
1777561210263214300,4.93721435546875,-36.26250076293945,105.46875762939453,111.00000762939453
1777561210273214500,4.94721435546875,-37.16250228881836,106.59375762939453,113.64375305175781
1777561210283214300,4.95721435546875,-37.53750228881836,105.1500015258789,115.63125610351562
1777561210293214500,4.96721435546875,-37.5,105.46875762939453,113.56875610351562
1777561210303214300,4.97721435546875,-36.78750228881836,104.71875762939453,114.39375305175781
1777561210313214500,4.98721435546875,-35.47500228881836,107.23125457763672,114.56250762939453
1777561210323214300,4.99721435546875,-36.41250228881836,106.80000305175781,115.06875610351562
1777561210333214500,5.00721435546875,-37.61250305175781,106.2750015258789,113.17500305175781
1777561210343214300,5.01721435546875,-37.931251525878906,106.6500015258789,113.94375610351562
1777561210353214500,5.02721435546875,-37.931251525878906,106.6500015258789,113.94375610351562
1777561210363214300,5.03721435546875,-38.26875305175781,105.6187515258789,114.6187515258789
1777561210373214500,5.04721435546875,-38.26875305175781,105.6187515258789,114.6187515258789
1777561210383214300,5.05721435546875,-37.95000076293945,106.06875610351562,114.26250457763672
1777561210393214500,5.06721435546875,-36.48750305175781,104.66250610351562,114.95625305175781
1777561210403214300,5.07721435546875,-36.993751525878906,103.44375610351562,115.14375305175781
1777561210413214500,5.08721435546875,-36.95625305175781,104.88750457763672,116.41875457763672
1777561210423214300,5.09721435546875,-36.91875076293945,104.71875762939453,113.55000305175781
1777561210433214500,5.10721435546875,-34.63125228881836,104.45625305175781,111.75000762939453
1777561210443214300,5.11721435546875,-35.26875305175781,104.32500457763672,114.28125762939453
1777561210453214500,5.12721435546875,-37.53750228881836,105.07500457763672,115.20000457763672
1777561210463214300,5.13721435546875,-35.400001525878906,105.6187515258789,115.51875305175781
1777561210473214500,5.14721435546875,-34.931251525878906,105.30000305175781,113.32500457763672
1777561210483214300,5.15721435546875,-36.46875,104.3062515258789,112.48125457763672
1777561210493214500,5.16721435546875,-33.056251525878906,106.72500610351562,114.54375457763672
1777561210503214300,5.17721435546875,-34.76250076293945,106.20000457763672,114.3375015258789
1777561210513214500,5.18721435546875,-36.78750228881836,104.1187515258789,112.87500762939453
1777561210523214300,5.19721435546875,-34.76250076293945,105.16875457763672,111.6187515258789
1777561210533214500,5.20721435546875,-30.806251525878906,104.75625610351562,111.28125762939453
1777561210543214300,5.21721435546875,-33.525001525878906,105.30000305175781,110.75625610351562
1777561210553214500,5.22721435546875,-32.41875076293945,104.98125457763672,107.70000457763672
1777561210563214300,5.23721435546875,-32.45625305175781,104.43750762939453,108.30000305175781
1777561210573214500,5.24721435546875,-32.962501525878906,103.57500457763672,109.14375305175781
1777561210583214300,5.25721435546875,-33.67500305175781,105.45000457763672,110.92500305175781
1777561210593214500,5.26721435546875,-35.23125076293945,105.45000457763672,113.51250457763672
1777561210603214300,5.27721435546875,-34.125,106.10625457763672,112.05000305175781
1777561210613214500,5.28721435546875,-36.11250305175781,105.95625305175781,113.4937515258789
1777561210623214300,5.29721435546875,-34.53750228881836,107.60625457763672,113.75625610351562
1777561210633214500,5.30721435546875,-36.67500305175781,107.0250015258789,113.13750457763672
1777561210643214300,5.31721435546875,-35.587501525878906,107.75625610351562,113.1187515258789
1777561210653214500,5.32721435546875,-36.31875228881836,108.73125457763672,112.89375305175781
1777561210663214300,5.33721435546875,-36.337501525878906,108.56250762939453,114.28125762939453
1777561210673214500,5.34721435546875,-36.97500228881836,106.70625305175781,110.98125457763672
1777561210683214300,5.35721435546875,-37.125,106.6500015258789,111.39375305175781
1777561210693214500,5.36721435546875,-36.13125228881836,108.56250762939453,110.88750457763672
1777561210703214300,5.37721435546875,-38.56875228881836,107.83125305175781,109.25625610351562
1777561210713214500,5.38721435546875,-37.556251525878906,106.68750762939453,110.00625610351562
1777561210723214300,5.39721435546875,-38.60625076293945,107.04375457763672,109.81875610351562
1777561210733214500,5.40721435546875,-39.806251525878906,108.7125015258789,112.70625305175781
1777561210743214300,5.41721435546875,-40.70625305175781,109.01250457763672,112.21875762939453
1777561210753214500,5.42721435546875,-43.10625076293945,109.14375305175781,111.31875610351562
1777561210763214300,5.43721435546875,-45.54375076293945,109.3687515258789,111.9937515258789
1777561210773214500,5.44721435546875,-45.09375,108.65625762939453,110.56875610351562
1777561210783214300,5.45721435546875,-48.54375076293945,109.59375762939453,109.29375457763672
1777561210793214500,5.46721435546875,-48.54375076293945,109.59375762939453,109.29375457763672
1777561210803214300,5.47721435546875,-49.500003814697266,108.69375610351562,110.70000457763672
1777561210813214500,5.48721435546875,-49.33125305175781,108.58125305175781,109.12500762939453
1777561210823214300,5.49721435546875,-52.556251525878906,107.5875015258789,109.16250610351562
1777561210833214500,5.50721435546875,-51.91875076293945,108.60000610351562,109.1812515258789
1777561210843214300,5.51721435546875,-54.16875076293945,109.63125610351562,109.44375610351562
1777561210853214500,5.52721435546875,-55.42500305175781,108.88125610351562,111.16875457763672
1777561210863214300,5.53721435546875,-53.493751525878906,108.18750762939453,112.40625762939453
1777561210873214500,5.54721435546875,-54.525001525878906,107.92500305175781,109.68750762939453
1777561210883214300,5.55721435546875,-56.962501525878906,107.79375457763672,109.59375762939453
1777561210893214500,5.56721435546875,-58.06875228881836,106.87500762939453,110.15625762939453
1777561210903214300,5.57721435546875,-55.462501525878906,108.30000305175781,111.3375015258789
1777561210913214500,5.58721435546875,-56.493751525878906,108.58125305175781,110.71875762939453
1777561210923214300,5.59721435546875,-56.493751525878906,108.73125457763672,110.04375457763672
1777561210933214500,5.60721435546875,-57.093753814697266,108.6187515258789,110.17500305175781
1777561210943214300,5.61721435546875,-54.843753814697266,108.88125610351562,112.01250457763672
1777561210953214500,5.62721435546875,-56.493751525878906,108.73125457763672,110.04375457763672
1777561210963214300,5.63721435546875,-56.32500076293945,109.06875610351562,110.66250610351562
1777561210973214500,5.64721435546875,-55.42500305175781,109.42500305175781,112.25625610351562
1777561210983214300,5.65721435546875,-51.95625305175781,108.93750762939453,113.2125015258789
1777561210993214500,5.66721435546875,-51.525001525878906,107.41875457763672,110.51250457763672
1777561211003214300,5.67721435546875,-49.368751525878906,108.8062515258789,112.40625762939453
1777561211013214500,5.68721435546875,-47.60625076293945,108.13125610351562,114.63750457763672
1777561211023214300,5.69721435546875,-46.087501525878906,108.18750762939453,115.03125762939453
1777561211033214500,5.70721435546875,-46.57500076293945,107.43750762939453,115.03125762939453
1777561211043214300,5.71721435546875,-44.71875,108.07500457763672,115.10625457763672
1777561211053214500,5.72721435546875,-42.30000305175781,107.85000610351562,114.4312515258789
1777561211063214300,5.73721435546875,-39.431251525878906,107.13750457763672,114.78750610351562
1777561211073214500,5.74721435546875,-39.9375,105.11250305175781,112.01250457763672
1777561211083214300,5.75721435546875,-38.36250305175781,107.25000762939453,113.79375457763672
1777561211093214500,5.76721435546875,-36.07500076293945,107.1187515258789,113.00625610351562
1777561211103214300,5.77721435546875,-35.51250076293945,105.88125610351562,113.88750457763672
1777561211113214500,5.78721435546875,-35.34375,106.33125305175781,113.53125762939453
1777561211123214300,5.79721435546875,-35.212501525878906,106.35000610351562,115.3687515258789
1777561211133214500,5.80721435546875,-36.73125076293945,106.20000457763672,114.39375305175781
1777561211143214300,5.81721435546875,-38.53125,107.45625305175781,116.10000610351562
1777561211153214500,5.82721435546875,-37.95000076293945,106.1812515258789,114.9937515258789
1777561211163214300,5.83721435546875,-36.69375228881836,107.26875305175781,114.88125610351562
1777561211173214500,5.84721435546875,-34.5,105.65625762939453,116.64375305175781
1777561211183214300,5.85721435546875,-34.91250228881836,107.00625610351562,116.47500610351562
1777561211193214500,5.86721435546875,-36.22500228881836,107.53125762939453,114.91875457763672
1777561211203214300,5.87721435546875,-34.14375305175781,106.4625015258789,114.5250015258789
1777561211213214500,5.88721435546875,-35.66250228881836,106.6500015258789,115.72500610351562
1777561211223214300,5.89721435546875,-35.66250228881836,106.6500015258789,115.72500610351562
1777561211233214500,5.90721435546875,-31.537500381469727,107.26875305175781,115.7437515258789
1777561211243214300,5.91721435546875,-36.13125228881836,106.10625457763672,114.50625610351562
1777561211253214500,5.92721435546875,-36.13125228881836,106.10625457763672,114.50625610351562
1777561211263214300,5.93721435546875,-35.212501525878906,105.88125610351562,113.8687515258789
1777561211273214500,5.94721435546875,-34.10625076293945,107.36250305175781,114.69375610351562
1777561211283214300,5.95721435546875,-35.56875228881836,104.9625015258789,114.41250610351562
1777561211293214500,5.96721435546875,-36.993751525878906,107.17500305175781,114.16875457763672
1777561211303214300,5.97721435546875,-37.20000076293945,106.10625457763672,114.54375457763672
1777561211313214500,5.98721435546875,-35.962501525878906,106.8375015258789,116.19375610351562
1777561211323214300,5.99721435546875,-35.51250076293945,106.68750762939453,115.16250610351562
1777561211333214500,6.00721435546875,-36.39375305175781,107.5875015258789,116.2125015258789
1777561211343214300,6.01721435546875,-35.15625,107.8687515258789,114.67500305175781
1777561211353214500,6.02721435546875,-35.306251525878906,107.15625762939453,113.26875305175781
1777561211363214300,6.03721435546875,-36.30000305175781,106.10625457763672,115.35000610351562
1777561211373214500,6.04721435546875,-35.88750076293945,108.56250762939453,115.10625457763672
1777561211383214300,6.05721435546875,-34.59375,105.93750762939453,113.43750762939453
1777561211393214500,6.06721435546875,-36.26250076293945,106.48125457763672,113.73750305175781
1777561211403214300,6.07721435546875,-33.60000228881836,108.4312515258789,114.31875610351562
1777561211413214500,6.08721435546875,-35.25,104.9625015258789,114.41250610351562
1777561211423214300,6.09721435546875,-33.69375228881836,106.29375457763672,115.05000305175781
1777561211433214500,6.10721435546875,-32.32500076293945,105.76875305175781,114.0562515258789
1777561211443214300,6.11721435546875,-33.5625,105.88125610351562,114.82500457763672
1777561211453214500,6.12721435546875,-31.537500381469727,107.3062515258789,116.0250015258789
1777561211463214300,6.13721435546875,-33.69375228881836,105.86250305175781,113.83125305175781
1777561211473214500,6.14721435546875,-30.95625114440918,106.10625457763672,113.81250762939453
1777561211483214300,6.15721435546875,-32.775001525878906,106.4625015258789,114.48750305175781
1777561211493214500,6.16721435546875,-31.23750114440918,106.23750305175781,112.98750305175781
1777561211503214300,6.17721435546875,-30.937501907348633,105.86250305175781,112.06875610351562
1777561211513214500,6.18721435546875,-32.19375228881836,105.31875610351562,114.39375305175781
1777561211523214300,6.19721435546875,-32.17500305175781,105.7125015258789,112.78125762939453
1777561211533214500,6.20721435546875,-29.718751907348633,106.29375457763672,113.38125610351562
1777561211543214300,6.21721435546875,-32.53125,105.00000762939453,114.76875305175781
1777561211553214500,6.22721435546875,-33.22500228881836,106.1812515258789,114.30000305175781
1777561211563214300,6.23721435546875,-32.94375228881836,105.26250457763672,112.29375457763672
1777561211573214500,6.24721435546875,-30.131250381469727,106.78125762939453,111.50625610351562
1777561211583214300,6.25721435546875,-32.00625228881836,105.39375305175781,111.4312515258789
1777561211593214500,6.26721435546875,-30.750001907348633,107.62500762939453,113.94375610351562
1777561211603214300,6.27721435546875,-31.98750114440918,106.98750305175781,113.8687515258789
1777561211613214500,6.28721435546875,-30.506250381469727,105.60000610351562,112.85625457763672
1777561211623214300,6.29721435546875,-32.45625305175781,105.8062515258789,111.67500305175781
1777561211633214500,6.30721435546875,-32.118751525878906,106.81875610351562,111.86250305175781
1777561211643214300,6.31721435546875,-31.650001525878906,106.78125762939453,111.54375457763672
1777561211653214500,6.32721435546875,-33.1875,106.29375457763672,110.79375457763672
1777561211663214300,6.33721435546875,-33.1875,106.29375457763672,110.79375457763672
1777561211673214500,6.34721435546875,-33.91875076293945,107.10000610351562,111.95625305175781
1777561211683214300,6.35721435546875,-34.01250076293945,108.50625610351562,111.37500762939453
1777561211693214500,6.36721435546875,-33.69375228881836,109.03125762939453,110.7750015258789
1777561211703214300,6.37721435546875,-36.337501525878906,107.13750457763672,110.47500610351562
1777561211713214500,6.38721435546875,-34.29375076293945,108.3375015258789,109.38750457763672
1777561211723214300,6.39721435546875,-36.01875305175781,107.81250762939453,110.8687515258789
1777561211733214500,6.40721435546875,-35.36250305175781,108.3375015258789,109.40625762939453
1777561211743214300,6.41721435546875,-36.243751525878906,108.67500305175781,108.22500610351562
1777561211753214500,6.42721435546875,-40.087501525878906,107.3062515258789,107.36250305175781
1777561211763214300,6.43721435546875,-39.20625305175781,107.45625305175781,110.04375457763672
1777561211773214500,6.44721435546875,-42.78750228881836,109.23750305175781,110.34375762939453
1777561211783214300,6.45721435546875,-40.91250228881836,111.00000762939453,110.4937515258789
1777561211793214500,6.46721435546875,-43.66875076293945,109.42500305175781,108.1500015258789
1777561211813214500,6.48721435546875,-43.462501525878906,110.32500457763672,106.61250305175781
1777561211823214300,6.49721435546875,-45.712501525878906,110.98125457763672,106.80000305175781
1777561211833214500,6.50721435546875,-48.16875076293945,110.00625610351562,106.10625457763672
1777561211843214300,6.51721435546875,-47.118751525878906,110.51250457763672,107.8687515258789
1777561211853214500,6.52721435546875,-48.20625305175781,109.98750305175781,107.66250610351562
1777561211863214300,6.53721435546875,-50.83125305175781,109.12500762939453,108.56250762939453
1777561211873214500,6.54721435546875,-49.16250228881836,109.01250457763672,108.63750457763672
1777561211883214300,6.55721435546875,-50.19375228881836,110.04375457763672,108.86250305175781
1777561211893214500,6.56721435546875,-47.4375,110.94375610351562,109.95000457763672
1777561211903214300,6.57721435546875,-47.75625228881836,110.3062515258789,109.8375015258789
1777561211913214500,6.58721435546875,-48.712501525878906,108.60000610351562,107.55000305175781
1777561211923214300,6.59721435546875,-47.41875076293945,110.66250610351562,108.0562515258789
1777561211933214500,6.60721435546875,-47.587501525878906,110.71875762939453,109.35000610351562
1777561211943214300,6.61721435546875,-47.775001525878906,110.0250015258789,110.47500610351562
1777561211953214500,6.62721435546875,-45.50625228881836,109.05000305175781,108.11250305175781
1777561211963214300,6.63721435546875,-45.900001525878906,110.75625610351562,108.73125457763672
1777561211973214500,6.64721435546875,-43.78125,110.73750305175781,109.51875305175781
1777561211983214300,6.65721435546875,-43.556251525878906,109.78125762939453,111.45000457763672
1777561211993214500,6.66721435546875,-43.275001525878906,109.51875305175781,113.08125305175781
1777561212003214300,6.67721435546875,-41.60625076293945,108.84375762939453,111.93750762939453
1777561212013214500,6.68721435546875,-40.53750228881836,108.73125457763672,111.16875457763672
1777561212023214300,6.69721435546875,-42.50625228881836,109.35000610351562,111.9000015258789
1777561212033214500,6.70721435546875,-42.20625305175781,109.40625762939453,112.33125305175781
1777561212043214300,6.71721435546875,-40.556251525878906,107.62500762939453,109.5562515258789
1777561212053214500,6.72721435546875,-37.80000305175781,107.71875762939453,108.50625610351562
1777561212063214300,6.73721435546875,-38.25,108.6187515258789,110.38125610351562
1777561212073214500,6.74721435546875,-37.3125,109.21875762939453,109.35000610351562
1777561212083214300,6.75721435546875,-37.78125,108.9000015258789,109.72500610351562
1777561212093214500,6.76721435546875,-37.78125,108.9000015258789,109.72500610351562
1777561212103214300,6.77721435546875,-37.35000228881836,108.46875762939453,110.19375610351562
1777561212113214500,6.78721435546875,-38.36250305175781,110.06250762939453,110.94375610351562
1777561212123214300,6.79721435546875,-35.34375,108.88125610351562,108.8062515258789
1777561212133214500,6.80721435546875,-35.32500076293945,110.10000610351562,111.1500015258789
1777561212143214300,6.81721435546875,-36.88125228881836,108.41250610351562,109.89375305175781
1777561212153214500,6.82721435546875,-36.60000228881836,107.56875610351562,108.30000305175781
1777561212163214300,6.83721435546875,-36.525001525878906,108.93750762939453,107.43750762939453
1777561212173214500,6.84721435546875,-33.73125076293945,110.94375610351562,108.45000457763672
1777561212183214300,6.85721435546875,-35.34375,108.2437515258789,106.98750305175781
1777561212193214500,6.86721435546875,-33.618751525878906,109.40625762939453,107.3062515258789
1777561212203214300,6.87721435546875,-33.65625,108.76875305175781,107.19375610351562
1777561212213214500,6.88721435546875,-34.6875,109.8375015258789,107.70000457763672
1777561212223214300,6.89721435546875,-35.493751525878906,107.88750457763672,107.06250762939453
1777561212233214500,6.90721435546875,-36.63750076293945,110.85000610351562,108.65625762939453
1777561212243214300,6.91721435546875,-36.22500228881836,109.63125610351562,108.82500457763672
1777561212253214500,6.92721435546875,-35.28750228881836,110.06250762939453,108.31875610351562
1777561212263214300,6.93721435546875,-37.59375,109.42500305175781,108.26250457763672
1777561212273214500,6.94721435546875,-38.0625,108.69375610351562,107.43750762939453
1777561212283214300,6.95721435546875,-37.25625228881836,109.48125457763672,106.85625457763672
1777561212293214500,6.96721435546875,-37.3125,108.35625457763672,107.7750015258789
1777561212303214300,6.97721435546875,-37.53750228881836,110.8687515258789,107.83125305175781
1777561212313214500,6.98721435546875,-38.34375,109.38750457763672,108.00000762939453
1777561212323214300,6.99721435546875,-38.17500305175781,109.96875762939453,108.5250015258789
1777561212333214500,7.00721435546875,-36.75,111.20625305175781,107.5875015258789
1777561212343214300,7.01721435546875,-38.118751525878906,110.92500305175781,106.59375762939453
1777561212353214500,7.02721435546875,-37.650001525878906,111.07500457763672,105.9000015258789
1777561212363214300,7.03721435546875,-36.41250228881836,111.07500457763672,105.01875305175781
1777561212373214500,7.04721435546875,-38.13750076293945,110.28750610351562,106.4625015258789
1777561212383214300,7.05721435546875,-34.20000076293945,109.66875457763672,105.67500305175781
1777561212393214500,7.06721435546875,-33.618751525878906,108.76875305175781,104.64375305175781
1777561212403214300,7.07721435546875,-32.681251525878906,109.76250457763672,106.3687515258789
1777561212413214500,7.08721435546875,-30.412500381469727,110.17500305175781,107.51250457763672
1777561212423214300,7.09721435546875,-30.337501525878906,108.20625305175781,107.70000457763672
1777561212433214500,7.10721435546875,-28.087501525878906,106.7437515258789,106.23750305175781
1777561212443214300,7.11721435546875,-28.200000762939453,107.17500305175781,104.06250762939453
1777561212453214500,7.12721435546875,-24.975000381469727,108.4312515258789,105.0562515258789
1777561212463214300,7.13721435546875,-24.543750762939453,107.79375457763672,104.92500305175781
1777561212473214500,7.14721435546875,-24.131250381469727,105.8062515258789,103.25625610351562
1777561212483214300,7.15721435546875,-22.89375114440918,106.0875015258789,102.58125305175781
1777561212493214500,7.16721435546875,-20.943750381469727,105.7125015258789,103.44375610351562
1777561212503214300,7.17721435546875,-21.11250114440918,104.3062515258789,101.47500610351562
1777561212513214500,7.18721435546875,-20.325000762939453,104.79375457763672,100.57500457763672
1777561212523214300,7.19721435546875,-20.212501525878906,103.78125762939453,100.51875305175781
1777561212533214500,7.20721435546875,-20.212501525878906,103.78125762939453,100.51875305175781
1777561212543214300,7.21721435546875,-19.631250381469727,103.23750305175781,100.25625610351562
1777561212553214500,7.22721435546875,-18.375,103.70625305175781,99.18750762939453
1777561212563214300,7.23721435546875,-17.887500762939453,103.50000762939453,96.86250305175781
1777561212573214500,7.24721435546875,-18.825000762939453,103.06875610351562,97.38750457763672
1777561212583214300,7.25721435546875,-15.05625057220459,102.56250762939453,98.17500305175781
1777561212593214500,7.26721435546875,-15.956250190734863,101.56875610351562,93.9000015258789
1777561212603214300,7.27721435546875,-15.750000953674316,102.30000305175781,92.0625
1777561212613214500,7.28721435546875,-16.368751525878906,102.46875762939453,94.0875015258789
1777561212623214300,7.29721435546875,-14.850000381469727,102.09375762939453,93.28125
1777561212633214500,7.30721435546875,-15.937500953674316,100.4625015258789,90.60000610351562
1777561212643214300,7.31721435546875,-16.631250381469727,103.1812515258789,92.1187515258789
1777561212653214500,7.32721435546875,-15.768750190734863,101.25000762939453,90.88125610351562
1777561212663214300,7.33721435546875,-14.250000953674316,101.60625457763672,91.61250305175781
1777561212673214500,7.34721435546875,-16.387500762939453,99.69375610351562,87.91875457763672
1777561212683214300,7.35721435546875,-15.112500190734863,101.51250457763672,87.5250015258789
1777561212693214500,7.36721435546875,-16.068750381469727,100.23750305175781,88.14375305175781
1777561212703214300,7.37721435546875,-15.15000057220459,100.9312515258789,89.53125
1777561212713214500,7.38721435546875,-13.631250381469727,100.31250762939453,87.95625305175781
1777561212723214300,7.39721435546875,-15.90000057220459,101.04375457763672,88.59375
1777561212733214500,7.40721435546875,-16.068750381469727,100.29375457763672,88.59375
1777561212743214300,7.41721435546875,-15.487500190734863,99.69375610351562,88.7437515258789
1777561212753214500,7.42721435546875,-16.631250381469727,101.08125305175781,86.36250305175781
1777561212763214300,7.43721435546875,-15.71250057220459,101.36250305175781,87.375
1777561212773214500,7.44721435546875,-16.012500762939453,101.7750015258789,88.44375610351562
1777561212783214300,7.45721435546875,-17.193750381469727,102.58125305175781,87.22500610351562
1777561212793214500,7.46721435546875,-15.768750190734863,99.5250015258789,85.89375305175781
1777561212803214300,7.47721435546875,-18.28125,101.36250305175781,85.61250305175781
1777561212813214500,7.48721435546875,-16.556251525878906,103.12500762939453,87.45000457763672
1777561212823214300,7.49721435546875,-18.75,100.66875457763672,85.20000457763672
1777561212833214500,7.50721435546875,-21.5625,104.17500305175781,88.63125610351562
1777561212843214300,7.51721435546875,-22.14375114440918,104.60625457763672,89.00625610351562
1777561212853214500,7.52721435546875,-21.01875114440918,105.48750305175781,86.60625457763672
1777561212863214300,7.53721435546875,-24.075000762939453,105.84375762939453,89.00625610351562
1777561212873214500,7.54721435546875,-24.375001907348633,105.69375610351562,87.86250305175781
1777561212883214300,7.55721435546875,-25.51875114440918,107.34375762939453,86.38125610351562
1777561212893214500,7.56721435546875,-28.14375114440918,106.61250305175781,88.14375305175781
1777561212903214300,7.57721435546875,-30.431251525878906,106.61250305175781,88.20000457763672
1777561212913214500,7.58721435546875,-30.975000381469727,107.43750762939453,86.1187515258789
1777561212923214300,7.59721435546875,-33.35625076293945,109.51875305175781,88.40625
1777561212933214500,7.60721435546875,-33.41250228881836,108.2437515258789,88.16250610351562
1777561212943214300,7.61721435546875,-35.83125305175781,108.67500305175781,88.59375
1777561212953214500,7.62721435546875,-35.83125305175781,108.26250457763672,87.39375305175781
1777561212963214300,7.63721435546875,-37.14375305175781,109.12500762939453,85.61250305175781
1777561212973214500,7.64721435546875,-37.14375305175781,109.12500762939453,85.61250305175781
1777561212983214300,7.65721435546875,-39.431251525878906,108.48750305175781,85.5562515258789
1777561212993214500,7.66721435546875,-40.33125305175781,109.40625762939453,86.73750305175781
1777561213003214300,7.67721435546875,-42.16875076293945,108.88125610351562,85.5562515258789
1777561213013214500,7.68721435546875,-42.712501525878906,109.2750015258789,82.25625610351562
1777561213023214300,7.69721435546875,-44.13750076293945,108.88125610351562,85.61250305175781
1777561213033214500,7.70721435546875,-43.6875,108.88125610351562,85.59375
1777561213043214300,7.71721435546875,-44.400001525878906,109.96875762939453,86.25
1777561213053214500,7.72721435546875,-44.88750076293945,107.8687515258789,82.89375305175781
1777561213063214300,7.73721435546875,-47.60625076293945,109.1812515258789,84.20625305175781
1777561213073214500,7.74721435546875,-45.67500305175781,108.8062515258789,86.75625610351562
1777561213083214300,7.75721435546875,-48.26250076293945,107.73750305175781,83.66250610351562
1777561213093214500,7.76721435546875,-48.937503814697266,106.20000457763672,85.0875015258789
1777561213103214300,7.77721435546875,-47.90625,109.40625762939453,84.82500457763672
1777561213113214500,7.78721435546875,-50.212501525878906,108.39375305175781,83.83125305175781
1777561213123214300,7.79721435546875,-50.250003814697266,107.06250762939453,83.3062515258789
1777561213133214500,7.80721435546875,-50.400001525878906,107.7750015258789,84.7125015258789
1777561213143214300,7.81721435546875,-49.10625076293945,104.75625610351562,82.8375015258789
1777561213153214500,7.82721435546875,-50.47500228881836,108.91875457763672,83.25
1777561213163214300,7.83721435546875,-51.03750228881836,106.96875762939453,85.14375305175781
1777561213173214500,7.84721435546875,-50.250003814697266,107.64375305175781,85.53750610351562
1777561213183214300,7.85721435546875,-49.61250305175781,108.76875305175781,85.59375
1777561213193214500,7.86721435546875,-48.67500305175781,109.14375305175781,84.78750610351562
1777561213203214300,7.87721435546875,-49.20000076293945,107.98125457763672,86.13750457763672
1777561213213214500,7.88721435546875,-49.06875228881836,106.63125610351562,84.60000610351562
1777561213223214300,7.89721435546875,-49.16250228881836,108.54375457763672,85.81875610351562
1777561213233214500,7.90721435546875,-48.86250305175781,108.86250305175781,86.28750610351562
1777561213243214300,7.91721435546875,-49.20000076293945,108.48750305175781,87.91875457763672
1777561213253214500,7.92721435546875,-51.22500228881836,106.91250610351562,87.39375305175781
1777561213263214300,7.93721435546875,-49.218753814697266,107.90625762939453,88.23750305175781
1777561213273214500,7.94721435546875,-50.062503814697266,106.0875015258789,88.61250305175781
1777561213283214300,7.95721435546875,-49.687503814697266,107.75625610351562,88.9312515258789
1777561213293214500,7.96721435546875,-49.72500228881836,106.20000457763672,86.79375457763672
1777561213303214300,7.97721435546875,-48.45000076293945,107.73750305175781,87.0562515258789
1777561213313214500,7.98721435546875,-48.900001525878906,108.3375015258789,88.59375
1777561213323214300,7.99721435546875,-50.51250076293945,105.63750457763672,87.13125610351562
1777561213333214500,8.00721435546875,-50.343753814697266,105.73125457763672,87
1777561213343214300,8.01721435546875,-51.48750305175781,107.81250762939453,87.58125305175781
1777561213353214500,8.02721435546875,-49.20000076293945,107.1187515258789,84.5625
1777561213363214300,8.03721435546875,-50.47500228881836,106.4625015258789,86.8687515258789
1777561213373214500,8.04721435546875,-50.587501525878906,107.00625610351562,85.42500305175781
1777561213383214300,8.05721435546875,-49.687503814697266,106.59375762939453,85.1812515258789
1777561213393214500,8.06721435546875,-48.468753814697266,107.04375457763672,86.64375305175781
1777561213403214300,8.07721435546875,-48.468753814697266,107.04375457763672,86.64375305175781
1777561213413214500,8.08721435546875,-48.95625305175781,106.16250610351562,86.4937515258789
1777561213423214300,8.09721435546875,-48.937503814697266,105.84375762939453,84.30000305175781
1777561213433214500,8.10721435546875,-49.275001525878906,106.25625610351562,87.22500610351562
1777561213443214300,8.11721435546875,-46.85625076293945,105.75000762939453,87.20625305175781
1777561213453214500,8.12721435546875,-46.80000305175781,108.11250305175781,88.78125
1777561213463214300,8.13721435546875,-47.625,105.76875305175781,87.22500610351562
1777561213473214500,8.14721435546875,-44.56875228881836,106.10625457763672,87.91875457763672
1777561213483214300,8.15721435546875,-45.056251525878906,105.46875762939453,87.8062515258789
1777561213493214500,8.16721435546875,-45.65625,105.1500015258789,86.4937515258789
1777561213503214300,8.17721435546875,-45,106.70625305175781,87.75
1777561213513214500,8.18721435546875,-45.82500076293945,104.15625762939453,84.75
1777561213523214300,8.19721435546875,-44.53125,106.98750305175781,87.09375
1777561213533214500,8.20721435546875,-45.337501525878906,105.75000762939453,87.1500015258789
1777561213543214300,8.21721435546875,-44.55000305175781,106.59375762939453,87.01875305175781
1777561213553214500,8.22721435546875,-44.13750076293945,105.09375762939453,86.15625
1777561213563214300,8.23721435546875,-42.11250305175781,106.10625457763672,86.28750610351562
1777561213573214500,8.24721435546875,-41.493751525878906,106.01250457763672,84.7125015258789
1777561213583214300,8.25721435546875,-40.3125,105.7125015258789,86.17500305175781
1777561213593214500,8.26721435546875,-41.587501525878906,104.55000305175781,87.54375457763672
1777561213603214300,8.27721435546875,-40.087501525878906,104.43750762939453,89.3062515258789
1777561213613214500,8.28721435546875,-40.38750076293945,104.9625015258789,89.56875610351562
1777561213623214300,8.29721435546875,-39.91875076293945,105.30000305175781,89.32500457763672
1777561213633214500,8.30721435546875,-40.10625076293945,104.32500457763672,90.28125
1777561213643214300,8.31721435546875,-39.73125076293945,106.03125762939453,89.17500305175781
1777561213653214500,8.32721435546875,-39.712501525878906,106.66875457763672,89.3062515258789
1777561213663214300,8.33721435546875,-38.868751525878906,104.5875015258789,88.7437515258789
1777561213673214500,8.34721435546875,-38.66250228881836,105.48750305175781,88.06875610351562
1777561213683214300,8.35721435546875,-38.25,105.00000762939453,88.95000457763672
1777561213693214500,8.36721435546875,-37.48125076293945,104.94375610351562,88.63125610351562
1777561213703214300,8.37721435546875,-39.431251525878906,105.60000610351562,88.81875610351562
1777561213713214500,8.38721435546875,-38.868751525878906,104.53125762939453,88.3125
1777561213723214300,8.39721435546875,-38.25,104.73750305175781,88.89375305175781
1777561213733214500,8.40721435546875,-38.10000228881836,104.4937515258789,87.9937515258789
1777561213743214300,8.41721435546875,-38.23125076293945,105.28125762939453,88.29375457763672
1777561213753214500,8.42721435546875,-35.98125076293945,103.76250457763672,86.53125
1777561213763214300,8.43721435546875,-35.962501525878906,104.5875015258789,87.82500457763672
1777561213773214500,8.44721435546875,-36.76875305175781,103.29375457763672,87.60000610351562
1777561213783214300,8.45721435546875,-37.48125076293945,103.9312515258789,85.89375305175781
1777561213793214500,8.46721435546875,-35.36250305175781,103.5562515258789,85.91250610351562
1777561213803214300,8.47721435546875,-36.86250305175781,104.06250762939453,85.05000305175781
1777561213813214500,8.48721435546875,-36.618751525878906,103.03125762939453,86.55000305175781
1777561213823214300,8.49721435546875,-35.83125305175781,103.72500610351562,87.09375
1777561213833214500,8.50721435546875,-35.64375305175781,104.55000305175781,85.96875
1777561213843214300,8.51721435546875,-35.64375305175781,104.55000305175781,85.96875
1777561213853214500,8.52721435546875,-36.13125228881836,103.12500762939453,85.57500457763672
1777561213863214300,8.53721435546875,-36,102.5250015258789,84.88125610351562
1777561213873214500,8.54721435546875,-35.625,103.95000457763672,83.45625305175781
1777561213883214300,8.55721435546875,-35.66250228881836,103.03125762939453,83.98125457763672
1777561213893214500,8.56721435546875,-35.04375076293945,103.23750305175781,83.71875
1777561213903214300,8.57721435546875,-35.32500076293945,104.73750305175781,85.42500305175781
1777561213913214500,8.58721435546875,-35.212501525878906,103.51875305175781,84.76875305175781
1777561213923214300,8.59721435546875,-34.42500305175781,104.25000762939453,85.59375
1777561213933214500,8.60721435546875,-34.875,104.45625305175781,85.21875
1777561213943214300,8.61721435546875,-36.618751525878906,102.54375457763672,85.7437515258789
1777561213953214500,8.62721435546875,-35.98125076293945,102.91875457763672,84.95625305175781
1777561213963214300,8.63721435546875,-36.39375305175781,103.38750457763672,82.23750305175781
1777561213973214500,8.64721435546875,-36.712501525878906,103.31250762939453,83.36250305175781
1777561213983214300,8.65721435546875,-37.33125305175781,104.6812515258789,87.58125305175781
1777561213993214500,8.66721435546875,-38.38125228881836,104.41875457763672,85.875
1777561214003214300,8.67721435546875,-40.6875,104.04375457763672,87.5625
1777561214013214500,8.68721435546875,-39.75,104.64375305175781,86.51250457763672
1777561214023214300,8.69721435546875,-40.125,102.88125610351562,87.16875457763672
1777561214033214500,8.70721435546875,-41.88750076293945,103.38750457763672,84.63750457763672
1777561214043214300,8.71721435546875,-43.10625076293945,104.06250762939453,86.7750015258789
1777561214053214500,8.72721435546875,-45.07500076293945,104.32500457763672,85.89375305175781
1777561214063214300,8.73721435546875,-46.125,104.51250457763672,85.53750610351562
1777561214073214500,8.74721435546875,-48.562503814697266,104.4937515258789,86.15625
1777561214083214300,8.75721435546875,-49.181251525878906,104.06250762939453,86.66250610351562
1777561214093214500,8.76721435546875,-49.218753814697266,103.2750015258789,87.20625305175781
1777561214103214300,8.77721435546875,-51.20625305175781,103.1812515258789,86.55000305175781
1777561214113214500,8.78721435546875,-53.13750076293945,103.44375610351562,84.95625305175781
1777561214123214300,8.79721435546875,-52.593753814697266,102.20625305175781,86.6812515258789
1777561214133214500,8.80721435546875,-54.525001525878906,102.9937515258789,85.1812515258789
1777561214143214300,8.81721435546875,-54.88125228881836,101.81250762939453,85.66875457763672
1777561214153214500,8.82721435546875,-55.968753814697266,100.89375305175781,84.54375457763672
1777561214163214300,8.83721435546875,-57.03750228881836,100.42500305175781,83.7750015258789
1777561214173214500,8.84721435546875,-57.97500228881836,100.05000305175781,84.7125015258789
1777561214183214300,8.85721435546875,-59.64375305175781,101.4000015258789,87.97500610351562
1777561214193214500,8.86721435546875,-58.556251525878906,101.1187515258789,86.0625
1777561214203214300,8.87721435546875,-59.625003814697266,101.23125457763672,86.8125
1777561214213214500,8.88721435546875,-60.993751525878906,100.85625457763672,85.9312515258789
1777561214223214300,8.89721435546875,-61.593753814697266,101.10000610351562,85.85625457763672
1777561214233214500,8.90721435546875,-62.531253814697266,100.0875015258789,84.84375
1777561214243214300,8.91721435546875,-63.13125228881836,98.85000610351562,81.5250015258789
1777561214253214500,8.92721435546875,-60.41250228881836,99.00000762939453,82.59375
1777561214263214300,8.93721435546875,-62.250003814697266,98.98125457763672,83.2125015258789
1777561214273214500,8.94721435546875,-62.60625076293945,96.9937515258789,82.42500305175781
1777561214283214300,8.95721435546875,-62.60625076293945,96.9937515258789,82.42500305175781
1777561214293214500,8.96721435546875,-65.92500305175781,99.46875762939453,86.51250457763672
1777561214303214300,8.97721435546875,-64.29375457763672,98.32500457763672,86.38125610351562
1777561214313214500,8.98721435546875,-63.31875228881836,99.60000610351562,85.76250457763672
1777561214323214300,8.99721435546875,-65.17500305175781,99.03750610351562,86.1187515258789
1777561214333214500,9.00721435546875,-64.125,98.0250015258789,85.20000457763672
1777561214343214300,9.01721435546875,-65.47500610351562,98.81250762939453,85.51875305175781
1777561214353214500,9.02721435546875,-64.42500305175781,98.26875305175781,85.25625610351562
1777561214363214300,9.03721435546875,-64.125,97.95000457763672,84.75
1777561214373214500,9.04721435546875,-65.4375,99.2437515258789,84.1875
1777561214383214300,9.05721435546875,-64.70625305175781,99.56250762939453,86.34375
1777561214393214500,9.06721435546875,-60.712501525878906,99.65625762939453,83.5875015258789
1777561214403214300,9.07721435546875,-62.681251525878906,101.53125762939453,88.78125
1777561214413214500,9.08721435546875,-61.48125076293945,100.44375610351562,87.28125
1777561214423214300,9.09721435546875,-60.39375305175781,102.3375015258789,90.01875305175781
1777561214433214500,9.10721435546875,-59.92500305175781,101.7750015258789,87.91875457763672
1777561214443214300,9.11721435546875,-59.17500305175781,101.7750015258789,87.9000015258789
1777561214453214500,9.12721435546875,-58.57500076293945,101.8687515258789,89.45625305175781
1777561214463214300,9.13721435546875,-60.11250305175781,102.63750457763672,92.17500305175781
1777561214473214500,9.14721435546875,-59.51250076293945,101.98125457763672,91.05000305175781
1777561214483214300,9.15721435546875,-61.20000076293945,101.19375610351562,90.8062515258789
1777561214493214500,9.16721435546875,-60.41250228881836,101.98125457763672,90.22500610351562
1777561214503214300,9.17721435546875,-60.41250228881836,100.85625457763672,86.7750015258789
1777561214513214500,9.18721435546875,-60.88125228881836,99.82500457763672,85.59375
1777561214523214300,9.19721435546875,-60.67500305175781,100.01250457763672,81.8062515258789
1777561214533214500,9.20721435546875,-59.28750228881836,99.63750457763672,80.15625
1777561214543214300,9.21721435546875,-58.500003814697266,99.46875762939453,77.26875305175781
1777561214553214500,9.22721435546875,-61.087501525878906,98.00625610351562,85.10625457763672
1777561214563214300,9.23721435546875,-63.03750228881836,98.81250762939453,84.60000610351562
1777561214573214500,9.24721435546875,-63.31875228881836,100.25625610351562,87.7125015258789
1777561214583214300,9.25721435546875,-63.30000305175781,100.68750762939453,86.38125610351562
1777561214593214500,9.26721435546875,-62.45625305175781,99.11250305175781,87.6187515258789
1777561214603214300,9.27721435546875,-64.10625457763672,100.4625015258789,89.19375610351562
1777561214613214500,9.28721435546875,-64.875,99.9937515258789,88.40625
1777561214623214300,9.29721435546875,-64.40625,99.97500610351562,88.40625
1777561214633214500,9.30721435546875,-62.75625228881836,99.82500457763672,89.8687515258789
1777561214643214300,9.31721435546875,-62.75625228881836,99.16875457763672,87.91875457763672
1777561214653214500,9.32721435546875,-62.775001525878906,99.3375015258789,89.08125305175781
1777561214663214300,9.33721435546875,-62.775001525878906,98.9625015258789,88.29375457763672
1777561214673214500,9.34721435546875,-60.91875076293945,99.86250305175781,88.42500305175781
1777561214683214300,9.35721435546875,-63.73125076293945,101.79375457763672,88.01250457763672
1777561214693214500,9.36721435546875,-64.10625457763672,100.98750305175781,90.97500610351562
1777561214703214300,9.37721435546875,-61.70625305175781,100.44375610351562,92.51250457763672
1777561214713214500,9.38721435546875,-61.70625305175781,100.44375610351562,92.51250457763672
1777561214723214300,9.39721435546875,-61.98750305175781,101.94375610351562,94.21875
1777561214733214500,9.40721435546875,-63.03750228881836,102.03750610351562,93.97500610351562
1777561214743214300,9.41721435546875,-61.53750228881836,100.98750305175781,92.75625610351562
1777561214753214500,9.42721435546875,-61.500003814697266,101.56875610351562,90.75
1777561214763214300,9.43721435546875,-60.900001525878906,101.51250457763672,91.2750015258789
1777561214773214500,9.44721435546875,-63.000003814697266,102.46875762939453,92.64375305175781
1777561214783214300,9.45721435546875,-59.94375228881836,102.58125305175781,90.9000015258789
1777561214793214500,9.46721435546875,-58.76250076293945,101.28750610351562,90.6187515258789
1777561214803214300,9.47721435546875,-60.88125228881836,102.20625305175781,91.6875
1777561214813214500,9.48721435546875,-60.11250305175781,103.01250457763672,92.9625015258789
1777561214823214300,9.49721435546875,-58.44375228881836,102.93750762939453,93.31875610351562
1777561214833214500,9.50721435546875,-58.48125076293945,101.9625015258789,93.5625
1777561214843214300,9.51721435546875,-58.89375305175781,103.63125610351562,94.7437515258789
1777561214853214500,9.52721435546875,-58.48125076293945,101.9625015258789,93.5625
1777561214863214300,9.53721435546875,-58.42500305175781,103.9312515258789,94.21875
1777561214873214500,9.54721435546875,-56.906253814697266,104.5875015258789,96.13125610351562
1777561214883214300,9.55721435546875,-56.868751525878906,105.4312515258789,96.01875305175781
1777561214893214500,9.56721435546875,-58.125003814697266,104.06250762939453,95.92500305175781
1777561214903214300,9.57721435546875,-57.13125228881836,101.9625015258789,94.3687515258789
1777561214913214500,9.58721435546875,-56.156253814697266,102.88125610351562,92.9625015258789
1777561214923214300,9.59721435546875,-57.07500076293945,102.9937515258789,92.8687515258789
1777561214933214500,9.60721435546875,-56.250003814697266,100.31250762939453,92.47500610351562
1777561214943214300,9.61721435546875,-57.95625305175781,103.78125762939453,93.1875
1777561214953214500,9.62721435546875,-57.76875305175781,104.55000305175781,92.47500610351562
1777561214963214300,9.63721435546875,-57.093753814697266,101.53125762939453,91.4625015258789
1777561214973214500,9.64721435546875,-58.125003814697266,102.63750457763672,92.1187515258789
1777561214983214300,9.65721435546875,-59.98125076293945,101.7750015258789,92.15625
1777561214993214500,9.66721435546875,-60.07500076293945,103.44375610351562,91.63125610351562
1777561215003214300,9.67721435546875,-60.900001525878906,102.5250015258789,93.86250305175781
1777561215013214500,9.68721435546875,-61.48125076293945,103.20000457763672,93.45000457763672
1777561215023214300,9.69721435546875,-61.53750228881836,101.34375762939453,93.5250015258789
1777561215033214500,9.70721435546875,-58.462501525878906,101.70000457763672,91.66875457763672
1777561215043214300,9.71721435546875,-60.431251525878906,102.37500762939453,92.85000610351562
1777561215053214500,9.72721435546875,-61.05000305175781,102.6187515258789,93.75
1777561215063214300,9.73721435546875,-63.806251525878906,101.56875610351562,92.4937515258789
1777561215073214500,9.74721435546875,-63.525001525878906,101.2125015258789,93.41250610351562
1777561215083214300,9.75721435546875,-65.2125015258789,100.29375457763672,92.28750610351562
1777561215093214500,9.76721435546875,-64.20000457763672,101.43750762939453,88.10625457763672
1777561215103214300,9.77721435546875,-63.48750305175781,101.17500305175781,90.58125305175781
1777561215113214500,9.78721435546875,-64.25625610351562,100.89375305175781,91.25625610351562
1777561215123214300,9.79721435546875,-64.78125,99.46875762939453,91.70625305175781
1777561215133214500,9.80721435546875,-64.70625305175781,101.53125762939453,91.38750457763672
1777561215143214300,9.81721435546875,-65.4937515258789,101.00625610351562,92.00625610351562
1777561215153214500,9.82721435546875,-67.3687515258789,99.13125610351562,91.98750305175781
1777561215163214300,9.83721435546875,-67.3687515258789,99.13125610351562,91.98750305175781
1777561215173214500,9.84721435546875,-67.05000305175781,100.63125610351562,93.67500305175781
1777561215183214300,9.85721435546875,-69.5250015258789,98.55000305175781,91.3687515258789
1777561215193214500,9.86721435546875,-69.07500457763672,98.25000762939453,91.01250457763672
1777561215203214300,9.87721435546875,-70.16250610351562,97.68750762939453,92.2125015258789
1777561215213214500,9.88721435546875,-69.73125457763672,96.07500457763672,89.7750015258789
1777561215223214300,9.89721435546875,-69.86250305175781,95.90625,87.76875305175781
1777561215233214500,9.90721435546875,-71.5875015258789,93.9375,86.15625
1777561215243214300,9.91721435546875,-71.13750457763672,93.82500457763672,86.26875305175781
1777561215253214500,9.92721435546875,-73.59375,94.2750015258789,88.40625
1777561215263214300,9.93721435546875,-73.42500305175781,93.9000015258789,86.7750015258789
1777561215273214500,9.94721435546875,-73.1812515258789,92.79375457763672,88.53750610351562
1777561215283214300,9.95721435546875,-73.70625305175781,91.33125305175781,89.6812515258789
1777561215293214500,9.96721435546875,-73.66875457763672,92.15625,88.42500305175781
1777561215303214300,9.97721435546875,-75.01875305175781,92.25,88.20000457763672
1777561215313214500,9.98721435546875,-72.41250610351562,92.98125457763672,88.125
1777561215323214300,9.99721435546875,-72.4312515258789,92.1187515258789,86.55000305175781
1777561215333214500,10.00721435546875,-74.4000015258789,93.1500015258789,89.34375
1777561215343214300,10.01721435546875,-74.36250305175781,94.125,89.10000610351562
1777561215353214500,10.02721435546875,-72.8062515258789,94.48125457763672,87.28125
1777561215363214300,10.03721435546875,-69.8062515258789,94.05000305175781,88.6875
1777561215373214500,10.04721435546875,-71.4375,94.78125,88.57500457763672
1777561215383214300,10.05721435546875,-72.6187515258789,96.2437515258789,90.01875305175781
1777561215393214500,10.06721435546875,-69.86250305175781,96.65625762939453,88.61250305175781
1777561215403214300,10.07721435546875,-69.5625,95.3062515258789,86.23125457763672
1777561215413214500,10.08721435546875,-67.23750305175781,97.57500457763672,89.00625610351562
1777561215423214300,10.09721435546875,-68.71875,98.4000015258789,87.78750610351562
1777561215433214500,10.10721435546875,-68.1187515258789,98.71875762939453,89.10000610351562
1777561215443214300,10.11721435546875,-65.51250457763672,100.05000305175781,91.40625
1777561215453214500,10.12721435546875,-66.69375610351562,101.66250610351562,93.01875305175781
1777561215463214300,10.13721435546875,-65.0250015258789,101.4000015258789,92.0625
1777561215473214500,10.14721435546875,-65.47500610351562,101.32500457763672,91.6500015258789
1777561215483214300,10.15721435546875,-62.962501525878906,102.22500610351562,88.3687515258789
1777561215493214500,10.16721435546875,-64.01250457763672,103.44375610351562,90.75
1777561215503214300,10.17721435546875,-63.67500305175781,103.87500762939453,89.4000015258789
1777561215513214500,10.18721435546875,-63.07500076293945,102.86250305175781,87.63750457763672
1777561215523214300,10.19721435546875,-59.906253814697266,102.09375762939453,87.5625
1777561215533214500,10.20721435546875,-60.97500228881836,102.41250610351562,88.06875610351562
1777561215543214300,10.21721435546875,-61.51875305175781,103.10625457763672,85.10625457763672
1777561215553214500,10.22721435546875,-61.06875228881836,103.81875610351562,87.35625457763672
1777561215563214300,10.23721435546875,-62.156253814697266,103.01250457763672,87.78750610351562
1777561215573214500,10.24721435546875,-60.843753814697266,101.34375762939453,87.58125305175781
1777561215583214300,10.25721435546875,-60.843753814697266,101.34375762939453,87.58125305175781
1777561215593214500,10.26721435546875,-61.53750228881836,103.50000762939453,87.73125457763672
1777561215603214300,10.27721435546875,-63.243751525878906,103.03125762939453,89.66250610351562
1777561215613214500,10.28721435546875,-62.906253814697266,104.2125015258789,89.15625
1777561215623214300,10.29721435546875,-59.906253814697266,103.05000305175781,89.85000610351562
1777561215633214500,10.30721435546875,-60.656253814697266,103.16250610351562,88.91250610351562
1777561215643214300,10.31721435546875,-62.32500076293945,103.51875305175781,89.5875015258789
1777561215653214500,10.32721435546875,-60.82500076293945,103.33125305175781,90.91875457763672
1777561215663214300,10.33721435546875,-60.806251525878906,103.50000762939453,89.53125
1777561215673214500,10.34721435546875,-61.61250305175781,102.73125457763672,91.10625457763672
1777561215683214300,10.35721435546875,-60.69375228881836,102.76875305175781,90.5250015258789
1777561215693214500,10.36721435546875,-64.01250457763672,104.10000610351562,92.70000457763672
1777561215703214300,10.37721435546875,-62.32500076293945,103.72500610351562,91.03125
1777561215713214500,10.38721435546875,-63.750003814697266,102.0562515258789,89.75625610351562
1777561215723214300,10.39721435546875,-63.48750305175781,101.56875610351562,91.6500015258789
1777561215733214500,10.40721435546875,-63.30000305175781,103.10625457763672,92.7750015258789
1777561215743214300,10.41721435546875,-62.70000076293945,102.11250305175781,91.01250457763672
1777561215753214500,10.42721435546875,-63.431251525878906,103.20000457763672,91.66875457763672
1777561215763214300,10.43721435546875,-63.86250305175781,103.87500762939453,92.10000610351562
1777561215773214500,10.44721435546875,-62.64375305175781,103.76250457763672,91.33125305175781
1777561215783214300,10.45721435546875,-62.962501525878906,103.35000610351562,91.81875610351562
1777561215793214500,10.46721435546875,-61.593753814697266,103.1812515258789,91.61250305175781
1777561215803214300,10.47721435546875,-61.01250076293945,102.00000762939453,89.4000015258789
1777561215813214500,10.48721435546875,-58.85625076293945,103.10625457763672,91.10625457763672
1777561215823214300,10.49721435546875,-61.72500228881836,104.26875305175781,92.25
1777561215833214500,10.50721435546875,-64.01250457763672,103.53750610351562,91.4625015258789
1777561215843214300,10.51721435546875,-60.243751525878906,102.88125610351562,91.23750305175781
1777561215853214500,10.52721435546875,-60.67500305175781,103.51875305175781,91.3687515258789
1777561215863214300,10.53721435546875,-62.531253814697266,103.06875610351562,92.47500610351562
1777561215873214500,10.54721435546875,-62.45625305175781,104.34375762939453,90.16875457763672
1777561215883214300,10.55721435546875,-62.92500305175781,104.08125305175781,90.82500457763672
1777561215893214500,10.56721435546875,-59.38125228881836,104.83125305175781,89.19375610351562
1777561215903214300,10.57721435546875,-60.01875305175781,105.03750610351562,91.5
1777561215913214500,10.58721435546875,-60.993751525878906,103.2750015258789,91.33125305175781
1777561215923214300,10.59721435546875,-60.95625305175781,103.76250457763672,90.4312515258789
1777561215933214500,10.60721435546875,-61.42500305175781,103.01250457763672,89.60625457763672
1777561215943214300,10.61721435546875,-61.53750228881836,104.62500762939453,91.1812515258789
1777561215953214500,10.62721435546875,-61.38750076293945,104.3062515258789,89.85000610351562
1777561215973214500,10.64721435546875,-63.806251525878906,103.98750305175781,88.59375
1777561215983214300,10.65721435546875,-62.437503814697266,103.6500015258789,87.91875457763672
1777561215993214500,10.66721435546875,-62.92500305175781,102.65625762939453,87.03750610351562
1777561216003214300,10.67721435546875,-62.17500305175781,102.31875610351562,87.375
1777561216013214500,10.68721435546875,-63.993751525878906,103.61250305175781,89.36250305175781
1777561216023214300,10.69721435546875,-63.993751525878906,103.61250305175781,89.36250305175781
1777561216033214500,10.70721435546875,-64.29375457763672,104.04375457763672,90.58125305175781
1777561216043214300,10.71721435546875,-64.29375457763672,104.04375457763672,90.58125305175781
1777561216053214500,10.72721435546875,-64.95000457763672,102.39375305175781,90.4312515258789
1777561216063214300,10.73721435546875,-68.92500305175781,101.4000015258789,89.4937515258789
1777561216073214500,10.74721435546875,-66.50625610351562,101.7750015258789,90.35625457763672
1777561216083214300,10.75721435546875,-68.83125305175781,100.5562515258789,90.60000610351562
1777561216093214500,10.76721435546875,-70.5,100.16250610351562,89.5875015258789
1777561216103214300,10.77721435546875,-68.2125015258789,98.98125457763672,85.76250457763672
1777561216113214500,10.78721435546875,-68.53125,97.76250457763672,84.28125
1777561216123214300,10.79721435546875,-70.6875,97.57500457763672,85.42500305175781
1777561216133214500,10.80721435546875,-73.4625015258789,96.9000015258789,86.7750015258789
1777561216143214300,10.81721435546875,-74.88750457763672,95.98125457763672,88.20000457763672
1777561216153214500,10.82721435546875,-75.28125,97.20000457763672,87.16875457763672
1777561216163214300,10.83721435546875,-73.33125305175781,97.42500305175781,89.55000305175781
1777561216173214500,10.84721435546875,-72.88125610351562,97.3687515258789,89.1187515258789
1777561216183214300,10.85721435546875,-74.41875457763672,95.7750015258789,86.73750305175781
1777561216193214500,10.86721435546875,-74.1187515258789,95.66250610351562,85.98750305175781
1777561216203214300,10.87721435546875,-73.80000305175781,96.26250457763672,86.66250610351562
1777561216213214500,10.88721435546875,-72.84375,96.82500457763672,85.48125457763672
1777561216223214300,10.89721435546875,-73.29375457763672,97.85625457763672,88.23750305175781
1777561216233214500,10.90721435546875,-72.50625610351562,98.75625610351562,88.3687515258789
1777561216243214300,10.91721435546875,-73.76250457763672,97.81875610351562,88.80000305175781
1777561216253214500,10.92721435546875,-71.4375,98.53125762939453,87.75
1777561216263214300,10.93721435546875,-72.97500610351562,98.17500305175781,87.01875305175781
1777561216273214500,10.94721435546875,-68.19375610351562,100.21875762939453,87.41250610351562
1777561216283214300,10.95721435546875,-72.45000457763672,100.35000610351562,88.25625610351562
1777561216293214500,10.96721435546875,-69.95625305175781,101.62500762939453,87.58125305175781
1777561216303214300,10.97721435546875,-68.41875457763672,101.92500305175781,87.1875
1777561216313214500,10.98721435546875,-67.35000610351562,103.31250762939453,89.8125
1777561216323214300,10.99721435546875,-66.91875457763672,103.10625457763672,91.03125
1777561216333214500,11.00721435546875,-66.31875610351562,103.40625762939453,92.2125015258789
1777561216343214300,11.01721435546875,-64.89375305175781,104.6812515258789,91.57500457763672
1777561216353214500,11.02721435546875,-64.57500457763672,104.04375457763672,88.89375305175781
1777561216363214300,11.03721435546875,-64.5,106.21875762939453,89.3062515258789
1777561216373214500,11.04721435546875,-62.400001525878906,105.37500762939453,88.66875457763672
1777561216383214300,11.05721435546875,-60.45000076293945,107.4000015258789,85.48125457763672
1777561216393214500,11.06721435546875,-57.54375076293945,106.95000457763672,83.34375
1777561216403214300,11.07721435546875,-58.368751525878906,106.29375457763672,85.63125610351562
1777561216413214500,11.08721435546875,-58.181251525878906,107.64375305175781,87.1500015258789
1777561216423214300,11.09721435546875,-57.26250076293945,107.64375305175781,86.28750610351562
1777561216433214500,11.10721435546875,-57.431251525878906,107.70000457763672,87.5625
1777561216443214300,11.11721435546875,-57.35625076293945,109.03125762939453,86.41875457763672
1777561216453214500,11.12721435546875,-57.35625076293945,109.03125762939453,86.41875457763672
1777561216463214300,11.13721435546875,-57.54375076293945,107.81250762939453,84.91875457763672
1777561216473214500,11.14721435546875,-55.06875228881836,109.33125305175781,85.98750305175781
1777561216483214300,11.15721435546875,-58.42500305175781,109.66875457763672,88.25625610351562
1777561216493214500,11.16721435546875,-56.00625228881836,109.91250610351562,89.08125305175781
1777561216503214300,11.17721435546875,-57.69375228881836,108.31875610351562,85.85625457763672
1777561216513214500,11.18721435546875,-55.462501525878906,107.79375457763672,88.23750305175781
1777561216523214300,11.19721435546875,-55.781253814697266,110.6812515258789,86.6812515258789
1777561216533214500,11.20721435546875,-56.64375305175781,108.84375762939453,89.45625305175781
1777561216543214300,11.21721435546875,-56.493751525878906,108.37500762939453,87.11250305175781
1777561216553214500,11.22721435546875,-55.837501525878906,108.84375762939453,85.20000457763672
1777561216563214300,11.23721435546875,-56.156253814697266,108.65625762939453,85.59375
1777561216573214500,11.24721435546875,-53.493751525878906,110.45625305175781,85.16250610351562
1777561216583214300,11.25721435546875,-56.13750076293945,109.61250305175781,87.9000015258789
1777561216593214500,11.26721435546875,-55.218753814697266,109.12500762939453,85.38750457763672
1777561216603214300,11.27721435546875,-58.087501525878906,110.3062515258789,86.6812515258789
1777561216613214500,11.28721435546875,-56.625003814697266,107.9625015258789,85.05000305175781
1777561216623214300,11.29721435546875,-59.66250228881836,109.25625610351562,87.91875457763672
1777561216633214500,11.30721435546875,-58.931251525878906,107.79375457763672,86.4937515258789
1777561216643214300,11.31721435546875,-59.062503814697266,109.03125762939453,88.98750305175781
1777561216653214500,11.32721435546875,-58.42500305175781,109.63125610351562,87.95625305175781
1777561216663214300,11.33721435546875,-60.13125228881836,109.29375457763672,89.08125305175781
1777561216673214500,11.34721435546875,-56.775001525878906,109.01250457763672,87.2437515258789
1777561216683214300,11.35721435546875,-54.618751525878906,110.4000015258789,89.00625610351562
1777561216693214500,11.36721435546875,-53.83125305175781,110.32500457763672,86.85000610351562
1777561216703214300,11.37721435546875,-54.88125228881836,110.98125457763672,87.84375
1777561216713214500,11.38721435546875,-55.63125228881836,110.98125457763672,87.86250305175781
1777561216723214300,11.39721435546875,-53.51250076293945,110.88750457763672,88.06875610351562
1777561216733214500,11.40721435546875,-53.868751525878906,110.06250762939453,89.34375
1777561216743214300,11.41721435546875,-54.60000228881836,110.4937515258789,88.03125
1777561216753214500,11.42721435546875,-54.41250228881836,110.83125305175781,86.8125
1777561216763214300,11.43721435546875,-55.35000228881836,111.35625457763672,89.625
1777561216773214500,11.44721435546875,-52.63125228881836,110.5875015258789,89.55000305175781
1777561216783214300,11.45721435546875,-52.01250076293945,110.41875457763672,87.5250015258789
1777561216793214500,11.46721435546875,-53.531253814697266,110.98125457763672,88.80000305175781
1777561216803214300,11.47721435546875,-53.681251525878906,111.84375762939453,91.21875
1777561216813214500,11.48721435546875,-52.931251525878906,110.13750457763672,88.05000305175781
1777561216823214300,11.49721435546875,-53.55000305175781,109.33125305175781,85.95000457763672
1777561216833214500,11.50721435546875,-54.093753814697266,110.60625457763672,85.35000610351562
1777561216843214300,11.51721435546875,-54.093753814697266,111.1500015258789,86.4375
1777561216853214500,11.52721435546875,-53.08125305175781,110.4937515258789,87.9937515258789
1777561216863214300,11.53721435546875,-55.05000305175781,110.4000015258789,87.31875610351562
1777561216873214500,11.54721435546875,-54.54375076293945,111.67500305175781,87.54375457763672
1777561216883214300,11.55721435546875,-55.01250076293945,111.46875762939453,87.8062515258789
1777561216893214500,11.56721435546875,-55.01250076293945,111.46875762939453,87.8062515258789
1777561216903214300,11.57721435546875,-57.50625228881836,109.23750305175781,86.17500305175781
1777561216913214500,11.58721435546875,-57.63750076293945,110.19375610351562,87.63750457763672
1777561216923214300,11.59721435546875,-56.73750305175781,109.66875457763672,87.35625457763672
1777561216933214500,11.60721435546875,-57.618751525878906,110.10000610351562,85.20000457763672
1777561216943214300,11.61721435546875,-59.64375305175781,109.9312515258789,88.33125305175781
1777561216953214500,11.62721435546875,-59.13750076293945,110.25000762939453,86.26875305175781
1777561216963214300,11.63721435546875,-59.868751525878906,110.85000610351562,86.1187515258789
1777561216973214500,11.64721435546875,-58.031253814697266,111.0562515258789,84.97500610351562
1777561216983214300,11.65721435546875,-58.53750228881836,109.8375015258789,86.0250015258789
1777561216993214500,11.66721435546875,-60.50625228881836,110.90625762939453,87.28125
1777561217003214300,11.67721435546875,-57.63750076293945,109.38750457763672,84.65625
1777561217013214500,11.68721435546875,-60.07500076293945,110.00625610351562,87.09375
1777561217023214300,11.69721435546875,-61.406253814697266,111.18750762939453,88.33125305175781
1777561217033214500,11.70721435546875,-62.587501525878906,111.41250610351562,85.59375
1777561217043214300,11.71721435546875,-62.98125076293945,109.06875610351562,86.56875610351562
1777561217053214500,11.72721435546875,-63.13125228881836,108.4312515258789,84.75
1777561217063214300,11.73721435546875,-65.92500305175781,106.20000457763672,82.29375457763672
1777561217073214500,11.74721435546875,-66.35625457763672,106.0875015258789,80.71875
1777561217083214300,11.75721435546875,-66.67500305175781,105.35625457763672,79.03125
1777561217093214500,11.76721435546875,-68.60625457763672,107.60625457763672,82.48125457763672
1777561217103214300,11.77721435546875,-67.9312515258789,104.43750762939453,80.45625305175781
1777561217113214500,11.78721435546875,-70.8375015258789,104.15625762939453,81.03750610351562
1777561217123214300,11.79721435546875,-70.85625457763672,103.87500762939453,81.69375610351562
1777561217133214500,11.80721435546875,-70.9312515258789,102.11250305175781,82.35000610351562
1777561217143214300,11.81721435546875,-71.9625015258789,102.60000610351562,81.46875
1777561217153214500,11.82721435546875,-70.78125,102.1500015258789,81.78750610351562
1777561217163214300,11.83721435546875,-71.71875,102.16875457763672,84.48750305175781
1777561217173214500,11.84721435546875,-73.21875,102.22500610351562,83.13750457763672
1777561217183214300,11.85721435546875,-73.1812515258789,103.03125762939453,81.88125610351562
1777561217193214500,11.86721435546875,-73.875,100.89375305175781,83.45625305175781
1777561217203214300,11.87721435546875,-72.5625,104.10000610351562,84.03750610351562
1777561217213214500,11.88721435546875,-72,102.65625762939453,83.60625457763672
1777561217223214300,11.89721435546875,-71.88750457763672,102.48750305175781,85.8375015258789
1777561217233214500,11.90721435546875,-73.01250457763672,104.10000610351562,84.0562515258789
1777561217243214300,11.91721435546875,-70.85625457763672,104.94375610351562,84.7125015258789
1777561217253214500,11.92721435546875,-71.4375,106.12500762939453,85.10625457763672
1777561217263214300,11.93721435546875,-69.46875,105.1500015258789,82.7437515258789
1777561217273214500,11.94721435546875,-69.5250015258789,104.60625457763672,85.89375305175781
1777561217283214300,11.95721435546875,-69.13125610351562,106.85625457763672,85.875
1777561217293214500,11.96721435546875,-65.5875015258789,107.34375762939453,83.34375
1777561217303214300,11.97721435546875,-65.83125305175781,109.0875015258789,83.25
1777561217313214500,11.98721435546875,-64.61250305175781,109.61250305175781,84.31875610351562
1777561217323214300,11.99721435546875,-61.275001525878906,109.91250610351562,86.4000015258789
1777561217333214500,12.00721435546875,-61.275001525878906,109.91250610351562,86.4000015258789
1777561217343214300,12.01721435546875,-62.775001525878906,109.95000457763672,85.03125
1777561217353214500,12.02721435546875,-59.775001525878906,109.10625457763672,85.21875
1777561217363214300,12.03721435546875,-59.83125305175781,111.82500457763672,85.875
1777561217373214500,12.04721435546875,-57.58125305175781,110.73750305175781,85.33125305175781
1777561217383214300,12.05721435546875,-57.562503814697266,111.0562515258789,84.97500610351562
1777561217393214500,12.06721435546875,-55.23750305175781,111.6187515258789,82.89375305175781
1777561217403214300,12.07721435546875,-55.57500076293945,110.83125305175781,82.61250305175781
1777561217413214500,12.08721435546875,-55.10625076293945,111.58125305175781,83.45625305175781
1777561217423214300,12.09721435546875,-56.718753814697266,112.85625457763672,82.7437515258789
1777561217433214500,12.10721435546875,-54.03750228881836,110.51250457763672,80.4000015258789
1777561217443214300,12.11721435546875,-54.91875076293945,112.01250457763672,82.96875
1777561217453214500,12.12721435546875,-52.593753814697266,112.40625762939453,79.72500610351562
1777561217463214300,12.13721435546875,-53.493751525878906,113.1187515258789,81.1500015258789
1777561217473214500,12.14721435546875,-52.181251525878906,111.9937515258789,82.89375305175781
1777561217483214300,12.15721435546875,-55.66875076293945,112.20000457763672,82.59375
1777561217493214500,12.16721435546875,-53.400001525878906,111.9937515258789,82.91250610351562
1777561217503214300,12.17721435546875,-53.38125228881836,113.00625610351562,83.8125
1777561217513214500,12.18721435546875,-56.47500228881836,112.44375610351562,85.91250610351562
1777561217523214300,12.19721435546875,-54.82500076293945,111.54375457763672,84.84375
1777561217533214500,12.20721435546875,-55.85625076293945,113.43750762939453,87.63750457763672
1777561217543214300,12.21721435546875,-57.187503814697266,112.81875610351562,84.16875457763672
1777561217553214500,12.22721435546875,-54.468753814697266,111.3375015258789,80.98125457763672
1777561217563214300,12.23721435546875,-54.82500076293945,110.13750457763672,82.03125
1777561217573214500,12.24721435546875,-54.375003814697266,110.1187515258789,82.03125
1777561217583214300,12.25721435546875,-58.42500305175781,111.9937515258789,83.60625457763672
1777561217593214500,12.26721435546875,-59.23125076293945,111.16875457763672,84.9000015258789
1777561217603214300,12.27721435546875,-60.01875305175781,110.53125762939453,84.78750610351562
1777561217613214500,12.28721435546875,-59.73750305175781,110.43750762939453,85.7437515258789
1777561217623214300,12.29721435546875,-60.67500305175781,109.48125457763672,85.16250610351562
1777561217633214500,12.30721435546875,-58.218753814697266,110.53125762939453,86.4375
1777561217643214300,12.31721435546875,-58.95000076293945,111.16875457763672,86.5875015258789
1777561217653214500,12.32721435546875,-57.13125228881836,110.53125762939453,84.7125015258789
1777561217663214300,12.33721435546875,-55.89375305175781,110.90625762939453,84.75
1777561217673214500,12.34721435546875,-55.89375305175781,111.20625305175781,85.0875015258789
1777561217683214300,12.35721435546875,-56.025001525878906,111.63750457763672,84.6187515258789
1777561217693214500,12.36721435546875,-55.837501525878906,112.76250457763672,84.67500305175781
1777561217703214300,12.37721435546875,-54.48750305175781,111.82500457763672,84.3375015258789
1777561217713214500,12.38721435546875,-55.89375305175781,112.10625457763672,87.09375
1777561217723214300,12.39721435546875,-54.48750305175781,112.6500015258789,85.61250305175781
1777561217733214500,12.40721435546875,-54.20625305175781,112.10625457763672,86.2125015258789
1777561217743214300,12.41721435546875,-54.16875076293945,112.57500457763672,85.16250610351562
1777561217753214500,12.42721435546875,-54.337501525878906,113.13750457763672,87.26250457763672
1777561217763214300,12.43721435546875,-54.337501525878906,113.13750457763672,87.26250457763672
1777561217773214500,12.44721435546875,-53.250003814697266,112.21875762939453,83.51250457763672
1777561217783214300,12.45721435546875,-54.525001525878906,110.98125457763672,84.45000457763672
1777561217793214500,12.46721435546875,-54.76875305175781,111.78750610351562,82.35000610351562
1777561217803214300,12.47721435546875,-54.50625228881836,110.8687515258789,82.03125
1777561217813214500,12.48721435546875,-55.125003814697266,110.6812515258789,83.28750610351562
1777561217823214300,12.49721435546875,-56.025001525878906,111.13125610351562,83.8125
1777561217833214500,12.50721435546875,-54.937503814697266,111.67500305175781,83.17500305175781
1777561217843214300,12.51721435546875,-57.03750228881836,112.51875305175781,82.96875
1777561217853214500,12.52721435546875,-56.025001525878906,110.66250610351562,82.3125
1777561217863214300,12.53721435546875,-56.36250305175781,109.8375015258789,81.73125457763672
1777561217873214500,12.54721435546875,-56.681251525878906,110.10000610351562,83.4937515258789
1777561217883214300,12.55721435546875,-57.431251525878906,110.36250305175781,83.56875610351562
1777561217893214500,12.56721435546875,-58.181251525878906,110.73750305175781,83.66250610351562
1777561217903214300,12.57721435546875,-57.39375305175781,111.54375457763672,84.91875457763672
1777561217913214500,12.58721435546875,-59.47500228881836,112.40625762939453,83.8687515258789
1777561217923214300,12.59721435546875,-57.45000076293945,109.66875457763672,83.15625
1777561217933214500,12.60721435546875,-60.45000076293945,110.83125305175781,84.1500015258789
1777561217943214300,12.61721435546875,-59.73750305175781,109.89375305175781,84.65625
1777561217953214500,12.62721435546875,-59.306251525878906,108.93750762939453,84.03750610351562
1777561217963214300,12.63721435546875,-59.26875305175781,109.25625610351562,81.9937515258789
1777561217973214500,12.64721435546875,-61.556251525878906,109.44375610351562,83.2125015258789
1777561217983214300,12.65721435546875,-62.962501525878906,108.58125305175781,83.23125457763672
1777561217993214500,12.66721435546875,-62.38125228881836,107.88750457763672,83.64375305175781
1777561218003214300,12.67721435546875,-64.6875,106.35000610351562,81.58125305175781
1777561218013214500,12.68721435546875,-66.01875305175781,107.5875015258789,82.40625
1777561218023214300,12.69721435546875,-65.88750457763672,105.76875305175781,79.38750457763672
1777561218033214500,12.70721435546875,-66.84375,105.01875305175781,80.10000610351562
1777561218053214500,12.72721435546875,-65.92500305175781,104.28750610351562,77.6812515258789
1777561218063214300,12.73721435546875,-68.4375,101.25000762939453,75.6187515258789
1777561218073214500,12.74721435546875,-67.89375305175781,99.95625305175781,76.20000457763672
1777561218083214300,12.75721435546875,-67.80000305175781,101.98125457763672,74.75625610351562
1777561218093214500,12.76721435546875,-69.78750610351562,102.4312515258789,77.71875
1777561218103214300,12.77721435546875,-69.78750610351562,102.4312515258789,77.71875
1777561218113214500,12.78721435546875,-69.2437515258789,101.92500305175781,80.28750610351562
1777561218123214300,12.79721435546875,-69.11250305175781,100.98750305175781,78.97500610351562
1777561218133214500,12.80721435546875,-69.09375,101.26875305175781,78.31875610351562
1777561218143214300,12.81721435546875,-70.8375015258789,104.41875457763672,81.09375
1777561218153214500,12.82721435546875,-69.375,102.48750305175781,80.6812515258789
1777561218163214300,12.83721435546875,-68.4375,102.8062515258789,79.44375610351562
1777561218173214500,12.84721435546875,-69.48750305175781,102.60000610351562,78.01875305175781
1777561218183214300,12.85721435546875,-66.86250305175781,103.80000305175781,77.75625610351562
1777561218193214500,12.86721435546875,-67.57500457763672,104.08125305175781,75.4312515258789
1777561218203214300,12.87721435546875,-67.57500457763672,104.08125305175781,75.4312515258789
1777561218213214500,12.88721435546875,-66.63750457763672,106.51875305175781,80.25
1777561218223214300,12.89721435546875,-67.10625457763672,106.03125762939453,80.3062515258789
1777561218233214500,12.90721435546875,-63.712501525878906,107.62500762939453,80.94375610351562
1777561218243214300,12.91721435546875,-64.05000305175781,107.13750457763672,81.84375
1777561218253214500,12.92721435546875,-64.78125,108.11250305175781,81.76875305175781
1777561218263214300,12.93721435546875,-63.73125076293945,108.26250457763672,82.76250457763672
1777561218273214500,12.94721435546875,-60.843753814697266,107.3062515258789,81.375
1777561218283214300,12.95721435546875,-60.78750228881836,109.63125610351562,82.80000305175781
1777561218293214500,12.96721435546875,-58.218753814697266,109.03125762939453,83.04375457763672
1777561218303214300,12.97721435546875,-60.281253814697266,111.50625610351562,83.71875
1777561218313214500,12.98721435546875,-56.681251525878906,110.04375457763672,83.19375610351562
1777561218323214300,12.99721435546875,-55.875003814697266,110.7750015258789,82.1812515258789
1777561218333214500,13.00721435546875,-54.468753814697266,111.45000457763672,81.7125015258789
1777561218343214300,13.01721435546875,-52.875003814697266,109.01250457763672,80.36250305175781
1777561218353214500,13.02721435546875,-52.63125228881836,110.71875762939453,78.41250610351562
1777561218363214300,13.03721435546875,-51.35625076293945,108.3375015258789,78.35625457763672
1777561218373214500,13.04721435546875,-51.69375228881836,111.07500457763672,77.47500610351562
1777561218383214300,13.05721435546875,-50.94375228881836,110.6812515258789,77.38125610351562
1777561218393214500,13.06721435546875,-51.91875076293945,108.88125610351562,76.91250610351562
1777561218403214300,13.07721435546875,-52.462501525878906,111.35625457763672,79.38750457763672
1777561218413214500,13.08721435546875,-50.400001525878906,109.78125762939453,78.88125610351562
1777561218423214300,13.09721435546875,-53.00625228881836,109.91250610351562,81.375
1777561218433214500,13.10721435546875,-53.437503814697266,110.06250762939453,80.71875
1777561218443214300,13.11721435546875,-51.750003814697266,110.4937515258789,80.32500457763672
1777561218453214500,13.12721435546875,-53.66250228881836,108.8062515258789,81.46875
1777561218463214300,13.13721435546875,-56.343753814697266,110.5875015258789,82.59375
1777561218473214500,13.14721435546875,-55.556251525878906,110.26875305175781,80.38125610351562
1777561218483214300,13.15721435546875,-52.57500076293945,108.35625457763672,78.39375305175781
1777561218493214500,13.16721435546875,-51.900001525878906,109.59375762939453,77.47500610351562
1777561218503214300,13.17721435546875,-54.243751525878906,106.6500015258789,74.4375
1777561218513214500,13.18721435546875,-54.35625076293945,108.28125762939453,75.31875610351562
1777561218523214300,13.19721435546875,-56.531253814697266,108.54375457763672,80.51250457763672
1777561218533214500,13.20721435546875,-59.587501525878906,108.97500610351562,81.8062515258789
1777561218543214300,13.21721435546875,-58.406253814697266,107.26875305175781,80.3062515258789
1777561218553214500,13.22721435546875,-58.837501525878906,108.28125762939453,81.22500610351562
1777561218563214300,13.23721435546875,-56.51250076293945,109.50000762939453,81.11250305175781
1777561218573214500,13.24721435546875,-56.41875076293945,109.12500762939453,83.71875
1777561218583214300,13.25721435546875,-56.812503814697266,109.53750610351562,81.41250610351562
1777561218593214500,13.26721435546875,-55.57500076293945,110.5875015258789,82.57500457763672
1777561218603214300,13.27721435546875,-53.587501525878906,110.25000762939453,80.32500457763672
1777561218613214000,13.2872138671875,-53.73750305175781,109.95000457763672,80.00625610351562
1777561218623213800,13.2972138671875,-53.493751525878906,108.84375762939453,80.90625
1777561218633214000,13.3072138671875,-53.493751525878906,108.84375762939453,80.90625
1777561218643213800,13.3172138671875,-53.32500076293945,109.01250457763672,80.36250305175781
1777561218653214000,13.3272138671875,-52.125003814697266,108.67500305175781,80.70000457763672
1777561218663213800,13.3372138671875,-54.056251525878906,110.36250305175781,81.07500457763672
1777561218673214000,13.3472138671875,-53.32500076293945,108.9000015258789,79.6500015258789
1777561218683213800,13.3572138671875,-52.556251525878906,108.9000015258789,79.63125610351562
1777561218693214000,13.3672138671875,-52.556251525878906,108.20625305175781,77.38125610351562
1777561218703213800,13.3772138671875,-49.63125228881836,109.31250762939453,77.36250305175781
1777561218713214000,13.3872138671875,-53.775001525878906,108.95625305175781,79.10625457763672
1777561218723213800,13.3972138671875,-51.78750228881836,109.59375762939453,80.15625
1777561218733214000,13.4072138671875,-53.625003814697266,109.81875610351562,81.65625
1777561218743213800,13.4172138671875,-52.57500076293945,109.01250457763672,80.34375
1777561218753214000,13.4272138671875,-53.025001525878906,109.12500762939453,80.25
