time,seconds_elapsed,z,y,x
1777561205463214300,0.13721435546875,-12.956250190734863,23.775001525878906,29.325000762939453
1777561205473214500,0.14721435546875,-13.08750057220459,23.71875,28.05000114440918
1777561205493214500,0.16721435546875,-12.787500381469727,23.118751525878906,26.512500762939453
1777561205503214300,0.17721435546875,-11.193750381469727,22.537500381469727,20.006250381469727
1777561205523214300,0.19721435546875,-11.40000057220459,21.150001525878906,19.89375114440918
1777561205533214500,0.20721435546875,-11.40000057220459,21.150001525878906,19.89375114440918
1777561205543214300,0.21721435546875,-12.80625057220459,20.943750381469727,21.86250114440918
1777561205553214500,0.22721435546875,-17.025001525878906,24.337501525878906,28.837501525878906
1777561205563214300,0.23721435546875,-15.05625057220459,24.58125114440918,29.681251525878906
1777561205573214500,0.24721435546875,-17.418750762939453,22.875,30.825000762939453
1777561205583214300,0.25721435546875,-17.418750762939453,22.875,30.825000762939453
1777561205593214500,0.26721435546875,-16.14375114440918,23.90625,29.287500381469727
1777561205603214300,0.27721435546875,-16.293750762939453,23.587501525878906,27.95625114440918
1777561205613214500,0.28721435546875,-16.3125,22.875,27.412500381469727
1777561205623214300,0.29721435546875,-18.168750762939453,23.212501525878906,31.33125114440918
1777561205633214500,0.30721435546875,-17.025001525878906,23.006250381469727,27.787500381469727
1777561205643214300,0.31721435546875,-17.868751525878906,20.887500762939453,27.67500114440918
1777561205653214500,0.32721435546875,-17.118751525878906,21.262500762939453,30.281251907348633
1777561205663214300,0.33721435546875,-18.30000114440918,21.037500381469727,27.01875114440918
1777561205673214500,0.34721435546875,-16.481250762939453,21.525001525878906,28.762500762939453
1777561205683214300,0.35721435546875,-19.631250381469727,23.287500381469727,29.606250762939453
1777561205693214500,0.36721435546875,-18.48750114440918,22.368751525878906,32.775001525878906
1777561205703214300,0.37721435546875,-19.96875,22.443750381469727,30.712501525878906
1777561205713214500,0.38721435546875,-17.850000381469727,21.243751525878906,28.462501525878906
1777561205723214300,0.39721435546875,-16.762500762939453,22.837501525878906,30.843751907348633
1777561205733214500,0.40721435546875,-18.58125114440918,22.70625114440918,29.887500762939453
1777561205743214300,0.41721435546875,-19.631250381469727,22.125,27.693750381469727
1777561205753214500,0.42721435546875,-17.793750762939453,21.84375,25.743751525878906
1777561205763214300,0.43721435546875,-17.55000114440918,21.693750381469727,28.950000762939453
1777561205773214500,0.44721435546875,-16.725000381469727,23.118751525878906,28.500001907348633
1777561205783214300,0.45721435546875,-18.600000381469727,20.45625114440918,24.806251525878906
1777561205793214500,0.46721435546875,-18.337501525878906,19.650001525878906,26.043750762939453
1777561205803214300,0.47721435546875,-18.58125114440918,22.481250762939453,28.42500114440918
1777561205813214500,0.48721435546875,-19.650001525878906,22.23750114440918,28.406251907348633
1777561205823214300,0.49721435546875,-20.756250381469727,20.92500114440918,28.762500762939453
1777561205833214500,0.50721435546875,-17.493751525878906,21.900001525878906,26.17500114440918
1777561205843214300,0.51721435546875,-16.950000762939453,20.55000114440918,26.325000762939453
1777561205853214500,0.52721435546875,-19.068750381469727,20.625,25.968751907348633
1777561205863214300,0.53721435546875,-17.8125,22.42500114440918,27.975000381469727
1777561205873214500,0.54721435546875,-17.850000381469727,20.625,25.931251525878906
1777561205883214300,0.55721435546875,-18.693750381469727,22.856250762939453,27.525001525878906
1777561205893214500,0.56721435546875,-18.67500114440918,23.08125114440918,26.568750381469727
1777561205903214300,0.57721435546875,-16.21875,24.11250114440918,26.850000381469727
1777561205913214500,0.58721435546875,-16.200000762939453,24.39375114440918,26.193750381469727
1777561205923214300,0.59721435546875,-15.61875057220459,23.64375114440918,26.17500114440918
1777561205933214500,0.60721435546875,-14.100000381469727,22.89375114440918,25.293750762939453
1777561205943214300,0.61721435546875,-14.081250190734863,23.64375114440918,26.137500762939453
1777561205953214500,0.62721435546875,-15.112500190734863,25.23750114440918,27.731250762939453
1777561205963214300,0.63721435546875,-12.206250190734863,25.61250114440918,26.887500762939453
1777561205973214500,0.64721435546875,-12.206250190734863,25.61250114440918,26.887500762939453
1777561205983214300,0.65721435546875,-13.050000190734863,23.962501525878906,28.42500114440918
1777561205993214500,0.66721435546875,-11.981250762939453,24.262500762939453,28.743751525878906
1777561206003214300,0.67721435546875,-11.625,25.218751907348633,27.637500762939453
1777561206013214500,0.68721435546875,-10.6875,26.512500762939453,28.856250762939453
1777561206023214300,0.69721435546875,-9.375,24.075000762939453,26.662500381469727
1777561206033214500,0.70721435546875,-9.168750762939453,24.937501907348633,24.843751907348633
1777561206043214300,0.71721435546875,-7.350000381469727,25.200000762939453,26.681251525878906
1777561206053214500,0.72721435546875,-10.55625057220459,25.068750381469727,26.587501525878906
1777561206063214300,0.73721435546875,-9.318750381469727,25.70625114440918,26.681251525878906
1777561206073214500,0.74721435546875,-9.65625,24.318750381469727,26.568750381469727
1777561206083214300,0.75721435546875,-8.40000057220459,25.631250381469727,27.075000762939453
1777561206093214500,0.76721435546875,-9.28125,27.131250381469727,27.937501907348633
1777561206103214300,0.77721435546875,-7.331250190734863,25.668750762939453,25.631250381469727
1777561206113214500,0.78721435546875,-8.100000381469727,26.062501907348633,28.275001525878906
1777561206123214300,0.79721435546875,-6.862500190734863,26.325000762939453,27.58125114440918
1777561206133214500,0.80721435546875,-5.325000286102295,27.000001907348633,27.95625114440918
1777561206143214300,0.81721435546875,-6.393750190734863,26.325000762939453,26.718751907348633
1777561206153214500,0.82721435546875,-4.125,26.250001907348633,26.231250762939453
1777561206163214300,0.83721435546875,-4.125,26.36250114440918,26.943750381469727
1777561206173214500,0.84721435546875,-2.887500047683716,26.45625114440918,25.950000762939453
1777561206183214300,0.85721435546875,-3.5062501430511475,26.100000381469727,26.043750762939453
1777561206193214500,0.86721435546875,-3.6750001907348633,26.343751907348633,26.943750381469727
1777561206203214300,0.87721435546875,-4.256250381469727,27.318750381469727,28.406251907348633
1777561206213214500,0.88721435546875,-1.8000000715255737,28.162500381469727,29.062501907348633
1777561206223214300,0.89721435546875,-2.3062500953674316,26.775001525878906,28.968751907348633
1777561206233214500,0.90721435546875,-1.1062500476837158,27.075000762939453,30.262500762939453
1777561206243214300,0.91721435546875,-3.093750238418579,26.625001907348633,29.662500381469727
1777561206253214500,0.92721435546875,0.16875000298023224,28.181251525878906,29.306251525878906
1777561206263214300,0.93721435546875,-0.9375000596046448,27.20625114440918,29.437501907348633
1777561206273214500,0.94721435546875,0.16875000298023224,27.825000762939453,28.537500381469727
1777561206283214300,0.95721435546875,-0.6375000476837158,26.55000114440918,28.312501907348633
1777561206293214500,0.96721435546875,-0.13125000894069672,28.481250762939453,29.64375114440918
1777561206303214300,0.97721435546875,2.53125,26.212501525878906,29.437501907348633
1777561206313214500,0.98721435546875,1.8000000715255737,27.187501907348633,29.36250114440918
1777561206323214300,0.99721435546875,1.9500000476837158,26.793750762939453,28.293750762939453
1777561206333214500,1.00721435546875,1.9687501192092896,28.031251907348633,29.92500114440918
1777561206343214300,1.01721435546875,2.1937501430511475,28.98750114440918,27.150001525878906
1777561206353214500,1.02721435546875,1.7062500715255737,26.700000762939453,26.662500381469727
1777561206363214300,1.03721435546875,2.5500001907348633,26.062501907348633,29.906251907348633
1777561206373214500,1.04721435546875,2.34375,27.993751525878906,27.750001907348633
1777561206383214300,1.05721435546875,4.612500190734863,27.750001907348633,28.762500762939453
1777561206393214500,1.06721435546875,3.8062500953674316,25.950000762939453,26.606250762939453
1777561206403214300,1.07721435546875,6.262500286102295,26.36250114440918,26.062501907348633
1777561206413214500,1.08721435546875,6.262500286102295,26.36250114440918,26.062501907348633
1777561206423214300,1.09721435546875,5.118750095367432,28.256250381469727,26.17500114440918
1777561206433214500,1.10721435546875,6.768750190734863,26.887500762939453,24.600000381469727
1777561206443214300,1.11721435546875,8.100000381469727,26.493751525878906,25.33125114440918
1777561206453214500,1.12721435546875,6.993750095367432,25.931251525878906,27.375001907348633
1777561206463214300,1.13721435546875,7.050000190734863,26.962501525878906,25.875001907348633
1777561206473214500,1.14721435546875,9.300000190734863,26.343751907348633,25.968751907348633
1777561206483214300,1.15721435546875,6.693750381469727,26.043750762939453,27.262500762939453
1777561206493214500,1.16721435546875,9.262500762939453,25.312501907348633,25.781251907348633
1777561206503214300,1.17721435546875,9.450000762939453,25.218751907348633,24.20625114440918
1777561206513214500,1.18721435546875,9.581250190734863,25.162500381469727,24.750001907348633
1777561206523214300,1.19721435546875,9.300000190734863,26.343751907348633,25.968751907348633
1777561206533214500,1.20721435546875,8.49375057220459,25.068750381469727,25.743751525878906
1777561206543214300,1.21721435546875,8.662500381469727,25.068750381469727,24.900001525878906
1777561206553214500,1.22721435546875,7.743750095367432,25.068750381469727,25.781251907348633
1777561206563214300,1.23721435546875,7.743750095367432,25.387500762939453,26.250001907348633
1777561206573214500,1.24721435546875,7.162500381469727,26.681251525878906,27.356250762939453
1777561206583214300,1.25721435546875,5.737500190734863,24.86250114440918,26.92500114440918
1777561206593214500,1.26721435546875,4.875,26.006250381469727,27.01875114440918
1777561206603214300,1.27721435546875,2.6812500953674316,24.731250762939453,27.67500114440918
1777561206613214500,1.28721435546875,2.2125000953674316,24.712501525878906,29.231250762939453
1777561206623214300,1.29721435546875,1.9500000476837158,26.287500381469727,29.83125114440918
1777561206633214500,1.30721435546875,-1.1437500715255737,24.187501907348633,28.106250762939453
1777561206643214300,1.31721435546875,-2.1187500953674316,25.931251525878906,27.337501525878906
1777561206653214500,1.32721435546875,-2.0062501430511475,24.168750762939453,25.443750381469727
1777561206663214300,1.33721435546875,-3.9937500953674316,25.631250381469727,29.437501907348633
1777561206673214500,1.34721435546875,-5.325000286102295,25.837501525878906,28.23750114440918
1777561206683214300,1.35721435546875,-4.575000286102295,26.306251525878906,29.025001525878906
1777561206693214500,1.36721435546875,-6.693750381469727,25.481250762939453,26.662500381469727
1777561206703214300,1.37721435546875,-6.993750095367432,25.162500381469727,26.17500114440918
1777561206713214500,1.38721435546875,-7.800000190734863,24.131250381469727,26.006250381469727
1777561206723214300,1.39721435546875,-7.875000476837158,26.062501907348633,25.537500381469727
1777561206733214500,1.40721435546875,-8.30625057220459,27.262500762939453,26.906251907348633
1777561206743214300,1.41721435546875,-10.612500190734863,26.287500381469727,27.056251525878906
1777561206753214500,1.42721435546875,-9.675000190734863,26.493751525878906,25.087501525878906
1777561206763214300,1.43721435546875,-7.406250476837158,25.743751525878906,24.187501907348633
1777561206773214500,1.44721435546875,-7.518750190734863,26.981250762939453,24.993751525878906
1777561206783214300,1.45721435546875,-6.787500381469727,27.243751525878906,26.850000381469727
1777561206793214500,1.46721435546875,-9.84375,26.73750114440918,27.543750762939453
1777561206803214300,1.47721435546875,-10.631250381469727,25.98750114440918,26.718751907348633
1777561206813214500,1.48721435546875,-11.30625057220459,24.375001907348633,27.562501907348633
1777561206823214300,1.49721435546875,-13.668750762939453,24.506250381469727,23.26875114440918
1777561206833214500,1.50721435546875,-12.206250190734863,23.962501525878906,25.668750762939453
1777561206843214300,1.51721435546875,-15.412500381469727,23.325000762939453,24.637500762939453
1777561206853214500,1.52721435546875,-15.412500381469727,23.325000762939453,24.637500762939453
1777561206863214300,1.53721435546875,-16.200000762939453,22.80000114440918,25.275001525878906
1777561206873214500,1.54721435546875,-15.71250057220459,23.08125114440918,24.600000381469727
1777561206883214300,1.55721435546875,-15.731250762939453,23.606250762939453,26.531251907348633
1777561206893214500,1.56721435546875,-16.481250762939453,23.400001525878906,25.106250762939453
1777561206903214300,1.57721435546875,-18.318750381469727,22.98750114440918,25.650001525878906
1777561206913214500,1.58721435546875,-16.818750381469727,22.33125114440918,25.481250762939453
1777561206923214300,1.59721435546875,-16.5,21.95625114440918,23.700000762939453
1777561206933214500,1.60721435546875,-15.581250190734863,22.537500381469727,24.356250762939453
1777561206943214300,1.61721435546875,-15.412500381469727,23.400001525878906,25.087501525878906
1777561206953214500,1.62721435546875,-15.281250953674316,22.70625114440918,25.51875114440918
1777561206963214300,1.63721435546875,-13.93125057220459,22.743751525878906,26.606250762939453
1777561206973214500,1.64721435546875,-14.043750762939453,23.73750114440918,26.662500381469727
1777561206983214300,1.65721435546875,-12.881250381469727,22.837501525878906,27.30000114440918
1777561206993214500,1.66721435546875,-13.200000762939453,21.67500114440918,26.100000381469727
1777561207003214300,1.67721435546875,-11.86875057220459,20.212501525878906,23.8125
1777561207013214500,1.68721435546875,-10.65000057220459,20.943750381469727,25.481250762939453
1777561207023214300,1.69721435546875,-11.700000762939453,21.86250114440918,27.506250381469727
1777561207033214500,1.70721435546875,-10.762500762939453,22.350000381469727,27.431251525878906
1777561207043214300,1.71721435546875,-10.631250381469727,22.256250381469727,27.562501907348633
1777561207053214500,1.72721435546875,-10.575000762939453,23.962501525878906,29.006250381469727
1777561207063214300,1.73721435546875,-11.081250190734863,22.61250114440918,29.193750381469727
1777561207073214500,1.74721435546875,-10.18125057220459,22.350000381469727,28.275001525878906
1777561207083214300,1.75721435546875,-11.362500190734863,22.89375114440918,27.693750381469727
1777561207093214500,1.76721435546875,-13.781250953674316,23.8125,28.781251907348633
1777561207103214300,1.77721435546875,-12.918750762939453,21.806251525878906,27.11250114440918
1777561207113214500,1.78721435546875,-10.293750762939453,22.89375114440918,26.83125114440918
1777561207123214300,1.79721435546875,-13.406250953674316,21.5625,28.762500762939453
1777561207133214500,1.80721435546875,-11.831250190734863,21.76875114440918,25.950000762939453
1777561207143214300,1.81721435546875,-12.956250190734863,20.53125,26.868751525878906
1777561207153214500,1.82721435546875,-13.162500381469727,22.950000762939453,26.343751907348633
1777561207163214300,1.83721435546875,-12.881250381469727,22.40625,26.943750381469727
1777561207173214500,1.84721435546875,-14.68125057220459,22.96875,26.381250381469727
1777561207183214300,1.85721435546875,-12.975000381469727,23.0625,23.681251525878906
1777561207193214500,1.86721435546875,-14.231250762939453,22.14375114440918,25.087501525878906
1777561207203214300,1.87721435546875,-12.975000381469727,23.418750762939453,24.450000762939453
1777561207213214500,1.88721435546875,-12.937500953674316,23.90625,23.568750381469727
1777561207223214300,1.89721435546875,-14.175000190734863,23.17500114440918,23.587501525878906
1777561207233214500,1.90721435546875,-12.768750190734863,24.01875114440918,22.59375
1777561207243214300,1.91721435546875,-11.756250381469727,23.381250381469727,24.131250381469727
1777561207253214500,1.92721435546875,-11.700000762939453,25.181251525878906,25.462501525878906
1777561207263214300,1.93721435546875,-9.28125,24.67500114440918,25.443750381469727
1777561207273214500,1.94721435546875,-8.71875,23.606250762939453,25.781251907348633
1777561207283214300,1.95721435546875,-5.756250381469727,25.406251907348633,25.350000381469727
1777561207293214500,1.96721435546875,-5.756250381469727,25.406251907348633,25.350000381469727
1777561207303214300,1.97721435546875,-3.8062500953674316,24.750001907348633,25.181251525878906
1777561207313214500,1.98721435546875,-4.368750095367432,25.89375114440918,25.256250381469727
1777561207323214300,1.99721435546875,-2.6812500953674316,26.73750114440918,25.950000762939453
1777561207333214500,2.00721435546875,-0.9750000238418579,25.98750114440918,21.65625
1777561207343214300,2.01721435546875,-3.731250047683716,25.89375114440918,21.86250114440918
1777561207353214500,2.02721435546875,-1.8750001192092896,26.025001525878906,21.131250381469727
1777561207363214300,2.03721435546875,-2.8125,26.250001907348633,23.45625114440918
1777561207373214500,2.04721435546875,-2.1937501430511475,26.250001907348633,22.59375
1777561207383214300,2.05721435546875,-2.9437501430511475,27.056251525878906,23.887500762939453
1777561207393214500,2.06721435546875,-2.700000047683716,25.631250381469727,24.318750381469727
1777561207403214300,2.07721435546875,-1.6125000715255737,26.100000381469727,24.093751907348633
1777561207413214500,2.08721435546875,1.1062500476837158,25.856250762939453,24.262500762939453
1777561207423214300,2.09721435546875,0.75,24.787500381469727,25.481250762939453
1777561207433214500,2.10721435546875,-0.45000001788139343,25.012500762939453,24.431251525878906
1777561207443214300,2.11721435546875,1.9687501192092896,24.993751525878906,25.200000762939453
1777561207453214500,2.12721435546875,2.7562501430511475,25.481250762939453,24.30000114440918
1777561207463214300,2.13721435546875,4.556250095367432,24.656251907348633,24.656251907348633
1777561207473214500,2.14721435546875,1.537500023841858,25.218751907348633,24.131250381469727
1777561207483214300,2.15721435546875,2.6437501907348633,26.531251907348633,24.637500762939453
1777561207493214500,2.16721435546875,6.037500381469727,27.750001907348633,24.48750114440918
1777561207503214300,2.17721435546875,3.2250001430511475,25.668750762939453,23.887500762939453
1777561207513214500,2.18721435546875,2.043750047683716,26.325000762939453,24.056251525878906
1777561207523214300,2.19721435546875,6.637500286102295,26.681251525878906,22.293750762939453
1777561207533214500,2.20721435546875,3.8812501430511475,26.212501525878906,22.42500114440918
1777561207543214300,2.21721435546875,1.256250023841858,25.575000762939453,23.212501525878906
1777561207553214500,2.22721435546875,4.200000286102295,26.043750762939453,21.262500762939453
1777561207563214300,2.23721435546875,5.25,26.700000762939453,23.193750381469727
1777561207573214500,2.24721435546875,4.78125,26.212501525878906,23.25
1777561207583214300,2.25721435546875,4.350000381469727,26.26875114440918,21.150001525878906
1777561207593214500,2.26721435546875,4.200000286102295,25.575000762939453,19.743751525878906
1777561207603214300,2.27721435546875,2.4562501907348633,24.468751907348633,21.5625
1777561207613214500,2.28721435546875,2.6812500953674316,27.412500381469727,23.8125
1777561207623214300,2.29721435546875,0.5062500238418579,25.443750381469727,22.21875
1777561207633214500,2.30721435546875,1.3875000476837158,28.575000762939453,22.368751525878906
1777561207643214300,2.31721435546875,0.9000000357627869,27.787500381469727,22.106250762939453
1777561207653214500,2.32721435546875,0.956250011920929,28.406251907348633,20.381250381469727
1777561207663214300,2.33721435546875,0.30000001192092896,26.981250762939453,19.98750114440918
1777561207673214500,2.34721435546875,2.625,27.187501907348633,17.137500762939453
1777561207683214300,2.35721435546875,2.8125,28.368751525878906,17.493751525878906
1777561207693214500,2.36721435546875,1.125,29.287500381469727,20.400001525878906
1777561207703214300,2.37721435546875,1.3125,29.587501525878906,19.89375114440918
1777561207713214500,2.38721435546875,-0.07500000298023224,28.556251525878906,17.887500762939453
1777561207723214300,2.39721435546875,-0.07500000298023224,28.70625114440918,18.918750762939453
1777561207733214500,2.40721435546875,-0.07500000298023224,28.70625114440918,18.918750762939453
1777561207743214300,2.41721435546875,-0.09375,28.875001907348633,20.08125114440918
1777561207753214500,2.42721435546875,-0.8250000476837158,29.306251525878906,18.76875114440918
1777561207763214300,2.43721435546875,-2.625,29.73750114440918,19.181251525878906
1777561207773214500,2.44721435546875,-3.937500238418579,30.318750381469727,16.368751525878906
1777561207783214300,2.45721435546875,-2.4562501907348633,30.037500381469727,18.65625
1777561207793214500,2.46721435546875,-4.293750286102295,29.64375114440918,17.64375114440918
1777561207803214300,2.47721435546875,-6.300000190734863,28.631250381469727,17.512500762939453
1777561207813214500,2.48721435546875,-8.71875,28.912500381469727,17.775001525878906
1777561207823214300,2.49721435546875,-9.037500381469727,28.650001525878906,18.431251525878906
1777561207833214500,2.50721435546875,-10.256250381469727,28.181251525878906,16.96875
1777561207843214300,2.51721435546875,-10.21875,28.968751907348633,16.40625
1777561207853214500,2.52721435546875,-11.756250381469727,28.387500762939453,16.61250114440918
1777561207863214300,2.53721435546875,-10.706250190734863,29.137500762939453,18.431251525878906
1777561207873214500,2.54721435546875,-10.55625057220459,28.500001907348633,17.45625114440918
1777561207883214300,2.55721435546875,-10.40625,28.33125114440918,17.137500762939453
1777561207893214500,2.56721435546875,-11.96250057220459,27.01875114440918,16.650001525878906
1777561207903214300,2.57721435546875,-9.506250381469727,28.350000381469727,18.11250114440918
1777561207913214500,2.58721435546875,-11.475000381469727,28.762500762939453,18.375
1777561207923214300,2.59721435546875,-8.418750762939453,29.025001525878906,17.64375114440918
1777561207933214500,2.60721435546875,-8.96250057220459,30.412500381469727,17.775001525878906
1777561207943214300,2.61721435546875,-5.662500381469727,28.89375114440918,15.843750953674316
1777561207953214500,2.62721435546875,-5.8125,29.64375114440918,17.700000762939453
1777561207963214300,2.63721435546875,-6,28.256250381469727,17.568750381469727
1777561207973214500,2.64721435546875,-4.256250381469727,30.225000381469727,17.34375
1777561207983214300,2.65721435546875,-2.0062501430511475,30.037500381469727,18.65625
1777561207993214500,2.66721435546875,-1.8750001192092896,28.875001907348633,17.587501525878906
1777561208003214300,2.67721435546875,-0.3375000059604645,29.981250762939453,19.162500381469727
1777561208013214500,2.68721435546875,-0.26250001788139343,32.28750228881836,19.59375
1777561208023214300,2.69721435546875,2.1187500953674316,30.750001907348633,19.387500762939453
1777561208033214500,2.70721435546875,-0.05625000223517418,30.150001525878906,20.306251525878906
1777561208043214300,2.71721435546875,-0.1875,29.775001525878906,18.543750762939453
1777561208053214500,2.72721435546875,1.8000000715255737,29.55000114440918,17.043750762939453
1777561208063214300,2.73721435546875,1.2937500476837158,28.631250381469727,17.587501525878906
1777561208073214500,2.74721435546875,2.7375001907348633,30.356250762939453,17.45625114440918
1777561208083214300,2.75721435546875,0.7312500476837158,29.718751907348633,17.381250381469727
1777561208093214500,2.76721435546875,2.1187500953674316,30.712501525878906,19.087501525878906
1777561208103214300,2.77721435546875,3.750000238418579,29.17500114440918,17.90625
1777561208113214500,2.78721435546875,1.9312500953674316,29.006250381469727,16.80000114440918
1777561208123214300,2.79721435546875,3.6000001430511475,28.856250762939453,16.575000762939453
1777561208133214500,2.80721435546875,2.5500001907348633,30.11250114440918,19.256250381469727
1777561208143214300,2.81721435546875,4.03125,29.73750114440918,20.981250762939453
1777561208153214500,2.82721435546875,5.850000381469727,29.775001525878906,21.225000381469727
1777561208163214300,2.83721435546875,5.850000381469727,29.775001525878906,21.225000381469727
1777561208173214500,2.84721435546875,3.9937500953674316,28.462501525878906,20.73750114440918
1777561208183214300,2.85721435546875,6.056250095367432,30.656251907348633,19.537500381469727
1777561208193214500,2.86721435546875,7.481250286102295,28.781251907348633,21.262500762939453
1777561208203214300,2.87721435546875,9,28.275001525878906,20.418750762939453
1777561208213214500,2.88721435546875,8.081250190734863,28.275001525878906,21.30000114440918
1777561208223214300,2.89721435546875,9.787500381469727,28.80000114440918,19.80000114440918
1777561208233214500,2.90721435546875,7.612500190734863,27.843751907348633,20.793750762939453
1777561208243214300,2.91721435546875,7.462500095367432,27.431251525878906,18.900001525878906
1777561208253214500,2.92721435546875,7.237500190734863,29.850000381469727,20.0625
1777561208263214300,2.93721435546875,6.618750095367432,29.193750381469727,18.975000381469727
1777561208273214500,2.94721435546875,6.581250190734863,28.818750381469727,20.73750114440918
1777561208283214300,2.95721435546875,7.162500381469727,27.11250114440918,18.412500381469727
1777561208293214500,2.96721435546875,6.656250476837158,30.58125114440918,19.931251525878906
1777561208303214300,2.97721435546875,9.1875,29.006250381469727,20.26875114440918
1777561208313214500,2.98721435546875,6.037500381469727,29.906251907348633,18.693750381469727
1777561208323214300,2.99721435546875,3.468750238418579,30.30000114440918,18.84375
1777561208333214500,3.00721435546875,5.137500286102295,29.625001907348633,17.681251525878906
1777561208343214300,3.01721435546875,4.875,31.23750114440918,18.412500381469727
1777561208353214500,3.02721435546875,4.237500190734863,30.543750762939453,18.86250114440918
1777561208363214300,3.03721435546875,4.537500381469727,30.543750762939453,18.86250114440918
1777561208373214500,3.04721435546875,5.90625,29.981250762939453,18.431251525878906
1777561208383214300,3.05721435546875,4.856250286102295,30.48750114440918,17.568750381469727
1777561208393214500,3.06721435546875,7.275000095367432,30.168750762939453,18
1777561208403214300,3.07721435546875,6.206250190734863,29.625001907348633,17.64375114440918
1777561208413214500,3.08721435546875,6.675000190734863,30.375001907348633,18.48750114440918
1777561208423214300,3.09721435546875,6.187500476837158,29.343751907348633,18.30000114440918
1777561208433214500,3.10721435546875,4.275000095367432,31.98750114440918,20.118751525878906
1777561208443214300,3.11721435546875,4.875,31.275001525878906,18.712501525878906
1777561208453214500,3.12721435546875,6.843750476837158,31.068750381469727,18.1875
1777561208463214300,3.13721435546875,8.325000762939453,29.718751907348633,17.475000381469727
1777561208473214500,3.14721435546875,6.675000190734863,29.73750114440918,16.668750762939453
1777561208483214300,3.15721435546875,5.925000190734863,31.068750381469727,19.068750381469727
1777561208493214500,3.16721435546875,5.15625,31.23750114440918,20.100000381469727
1777561208503214300,3.17721435546875,6.262500286102295,31.70625114440918,19.181251525878906
1777561208513214500,3.18721435546875,6.262500286102295,31.650001525878906,18.75
1777561208523214300,3.19721435546875,4.106250286102295,30.48750114440918,17.587501525878906
1777561208533214500,3.20721435546875,4.181250095367432,32.25,16.80000114440918
1777561208543214300,3.21721435546875,3.0562500953674316,30.731250762939453,17.53125
1777561208553214500,3.22721435546875,5.043750286102295,30.337501525878906,14.850000381469727
1777561208563214300,3.23721435546875,4.893750190734863,31.068750381469727,17.25
1777561208573214500,3.24721435546875,6.712500095367432,30.95625114440918,16.481250762939453
1777561208583214300,3.25721435546875,4.331250190734863,31.51875114440918,14.40000057220459
1777561208593214500,3.26721435546875,4.368750095367432,32.56875228881836,15.581250190734863
1777561208603214300,3.27721435546875,3.731250047683716,32.212501525878906,16.51875114440918
1777561208613214500,3.28721435546875,3.731250047683716,32.212501525878906,16.51875114440918
1777561208623214300,3.29721435546875,2.3062500953674316,31.368751525878906,17.662500381469727
1777561208633214500,3.30721435546875,3.8625001907348633,32.19375228881836,17.36250114440918
1777561208643214300,3.31721435546875,4.912500381469727,31.125001907348633,15.15000057220459
1777561208653214500,3.32721435546875,6.168750286102295,31.912500381469727,15.412500381469727
1777561208663214300,3.33721435546875,4.387500286102295,33,14.250000953674316
1777561208673214500,3.34721435546875,5.137500286102295,31.950000762939453,13.031250953674316
1777561208683214300,3.35721435546875,4.5,31.556251525878906,13.83750057220459
1777561208693214500,3.36721435546875,4.5,31.068750381469727,13.031250953674316
1777561208703214300,3.37721435546875,2.2125000953674316,31.200000762939453,13.818750381469727
1777561208713214500,3.38721435546875,2.418750047683716,32.04375076293945,12
1777561208723214300,3.39721435546875,0.768750011920929,32.98125076293945,13.218750953674316
1777561208733214500,3.40721435546875,0.65625,33.73125076293945,12.375000953674316
1777561208743214300,3.41721435546875,-0.6000000238418579,32.19375228881836,10.425000190734863
1777561208753214500,3.42721435546875,-1.6687500476837158,31.818750381469727,10.36875057220459
1777561208763214300,3.43721435546875,-0.16875000298023224,30.637500762939453,8.268750190734863
1777561208773214500,3.44721435546875,-2.5687501430511475,31.80000114440918,9.412500381469727
1777561208783214300,3.45721435546875,-4.068750381469727,31.98750114440918,8.0625
1777561208793214500,3.46721435546875,-4.200000286102295,31.462501525878906,5.287500381469727
1777561208803214300,3.47721435546875,-7.275000095367432,31.575000762939453,8.643750190734863
1777561208813214500,3.48721435546875,-7.331250190734863,31.256250381469727,10.706250190734863
1777561208823214300,3.49721435546875,-8.71875,30.618751525878906,11.456250190734863
1777561208833214500,3.50721435546875,-9.487500190734863,30.093751907348633,10.387500762939453
1777561208843214300,3.51721435546875,-8.568750381469727,30.67500114440918,11.043750762939453
1777561208853214500,3.52721435546875,-7.181250095367432,30.243751525878906,8.943750381469727
1777561208863214300,3.53721435546875,-9.037500381469727,29.625001907348633,8.887500762939453
1777561208873214500,3.54721435546875,-11.006250381469727,29.625001907348633,8.925000190734863
1777561208883214300,3.55721435546875,-9,30.618751525878906,9.768750190734863
1777561208893214500,3.56721435546875,-9.768750190734863,31.218751907348633,11.325000762939453
1777561208903214300,3.57721435546875,-8.981250762939453,32.118751525878906,11.475000381469727
1777561208913214500,3.58721435546875,-10.200000762939453,32.92500305175781,14.475000381469727
1777561208923214300,3.59721435546875,-10.068750381469727,33.35625076293945,16.537500381469727
1777561208933214500,3.60721435546875,-7.762500286102295,33.91875076293945,16.162500381469727
1777561208943214300,3.61721435546875,-7.256250381469727,34.89375305175781,16.05000114440918
1777561208953214500,3.62721435546875,-6.187500476837158,31.368751525878906,16.61250114440918
1777561208963214300,3.63721435546875,-4.612500190734863,33.60000228881836,19.125
1777561208973214500,3.64721435546875,-3.8625001907348633,33.09375,18.30000114440918
1777561208983214300,3.65721435546875,-3.1125001907348633,32.98125076293945,19.23750114440918
1777561208993214500,3.66721435546875,-2.512500047683716,32.79375076293945,18.76875114440918
1777561209003214300,3.67721435546875,-2.0812501907348633,32.306251525878906,19.650001525878906
1777561209013214500,3.68721435546875,1.5937501192092896,33.243751525878906,20.15625
1777561209023214300,3.69721435546875,2.0812501907348633,33.5625,18.09375
1777561209033214500,3.70721435546875,1.4625000953674316,32.64375305175781,16.950000762939453
1777561209043214300,3.71721435546875,1.4625000953674316,32.64375305175781,16.950000762939453
1777561209053214500,3.72721435546875,3.0375001430511475,33.712501525878906,15.693750381469727
1777561209063214300,3.73721435546875,4.537500381469727,32.94375228881836,14.793750762939453
1777561209073214500,3.74721435546875,3.0562500953674316,33.243751525878906,12.487500190734863
1777561209083214300,3.75721435546875,3.7125000953674316,34.23750305175781,11.68125057220459
1777561209093214500,3.76721435546875,3.543750047683716,33.91875076293945,12.90000057220459
1777561209103214300,3.77721435546875,4.256250381469727,32.587501525878906,12.33750057220459
1777561209113214500,3.78721435546875,4.40625,32.26875305175781,11.006250381469727
1777561209123214300,3.79721435546875,8.21250057220459,31.33125114440918,8.887500762939453
1777561209133214500,3.80721435546875,5.943750381469727,32.56875228881836,11.30625057220459
1777561209143214300,3.81721435546875,6.300000190734863,28.818750381469727,7.893750190734863
1777561209153214500,3.82721435546875,8.662500381469727,31.368751525878906,8.325000762939453
1777561209163214300,3.83721435546875,8.193750381469727,30.58125114440918,8.043750762939453
1777561209173214500,3.84721435546875,11.287500381469727,31.70625114440918,7.181250095367432
1777561209183214300,3.85721435546875,11.268750190734863,30.95625114440918,6.337500095367432
1777561209193214500,3.86721435546875,8.550000190734863,32.118751525878906,8.325000762939453
1777561209203214300,3.87721435546875,11.25,31.631250381469727,9.300000190734863
1777561209213214500,3.88721435546875,12.262500762939453,30.600000381469727,10.762500762939453
1777561209223214300,3.89721435546875,8.606250762939453,30.58125114440918,11.418750762939453
1777561209233214500,3.90721435546875,7.800000190734863,31.387500762939453,16.950000762939453
1777561209243214300,3.91721435546875,7.781250476837158,30.543750762939453,15.375000953674316
1777561209253214500,3.92721435546875,9.80625057220459,30.750001907348633,12.543750762939453
1777561209263214300,3.93721435546875,9.1875,31.593751907348633,14.981250762939453
1777561209273214500,3.94721435546875,8.287500381469727,31.256250381469727,14.381250381469727
1777561209283214300,3.95721435546875,6.881250381469727,30.58125114440918,14.850000381469727
1777561209293214500,3.96721435546875,8.21250057220459,30.468751907348633,17.475000381469727
1777561209303214300,3.97721435546875,5.981250286102295,33.20625305175781,20.887500762939453
1777561209313214500,3.98721435546875,4.181250095367432,33.30000305175781,19.818750381469727
1777561209323214300,3.99721435546875,5.53125,33.41250228881836,20.512500762939453
1777561209333214500,4.00721435546875,5.325000286102295,30.76875114440918,17.756250381469727
1777561209343214300,4.01721435546875,6.243750095367432,31.012500762939453,18.618751525878906
1777561209353214500,4.02721435546875,5.981250286102295,32.51250076293945,18.637500762939453
1777561209363214300,4.03721435546875,4.912500381469727,32.66250228881836,19.668750762939453
1777561209373214500,4.04721435546875,6.993750095367432,32.025001525878906,21.337501525878906
1777561209383214300,4.05721435546875,4.462500095367432,33.618751525878906,21.993751525878906
1777561209393214500,4.06721435546875,5.231250286102295,33.03750228881836,19.743751525878906
1777561209403214300,4.07721435546875,4.256250381469727,31.23750114440918,19.275001525878906
1777561209413214500,4.08721435546875,4.856250286102295,31.23750114440918,20.118751525878906
1777561209423214300,4.09721435546875,8.21250057220459,31.106250762939453,19.293750762939453
1777561209433214500,4.10721435546875,6.618750095367432,33.60000228881836,20.08125114440918
1777561209443214300,4.11721435546875,5.8125,33.16875076293945,21.450000762939453
1777561209453214500,4.12721435546875,5.456250190734863,31.650001525878906,21.30000114440918
1777561209463214300,4.13721435546875,8.550000190734863,32.8125,20.73750114440918
1777561209473214500,4.14721435546875,8.550000190734863,32.8125,20.73750114440918
1777561209483214300,4.15721435546875,5.34375,31.875001907348633,19.368751525878906
1777561209493214500,4.16721435546875,5.34375,31.875001907348633,19.368751525878906
1777561209503214300,4.17721435546875,6.993750095367432,32.13750076293945,22.068750381469727
1777561209513214500,4.18721435546875,7.031250476837158,32.56875228881836,20.73750114440918
1777561209523214300,4.19721435546875,5.943750381469727,31.725000381469727,19.181251525878906
1777561209533214500,4.20721435546875,6.600000381469727,33.243751525878906,20.306251525878906
1777561209543214300,4.21721435546875,7.387500286102295,33.48750305175781,19.350000381469727
1777561209553214500,4.22721435546875,7.781250476837158,31.89375114440918,18.75
1777561209563214300,4.23721435546875,6.600000381469727,33.09375,19.293750762939453
1777561209573214500,4.24721435546875,5.15625,34.5,17.756250381469727
1777561209583214300,4.25721435546875,5.887500286102295,34.125,19.5
1777561209593214500,4.26721435546875,6.300000190734863,32.51250076293945,18.618751525878906
1777561209603214300,4.27721435546875,5.4375,34.06875228881836,19.087501525878906
1777561209613214500,4.28721435546875,6.956250190734863,34.42500305175781,19.818750381469727
1777561209623214300,4.29721435546875,6.581250190734863,32.56875228881836,19.89375114440918
1777561209633214500,4.30721435546875,4.950000286102295,33.63750076293945,19.575000762939453
1777561209643214300,4.31721435546875,5.4375,33.46875,17.55000114440918
1777561209653214500,4.32721435546875,6.675000190734863,34.85625076293945,18.48750114440918
1777561209663214300,4.33721435546875,3.0187501907348633,34.03125,17.868751525878906
1777561209673214500,4.34721435546875,4.40625,34.81875228881836,18.262500762939453
1777561209683214300,4.35721435546875,6.712500095367432,35.28750228881836,17.15625
1777561209693214500,4.36721435546875,4.40625,35.45625305175781,20.08125114440918
1777561209703214300,4.37721435546875,4.256250381469727,35.868751525878906,20.306251525878906
1777561209713214500,4.38721435546875,3.8062500953674316,35.868751525878906,20.325000762939453
1777561209723214300,4.39721435546875,4.425000190734863,35.51250076293945,18.67500114440918
1777561209733214500,4.40721435546875,0.9000000357627869,35.0625,19.818750381469727
1777561209743214300,4.41721435546875,2.8500001430511475,34.29375076293945,18.918750762939453
1777561209753214500,4.42721435546875,-0.7125000357627869,36.39375305175781,19.556251525878906
1777561209763214300,4.43721435546875,-1.6125000715255737,36.35625076293945,17.587501525878906
1777561209773214500,4.44721435546875,-3.1125001907348633,36.20625305175781,16.462501525878906
1777561209783214300,4.45721435546875,-4.012500286102295,36.525001525878906,16.125
1777561209793214500,4.46721435546875,-7.237500190734863,36.50625228881836,18.46875
1777561209803214300,4.47721435546875,-7.425000190734863,34.837501525878906,17.306251525878906
1777561209813214500,4.48721435546875,-7.893750190734863,35.04375076293945,18.76875114440918
1777561209823214300,4.49721435546875,-8.043750762939453,34.72500228881836,17.45625114440918
1777561209833214500,4.50721435546875,-6.993750095367432,34.76250076293945,17.71875
1777561209843214300,4.51721435546875,-8.231250762939453,33.5625,17.08125114440918
1777561209853214500,4.52721435546875,-9,34.05000305175781,17.90625
1777561209863214300,4.53721435546875,-9.787500381469727,32.962501525878906,17.306251525878906
1777561209873214500,4.54721435546875,-11.25,34.21875,17.287500381469727
1777561209883214300,4.55721435546875,-10.256250381469727,36.67500305175781,17.887500762939453
1777561209893214500,4.56721435546875,-9.375,35.32500076293945,16.33125114440918
1777561209903214300,4.57721435546875,-8.475000381469727,34.3125,14.550000190734863
1777561209913214500,4.58721435546875,-8.475000381469727,34.3125,14.550000190734863
1777561209923214300,4.59721435546875,-9.206250190734863,35.8125,16.275001525878906
1777561209933214500,4.60721435546875,-9.99375057220459,34.95000076293945,16.42500114440918
1777561209943214300,4.61721435546875,-5.568750381469727,35.64375305175781,16.012500762939453
1777561209963214300,4.63721435546875,-2.2687501907348633,34.96875,6.337500095367432
1777561209973214500,4.64721435546875,-4.893750190734863,35.47500228881836,11.4375
1777561209983214300,4.65721435546875,-5.587500095367432,35.51250076293945,17.681251525878906
1777561209993214500,4.66721435546875,-3.7687501907348633,35.23125076293945,17.568750381469727
1777561210003214300,4.67721435546875,-1.03125,36.03750228881836,18.787500381469727
1777561210013214500,4.68721435546875,-0.768750011920929,34.743751525878906,18.525001525878906
1777561210023214300,4.69721435546875,1.6687500476837158,34.70625305175781,17.475000381469727
1777561210033214500,4.70721435546875,0.8062500357627869,36.11250305175781,17.625
1777561210043214300,4.71721435546875,3.9937500953674316,35.625,16.875
1777561210053214500,4.72721435546875,4.5,36.375,16.012500762939453
1777561210063214300,4.73721435546875,6.056250095367432,37.743751525878906,16.950000762939453
1777561210073214500,4.74721435546875,5.700000286102295,37.275001525878906,18.84375
1777561210083214300,4.75721435546875,6,36.73125076293945,18.58125114440918
1777561210093214500,4.76721435546875,5.568750381469727,37.70625305175781,18.356250762939453
1777561210103214300,4.77721435546875,6.093750476837158,34.85625076293945,17.662500381469727
1777561210113214500,4.78721435546875,5.34375,35.55000305175781,18.09375
1777561210123214300,4.79721435546875,5.025000095367432,35.71875,19.275001525878906
1777561210133214500,4.80721435546875,8.71875,36.50625228881836,17.90625
1777561210143214300,4.81721435546875,9,35.98125076293945,19.350000381469727
1777561210153214500,4.82721435546875,8.550000190734863,36.30000305175781,19.856250762939453
1777561210163214300,4.83721435546875,7.837500095367432,33.993751525878906,20.26875114440918
1777561210173214500,4.84721435546875,10.893750190734863,34.29375076293945,19.837501525878906
1777561210183214300,4.85721435546875,9.09375,34.3125,18.1875
1777561210193214500,4.86721435546875,9.881250381469727,34.6875,18.243751525878906
1777561210203214300,4.87721435546875,10.387500762939453,32.868751525878906,19.42500114440918
1777561210213214500,4.88721435546875,10.5,35.681251525878906,19.96875
1777561210223214300,4.89721435546875,9.84375,34.61250305175781,20.34375
1777561210243214300,4.91721435546875,11.49375057220459,33.28125,18.075000762939453
1777561210253214500,4.92721435546875,12.318750381469727,34.78125,18.056251525878906
1777561210263214300,4.93721435546875,9.168750762939453,35.8125,17.34375
1777561210273214500,4.94721435546875,8.25,36.9375,19.98750114440918
1777561210283214300,4.95721435546875,7.875000476837158,35.47500228881836,21.975000381469727
1777561210293214500,4.96721435546875,7.912500381469727,35.8125,19.912500381469727
1777561210303214300,4.97721435546875,8.643750190734863,35.0625,20.73750114440918
1777561210313214500,4.98721435546875,9.9375,37.57500076293945,20.90625
1777561210323214300,4.99721435546875,9,37.14375305175781,21.412500381469727
1777561210333214500,5.00721435546875,7.800000190734863,36.618751525878906,19.5
1777561210343214300,5.01721435546875,7.500000476837158,36.993751525878906,20.287500381469727
1777561210353214500,5.02721435546875,7.500000476837158,36.993751525878906,20.287500381469727
1777561210363214300,5.03721435546875,7.143750190734863,35.962501525878906,20.943750381469727
1777561210373214500,5.04721435546875,7.143750190734863,35.962501525878906,20.943750381469727
1777561210383214300,5.05721435546875,7.462500095367432,36.41250228881836,20.606250762939453
1777561210393214500,5.06721435546875,8.925000190734863,35.00625228881836,21.28125
1777561210403214300,5.07721435546875,8.418750762939453,33.78750228881836,21.48750114440918
1777561210413214500,5.08721435546875,8.456250190734863,35.23125076293945,22.743751525878906
1777561210423214300,5.09721435546875,8.49375057220459,35.0625,19.89375114440918
1777561210433214500,5.10721435546875,10.78125,34.78125,18.09375
1777561210443214300,5.11721435546875,10.143750190734863,34.66875076293945,20.625
1777561210453214500,5.12721435546875,7.875000476837158,35.41875076293945,21.543750762939453
1777561210463214300,5.13721435546875,10.012500762939453,35.962501525878906,21.86250114440918
1777561210473214500,5.14721435546875,10.5,35.64375305175781,19.668750762939453
1777561210483214300,5.15721435546875,8.943750381469727,34.650001525878906,18.825000762939453
1777561210493214500,5.16721435546875,12.356250762939453,37.06875228881836,20.887500762939453
1777561210503214300,5.17721435546875,10.668750762939453,36.54375076293945,20.681251525878906
1777561210513214500,5.18721435546875,8.643750190734863,34.462501525878906,19.21875
1777561210523214300,5.19721435546875,10.668750762939453,35.51250076293945,17.943750381469727
1777561210533214500,5.20721435546875,14.606250762939453,35.08125305175781,17.625
1777561210543214300,5.21721435546875,11.90625,35.64375305175781,17.100000381469727
1777561210553214500,5.22721435546875,12.99375057220459,35.32500076293945,14.043750762939453
1777561210563214300,5.23721435546875,12.956250190734863,34.78125,14.643750190734863
1777561210573214500,5.24721435546875,12.468750953674316,33.900001525878906,15.487500190734863
1777561210583214300,5.25721435546875,11.756250381469727,35.79375076293945,17.26875114440918
1777561210593214500,5.26721435546875,10.200000762939453,35.79375076293945,19.856250762939453
1777561210603214300,5.27721435546875,11.30625057220459,36.45000076293945,18.39375114440918
1777561210613214500,5.28721435546875,9.300000190734863,36.28125,19.837501525878906
1777561210623214300,5.29721435546875,10.875,37.95000076293945,20.100000381469727
1777561210633214500,5.30721435546875,8.737500190734863,37.368751525878906,19.481250762939453
1777561210643214300,5.31721435546875,9.825000762939453,38.10000228881836,19.462501525878906
1777561210653214500,5.32721435546875,9.112500190734863,39.07500076293945,19.23750114440918
1777561210663214300,5.33721435546875,9.075000762939453,38.90625,20.606250762939453
1777561210673214500,5.34721435546875,8.456250190734863,37.05000305175781,17.306251525878906
1777561210683214300,5.35721435546875,8.287500381469727,36.97500228881836,17.73750114440918
1777561210693214500,5.36721435546875,9.28125,38.90625,17.231250762939453
1777561210703214300,5.37721435546875,6.843750476837158,38.17500305175781,15.600000381469727
1777561210713214500,5.38721435546875,7.856250286102295,37.03125,16.33125114440918
1777561210723214300,5.39721435546875,6.806250095367432,37.38750076293945,16.14375114440918
1777561210733214500,5.40721435546875,5.606250286102295,39.056251525878906,19.05000114440918
1777561210743214300,5.41721435546875,4.725000381469727,39.35625076293945,18.5625
1777561210753214500,5.42721435546875,2.3062500953674316,39.46875,17.662500381469727
1777561210763214300,5.43721435546875,-0.13125000894069672,39.712501525878906,18.337501525878906
1777561210773214500,5.44721435546875,0.3187500238418579,39,16.912500381469727
1777561210783214300,5.45721435546875,-3.1125001907348633,39.9375,15.637500762939453
1777561210793214500,5.46721435546875,-3.1125001907348633,39.9375,15.637500762939453
1777561210803214300,5.47721435546875,-4.087500095367432,39.01875305175781,17.043750762939453
1777561210813214500,5.48721435546875,-3.918750047683716,38.92500305175781,15.450000762939453
1777561210823214300,5.49721435546875,-7.143750190734863,37.931251525878906,15.487500190734863
1777561210833214500,5.50721435546875,-6.506250381469727,38.94375228881836,15.52500057220459
1777561210843214300,5.51721435546875,-8.737500190734863,39.97500228881836,15.787500381469727
1777561210853214500,5.52721435546875,-10.012500762939453,39.22500228881836,17.512500762939453
1777561210863214300,5.53721435546875,-8.081250190734863,38.53125,18.75
1777561210873214500,5.54721435546875,-9.112500190734863,38.26875305175781,16.03125
1777561210883214300,5.55721435546875,-11.550000190734863,38.13750076293945,15.937500953674316
1777561210893214500,5.56721435546875,-12.656250953674316,37.21875,16.5
1777561210903214300,5.57721435546875,-10.03125,38.625,17.681251525878906
1777561210913214500,5.58721435546875,-11.081250190734863,38.92500305175781,17.0625
1777561210923214300,5.59721435546875,-11.0625,39.07500076293945,16.387500762939453
1777561210933214500,5.60721435546875,-11.68125057220459,38.962501525878906,16.51875114440918
1777561210943214300,5.61721435546875,-9.412500381469727,39.22500228881836,18.337501525878906
1777561210953214500,5.62721435546875,-11.0625,39.07500076293945,16.387500762939453
1777561210963214300,5.63721435546875,-10.912500381469727,39.41250228881836,17.006250381469727
1777561210973214500,5.64721435546875,-10.012500762939453,39.76875305175781,18.600000381469727
1777561210983214300,5.65721435546875,-6.543750286102295,39.26250076293945,19.556251525878906
1777561210993214500,5.66721435546875,-6.112500190734863,37.76250076293945,16.837501525878906
1777561211003214300,5.67721435546875,-3.9562501907348633,39.150001525878906,18.75
1777561211013214500,5.68721435546875,-2.1750001907348633,38.47500228881836,20.981250762939453
1777561211023214300,5.69721435546875,-0.675000011920929,38.53125,21.375
1777561211033214500,5.70721435546875,-1.1437500715255737,37.78125,21.375
1777561211043214300,5.71721435546875,0.6937500238418579,38.41875076293945,21.450000762939453
1777561211053214500,5.72721435546875,3.1312501430511475,38.19375228881836,20.775001525878906
1777561211063214300,5.73721435546875,5.981250286102295,37.48125076293945,21.131250381469727
1777561211073214500,5.74721435546875,5.493750095367432,35.45625305175781,18.356250762939453
1777561211083214300,5.75721435546875,7.068750381469727,37.59375,20.137500762939453
1777561211093214500,5.76721435546875,9.356250762939453,37.462501525878906,19.350000381469727
1777561211103214300,5.77721435546875,9.90000057220459,36.22500228881836,20.231250762939453
1777561211113214500,5.78721435546875,10.068750381469727,36.67500305175781,19.875
1777561211123214300,5.79721435546875,10.200000762939453,36.69375228881836,21.712501525878906
1777561211133214500,5.80721435546875,8.68125057220459,36.54375076293945,20.73750114440918
1777561211143214300,5.81721435546875,6.881250381469727,37.80000305175781,22.443750381469727
1777561211153214500,5.82721435546875,7.462500095367432,36.50625228881836,21.337501525878906
1777561211163214300,5.83721435546875,8.71875,37.61250305175781,21.225000381469727
1777561211173214500,5.84721435546875,10.912500381469727,36,22.96875
1777561211183214300,5.85721435546875,10.518750190734863,37.35000228881836,22.818750381469727
1777561211193214500,5.86721435546875,9.1875,37.875,21.262500762939453
1777561211203214300,5.87721435546875,11.287500381469727,36.806251525878906,20.868751525878906
1777561211213214500,5.88721435546875,9.75,36.993751525878906,22.068750381469727
1777561211223214300,5.89721435546875,9.75,36.993751525878906,22.068750381469727
1777561211233214500,5.90721435546875,13.875000953674316,37.61250305175781,22.068750381469727
1777561211243214300,5.91721435546875,9.300000190734863,36.431251525878906,20.850000381469727
1777561211253214500,5.92721435546875,9.300000190734863,36.431251525878906,20.850000381469727
1777561211263214300,5.93721435546875,10.200000762939453,36.22500228881836,20.212501525878906
1777561211273214500,5.94721435546875,11.30625057220459,37.70625305175781,21.037500381469727
1777561211283214300,5.95721435546875,9.862500190734863,35.306251525878906,20.756250381469727
1777561211293214500,5.96721435546875,8.418750762939453,37.51875305175781,20.512500762939453
1777561211303214300,5.97721435546875,8.231250762939453,36.45000076293945,20.868751525878906
1777561211313214500,5.98721435546875,9.450000762939453,37.181251525878906,22.537500381469727
1777561211323214300,5.99721435546875,9.918750762939453,37.03125,21.506250381469727
1777561211333214500,6.00721435546875,9.018750190734863,37.931251525878906,22.556251525878906
1777561211343214300,6.01721435546875,10.27500057220459,38.212501525878906,21.01875114440918
1777561211353214500,6.02721435546875,10.106250762939453,37.5,19.61250114440918
1777561211363214300,6.03721435546875,9.131250381469727,36.431251525878906,21.693750381469727
1777561211373214500,6.04721435546875,9.52500057220459,38.88750076293945,21.450000762939453
1777561211383214300,6.05721435546875,10.818750381469727,36.28125,19.78125
1777561211393214500,6.06721435546875,9.168750762939453,36.82500076293945,20.08125114440918
1777561211403214300,6.07721435546875,11.8125,38.775001525878906,20.662500381469727
1777561211413214500,6.08721435546875,10.162500381469727,35.306251525878906,20.73750114440918
1777561211423214300,6.09721435546875,11.71875,36.63750076293945,21.375
1777561211433214500,6.10721435546875,13.08750057220459,36.11250305175781,20.400001525878906
1777561211443214300,6.11721435546875,11.86875057220459,36.22500228881836,21.168750762939453
1777561211453214500,6.12721435546875,13.875000953674316,37.650001525878906,22.368751525878906
1777561211463214300,6.13721435546875,11.71875,36.20625305175781,20.17500114440918
1777561211473214500,6.14721435546875,14.475000381469727,36.45000076293945,20.137500762939453
1777561211483214300,6.15721435546875,12.656250953674316,36.806251525878906,20.83125114440918
1777561211493214500,6.16721435546875,14.175000190734863,36.58125305175781,19.33125114440918
1777561211503214300,6.17721435546875,14.49375057220459,36.20625305175781,18.412500381469727
1777561211513214500,6.18721435546875,13.218750953674316,35.66250228881836,20.73750114440918
1777561211523214300,6.19721435546875,13.256250381469727,36.056251525878906,19.106250762939453
1777561211533214500,6.20721435546875,15.693750381469727,36.63750076293945,19.725000381469727
1777561211543214300,6.21721435546875,12.90000057220459,35.34375,21.11250114440918
1777561211553214500,6.22721435546875,12.187500953674316,36.525001525878906,20.64375114440918
1777561211563214300,6.23721435546875,12.487500190734863,35.60625076293945,18.618751525878906
1777561211573214500,6.24721435546875,15.281250953674316,37.10625076293945,17.850000381469727
1777561211583214300,6.25721435546875,13.406250953674316,35.73750305175781,17.775001525878906
1777561211593214500,6.26721435546875,14.68125057220459,37.96875,20.287500381469727
1777561211603214300,6.27721435546875,13.443750381469727,37.33125305175781,20.193750381469727
1777561211613214500,6.28721435546875,14.925000190734863,35.94375228881836,19.181251525878906
1777561211623214300,6.29721435546875,12.975000381469727,36.150001525878906,18.01875114440918
1777561211633214500,6.30721435546875,13.312500953674316,37.16250228881836,18.1875
1777561211643214300,6.31721435546875,13.762500762939453,37.125,17.887500762939453
1777561211653214500,6.32721435546875,12.24375057220459,36.63750076293945,17.137500762939453
1777561211663214300,6.33721435546875,12.24375057220459,36.63750076293945,17.137500762939453
1777561211673214500,6.34721435546875,11.49375057220459,37.42500305175781,18.30000114440918
1777561211683214300,6.35721435546875,11.40000057220459,38.85000228881836,17.71875
1777561211693214500,6.36721435546875,11.737500190734863,39.375,17.100000381469727
1777561211703214300,6.37721435546875,9.075000762939453,37.48125076293945,16.818750381469727
1777561211713214500,6.38721435546875,11.11875057220459,38.681251525878906,15.71250057220459
1777561211723214300,6.39721435546875,9.412500381469727,38.15625,17.212501525878906
1777561211733214500,6.40721435546875,10.050000190734863,38.681251525878906,15.750000953674316
1777561211743214300,6.41721435546875,9.168750762939453,39.01875305175781,14.568750381469727
1777561211753214500,6.42721435546875,5.325000286102295,37.650001525878906,13.706250190734863
1777561211763214300,6.43721435546875,6.206250190734863,37.78125,16.387500762939453
1777561211773214500,6.44721435546875,2.625,39.58125305175781,16.6875
1777561211783214300,6.45721435546875,4.518750190734863,41.34375,16.818750381469727
1777561211793214500,6.46721435546875,1.7437500953674316,39.76875305175781,14.475000381469727
1777561211813214500,6.48721435546875,1.9500000476837158,40.66875076293945,12.956250190734863
1777561211823214300,6.49721435546875,-0.30000001192092896,41.32500076293945,13.143750190734863
1777561211833214500,6.50721435546875,-2.7562501430511475,40.35000228881836,12.450000762939453
1777561211843214300,6.51721435546875,-1.7062500715255737,40.85625076293945,14.21250057220459
1777561211853214500,6.52721435546875,-2.7750000953674316,40.33125305175781,14.006250381469727
1777561211863214300,6.53721435546875,-5.400000095367432,39.46875,14.887500762939453
1777561211873214500,6.54721435546875,-3.731250047683716,39.337501525878906,14.96250057220459
1777561211883214300,6.55721435546875,-4.762500286102295,40.368751525878906,15.187500953674316
1777561211893214500,6.56721435546875,-2.0250000953674316,41.28750228881836,16.275001525878906
1777561211903214300,6.57721435546875,-2.34375,40.63125228881836,16.162500381469727
1777561211913214500,6.58721435546875,-3.281250238418579,38.94375228881836,13.893750190734863
1777561211923214300,6.59721435546875,-2.0062501430511475,41.00625228881836,14.40000057220459
1777561211933214500,6.60721435546875,-2.1750001907348633,41.0625,15.675000190734863
1777561211943214300,6.61721435546875,-2.3625001907348633,40.368751525878906,16.818750381469727
1777561211953214500,6.62721435546875,-0.09375,39.39375305175781,14.456250190734863
1777561211963214300,6.63721435546875,-0.48750001192092896,41.10000228881836,15.075000762939453
1777561211973214500,6.64721435546875,1.631250023841858,41.08125305175781,15.862500190734863
1777561211983214300,6.65721435546875,1.8750001192092896,40.125,17.793750762939453
1777561211993214500,6.66721435546875,2.137500047683716,39.86250305175781,19.42500114440918
1777561212003214300,6.67721435546875,3.8062500953674316,39.1875,18.262500762939453
1777561212013214500,6.68721435546875,4.875,39.07500076293945,17.512500762939453
1777561212023214300,6.69721435546875,2.90625,39.69375228881836,18.243751525878906
1777561212033214500,6.70721435546875,3.2062501907348633,39.75,18.67500114440918
1777561212043214300,6.71721435546875,4.856250286102295,37.96875,15.90000057220459
1777561212053214500,6.72721435546875,7.612500190734863,38.0625,14.850000381469727
1777561212063214300,6.73721435546875,7.162500381469727,38.962501525878906,16.725000381469727
1777561212073214500,6.74721435546875,8.11875057220459,39.54375076293945,15.675000190734863
1777561212083214300,6.75721435546875,7.631250381469727,39.22500228881836,16.05000114440918
1777561212093214500,6.76721435546875,7.631250381469727,39.22500228881836,16.05000114440918
1777561212103214300,6.77721435546875,8.0625,38.8125,16.537500381469727
1777561212113214500,6.78721435546875,7.050000190734863,40.40625,17.287500381469727
1777561212123214300,6.79721435546875,10.08750057220459,39.22500228881836,15.15000057220459
1777561212133214500,6.80721435546875,10.08750057220459,40.44375228881836,17.493751525878906
1777561212143214300,6.81721435546875,8.53125,38.75625228881836,16.21875
1777561212153214500,6.82721435546875,8.831250190734863,37.91250228881836,14.643750190734863
1777561212163214300,6.83721435546875,8.887500762939453,39.28125,13.781250953674316
1777561212173214500,6.84721435546875,11.68125057220459,41.28750228881836,14.793750762939453
1777561212183214300,6.85721435546875,10.08750057220459,38.587501525878906,13.331250190734863
1777561212193214500,6.86721435546875,11.793750762939453,39.75,13.65000057220459
1777561212203214300,6.87721435546875,11.77500057220459,39.11250305175781,13.518750190734863
1777561212213214500,6.88721435546875,10.74375057220459,40.181251525878906,14.043750762939453
1777561212223214300,6.89721435546875,9.918750762939453,38.212501525878906,13.406250953674316
1777561212233214500,6.90721435546875,8.793750762939453,41.19375228881836,15.000000953674316
1777561212243214300,6.91721435546875,9.206250190734863,39.97500228881836,15.168750762939453
1777561212253214500,6.92721435546875,10.125,40.38750076293945,14.662500381469727
1777561212263214300,6.93721435546875,7.837500095367432,39.76875305175781,14.606250762939453
1777561212273214500,6.94721435546875,7.350000381469727,39.01875305175781,13.762500762939453
1777561212283214300,6.95721435546875,8.15625,39.806251525878906,13.200000762939453
1777561212293214500,6.96721435546875,8.100000381469727,38.70000076293945,14.11875057220459
1777561212303214300,6.97721435546875,7.893750190734863,41.19375228881836,14.175000190734863
1777561212313214500,6.98721435546875,7.068750381469727,39.73125076293945,14.325000762939453
1777561212323214300,6.99721435546875,7.237500190734863,40.3125,14.86875057220459
1777561212333214500,7.00721435546875,8.662500381469727,41.53125,13.93125057220459
1777561212343214300,7.01721435546875,7.293750286102295,41.26875305175781,12.918750762939453
1777561212353214500,7.02721435546875,7.762500286102295,41.41875076293945,12.24375057220459
1777561212363214300,7.03721435546875,9,41.41875076293945,11.362500190734863
1777561212373214500,7.04721435546875,7.275000095367432,40.63125228881836,12.80625057220459
1777561212383214300,7.05721435546875,11.21250057220459,40.01250076293945,12.018750190734863
1777561212393214500,7.06721435546875,11.8125,39.11250305175781,10.987500190734863
1777561212403214300,7.07721435546875,12.731250762939453,40.10625076293945,12.693750381469727
1777561212413214500,7.08721435546875,15.018750190734863,40.51875305175781,13.856250762939453
1777561212423214300,7.09721435546875,15.093750953674316,38.55000305175781,14.043750762939453
1777561212433214500,7.10721435546875,17.325000762939453,37.087501525878906,12.562500953674316
1777561212443214300,7.11721435546875,17.231250762939453,37.51875305175781,10.387500762939453
1777561212453214500,7.12721435546875,20.45625114440918,38.775001525878906,11.40000057220459
1777561212463214300,7.13721435546875,20.887500762939453,38.13750076293945,11.268750190734863
1777561212473214500,7.14721435546875,21.30000114440918,36.150001525878906,9.600000381469727
1777561212483214300,7.15721435546875,22.51875114440918,36.41250228881836,8.925000190734863
1777561212493214500,7.16721435546875,24.468751907348633,36.03750228881836,9.787500381469727
1777561212503214300,7.17721435546875,24.30000114440918,34.63125228881836,7.818750381469727
1777561212513214500,7.18721435546875,24.843751907348633,35.36250305175781,6.975000381469727
1777561212523214300,7.19721435546875,24.975000381469727,34.368751525878906,6.918750286102295
1777561212533214500,7.20721435546875,24.975000381469727,34.368751525878906,6.918750286102295
1777561212543214300,7.21721435546875,25.556251525878906,33.82500076293945,6.656250476837158
1777561212553214500,7.22721435546875,26.812501907348633,34.29375076293945,5.587500095367432
1777561212563214300,7.23721435546875,27.281251907348633,34.06875228881836,3.262500047683716
1777561212573214500,7.24721435546875,26.343751907348633,33.65625,3.7875001430511475
1777561212583214300,7.25721435546875,30.11250114440918,33.13125228881836,4.575000286102295
1777561212593214500,7.26721435546875,29.231250762939453,32.13750076293945,0.30000001192092896
1777561212603214300,7.27721435546875,29.437501907348633,32.868751525878906,-1.537500023841858
1777561212613214500,7.28721435546875,28.80000114440918,33.03750228881836,0.48750001192092896
1777561212623214300,7.29721435546875,30.318750381469727,32.681251525878906,-0.3187500238418579
1777561212633214500,7.30721435546875,29.231250762939453,31.031251907348633,-3
1777561212643214300,7.31721435546875,28.556251525878906,33.75,-1.4812500476837158
1777561212653214500,7.32721435546875,29.418750762939453,31.837501525878906,-2.71875
1777561212663214300,7.33721435546875,30.937501907348633,32.17500305175781,-1.9875000715255737
1777561212673214500,7.34721435546875,28.781251907348633,30.281251907348633,-5.681250095367432
1777561212683214300,7.35721435546875,30.075000762939453,32.08125305175781,-6.075000286102295
1777561212693214500,7.36721435546875,29.100000381469727,30.806251525878906,-5.456250190734863
1777561212703214300,7.37721435546875,30.01875114440918,31.500001907348633,-4.068750381469727
1777561212713214500,7.38721435546875,31.537500381469727,30.900001525878906,-5.643750190734863
1777561212723214300,7.39721435546875,29.287500381469727,31.61250114440918,-5.006250381469727
1777561212733214500,7.40721435546875,29.100000381469727,30.881250381469727,-5.006250381469727
1777561212743214300,7.41721435546875,29.681251525878906,30.262500762939453,-4.856250286102295
1777561212753214500,7.42721435546875,28.556251525878906,31.668750762939453,-7.237500190734863
1777561212763214300,7.43721435546875,29.45625114440918,31.931251525878906,-6.225000381469727
1777561212773214500,7.44721435546875,29.156251907348633,32.34375,-5.15625
1777561212783214300,7.45721435546875,27.993751525878906,33.16875076293945,-6.375000476837158
1777561212793214500,7.46721435546875,29.418750762939453,30.11250114440918,-7.706250190734863
1777561212803214300,7.47721435546875,26.906251907348633,31.931251525878906,-7.987500190734863
1777561212813214500,7.48721435546875,28.61250114440918,33.69375228881836,-6.150000095367432
1777561212823214300,7.49721435546875,26.437501907348633,31.256250381469727,-8.40000057220459
1777561212833214500,7.50721435546875,23.625,34.743751525878906,-4.96875
1777561212843214300,7.51721435546875,23.025001525878906,35.17500305175781,-4.59375
1777561212853214500,7.52721435546875,24.150001525878906,36.07500076293945,-6.993750095367432
1777561212863214300,7.53721435546875,21.09375,36.431251525878906,-4.59375
1777561212873214500,7.54721435546875,20.8125,36.26250076293945,-5.737500190734863
1777561212883214300,7.55721435546875,19.668750762939453,37.91250228881836,-7.218750476837158
1777561212893214500,7.56721435546875,17.043750762939453,37.181251525878906,-5.456250190734863
1777561212903214300,7.57721435546875,14.756250381469727,37.20000076293945,-5.400000095367432
1777561212913214500,7.58721435546875,14.21250057220459,38.025001525878906,-7.481250286102295
1777561212923214300,7.59721435546875,11.8125,40.10625076293945,-5.193750381469727
1777561212933214500,7.60721435546875,11.77500057220459,38.8125,-5.4375
1777561212943214300,7.61721435546875,9.356250762939453,39.26250076293945,-5.006250381469727
1777561212953214500,7.62721435546875,9.356250762939453,38.83125305175781,-6.206250190734863
1777561212963214300,7.63721435546875,8.043750762939453,39.69375228881836,-7.987500190734863
1777561212973214500,7.64721435546875,8.043750762939453,39.69375228881836,-7.987500190734863
1777561212983214300,7.65721435546875,5.737500190734863,39.07500076293945,-8.043750762939453
1777561212993214500,7.66721435546875,4.612500190734863,40.05000305175781,-7.106250286102295
1777561213003214300,7.67721435546875,2.7750000953674316,39.50625228881836,-8.287500381469727
1777561213013214500,7.68721435546875,2.231250047683716,39.900001525878906,-11.58750057220459
1777561213023214300,7.69721435546875,0.8062500357627869,39.525001525878906,-8.231250762939453
1777561213033214500,7.70721435546875,1.256250023841858,39.525001525878906,-8.25
1777561213043214300,7.71721435546875,0.5250000357627869,40.61250305175781,-7.593750476837158
1777561213053214500,7.72721435546875,0.03750000149011612,38.51250076293945,-10.950000762939453
1777561213063214300,7.73721435546875,-2.6625001430511475,39.82500076293945,-9.637500762939453
1777561213073214500,7.74721435546875,-0.7312500476837158,39.45000076293945,-7.068750381469727
1777561213083214300,7.75721435546875,-3.3187501430511475,38.38125228881836,-10.18125057220459
1777561213093214500,7.76721435546875,-3.9937500953674316,36.84375,-8.756250381469727
1777561213103214300,7.77721435546875,-2.9625000953674316,40.03125,-9.018750190734863
1777561213113214500,7.78721435546875,-5.268750190734863,39.03750228881836,-9.99375057220459
1777561213123214300,7.79721435546875,-5.306250095367432,37.70625305175781,-10.537500381469727
1777561213133214500,7.80721435546875,-5.456250190734863,38.400001525878906,-9.131250381469727
1777561213143214300,7.81721435546875,-4.181250095367432,35.400001525878906,-11.006250381469727
1777561213153214500,7.82721435546875,-5.550000190734863,39.5625,-10.59375
1777561213163214300,7.83721435546875,-6.093750476837158,37.59375,-8.700000762939453
1777561213173214500,7.84721435546875,-5.325000286102295,38.28750228881836,-8.30625057220459
1777561213183214300,7.85721435546875,-4.668750286102295,39.41250228881836,-8.25
1777561213193214500,7.86721435546875,-3.731250047683716,39.78750228881836,-9.05625057220459
1777561213203214300,7.87721435546875,-4.256250381469727,38.60625076293945,-7.706250190734863
1777561213213214500,7.88721435546875,-4.125,37.275001525878906,-9.24375057220459
1777561213223214300,7.89721435546875,-4.21875,39.1875,-8.02500057220459
1777561213233214500,7.90721435546875,-3.918750047683716,39.50625228881836,-7.537500381469727
1777561213243214300,7.91721435546875,-4.256250381469727,39.13125228881836,-5.90625
1777561213253214500,7.92721435546875,-6.281250476837158,37.556251525878906,-6.450000286102295
1777561213263214300,7.93721435546875,-4.275000095367432,38.55000305175781,-5.606250286102295
1777561213273214500,7.94721435546875,-5.118750095367432,36.73125076293945,-5.212500095367432
1777561213283214300,7.95721435546875,-4.762500286102295,38.400001525878906,-4.912500381469727
1777561213293214500,7.96721435546875,-4.78125,36.84375,-7.050000190734863
1777561213303214300,7.97721435546875,-3.5062501430511475,38.38125228881836,-6.787500381469727
1777561213313214500,7.98721435546875,-3.9750001430511475,38.962501525878906,-5.25
1777561213323214300,7.99721435546875,-5.568750381469727,36.26250076293945,-6.712500095367432
1777561213333214500,8.00721435546875,-5.418750286102295,36.375,-6.825000286102295
1777561213343214300,8.01721435546875,-6.562500476837158,38.45625305175781,-6.262500286102295
1777561213353214500,8.02721435546875,-4.256250381469727,37.76250076293945,-9.28125
1777561213363214300,8.03721435546875,-5.53125,37.10625076293945,-6.975000381469727
1777561213373214500,8.04721435546875,-5.643750190734863,37.63125228881836,-8.418750762939453
1777561213383214300,8.05721435546875,-4.743750095367432,37.23750305175781,-8.662500381469727
1777561213393214500,8.06721435546875,-3.5250000953674316,37.6875,-7.200000286102295
1777561213403214300,8.07721435546875,-3.5250000953674316,37.6875,-7.200000286102295
1777561213413214500,8.08721435546875,-4.012500286102295,36.78750228881836,-7.350000381469727
1777561213423214300,8.09721435546875,-3.9937500953674316,36.46875,-9.52500057220459
1777561213433214500,8.10721435546875,-4.331250190734863,36.900001525878906,-6.618750095367432
1777561213443214300,8.11721435546875,-1.912500023841858,36.39375305175781,-6.637500286102295
1777561213453214500,8.12721435546875,-1.8562500476837158,38.73750305175781,-5.0625
1777561213463214300,8.13721435546875,-2.6812500953674316,36.39375305175781,-6.618750095367432
1777561213473214500,8.14721435546875,0.375,36.75,-5.925000190734863
1777561213483214300,8.15721435546875,-0.11250000447034836,36.11250305175781,-6.037500381469727
1777561213493214500,8.16721435546875,-0.7125000357627869,35.79375076293945,-7.350000381469727
1777561213503214300,8.17721435546875,-0.05625000223517418,37.35000228881836,-6.075000286102295
1777561213513214500,8.18721435546875,-0.8812500238418579,34.80000305175781,-9.09375
1777561213523214300,8.19721435546875,0.4125000238418579,37.63125228881836,-6.750000476837158
1777561213533214500,8.20721435546875,-0.39375001192092896,36.39375305175781,-6.675000190734863
1777561213543214300,8.21721435546875,0.39375001192092896,37.23750305175781,-6.825000286102295
1777561213553214500,8.22721435546875,0.8062500357627869,35.73750305175781,-7.687500476837158
1777561213563214300,8.23721435546875,2.8125,36.75,-7.537500381469727
1777561213573214500,8.24721435546875,3.450000047683716,36.63750076293945,-9.131250381469727
1777561213583214300,8.25721435546875,4.631250381469727,36.35625076293945,-7.668750286102295
1777561213593214500,8.26721435546875,3.356250047683716,35.19375228881836,-6.300000190734863
1777561213603214300,8.27721435546875,4.837500095367432,35.0625,-4.537500381469727
1777561213613214500,8.28721435546875,4.556250095367432,35.60625076293945,-4.275000095367432
1777561213623214300,8.29721435546875,5.025000095367432,35.94375228881836,-4.518750190734863
1777561213633214500,8.30721435546875,4.818750381469727,34.96875,-3.562500238418579
1777561213643214300,8.31721435546875,5.212500095367432,36.67500305175781,-4.650000095367432
1777561213653214500,8.32721435546875,5.231250286102295,37.3125,-4.537500381469727
1777561213663214300,8.33721435546875,6.075000286102295,35.23125076293945,-5.100000381469727
1777561213673214500,8.34721435546875,6.262500286102295,36.13125228881836,-5.775000095367432
1777561213683214300,8.35721435546875,6.693750381469727,35.64375305175781,-4.893750190734863
1777561213693214500,8.36721435546875,7.462500095367432,35.587501525878906,-5.212500095367432
1777561213703214300,8.37721435546875,5.493750095367432,36.243751525878906,-5.025000095367432
1777561213713214500,8.38721435546875,6.075000286102295,35.17500305175781,-5.53125
1777561213723214300,8.39721435546875,6.693750381469727,35.38125228881836,-4.950000286102295
1777561213733214500,8.40721435546875,6.843750476837158,35.118751525878906,-5.850000381469727
1777561213743214300,8.41721435546875,6.712500095367432,35.92500305175781,-5.550000190734863
1777561213753214500,8.42721435546875,8.96250057220459,34.40625,-7.312500476837158
1777561213763214300,8.43721435546875,8.981250762939453,35.212501525878906,-6.018750190734863
1777561213773214500,8.44721435546875,8.175000190734863,33.9375,-6.243750095367432
1777561213783214300,8.45721435546875,7.462500095367432,34.57500076293945,-7.950000286102295
1777561213793214500,8.46721435546875,9.5625,34.20000076293945,-7.931250095367432
1777561213803214300,8.47721435546875,8.081250190734863,34.6875,-8.77500057220459
1777561213813214500,8.48721435546875,8.325000762939453,33.65625,-7.293750286102295
1777561213823214300,8.49721435546875,9.112500190734863,34.368751525878906,-6.750000476837158
1777561213833214500,8.50721435546875,9.300000190734863,35.19375228881836,-7.875000476837158
1777561213843214300,8.51721435546875,9.300000190734863,35.19375228881836,-7.875000476837158
1777561213853214500,8.52721435546875,8.793750762939453,33.76875305175781,-8.268750190734863
1777561213863214300,8.53721435546875,8.943750381469727,33.16875076293945,-8.96250057220459
1777561213873214500,8.54721435546875,9.318750381469727,34.57500076293945,-10.387500762939453
1777561213883214300,8.55721435546875,9.28125,33.65625,-9.862500190734863
1777561213893214500,8.56721435546875,9.90000057220459,33.88125228881836,-10.106250762939453
1777561213903214300,8.57721435546875,9.61875057220459,35.36250305175781,-8.418750762939453
1777561213913214500,8.58721435546875,9.731250762939453,34.14375305175781,-9.075000762939453
1777561213923214300,8.59721435546875,10.518750190734863,34.89375305175781,-8.25
1777561213933214500,8.60721435546875,10.068750381469727,35.08125305175781,-8.625
1777561213943214300,8.61721435546875,8.325000762939453,33.16875076293945,-8.081250190734863
1777561213953214500,8.62721435546875,8.943750381469727,33.5625,-8.887500762939453
1777561213963214300,8.63721435546875,8.550000190734863,34.03125,-11.606250762939453
1777561213973214500,8.64721435546875,8.231250762939453,33.95625305175781,-10.481250762939453
1777561213983214300,8.65721435546875,7.612500190734863,35.306251525878906,-6.243750095367432
1777561213993214500,8.66721435546875,6.562500476837158,35.0625,-7.968750476837158
1777561214003214300,8.67721435546875,4.256250381469727,34.6875,-6.281250476837158
1777561214013214500,8.68721435546875,5.193750381469727,35.28750228881836,-7.312500476837158
1777561214023214300,8.69721435546875,4.818750381469727,33.50625228881836,-6.656250476837158
1777561214033214500,8.70721435546875,3.0562500953674316,34.01250076293945,-9.206250190734863
1777561214043214300,8.71721435546875,1.818750023841858,34.70625305175781,-7.068750381469727
1777561214053214500,8.72721435546875,-0.13125000894069672,34.95000076293945,-7.950000286102295
1777561214063214300,8.73721435546875,-1.1812500953674316,35.15625,-8.30625057220459
1777561214073214500,8.74721435546875,-3.6187500953674316,35.118751525878906,-7.687500476837158
1777561214083214300,8.75721435546875,-4.256250381469727,34.70625305175781,-7.181250095367432
1777561214093214500,8.76721435546875,-4.293750286102295,33.91875076293945,-6.618750095367432
1777561214103214300,8.77721435546875,-6.262500286102295,33.82500076293945,-7.293750286102295
1777561214113214500,8.78721435546875,-8.193750381469727,34.087501525878906,-8.887500762939453
1777561214123214300,8.79721435546875,-7.668750286102295,32.85000228881836,-7.162500381469727
1777561214133214500,8.80721435546875,-9.581250190734863,33.618751525878906,-8.662500381469727
1777561214143214300,8.81721435546875,-9.9375,32.45625305175781,-8.175000190734863
1777561214153214500,8.82721435546875,-11.02500057220459,31.537500381469727,-9.300000190734863
1777561214163214300,8.83721435546875,-12.093750953674316,31.05000114440918,-10.068750381469727
1777561214173214500,8.84721435546875,-13.031250953674316,30.693750381469727,-9.131250381469727
1777561214183214300,8.85721435546875,-14.700000762939453,32.04375076293945,-5.868750095367432
1777561214193214500,8.86721435546875,-13.800000190734863,31.818750381469727,-7.893750190734863
1777561214203214300,8.87721435546875,-14.86875057220459,31.931251525878906,-7.143750190734863
1777561214213214500,8.88721435546875,-16.23750114440918,31.556251525878906,-8.02500057220459
1777561214223214300,8.89721435546875,-16.837501525878906,31.80000114440918,-8.100000381469727
1777561214233214500,8.90721435546875,-17.775001525878906,30.787500381469727,-9.112500190734863
1777561214243214300,8.91721435546875,-18.375,29.55000114440918,-12.450000762939453
1777561214253214500,8.92721435546875,-15.656250953674316,29.700000762939453,-11.362500190734863
1777561214263214300,8.93721435546875,-17.493751525878906,29.681251525878906,-10.74375057220459
1777561214273214500,8.94721435546875,-17.850000381469727,27.693750381469727,-11.550000190734863
1777561214283214300,8.95721435546875,-17.850000381469727,27.693750381469727,-11.550000190734863
1777561214293214500,8.96721435546875,-21.168750762939453,30.168750762939453,-7.462500095367432
1777561214303214300,8.97721435546875,-19.537500381469727,29.025001525878906,-7.575000286102295
1777561214313214500,8.98721435546875,-18.5625,30.30000114440918,-8.21250057220459
1777561214323214300,8.99721435546875,-20.418750762939453,29.73750114440918,-7.837500095367432
1777561214333214500,9.00721435546875,-19.368751525878906,28.725000381469727,-8.77500057220459
1777561214343214300,9.01721435546875,-20.71875,29.512500762939453,-8.4375
1777561214353214500,9.02721435546875,-19.668750762939453,28.968751907348633,-8.700000762939453
1777561214363214300,9.03721435546875,-19.368751525878906,28.650001525878906,-9.206250190734863
1777561214373214500,9.04721435546875,-20.681251525878906,29.943750381469727,-9.768750190734863
1777561214383214300,9.05721435546875,-19.950000762939453,30.262500762939453,-7.612500190734863
1777561214393214500,9.06721435546875,-15.956250190734863,30.356250762939453,-10.387500762939453
1777561214403214300,9.07721435546875,-17.92500114440918,32.23125076293945,-5.175000190734863
1777561214413214500,9.08721435546875,-16.725000381469727,31.14375114440918,-6.675000190734863
1777561214423214300,9.09721435546875,-15.637500762939453,33.03750228881836,-3.9562501907348633
1777561214433214500,9.10721435546875,-15.168750762939453,32.47500228881836,-6.037500381469727
1777561214443214300,9.11721435546875,-14.418750762939453,32.47500228881836,-6.056250095367432
1777561214453214500,9.12721435546875,-13.818750381469727,32.56875228881836,-4.5
1777561214463214300,9.13721435546875,-15.356250762939453,33.337501525878906,-1.7812501192092896
1777561214473214500,9.14721435546875,-14.756250381469727,32.681251525878906,-2.90625
1777561214483214300,9.15721435546875,-16.443750381469727,31.89375114440918,-3.1500000953674316
1777561214493214500,9.16721435546875,-15.656250953674316,32.681251525878906,-3.731250047683716
1777561214503214300,9.17721435546875,-15.637500762939453,31.556251525878906,-7.200000286102295
1777561214513214500,9.18721435546875,-16.125,30.525001525878906,-8.362500190734863
1777561214523214300,9.19721435546875,-15.918750762939453,30.712501525878906,-12.15000057220459
1777561214533214500,9.20721435546875,-14.531250953674316,30.337501525878906,-13.800000190734863
1777561214543214300,9.21721435546875,-13.74375057220459,30.168750762939453,-16.6875
1777561214553214500,9.22721435546875,-16.33125114440918,28.70625114440918,-8.850000381469727
1777561214563214300,9.23721435546875,-18.28125,29.512500762939453,-9.356250762939453
1777561214573214500,9.24721435546875,-18.5625,30.95625114440918,-6.243750095367432
1777561214583214300,9.25721435546875,-18.525001525878906,31.387500762939453,-7.575000286102295
1777561214593214500,9.26721435546875,-17.700000762939453,29.812501907348633,-6.337500095367432
1777561214603214300,9.27721435546875,-19.33125114440918,31.162500381469727,-4.762500286102295
1777561214613214500,9.28721435546875,-20.100000381469727,30.693750381469727,-5.550000190734863
1777561214623214300,9.29721435546875,-19.650001525878906,30.67500114440918,-5.568750381469727
1777561214633214500,9.30721435546875,-18,30.525001525878906,-4.087500095367432
1777561214643214300,9.31721435546875,-18,29.868751525878906,-6.037500381469727
1777561214653214500,9.32721435546875,-18.01875114440918,30.037500381469727,-4.875
1777561214663214300,9.33721435546875,-18.01875114440918,29.662500381469727,-5.662500381469727
1777561214673214500,9.34721435546875,-16.162500381469727,30.562501907348633,-5.53125
1777561214683214300,9.35721435546875,-18.975000381469727,32.493751525878906,-5.943750381469727
1777561214693214500,9.36721435546875,-19.350000381469727,31.687501907348633,-2.981250047683716
1777561214703214300,9.37721435546875,-16.950000762939453,31.14375114440918,-1.443750023841858
1777561214713214500,9.38721435546875,-16.950000762939453,31.14375114440918,-1.443750023841858
1777561214723214300,9.39721435546875,-17.231250762939453,32.64375305175781,0.26250001788139343
1777561214733214500,9.40721435546875,-18.28125,32.73750305175781,0.01875000074505806
1777561214743214300,9.41721435546875,-16.78125,31.687501907348633,-1.21875
1777561214753214500,9.42721435546875,-16.743751525878906,32.26875305175781,-3.2250001430511475
1777561214763214300,9.43721435546875,-16.14375114440918,32.212501525878906,-2.6812500953674316
1777561214773214500,9.44721435546875,-18.243751525878906,33.16875076293945,-1.3125
1777561214783214300,9.45721435546875,-15.187500953674316,33.28125,-3.075000047683716
1777561214793214500,9.46721435546875,-14.006250381469727,31.98750114440918,-3.3375000953674316
1777561214803214300,9.47721435546875,-16.125,32.90625,-2.2687501907348633
1777561214813214500,9.48721435546875,-15.33750057220459,33.712501525878906,-1.0125000476837158
1777561214823214300,9.49721435546875,-13.687500953674316,33.63750076293945,-0.6375000476837158
1777561214833214500,9.50721435546875,-13.725000381469727,32.66250228881836,-0.39375001192092896
1777561214843214300,9.51721435546875,-14.137500762939453,34.33125305175781,0.768750011920929
1777561214853214500,9.52721435546875,-13.725000381469727,32.66250228881836,-0.39375001192092896
1777561214863214300,9.53721435546875,-13.65000057220459,34.63125228881836,0.26250001788139343
1777561214873214500,9.54721435546875,-12.15000057220459,35.28750228881836,2.1750001907348633
1777561214883214300,9.55721435546875,-12.112500190734863,36.13125228881836,2.0625
1777561214893214500,9.56721435546875,-13.36875057220459,34.76250076293945,1.9687501192092896
1777561214903214300,9.57721435546875,-12.356250762939453,32.66250228881836,0.4125000238418579
1777561214913214500,9.58721435546875,-11.40000057220459,33.58125305175781,-0.9937500357627869
1777561214923214300,9.59721435546875,-12.300000190734863,33.69375228881836,-1.0875000953674316
1777561214933214500,9.60721435546875,-11.49375057220459,31.012500762939453,-1.4812500476837158
1777561214943214300,9.61721435546875,-13.200000762939453,34.48125076293945,-0.768750011920929
1777561214953214500,9.62721435546875,-13.012500762939453,35.25,-1.4812500476837158
1777561214963214300,9.63721435546875,-12.33750057220459,32.23125076293945,-2.4937500953674316
1777561214973214500,9.64721435546875,-13.36875057220459,33.337501525878906,-1.8375000953674316
1777561214983214300,9.65721435546875,-15.225000381469727,32.47500228881836,-1.8000000715255737
1777561214993214500,9.66721435546875,-15.318750381469727,34.14375305175781,-2.34375
1777561215003214300,9.67721435546875,-16.14375114440918,33.22500228881836,-0.09375
1777561215013214500,9.68721435546875,-16.70625114440918,33.900001525878906,-0.5062500238418579
1777561215023214300,9.69721435546875,-16.78125,32.04375076293945,-0.4312500059604645
1777561215033214500,9.70721435546875,-13.706250190734863,32.400001525878906,-2.2875001430511475
1777561215043214300,9.71721435546875,-15.675000190734863,33.07500076293945,-1.125
1777561215053214500,9.72721435546875,-16.275001525878906,33.31875228881836,-0.20625001192092896
1777561215063214300,9.73721435546875,-19.03125,32.26875305175781,-1.4625000953674316
1777561215073214500,9.74721435546875,-18.76875114440918,31.912500381469727,-0.5437500476837158
1777561215083214300,9.75721435546875,-20.45625114440918,30.993751525878906,-1.6687500476837158
1777561215093214500,9.76721435546875,-19.443750381469727,32.13750076293945,-5.850000381469727
1777561215103214300,9.77721435546875,-18.731250762939453,31.875001907348633,-3.375000238418579
1777561215113214500,9.78721435546875,-19.5,31.593751907348633,-2.700000047683716
1777561215123214300,9.79721435546875,-20.025001525878906,30.168750762939453,-2.2687501907348633
1777561215133214500,9.80721435546875,-19.931251525878906,32.23125076293945,-2.5687501430511475
1777561215143214300,9.81721435546875,-20.71875,31.70625114440918,-1.9500000476837158
1777561215153214500,9.82721435546875,-22.61250114440918,29.83125114440918,-1.9687501192092896
1777561215163214300,9.83721435546875,-22.61250114440918,29.83125114440918,-1.9687501192092896
1777561215173214500,9.84721435546875,-22.275001525878906,31.33125114440918,-0.28125
1777561215183214300,9.85721435546875,-24.750001907348633,29.250001907348633,-2.5875000953674316
1777561215193214500,9.86721435546875,-24.30000114440918,28.950000762939453,-2.9437501430511475
1777561215203214300,9.87721435546875,-25.406251907348633,28.387500762939453,-1.7625000476837158
1777561215213214500,9.88721435546875,-24.975000381469727,26.775001525878906,-4.181250095367432
1777561215223214300,9.89721435546875,-25.106250762939453,26.606250762939453,-6.187500476837158
1777561215233214500,9.90721435546875,-26.83125114440918,24.637500762939453,-7.800000190734863
1777561215243214300,9.91721435546875,-26.381250381469727,24.525001525878906,-7.687500476837158
1777561215253214500,9.92721435546875,-28.818750381469727,24.975000381469727,-5.568750381469727
1777561215263214300,9.93721435546875,-28.668750762939453,24.600000381469727,-7.181250095367432
1777561215273214500,9.94721435546875,-28.42500114440918,23.493751525878906,-5.4375
1777561215283214300,9.95721435546875,-28.950000762939453,22.03125,-4.275000095367432
1777561215293214500,9.96721435546875,-28.912500381469727,22.856250762939453,-5.53125
1777561215303214300,9.97721435546875,-30.262500762939453,22.950000762939453,-5.775000095367432
1777561215313214500,9.98721435546875,-27.656251907348633,23.681251525878906,-5.831250190734863
1777561215323214300,9.99721435546875,-27.656251907348633,22.818750381469727,-7.406250476837158
1777561215333214500,10.00721435546875,-29.64375114440918,23.850000381469727,-4.631250381469727
1777561215343214300,10.01721435546875,-29.606250762939453,24.825000762939453,-4.856250286102295
1777561215353214500,10.02721435546875,-28.05000114440918,25.181251525878906,-6.675000190734863
1777561215363214300,10.03721435546875,-25.031251907348633,24.750001907348633,-5.287500381469727
1777561215373214500,10.04721435546875,-26.681251525878906,25.481250762939453,-5.381250381469727
1777561215383214300,10.05721435546875,-27.86250114440918,26.943750381469727,-3.937500238418579
1777561215393214500,10.06721435546875,-25.087501525878906,27.356250762939453,-5.34375
1777561215403214300,10.07721435546875,-24.806251525878906,26.006250381469727,-7.725000381469727
1777561215413214500,10.08721435546875,-22.481250762939453,28.275001525878906,-4.950000286102295
1777561215423214300,10.09721435546875,-23.962501525878906,29.100000381469727,-6.168750286102295
1777561215433214500,10.10721435546875,-23.36250114440918,29.418750762939453,-4.856250286102295
1777561215443214300,10.11721435546875,-20.756250381469727,30.750001907348633,-2.5500001907348633
1777561215453214500,10.12721435546875,-21.9375,32.36250305175781,-0.956250011920929
1777561215463214300,10.13721435546875,-20.25,32.10000228881836,-1.8937500715255737
1777561215473214500,10.14721435546875,-20.700000762939453,32.025001525878906,-2.3062500953674316
1777561215483214300,10.15721435546875,-18.20625114440918,32.92500305175781,-5.587500095367432
1777561215493214500,10.16721435546875,-19.256250381469727,34.14375305175781,-3.2250001430511475
1777561215503214300,10.17721435546875,-18.918750762939453,34.57500076293945,-4.556250095367432
1777561215513214500,10.18721435546875,-18.318750381469727,33.5625,-6.318750381469727
1777561215523214300,10.19721435546875,-15.15000057220459,32.79375076293945,-6.412500381469727
1777561215533214500,10.20721435546875,-16.21875,33.11250305175781,-5.887500286102295
1777561215543214300,10.21721435546875,-16.762500762939453,33.806251525878906,-8.850000381469727
1777561215553214500,10.22721435546875,-16.293750762939453,34.51875305175781,-6.618750095367432
1777561215563214300,10.23721435546875,-17.400001525878906,33.712501525878906,-6.168750286102295
1777561215573214500,10.24721435546875,-16.087501525878906,32.04375076293945,-6.375000476837158
1777561215583214300,10.25721435546875,-16.087501525878906,32.04375076293945,-6.375000476837158
1777561215593214500,10.26721435546875,-16.78125,34.20000076293945,-6.243750095367432
1777561215603214300,10.27721435546875,-18.48750114440918,33.73125076293945,-4.3125
1777561215613214500,10.28721435546875,-18.131250381469727,34.91250228881836,-4.800000190734863
1777561215623214300,10.29721435546875,-15.15000057220459,33.75,-4.106250286102295
1777561215633214500,10.30721435546875,-15.90000057220459,33.86250305175781,-5.0625
1777561215643214300,10.31721435546875,-17.568750381469727,34.21875,-4.368750095367432
1777561215653214500,10.32721435546875,-16.068750381469727,34.03125,-3.0375001430511475
1777561215663214300,10.33721435546875,-16.03125,34.20000076293945,-4.425000190734863
1777561215673214500,10.34721435546875,-16.856250762939453,33.431251525878906,-2.8500001430511475
1777561215683214300,10.35721435546875,-15.937500953674316,33.46875,-3.4312500953674316
1777561215693214500,10.36721435546875,-19.256250381469727,34.80000305175781,-1.256250023841858
1777561215703214300,10.37721435546875,-17.568750381469727,34.42500305175781,-2.9250001907348633
1777561215713214500,10.38721435546875,-18.993751525878906,32.75625228881836,-4.200000286102295
1777561215723214300,10.39721435546875,-18.731250762939453,32.26875305175781,-2.325000047683716
1777561215733214500,10.40721435546875,-18.525001525878906,33.806251525878906,-1.1812500953674316
1777561215743214300,10.41721435546875,-17.943750381469727,32.8125,-2.9437501430511475
1777561215753214500,10.42721435546875,-18.65625,33.900001525878906,-2.2875001430511475
1777561215763214300,10.43721435546875,-19.106250762939453,34.57500076293945,-1.8750001192092896
1777561215773214500,10.44721435546875,-17.887500762939453,34.462501525878906,-2.625
1777561215783214300,10.45721435546875,-18.20625114440918,34.05000305175781,-2.137500047683716
1777561215793214500,10.46721435546875,-16.837501525878906,33.88125228881836,-2.34375
1777561215803214300,10.47721435546875,-16.23750114440918,32.70000076293945,-4.556250095367432
1777561215813214500,10.48721435546875,-14.100000381469727,33.806251525878906,-2.8500001430511475
1777561215823214300,10.49721435546875,-16.96875,34.96875,-1.7062500715255737
1777561215833214500,10.50721435546875,-19.256250381469727,34.23750305175781,-2.4937500953674316
1777561215843214300,10.51721435546875,-15.487500190734863,33.58125305175781,-2.71875
1777561215853214500,10.52721435546875,-15.918750762939453,34.21875,-2.5875000953674316
1777561215863214300,10.53721435546875,-17.775001525878906,33.76875305175781,-1.5
1777561215873214500,10.54721435546875,-17.681251525878906,35.04375076293945,-3.7875001430511475
1777561215883214300,10.55721435546875,-18.168750762939453,34.78125,-3.1312501430511475
1777561215893214500,10.56721435546875,-14.625000953674316,35.53125,-4.762500286102295
1777561215903214300,10.57721435546875,-15.24375057220459,35.73750305175781,-2.4562501907348633
1777561215913214500,10.58721435546875,-16.21875,33.97500228881836,-2.625
1777561215923214300,10.59721435546875,-16.200000762939453,34.462501525878906,-3.5250000953674316
1777561215933214500,10.60721435546875,-16.668750762939453,33.712501525878906,-4.350000381469727
1777561215943214300,10.61721435546875,-16.78125,35.32500076293945,-2.7750000953674316
1777561215953214500,10.62721435546875,-16.631250381469727,35.00625228881836,-4.106250286102295
1777561215973214500,10.64721435546875,-19.05000114440918,34.6875,-5.381250381469727
1777561215983214300,10.65721435546875,-17.681251525878906,34.35000228881836,-6.037500381469727
1777561215993214500,10.66721435546875,-18.168750762939453,33.35625076293945,-6.918750286102295
1777561216003214300,10.67721435546875,-17.418750762939453,33.01875305175781,-6.581250190734863
1777561216013214500,10.68721435546875,-19.21875,34.3125,-4.59375
1777561216023214300,10.69721435546875,-19.21875,34.3125,-4.59375
1777561216033214500,10.70721435546875,-19.537500381469727,34.743751525878906,-3.375000238418579
1777561216043214300,10.71721435546875,-19.537500381469727,34.743751525878906,-3.375000238418579
1777561216053214500,10.72721435546875,-20.193750381469727,33.09375,-3.5250000953674316
1777561216063214300,10.73721435546875,-24.168750762939453,32.10000228881836,-4.462500095367432
1777561216073214500,10.74721435546875,-21.731250762939453,32.47500228881836,-3.6187500953674316
1777561216083214300,10.75721435546875,-24.075000762939453,31.256250381469727,-3.356250047683716
1777561216093214500,10.76721435546875,-25.743751525878906,30.86250114440918,-4.368750095367432
1777561216103214300,10.77721435546875,-23.45625114440918,29.681251525878906,-8.193750381469727
1777561216113214500,10.78721435546875,-23.775001525878906,28.462501525878906,-9.693750381469727
1777561216123214300,10.79721435546875,-25.931251525878906,28.275001525878906,-8.53125
1777561216133214500,10.80721435546875,-28.70625114440918,27.600000381469727,-7.181250095367432
1777561216143214300,10.81721435546875,-30.131250381469727,26.681251525878906,-5.756250381469727
1777561216153214500,10.82721435546875,-30.525001525878906,27.900001525878906,-6.787500381469727
1777561216163214300,10.83721435546875,-28.575000762939453,28.125001907348633,-4.40625
1777561216173214500,10.84721435546875,-28.106250762939453,28.068750381469727,-4.856250286102295
1777561216183214300,10.85721435546875,-29.662500381469727,26.475000381469727,-7.237500190734863
1777561216193214500,10.86721435546875,-29.343751907348633,26.36250114440918,-7.968750476837158
1777561216203214300,10.87721435546875,-29.025001525878906,26.962501525878906,-7.293750286102295
1777561216213214500,10.88721435546875,-28.087501525878906,27.525001525878906,-8.475000381469727
1777561216223214300,10.89721435546875,-28.537500381469727,28.556251525878906,-5.737500190734863
1777561216233214500,10.90721435546875,-27.750001907348633,29.45625114440918,-5.587500095367432
1777561216243214300,10.91721435546875,-29.006250381469727,28.51875114440918,-5.15625
1777561216253214500,10.92721435546875,-26.681251525878906,29.231250762939453,-6.225000381469727
1777561216263214300,10.93721435546875,-28.200000762939453,28.875001907348633,-6.956250190734863
1777561216273214500,10.94721435546875,-23.418750762939453,30.918750762939453,-6.543750286102295
1777561216283214300,10.95721435546875,-27.693750381469727,31.05000114440918,-5.700000286102295
1777561216293214500,10.96721435546875,-25.200000762939453,32.32500076293945,-6.375000476837158
1777561216303214300,10.97721435546875,-23.662500381469727,32.625,-6.768750190734863
1777561216313214500,10.98721435546875,-22.59375,34.01250076293945,-4.143750190734863
1777561216323214300,10.99721435546875,-22.162500381469727,33.806251525878906,-2.9250001907348633
1777561216333214500,11.00721435546875,-21.543750762939453,34.10625076293945,-1.7437500953674316
1777561216343214300,11.01721435546875,-20.137500762939453,35.38125228881836,-2.4000000953674316
1777561216353214500,11.02721435546875,-19.818750381469727,34.743751525878906,-5.0625
1777561216363214300,11.03721435546875,-19.743751525878906,36.91875076293945,-4.650000095367432
1777561216373214500,11.04721435546875,-17.625,36.07500076293945,-5.287500381469727
1777561216383214300,11.05721435546875,-15.693750381469727,38.10000228881836,-8.49375057220459
1777561216393214500,11.06721435546875,-12.787500381469727,37.650001525878906,-10.612500190734863
1777561216403214300,11.07721435546875,-13.612500190734863,36.993751525878906,-8.325000762939453
1777561216413214500,11.08721435546875,-13.425000190734863,38.34375,-6.806250095367432
1777561216423214300,11.09721435546875,-12.506250381469727,38.34375,-7.668750286102295
1777561216433214500,11.10721435546875,-12.675000190734863,38.400001525878906,-6.393750190734863
1777561216443214300,11.11721435546875,-12.600000381469727,39.73125076293945,-7.556250095367432
1777561216453214500,11.12721435546875,-12.600000381469727,39.73125076293945,-7.556250095367432
1777561216463214300,11.13721435546875,-12.787500381469727,38.51250076293945,-9.05625057220459
1777561216473214500,11.14721435546875,-10.3125,40.03125,-7.968750476837158
1777561216483214300,11.15721435546875,-13.668750762939453,40.368751525878906,-5.700000286102295
1777561216493214500,11.16721435546875,-11.231250762939453,40.61250305175781,-4.875
1777561216503214300,11.17721435546875,-12.918750762939453,39.01875305175781,-8.100000381469727
1777561216513214500,11.18721435546875,-10.706250190734863,38.493751525878906,-5.71875
1777561216523214300,11.19721435546875,-11.02500057220459,41.38125228881836,-7.275000095367432
1777561216533214500,11.20721435546875,-11.887500762939453,39.54375076293945,-4.5
1777561216543214300,11.21721435546875,-11.71875,39.07500076293945,-6.843750476837158
1777561216553214500,11.22721435546875,-11.081250190734863,39.54375076293945,-8.756250381469727
1777561216563214300,11.23721435546875,-11.381250381469727,39.35625076293945,-8.362500190734863
1777561216573214500,11.24721435546875,-8.737500190734863,41.15625,-8.793750762939453
1777561216583214300,11.25721435546875,-11.381250381469727,40.3125,-6.056250095367432
1777561216593214500,11.26721435546875,-10.46250057220459,39.82500076293945,-8.568750381469727
1777561216603214300,11.27721435546875,-13.312500953674316,41.00625228881836,-7.293750286102295
1777561216613214500,11.28721435546875,-11.86875057220459,38.66250228881836,-8.90625
1777561216623214300,11.29721435546875,-14.887500762939453,39.95625305175781,-6.037500381469727
1777561216633214500,11.30721435546875,-14.175000190734863,38.493751525878906,-7.462500095367432
1777561216643214300,11.31721435546875,-14.30625057220459,39.73125076293945,-4.96875
1777561216653214500,11.32721435546875,-13.668750762939453,40.33125305175781,-6
1777561216663214300,11.33721435546875,-15.356250762939453,39.993751525878906,-4.893750190734863
1777561216673214500,11.34721435546875,-12,39.712501525878906,-6.712500095367432
1777561216683214300,11.35721435546875,-9.84375,41.10000228881836,-4.96875
1777561216693214500,11.36721435546875,-9.05625057220459,41.025001525878906,-7.106250286102295
1777561216703214300,11.37721435546875,-10.125,41.681251525878906,-6.112500190734863
1777561216713214500,11.38721435546875,-10.875,41.681251525878906,-6.093750476837158
1777561216723214300,11.39721435546875,-8.756250381469727,41.587501525878906,-5.887500286102295
1777561216733214500,11.40721435546875,-9.112500190734863,40.76250076293945,-4.612500190734863
1777561216743214300,11.41721435546875,-9.84375,41.19375228881836,-5.925000190734863
1777561216753214500,11.42721435546875,-9.65625,41.53125,-7.143750190734863
1777561216763214300,11.43721435546875,-10.59375,42.056251525878906,-4.331250190734863
1777561216773214500,11.44721435546875,-7.875000476837158,41.28750228881836,-4.40625
1777561216783214300,11.45721435546875,-7.256250381469727,41.118751525878906,-6.431250095367432
1777561216793214500,11.46721435546875,-8.756250381469727,41.681251525878906,-5.15625
1777561216803214300,11.47721435546875,-8.925000190734863,42.54375076293945,-2.7375001907348633
1777561216813214500,11.48721435546875,-8.175000190734863,40.837501525878906,-5.90625
1777561216823214300,11.49721435546875,-8.793750762939453,40.03125,-8.02500057220459
1777561216833214500,11.50721435546875,-9.33750057220459,41.306251525878906,-8.606250762939453
1777561216843214300,11.51721435546875,-9.33750057220459,41.85000228881836,-7.518750190734863
1777561216853214500,11.52721435546875,-8.30625057220459,41.19375228881836,-5.981250286102295
1777561216863214300,11.53721435546875,-10.293750762939453,41.10000228881836,-6.637500286102295
1777561216873214500,11.54721435546875,-9.787500381469727,42.375,-6.412500381469727
1777561216883214300,11.55721435546875,-10.256250381469727,42.16875076293945,-6.150000095367432
1777561216893214500,11.56721435546875,-10.256250381469727,42.16875076293945,-6.150000095367432
1777561216903214300,11.57721435546875,-12.750000953674316,39.9375,-7.781250476837158
1777561216913214500,11.58721435546875,-12.881250381469727,40.89375305175781,-6.337500095367432
1777561216923214300,11.59721435546875,-11.981250762939453,40.368751525878906,-6.600000381469727
1777561216933214500,11.60721435546875,-12.843750953674316,40.80000305175781,-8.756250381469727
1777561216943214300,11.61721435546875,-14.86875057220459,40.63125228881836,-5.625
1777561216953214500,11.62721435546875,-14.381250381469727,40.95000076293945,-7.687500476837158
1777561216963214300,11.63721435546875,-15.112500190734863,41.55000305175781,-7.837500095367432
1777561216973214500,11.64721435546875,-13.27500057220459,41.75625228881836,-8.981250762939453
1777561216983214300,11.65721435546875,-13.781250953674316,40.53750228881836,-7.931250095367432
1777561216993214500,11.66721435546875,-15.731250762939453,41.60625076293945,-6.693750381469727
1777561217003214300,11.67721435546875,-12.862500190734863,40.087501525878906,-9.300000190734863
1777561217013214500,11.68721435546875,-15.318750381469727,40.70625305175781,-6.862500190734863
1777561217023214300,11.69721435546875,-16.650001525878906,41.88750076293945,-5.625
1777561217033214500,11.70721435546875,-17.83125114440918,42.11250305175781,-8.362500190734863
1777561217043214300,11.71721435546875,-18.225000381469727,39.76875305175781,-7.387500286102295
1777561217053214500,11.72721435546875,-18.375,39.13125228881836,-9.206250190734863
1777561217063214300,11.73721435546875,-21.168750762939453,36.900001525878906,-11.68125057220459
1777561217073214500,11.74721435546875,-21.600000381469727,36.78750228881836,-13.237500190734863
1777561217083214300,11.75721435546875,-21.900001525878906,36.056251525878906,-14.925000190734863
1777561217093214500,11.76721435546875,-23.850000381469727,38.306251525878906,-11.475000381469727
1777561217103214300,11.77721435546875,-23.17500114440918,35.13750076293945,-13.500000953674316
1777561217113214500,11.78721435546875,-26.08125114440918,34.85625076293945,-12.918750762939453
1777561217123214300,11.79721435546875,-26.100000381469727,34.57500076293945,-12.262500762939453
1777561217133214500,11.80721435546875,-26.17500114440918,32.8125,-11.625
1777561217143214300,11.81721435546875,-27.20625114440918,33.30000305175781,-12.487500190734863
1777561217153214500,11.82721435546875,-26.006250381469727,32.85000228881836,-12.168750762939453
1777561217163214300,11.83721435546875,-26.962501525878906,32.868751525878906,-9.46875
1777561217173214500,11.84721435546875,-28.462501525878906,32.92500305175781,-10.83750057220459
1777561217183214300,11.85721435546875,-28.406251907348633,33.73125076293945,-12.093750953674316
1777561217193214500,11.86721435546875,-29.118751525878906,31.593751907348633,-10.5
1777561217203214300,11.87721435546875,-27.787500381469727,34.80000305175781,-9.918750762939453
1777561217213214500,11.88721435546875,-27.243751525878906,33.35625076293945,-10.350000381469727
1777561217223214300,11.89721435546875,-27.11250114440918,33.1875,-8.137500762939453
1777561217233214500,11.90721435546875,-28.256250381469727,34.80000305175781,-9.918750762939453
1777561217243214300,11.91721435546875,-26.100000381469727,35.64375305175781,-9.24375057220459
1777561217253214500,11.92721435546875,-26.681251525878906,36.82500076293945,-8.86875057220459
1777561217263214300,11.93721435546875,-24.693750381469727,35.85000228881836,-11.21250057220459
1777561217273214500,11.94721435546875,-24.76875114440918,35.306251525878906,-8.0625
1777561217283214300,11.95721435546875,-24.375001907348633,37.556251525878906,-8.081250190734863
1777561217293214500,11.96721435546875,-20.83125114440918,38.04375076293945,-10.612500190734863
1777561217303214300,11.97721435546875,-21.075000762939453,39.78750228881836,-10.706250190734863
1777561217313214500,11.98721435546875,-19.856250762939453,40.3125,-9.65625
1777561217323214300,11.99721435546875,-16.51875114440918,40.61250305175781,-7.556250095367432
1777561217333214500,12.00721435546875,-16.51875114440918,40.61250305175781,-7.556250095367432
1777561217343214300,12.01721435546875,-18.01875114440918,40.650001525878906,-8.925000190734863
1777561217353214500,12.02721435546875,-15.018750190734863,39.806251525878906,-8.737500190734863
1777561217363214300,12.03721435546875,-15.075000762939453,42.525001525878906,-8.081250190734863
1777561217373214500,12.04721435546875,-12.825000762939453,41.4375,-8.625
1777561217383214300,12.05721435546875,-12.80625057220459,41.75625228881836,-9
1777561217393214500,12.06721435546875,-10.481250762939453,42.31875228881836,-11.0625
1777561217403214300,12.07721435546875,-10.818750381469727,41.53125,-11.34375
1777561217413214500,12.08721435546875,-10.331250190734863,42.28125,-10.518750190734863
1777561217423214300,12.09721435546875,-11.96250057220459,43.556251525878906,-11.21250057220459
1777561217433214500,12.10721435546875,-9.28125,41.212501525878906,-13.55625057220459
1777561217443214300,12.11721435546875,-10.162500381469727,42.712501525878906,-11.006250381469727
1777561217453214500,12.12721435546875,-7.818750381469727,43.10625076293945,-14.231250762939453
1777561217463214300,12.13721435546875,-8.737500190734863,43.81875228881836,-12.80625057220459
1777561217473214500,12.14721435546875,-7.425000190734863,42.69375228881836,-11.081250190734863
1777561217483214300,12.15721435546875,-10.912500381469727,42.900001525878906,-11.362500190734863
1777561217493214500,12.16721435546875,-8.643750190734863,42.69375228881836,-11.043750762939453
1777561217503214300,12.17721435546875,-8.625,43.70625305175781,-10.143750190734863
1777561217513214500,12.18721435546875,-11.71875,43.14375305175781,-8.043750762939453
1777561217523214300,12.19721435546875,-10.050000190734863,42.243751525878906,-9.112500190734863
1777561217533214500,12.20721435546875,-11.081250190734863,44.13750076293945,-6.318750381469727
1777561217543214300,12.21721435546875,-12.43125057220459,43.51875305175781,-9.787500381469727
1777561217553214500,12.22721435546875,-9.71250057220459,42.03750228881836,-12.975000381469727
1777561217563214300,12.23721435546875,-10.068750381469727,40.837501525878906,-11.925000190734863
1777561217573214500,12.24721435546875,-9.61875057220459,40.81875228881836,-11.943750381469727
1777561217583214300,12.25721435546875,-13.668750762939453,42.69375228881836,-10.350000381469727
1777561217593214500,12.26721435546875,-14.475000381469727,41.868751525878906,-9.075000762939453
1777561217603214300,12.27721435546875,-15.262500762939453,41.23125076293945,-9.168750762939453
1777561217613214500,12.28721435546875,-14.981250762939453,41.13750076293945,-8.21250057220459
1777561217623214300,12.29721435546875,-15.918750762939453,40.181251525878906,-8.793750762939453
1777561217633214500,12.30721435546875,-13.46250057220459,41.23125076293945,-7.518750190734863
1777561217643214300,12.31721435546875,-14.193750381469727,41.868751525878906,-7.387500286102295
1777561217653214500,12.32721435546875,-12.375000953674316,41.23125076293945,-9.24375057220459
1777561217663214300,12.33721435546875,-11.137500762939453,41.60625076293945,-9.206250190734863
1777561217673214500,12.34721435546875,-11.137500762939453,41.90625,-8.86875057220459
1777561217683214300,12.35721435546875,-11.268750190734863,42.337501525878906,-9.356250762939453
1777561217693214500,12.36721435546875,-11.081250190734863,43.462501525878906,-9.28125
1777561217703214300,12.37721435546875,-9.731250762939453,42.525001525878906,-9.637500762939453
1777561217713214500,12.38721435546875,-11.137500762939453,42.806251525878906,-6.862500190734863
1777561217723214300,12.39721435546875,-9.731250762939453,43.35000228881836,-8.34375
1777561217733214500,12.40721435546875,-9.450000762939453,42.806251525878906,-7.743750095367432
1777561217743214300,12.41721435546875,-9.412500381469727,43.275001525878906,-8.793750762939453
1777561217753214500,12.42721435546875,-9.581250190734863,43.837501525878906,-6.712500095367432
1777561217763214300,12.43721435546875,-9.581250190734863,43.837501525878906,-6.712500095367432
1777561217773214500,12.44721435546875,-8.49375057220459,42.91875076293945,-10.443750381469727
1777561217783214300,12.45721435546875,-9.768750190734863,41.681251525878906,-9.506250381469727
1777561217793214500,12.46721435546875,-10.012500762939453,42.48750305175781,-11.606250762939453
1777561217803214300,12.47721435546875,-9.731250762939453,41.56875228881836,-11.925000190734863
1777561217813214500,12.48721435546875,-10.36875057220459,41.38125228881836,-10.6875
1777561217823214300,12.49721435546875,-11.268750190734863,41.83125305175781,-10.143750190734863
1777561217833214500,12.50721435546875,-10.18125057220459,42.375,-10.78125
1777561217843214300,12.51721435546875,-12.281250953674316,43.21875,-10.987500190734863
1777561217853214500,12.52721435546875,-11.268750190734863,41.36250305175781,-11.643750190734863
1777561217863214300,12.53721435546875,-11.58750057220459,40.53750228881836,-12.225000381469727
1777561217873214500,12.54721435546875,-11.90625,40.80000305175781,-10.46250057220459
1777561217883214300,12.55721435546875,-12.675000190734863,41.0625,-10.40625
1777561217893214500,12.56721435546875,-13.406250953674316,41.4375,-10.3125
1777561217903214300,12.57721435546875,-12.637500762939453,42.243751525878906,-9.037500381469727
1777561217913214500,12.58721435546875,-14.718750953674316,43.10625076293945,-10.106250762939453
1777561217923214300,12.59721435546875,-12.693750381469727,40.368751525878906,-10.818750381469727
1777561217933214500,12.60721435546875,-15.693750381469727,41.53125,-9.80625057220459
1777561217943214300,12.61721435546875,-14.981250762939453,40.59375,-9.300000190734863
1777561217953214500,12.62721435546875,-14.550000190734863,39.63750076293945,-9.918750762939453
1777561217963214300,12.63721435546875,-14.512500762939453,39.95625305175781,-11.981250762939453
1777561217973214500,12.64721435546875,-16.80000114440918,40.14375305175781,-10.74375057220459
1777561217983214300,12.65721435546875,-18.20625114440918,39.28125,-10.74375057220459
1777561217993214500,12.66721435546875,-17.625,38.587501525878906,-10.3125
1777561218003214300,12.67721435546875,-19.931251525878906,37.05000305175781,-12.393750190734863
1777561218013214500,12.68721435546875,-21.262500762939453,38.28750228881836,-11.550000190734863
1777561218023214300,12.69721435546875,-21.131250381469727,36.46875,-14.58750057220459
1777561218033214500,12.70721435546875,-22.087501525878906,35.71875,-13.856250762939453
1777561218053214500,12.72721435546875,-21.168750762939453,34.98750305175781,-16.275001525878906
1777561218063214300,12.73721435546875,-23.681251525878906,31.950000762939453,-18.337501525878906
1777561218073214500,12.74721435546875,-23.137500762939453,30.656251907348633,-17.756250381469727
1777561218083214300,12.75721435546875,-23.043750762939453,32.681251525878906,-19.200000762939453
1777561218093214500,12.76721435546875,-25.031251907348633,33.13125228881836,-16.23750114440918
1777561218103214300,12.77721435546875,-25.031251907348633,33.13125228881836,-16.23750114440918
1777561218113214500,12.78721435546875,-24.48750114440918,32.625,-13.668750762939453
1777561218123214300,12.79721435546875,-24.337501525878906,31.687501907348633,-14.981250762939453
1777561218133214500,12.80721435546875,-24.318750381469727,31.968751907348633,-15.637500762939453
1777561218143214300,12.81721435546875,-26.08125114440918,35.118751525878906,-12.881250381469727
1777561218153214500,12.82721435546875,-24.618751525878906,33.1875,-13.27500057220459
1777561218163214300,12.83721435546875,-23.681251525878906,33.50625228881836,-14.512500762939453
1777561218173214500,12.84721435546875,-24.731250762939453,33.30000305175781,-15.937500953674316
1777561218183214300,12.85721435546875,-22.106250762939453,34.5,-16.200000762939453
1777561218193214500,12.86721435546875,-22.818750381469727,34.78125,-18.525001525878906
1777561218203214300,12.87721435546875,-22.818750381469727,34.78125,-18.525001525878906
1777561218213214500,12.88721435546875,-21.881250381469727,37.21875,-13.706250190734863
1777561218223214300,12.89721435546875,-22.350000381469727,36.73125076293945,-13.65000057220459
1777561218233214500,12.90721435546875,-18.95625114440918,38.32500076293945,-13.012500762939453
1777561218243214300,12.91721435546875,-19.293750762939453,37.837501525878906,-12.112500190734863
1777561218253214500,12.92721435546875,-20.025001525878906,38.8125,-12.187500953674316
1777561218263214300,12.93721435546875,-18.95625114440918,38.962501525878906,-11.193750381469727
1777561218273214500,12.94721435546875,-16.087501525878906,38.00625228881836,-12.581250190734863
1777561218283214300,12.95721435546875,-16.03125,40.33125305175781,-11.15625
1777561218293214500,12.96721435546875,-13.46250057220459,39.73125076293945,-10.912500381469727
1777561218303214300,12.97721435546875,-15.506250381469727,42.20625305175781,-10.237500190734863
1777561218313214500,12.98721435546875,-11.90625,40.743751525878906,-10.762500762939453
1777561218323214300,12.99721435546875,-11.11875057220459,41.47500228881836,-11.77500057220459
1777561218333214500,13.00721435546875,-9.71250057220459,42.150001525878906,-12.24375057220459
1777561218343214300,13.01721435546875,-8.11875057220459,39.712501525878906,-13.593750953674316
1777561218353214500,13.02721435546875,-7.875000476837158,41.41875076293945,-15.543750762939453
1777561218363214300,13.03721435546875,-6.581250190734863,39.03750228881836,-15.600000381469727
1777561218373214500,13.04721435546875,-6.937500476837158,41.775001525878906,-16.481250762939453
1777561218383214300,13.05721435546875,-6.187500476837158,41.38125228881836,-16.575000762939453
1777561218393214500,13.06721435546875,-7.162500381469727,39.58125305175781,-17.043750762939453
1777561218403214300,13.07721435546875,-7.706250190734863,42.056251525878906,-14.568750381469727
1777561218413214500,13.08721435546875,-5.625,40.48125076293945,-15.075000762939453
1777561218423214300,13.09721435546875,-8.25,40.61250305175781,-12.581250190734863
1777561218433214500,13.10721435546875,-8.68125057220459,40.76250076293945,-13.237500190734863
1777561218443214300,13.11721435546875,-6.993750095367432,41.19375228881836,-13.631250381469727
1777561218453214500,13.12721435546875,-8.887500762939453,39.50625228881836,-12.487500190734863
1777561218463214300,13.13721435546875,-11.58750057220459,41.28750228881836,-11.381250381469727
1777561218473214500,13.14721435546875,-10.800000190734863,40.96875,-13.575000762939453
1777561218483214300,13.15721435546875,-7.800000190734863,39.056251525878906,-15.562500953674316
1777561218493214500,13.16721435546875,-7.143750190734863,40.29375076293945,-16.481250762939453
1777561218503214300,13.17721435546875,-9.487500190734863,37.35000228881836,-19.51875114440918
1777561218513214500,13.18721435546875,-9.581250190734863,38.98125076293945,-18.637500762939453
1777561218523214300,13.19721435546875,-11.77500057220459,39.243751525878906,-13.443750381469727
1777561218533214500,13.20721435546875,-14.812500953674316,39.67500305175781,-12.15000057220459
1777561218543214300,13.21721435546875,-13.65000057220459,37.96875,-13.65000057220459
1777561218553214500,13.22721435546875,-14.081250190734863,38.98125076293945,-12.731250762939453
1777561218563214300,13.23721435546875,-11.756250381469727,40.20000076293945,-12.843750953674316
1777561218573214500,13.24721435546875,-11.643750190734863,39.82500076293945,-10.237500190734863
1777561218583214300,13.25721435546875,-12.05625057220459,40.23750305175781,-12.543750762939453
1777561218593214500,13.26721435546875,-10.818750381469727,41.28750228881836,-11.40000057220459
1777561218603214300,13.27721435546875,-8.831250190734863,40.95000076293945,-13.631250381469727
1777561218613214200,13.287214111328124,-8.981250762939453,40.650001525878906,-13.968750953674316
1777561218623213800,13.2972138671875,-8.737500190734863,39.54375076293945,-13.050000190734863
1777561218633214000,13.3072138671875,-8.737500190734863,39.54375076293945,-13.050000190734863
1777561218643213800,13.3172138671875,-8.568750381469727,39.712501525878906,-13.593750953674316
1777561218653214000,13.3272138671875,-7.368750095367432,39.375,-13.256250381469727
1777561218663213800,13.3372138671875,-9.28125,41.0625,-12.881250381469727
1777561218673214000,13.3472138671875,-8.568750381469727,39.60000228881836,-14.30625057220459
1777561218683213800,13.3572138671875,-7.800000190734863,39.60000228881836,-14.343750953674316
1777561218693214000,13.3672138671875,-7.800000190734863,38.90625,-16.59375
1777561218703213800,13.3772138671875,-4.875,40.01250076293945,-16.59375
1777561218713214000,13.3872138671875,-9,39.65625,-14.850000381469727
1777561218723213800,13.3972138671875,-7.031250476837158,40.29375076293945,-13.800000190734863
1777561218733214000,13.4072138671875,-8.86875057220459,40.51875305175781,-12.300000190734863
1777561218743213800,13.4172138671875,-7.800000190734863,39.712501525878906,-13.612500190734863
1777561218753214000,13.4272138671875,-8.25,39.82500076293945,-13.725000381469727
1777561218763213800,13.4372138671875,-8.981250762939453,40.650001525878906,-13.968750953674316
1777561218773214000,13.4472138671875,-8.86875057220459,38.90625,-16.556251525878906
1777561218783213800,13.4572138671875,-9.33750057220459,38.75625228881836,-15.862500190734863
1777561218793214000,13.4672138671875,-9.018750190734863,38.15625,-18.243751525878906
1777561218803213800,13.4772138671875,-8.86875057220459,38.15625,-17.400001525878906
1777561218813214000,13.4872138671875,-7.162500381469727,37.29375076293945,-22.40625
1777561218823213800,13.4972138671875,-2.418750047683716,37.556251525878906,-24.037500381469727
1777561218833214000,13.5072138671875,-6.393750190734863,36.525001525878906,-25.125001907348633
1777561218843213800,13.5172138671875,-5.71875,36.07500076293945,-31.725000381469727
1777561218853214000,13.5272138671875,-4.96875,36.31875228881836,-30.000001907348633
1777561218863213800,13.5372138671875,-4.800000190734863,36.28125,-31.14375114440918
1777561218873214000,13.5472138671875,-9.300000190734863,35.4375,-27.506250381469727
