time,seconds_elapsed,z,y,x
1777561205478027000,0.152027099609375,4.024727821350098,-9.32722282409668,-0.397208571434021
1777561205496556300,0.170556396484375,4.314259052276611,-9.312865257263184,-0.6173482537269592
1777561205515085800,0.1890859375,3.955335855484009,-9.133403778076172,-0.6436693072319031
1777561205533615400,0.207615478515625,3.78544545173645,-9.006584167480469,-0.8925228714942932
1777561205552144600,0.22614453125,4.048655986785889,-8.702695846557617,-0.9906286001205444
1777561205570674200,0.244674072265625,3.996013879776001,-8.34855842590332,-0.882951557636261
1777561205589203700,0.26320361328125,3.964907169342041,-8.219346046447754,-0.8111668825149536
1777561205607733000,0.28173291015625,4.027120590209961,-8.104490280151367,-0.6532405614852905
1777561205626262500,0.300262451171875,4.240081787109375,-8.030312538146973,-0.641276478767395
1777561205644791800,0.318791748046875,3.9385859966278076,-8.286344528198242,-0.6867401003837585
1777561205663321300,0.3373212890625,3.5533416271209717,-8.551948547363281,-1.0289137363433838
1777561205681851000,0.355850830078125,3.565305709838867,-8.669196128845215,-1.404586911201477
1777561205700380400,0.37438037109375,3.6993038654327393,-8.762516975402832,-1.0289137363433838
1777561205718909700,0.39290966796875,4.2592244148254395,-8.812766075134277,-0.09092725813388824
1777561205737439200,0.411439208984375,4.213760852813721,-9.41336441040039,0.26081767678260803
1777561205755968800,0.42996875,4.383651256561279,-10.925628662109375,0.4307080805301666
1777561205774498300,0.448498291015625,6.168696880340576,-12.68435287475586,0.05742774158716202
1777561205793027600,0.467027587890625,5.850451469421387,-11.901900291442871,-0.04307080805301666
1777561205811557000,0.48555712890625,2.478964328765869,-8.642875671386719,1.373480200767517
1777561205830086400,0.50408642578125,-0.11724831163883209,-5.477170944213867,2.4741785526275635
1777561205848616000,0.522615966796875,-0.12921242415905,-4.553541660308838,3.4959139823913574
1777561205867145500,0.5411455078125,3.5533416271209717,-6.465406894683838,4.486542224884033
1777561205885674800,0.5596748046875,3.1130621433258057,-9.53779125213623,2.912065267562866
1777561205904204300,0.578204345703125,0.19381862878799438,-11.854043006896973,0.8662018179893494
1777561205922733800,0.59673388671875,-1.8951154947280884,-13.921442031860352,-0.7441678643226624
1777561205941263000,0.61526318359375,-1.7180466651916504,-13.26102352142334,-3.091526746749878
1777561205959792600,0.633792724609375,-0.14356936514377594,-10.576275825500488,-4.328616142272949
1777561205978322200,0.652322265625,-0.45942193269729614,-9.190832138061523,-5.132604598999023
1777561205996851500,0.6708515625,-1.1365907192230225,-8.329415321350098,-3.7016966342926025
1777561206015381000,0.689381103515625,-1.2729816436767578,-8.975478172302246,-1.612762451171875
1777561206033910300,0.70791015625,-2.2707886695861816,-10.322636604309082,0.22492532432079315
1777561206052439800,0.726439697265625,-0.9786644577980042,-11.018948554992676,2.0338993072509766
1777561206070969300,0.74496923828125,-0.31345975399017334,-11.277373313903809,2.6799614429473877
1777561206089499000,0.763498779296875,0.3756731450557709,-10.430314064025879,2.5914268493652344
1777561206108028200,0.782028076171875,1.2275179624557495,-8.97787094116211,1.3208380937576294
1777561206126557700,0.8005576171875,-0.17706887423992157,-8.62612533569336,-0.5359922647476196
1777561206145087200,0.819087158203125,-1.2681959867477417,-9.133403778076172,-2.043470621109009
1777561206163616500,0.837616455078125,-0.916451096534729,-9.882357597351074,-2.9001009464263916
1777561206182146000,0.85614599609375,0.02392822690308094,-9.750752449035645,-2.1535403728485107
1777561206200675600,0.874675537109375,0.2153540402650833,-9.198010444641113,-0.8614161610603333
1777561206219204900,0.893204833984375,0.2392822653055191,-8.97787094116211,0.2679961323738098
1777561206237734400,0.911734375,-0.038285162299871445,-8.874979019165039,0.7058826684951782
1777561206256263700,0.930263671875,-0.6460621356964111,-9.047262191772461,0.46420758962631226
1777561206274793200,0.948793212890625,-0.9786644577980042,-9.164510726928711,-0.16749759018421173
1777561206293322800,0.96732275390625,-0.9499505758285522,-9.111868858337402,-0.5934200286865234
1777561206311852000,0.98585205078125,-1.0049854516983032,-9.410971641540527,-0.7513462901115417
1777561206330381600,1.004381591796875,-0.8805587291717529,-9.961320877075195,-0.5527420043945312
1777561206348911000,1.0229111328125,-0.4091726839542389,-10.351350784301758,-0.5024927258491516
1777561206367440400,1.0414404296875,0.0933200865983963,-10.535597801208496,-0.8805587291717529
1777561206385970000,1.059969970703125,-0.1052841991186142,-10.514062881469727,-1.3208380937576294
1777561206404499500,1.07849951171875,-0.4450650215148926,-10.679167747497559,-1.6247265338897705
1777561206423028700,1.09702880859375,-0.47617170214653015,-11.284551620483398,-1.8161523342132568
1777561206441558300,1.115558349609375,-0.0526420995593071,-11.751152038574219,-1.9405791759490967
1777561206460087600,1.134087646484375,0.275174617767334,-12.016755104064941,-1.8783657550811768
1777561206478617000,1.1526171875,0.3158525824546814,-12.291930198669434,-2.00518536567688
1777561206497146600,1.171146728515625,-0.09092725813388824,-12.672389030456543,-1.9884356260299683
1777561206515676000,1.189676025390625,-0.1986042857170105,-13.227523803710938,-2.438286304473877
1777561206534205400,1.208205322265625,1.2586246728897095,-13.249058723449707,-2.8737800121307373
1777561206552735000,1.22673486328125,2.66560435295105,-12.382857322692871,-1.887937068939209
1777561206571264500,1.245264404296875,2.5698914527893066,-11.413763999938965,-0.1986042857170105
1777561206589793800,1.263793701171875,2.7326035499572754,-10.96869945526123,0.15314064919948578
1777561206608323300,1.2823232421875,0.12681959569454193,-9.633503913879395,0.12681959569454193
1777561206626852900,1.300852783203125,-2.8929226398468018,-9.667003631591797,1.9166508913040161
1777561206645382100,1.319382080078125,-2.9623143672943115,-11.538190841674805,4.285545349121094
1777561206663911700,1.33791162109375,-1.7491533756256104,-14.12243938446045,5.958128452301025
1777561206682441200,1.356441162109375,0.14117653667926788,-14.06979751586914,7.113861560821533
1777561206700970500,1.374970458984375,2.586641311645508,-12.478569984436035,5.333601474761963
1777561206719500000,1.3935,4.000799655914307,-12.227323532104492,2.084148406982422
1777561206738029300,1.412029296875,-1.031306505203247,-12.148360252380371,-1.8951154947280884
1777561206756558800,1.430558837890625,-14.529218673706055,-10.16710376739502,-2.7397818565368652
1777561206775088400,1.44908837890625,3.7902309894561768,-8.80798053741455,-5.850451469421387
1777561206793617700,1.46761767578125,0.5575276613235474,-8.544769287109375,-1.397408366203308
1777561206812147200,1.486147216796875,-4.694717884063721,-6.38883638381958,0.4091726839542389
1777561206830676700,1.5046767578125,-1.222732424736023,-4.409972190856934,1.7467604875564575
1777561206849206000,1.5232060546875,0.21774685382843018,-3.3882367610931396,2.63449764251709
1777561206867735600,1.541735595703125,1.0145567655563354,-2.981456995010376,2.9958138465881348
1777561206886264800,1.560264892578125,1.9597218036651611,-3.376272678375244,2.8594231605529785
1777561206904794400,1.57879443359375,2.9048867225646973,-3.964907169342041,2.2061824798583984
1777561206923324000,1.597323974609375,3.3930225372314453,-4.642076015472412,1.5409778356552124
1777561206941853200,1.615853271484375,3.893122434616089,-5.553741455078125,0.7345965504646301
1777561206960382700,1.6343828125,4.491328239440918,-6.3601226806640625,-0.12442677468061447
1777561206978912300,1.652912353515625,5.869594097137451,-6.539584159851074,-0.5455635786056519
1777561206997441800,1.67144189453125,7.929814338684082,-6.929614543914795,-0.02871387079358101
1777561207015971000,1.68997119140625,9.315258979797363,-8.831908226013184,0.33738797903060913
1777561207034500600,1.70850048828125,10.408778190612793,-12.856636047363281,-1.1365907192230225
1777561207053030100,1.727030029296875,10.956734657287598,-16.271194458007812,-3.081955671310425
1777561207071559400,1.745559326171875,8.848658561706543,-14.617753982543945,-2.620140790939331
1777561207090089000,1.7640888671875,5.307280540466309,-8.72901725769043,-0.1052841991186142
1777561207108618500,1.782618408203125,3.548556089401245,-4.299902439117432,1.557727575302124
1777561207127147800,1.801147705078125,1.5792629718780518,-3.31884503364563,3.981656789779663
1777561207145677300,1.81967724609375,2.541177749633789,-6.752545356750488,10.729416847229004
1777561207164206800,1.838206787109375,7.901100158691406,-15.76152229309082,16.309478759765625
1777561207182736100,1.856736083984375,-0.059820566326379776,-25.552953720092773,10.767702102661133
1777561207201265700,1.875265625,-6.118447303771973,-14.651252746582031,-4.369294166564941
1777561207219795200,1.893795166015625,-5.0943193435668945,-6.331408500671387,-1.887937068939209
1777561207238324700,1.91232470703125,0.2847459018230438,-2.5148565769195557,2.0793628692626953
1777561207256854000,1.93085400390625,0.01196411345154047,-1.7252250909805298,2.0745773315429688
1777561207275383600,1.949383544921875,-3.6083765029907227,-3.862015724182129,1.2897313833236694
1777561207293913000,1.9679130859375,-4.931607246398926,-8.135597229003906,-0.1866401731967926
1777561207312442400,1.9864423828125,-3.445664644241333,-18.003597259521484,-3.713660717010498
1777561207330972000,2.004971923828125,0.7202396392822266,-26.878576278686523,-9.693324089050293
1777561207349501200,2.023501220703125,7.245467185974121,-15.687345504760742,-5.862415313720703
1777561207368030700,2.04203076171875,4.144368648529053,-10.15035343170166,-1.4787644147872925
1777561207386560300,2.060560302734375,1.6534404754638672,-7.592426300048828,2.1200408935546875
1777561207405089800,2.07908984375,0.7896314859390259,-6.135197162628174,4.366901397705078
1777561207423619300,2.097619384765625,1.0145567655563354,-6.013163089752197,5.0464630126953125
1777561207442148600,2.116148681640625,1.825723648071289,-7.6737823486328125,2.4670002460479736
1777561207460678100,2.13467822265625,2.196611166000366,-9.533005714416504,-0.519242525100708
1777561207479207700,2.153207763671875,2.368894338607788,-9.903892517089844,-2.2133610248565674
1777561207497737000,2.171737060546875,3.9361932277679443,-8.796015739440918,-2.2205393314361572
1777561207516266500,2.1902666015625,5.020142078399658,-6.9583282470703125,-0.3565305769443512
1777561207534796000,2.208796142578125,3.8500516414642334,-5.391029357910156,1.3543375730514526
1777561207553325600,2.22732568359375,3.759124279022217,-4.022335052490234,1.672582983970642
1777561207571854800,2.245854736328125,5.015356063842773,-3.2997024059295654,-0.09092725813388824
1777561207590384400,2.26438427734375,3.6155550479888916,-4.0079779624938965,-0.6532405614852905
1777561207608914000,2.282913818359375,2.8929226398468018,-5.3312087059021,0.2225325107574463
1777561207627443200,2.301443115234375,3.1728827953338623,-7.183253765106201,1.2729816436767578
1777561207645972700,2.31997265625,0.23210379481315613,-7.269395351409912,1.7180466651916504
1777561207673767000,2.347766845703125,1.8496519327163696,-5.737988471984863,-0.08374879509210587
1777561207692296400,2.36629638671875,5.395814895629883,-6.269195556640625,0.3852444589138031
1777561207710826000,2.384825927734375,4.393222332000732,-8.149953842163086,1.435693621635437
1777561207729355300,2.403355224609375,4.326223373413086,-10.248459815979004,0.3852444589138031
1777561207747884800,2.421884765625,12.959527015686035,-16.103696823120117,-1.098305583000183
1777561207766414300,2.440414306640625,7.403393268585205,-23.617158889770508,-1.8233308792114258
1777561207784943900,2.45894384765625,1.5912270545959473,-27.43849754333496,-1.6773686408996582
1777561207803473200,2.47747314453125,2.8977081775665283,-24.090938568115234,0.8135597109794617
1777561207822002700,2.496002685546875,0.8781659007072449,-12.815958023071289,4.156332969665527
1777561207840532200,2.5145322265625,0.6819544434547424,-2.8689942359924316,4.393222332000732
1777561207859061800,2.533061767578125,2.3234307765960693,1.3830515146255493,2.9359934329986572
1777561207877591300,2.55159130859375,2.1846470832824707,1.923829436302185,2.531606435775757
1777561207896120600,2.57012060546875,2.8737800121307373,-4.780859470367432,1.576870083808899
1777561207914650000,2.588650146484375,3.139383316040039,-9.260223388671875,1.7754744291305542
1777561207933179600,2.6071796875,1.672582983970642,-9.504291534423828,1.6295121908187866
1777561207951709200,2.625709228515625,1.6510475873947144,-7.054041385650635,0.9906286001205444
1777561207970238500,2.644238525390625,3.421736478805542,-3.706482172012329,1.7922241687774658
1777561207988768000,2.66276806640625,4.268795490264893,-1.797009825706482,1.703689694404602
1777561208007297500,2.681297607421875,4.07258415222168,-1.5601203441619873,0.3900300860404968
1777561208025827000,2.6998271484375,3.806980848312378,-4.565505504608154,-1.6390835046768188
1777561208044356600,2.718356689453125,3.8524444103240967,-14.251651763916016,-4.579862594604492
1777561208062886000,2.736885986328125,4.390829563140869,-14.598610877990723,-3.6634113788604736
1777561208081415400,2.75541552734375,8.659625053405762,-9.817750930786133,-1.801795482635498
1777561208099945000,2.773945068359375,6.623332977294922,-7.733603000640869,0.02632104977965355
1777561208118474500,2.792474609375,3.5054850578308105,-6.362515449523926,1.3950155973434448
1777561208137004000,2.811004150390625,1.0169496536254883,-5.431707382202148,2.9455647468566895
1777561208155533300,2.829533203125,-1.7324036359786987,-5.120640277862549,4.510470867156982
1777561208174062800,2.848062744140625,-2.045863389968872,-4.967499732971191,4.890929698944092
1777561208192592400,2.86659228515625,-2.0745773315429688,-6.190232276916504,4.898108005523682
1777561208211122000,2.885121826171875,-0.43549370765686035,-10.183853149414062,3.9194436073303223
1777561208229651500,2.9036513671875,8.080561637878418,-15.426527976989746,1.8448662757873535
1777561208248181000,2.922180908203125,21.241086959838867,-18.774085998535156,-1.4428720474243164
1777561208266710300,2.940710205078125,7.70967435836792,-18.728622436523438,-3.3475589752197266
1777561208285239800,2.95923974609375,1.1150553226470947,-25.25145721435547,4.398007869720459
1777561208303769300,2.977769287109375,2.3569302558898926,-20.848663330078125,2.108076810836792
1777561208322299000,2.996298828125,-8.57348346710205,-10.846665382385254,-1.576870083808899
1777561208340828200,3.014828125,-8.303094863891602,-6.096911907196045,-1.521835207939148
1777561208359358000,3.03335791015625,-6.891329288482666,-3.799802303314209,-0.5814558863639832
1777561208377887200,3.05188720703125,3.452843189239502,-7.884350776672363,1.6558332443237305
1777561208396416800,3.070416748046875,11.894721031188965,-15.692131042480469,0.15074782073497772
1777561208414946300,3.0889462890625,1.6773686408996582,-17.462820053100586,-3.383451223373413
1777561208433475800,3.107475830078125,-0.9690931439399719,-12.571889877319336,-4.797609329223633
1777561208452005400,3.12600537109375,0.8255237936973572,-7.70967435836792,-3.091526746749878
1777561208470534700,3.14453466796875,2.806781053543091,-5.848058700561523,-1.2945170402526855
1777561208489064400,3.163064453125,2.9383862018585205,-4.603790760040283,0.9595218896865845
1777561208507593700,3.18159375,5.082355499267578,-3.893122434616089,2.225325107574463
1777561208526123300,3.200123291015625,5.974878311157227,-4.328616142272949,2.469393014907837
1777561208544652800,3.21865283203125,1.9453648328781128,-5.575276851654053,0.48813581466674805
1777561208572447200,3.246447265625,3.1728827953338623,-7.573283672332764,-0.42831525206565857
1777561208590976500,3.2649765625,4.711467742919922,-6.673582553863525,0.1818545162677765
1777561208609506000,3.283506103515625,4.309473514556885,-6.0777692794799805,-0.08374879509210587
1777561208628035600,3.30203564453125,-0.9020941257476807,-5.838487148284912,-0.2632105052471161
1777561208646565000,3.320565185546875,-0.19142581522464752,-5.996413707733154,0.5240281820297241
1777561208665094700,3.3390947265625,6.419943332672119,-6.652047157287598,-0.41156548261642456
1777561208683624200,3.357624267578125,7.451249599456787,-10.009177207946777,-1.3950155973434448
1777561208702153700,3.37615380859375,7.587640762329102,-16.338193893432617,-1.6342978477478027
1777561208720683300,3.394683349609375,8.898907661437988,-23.509483337402344,-0.6915257573127747
1777561208739212500,3.413212646484375,7.793423175811768,-26.95754051208496,0.23449662327766418
1777561208757742300,3.431742431640625,4.529613494873047,-26.258834838867188,0.3038884699344635
1777561208776271600,3.450271728515625,3.2709884643554688,-17.400606155395508,3.5030922889709473
1777561208794801200,3.46880126953125,3.7328033447265625,-8.01356315612793,3.9864425659179688
1777561208813330700,3.48733056640625,0.24406790733337402,-3.273381471633911,2.438286304473877
1777561208831860200,3.505860107421875,0.12921242415905,-1.0648061037063599,-0.10049854964017868
1777561208850389800,3.5243896484375,3.720839262008667,-2.2444677352905273,1.222732424736023
1777561208868919300,3.542919189453125,2.9862427711486816,-6.008377552032471,2.5603201389312744
1777561208887448800,3.56144873046875,1.277767300605774,-8.13798999786377,2.586641311645508
1777561208905978400,3.579978271484375,0.4833501875400543,-7.432106971740723,1.129412293434143
1777561208924508000,3.5985078125,-0.08135596662759781,-6.530013084411621,0.12442677468061447
1777561208943037400,3.617037353515625,0.11246266216039658,-4.41475772857666,0.31824541091918945
1777561208961567000,3.63556689453125,0.9020941257476807,-2.0099709033966064,1.435693621635437
1777561208980096500,3.654096435546875,1.521835207939148,-0.37806597352027893,2.321038007736206
1777561208998626000,3.6726259765625,1.7084753513336182,0.12203395366668701,2.5459632873535156
1777561209017155600,3.691155517578125,1.4261223077774048,-0.672383189201355,1.801795482635498
1777561209035685000,3.70968505859375,1.94297194480896,-3.1106693744659424,0.6197410821914673
1777561209054214700,3.728214599609375,4.6061835289001465,-8.240880966186523,-0.6508477330207825
1777561209072744200,3.746744140625,7.140182971954346,-18.922441482543945,-3.3403804302215576
1777561209091273700,3.765273681640625,9.265008926391602,-15.292529106140137,-3.067598581314087
1777561209109803300,3.78380322265625,8.566305160522461,-9.913464546203613,-0.5335994362831116
1777561209128332800,3.802332763671875,6.606583118438721,-7.345965385437012,-0.035892341285943985
1777561209146862300,3.8208623046875,2.045863389968872,-5.2115678787231445,0.9547362327575684
1777561209165392000,3.839391845703125,-2.2444677352905273,-4.371686935424805,2.3808584213256836
1777561209183921400,3.85792138671875,-2.9288148880004883,-5.848058700561523,2.5698914527893066
1777561209202451000,3.876450927734375,0.0933200865983963,-9.53779125213623,2.9455647468566895
1777561209220980500,3.89498046875,-1.1318050622940063,-15.170495986938477,4.125226020812988
1777561209239510000,3.913510009765625,2.6464617252349854,-20.09731674194336,7.671389579772949
1777561209258039600,3.93203955078125,19.04926109313965,-20.494525909423828,1.5864413976669312
1777561209276569000,3.950569091796875,28.81437110900879,-29.726036071777344,-0.9834501147270203
1777561209295098600,3.9690986328125,-11.944971084594727,-21.020946502685547,-5.436492919921875
1777561209313628200,3.987628173828125,-15.503097534179688,-8.513663291931152,-0.37088751792907715
1777561209332157700,4.00615771484375,-12.399606704711914,-3.82373046875,1.9597218036651611
1777561209350687200,4.024687255859375,-5.742774486541748,-6.759724140167236,2.9288148880004883
1777561209369216800,4.043216796875,5.300102233886719,-12.605389595031738,0.30149564146995544
1777561209387746300,4.061746337890625,10.054640769958496,-13.818551063537598,-1.679761528968811
1777561209406275800,4.08027587890625,4.467400074005127,-13.62473201751709,-2.218146562576294
1777561209424805400,4.098805419921875,0.12921242415905,-10.28195858001709,-1.6103696823120117
1777561209443335200,4.117335205078125,0.9690931439399719,-7.795815944671631,-0.9308080077171326
1777561209461864400,4.135864501953125,2.730210542678833,-6.4319071769714355,-0.5144568681716919
1777561209480394200,4.154394287109375,4.067798614501953,-5.003392219543457,0.9547362327575684
1777561209498923800,4.172923828125,5.477170944213867,-4.5200419425964355,1.9094724655151367
1777561209517453300,4.191453369140625,5.867201328277588,-4.687539577484131,1.7994025945663452
1777561209535982800,4.20998291015625,1.5146567821502686,-5.359922885894775,0.9355936646461487
1777561209554512400,4.228512451171875,0.23449662327766418,-6.03948450088501,1.1676974296569824
1777561209573042000,4.2470419921875,3.3882367610931396,-7.125825881958008,1.0671988725662231
1777561209591571500,4.265571533203125,2.8139593601226807,-7.475177764892578,-0.02153540402650833
1777561209610101000,4.28410107421875,-0.19621145725250244,-6.891329288482666,-1.007378339767456
1777561209628630800,4.302630859375,-0.4331009089946747,-6.510870456695557,-1.160519003868103
1777561209647160000,4.32116015625,4.479363918304443,-7.326822757720947,-1.1461620330810547
1777561209665689900,4.33968994140625,7.733603000640869,-8.322237014770508,-0.8350951075553894
1777561209684219400,4.358219482421875,5.163711071014404,-9.446864128112793,-0.5694918036460876
1777561209702749000,4.3767490234375,1.4380863904953003,-11.846864700317383,-1.3758729696273804
1777561209721278500,4.395278564453125,9.19561767578125,-16.3046932220459,-0.6819544434547424
1777561209739808000,4.41380810546875,11.071590423583984,-20.614166259765625,1.3304094076156616
1777561209758337500,4.432337646484375,5.213960647583008,-24.935604095458984,3.445664644241333
1777561209786132000,4.460132080078125,5.699703693389893,-24.997817993164062,4.278367042541504
1777561209804661500,4.47866162109375,1.6773686408996582,-13.600804328918457,1.730010747909546
1777561209823191300,4.49719140625,-1.5242279767990112,-5.831308841705322,0.7824530005455017
1777561209841720800,4.515720947265625,-0.26081767678260803,-0.6221339106559753,0.038285162299871445
1777561209860250400,4.53425048828125,3.4193434715270996,1.0145567655563354,-0.5479564070701599
1777561209878780000,4.55277978515625,4.005585193634033,-3.0652058124542236,1.5840486288070679
1777561209897309400,4.571309326171875,0.9523434042930603,-7.6498541831970215,1.9142581224441528
1777561209915839200,4.589839111328125,0.3732803463935852,-7.858029365539551,1.521835207939148
1777561209934368800,4.60836865234375,-0.29431718587875366,-6.089733600616455,0.4570291340351105
1777561209962163200,4.6361630859375,-0.6364908218383789,-4.309473514556885,0.0526420995593071
1777561209980692700,4.654692626953125,0.5072783827781677,-2.5387847423553467,0.6867401003837585
1777561209999222300,4.67322216796875,1.2538390159606934,-1.1126625537872314,1.2873386144638062
1777561210017751800,4.691751708984375,0.8303094506263733,-0.42352959513664246,1.6103696823120117
1777561210036281600,4.710281494140625,0.6580262184143066,-1.368694543838501,1.4883357286453247
1777561210054811000,4.728810791015625,0.9355936646461487,-6.592226505279541,0.15314064919948578
1777561210073340700,4.747340576171875,1.6175481081008911,-14.612967491149902,-0.97148597240448
1777561210091870200,4.7658701171875,5.67338228225708,-12.696316719055176,-0.9451649188995361
1777561210110399700,4.784399658203125,14.701501846313477,-12.294322967529297,-1.7922241687774658
1777561210128929500,4.802929443359375,11.26062297821045,-9.877572059631348,-1.801795482635498
1777561210147459000,4.821458984375,4.168296813964844,-6.216553211212158,-0.9403793215751648
1777561210165988600,4.839988525390625,-0.3158525824546814,-3.2757742404937744,1.0289137363433838
1777561210184518400,4.858518310546875,-1.34476637840271,-3.8045880794525146,2.9144580364227295
1777561210203048000,4.8770478515625,-1.6558332443237305,-7.7838521003723145,3.871587038040161
1777561210221577500,4.895577392578125,-2.337787628173828,-14.304293632507324,6.39601469039917
1777561210240107300,4.914107177734375,-3.610769271850586,-19.642681121826172,9.233902931213379
1777561210258636800,4.93263671875,13.02652645111084,-21.10230255126953,1.3543375730514526
1777561210277166300,4.951166259765625,22.308284759521484,-23.404197692871094,-5.816951751708984
1777561210295696000,4.96969580078125,3.7543387413024902,-24.670001983642578,-2.7828526496887207
1777561210314225700,4.9882255859375,-13.091133117675781,-12.662817001342773,0.37088751792907715
1777561210332755200,5.006755126953125,-11.985648155212402,-6.618547439575195,-0.2679961323738098
1777561210351284700,5.02528466796875,-8.228917121887207,-5.426921844482422,1.9836499691009521
1777561210369814500,5.043814453125,2.5603201389312744,-9.272188186645508,1.7156537771224976
1777561210388344000,5.062343994140625,10.183853149414062,-13.35434341430664,-1.2562319040298462
1777561210406873600,5.08087353515625,4.347758769989014,-15.443277359008789,-3.562912940979004
1777561210425403400,5.0994033203125,0.9882357716560364,-13.359128952026367,-3.2829527854919434
1777561210443933000,5.117932861328125,1.2394821643829346,-8.982656478881836,-2.1607189178466797
1777561210462462500,5.13646240234375,2.038684844970703,-7.188039302825928,-1.2705888748168945
1777561210480992300,5.1549921875,2.311466693878174,-6.374479293823242,-0.05024927482008934
1777561210499522000,5.17352197265625,2.6392834186553955,-5.54177713394165,1.4500504732131958
1777561210518051600,5.192051513671875,4.319045066833496,-5.400600910186768,2.3186452388763428
1777561210536581000,5.2105810546875,4.6540398597717285,-5.759523868560791,1.801795482635498
1777561210555111000,5.22911083984375,2.7876384258270264,-6.216553211212158,0.4666004180908203
1777561210573640400,5.247640380859375,2.2683959007263184,-6.642475605010986,0.5048855543136597
1777561210592170000,5.266169921875,2.9216363430023193,-6.099305152893066,0.9068797826766968
1777561210610699800,5.28469970703125,3.871587038040161,-6.302694797515869,-0.11964113265275955
1777561210629229300,5.303229248046875,2.5435705184936523,-6.259624004364014,-0.8590233325958252
1777561210647759000,5.321759033203125,2.778067111968994,-6.329015731811523,-0.17706887423992157
1777561210666288600,5.34028857421875,4.328616142272949,-6.788437843322754,0.10289137065410614
1777561210694083000,5.3680830078125,4.084548473358154,-7.798209190368652,-0.363709032535553
1777561210712612900,5.38661279296875,4.673182487487793,-10.071390151977539,-1.4021940231323242
1777561210731142400,5.405142333984375,5.788238048553467,-14.35454273223877,-1.9980069398880005
1777561210749672000,5.423671875,8.087740898132324,-19.652252197265625,-1.7276179790496826
1777561210768201700,5.44220166015625,7.568498134613037,-23.784656524658203,-0.7968099117279053
1777561210786731500,5.4607314453125,5.501099109649658,-23.803800582885742,3.10109806060791
1777561210805261000,5.479260986328125,1.0049854516983032,-21.655044555664062,6.072983741760254
1777561210823790600,5.49779052734375,3.4911282062530518,-13.416556358337402,5.8097734451293945
1777561210842320400,5.5163203125,2.1822543144226074,-6.537191390991211,3.16331148147583
1777561210860850200,5.53485009765625,1.2681959867477417,-2.5770699977874756,1.3088740110397339
1777561210879379700,5.553379638671875,2.4574289321899414,-0.8350951075553894,0.5120640397071838
1777561210897909200,5.5719091796875,3.0867412090301514,-4.015156269073486,1.332802176475525
1777561210916439000,5.59043896484375,1.8233308792114258,-7.554141044616699,1.794616937637329
1777561210934968800,5.60896875,0.6197410821914673,-8.561519622802734,1.0432707071304321
1777561210953498400,5.627498291015625,-0.5407779216766357,-7.846065521240234,0.7058826684951782
1777561210972028000,5.64602783203125,-0.8255237936973572,-6.0538411140441895,0.8997012972831726
1777561210990557700,5.6645576171875,0.4785645306110382,-3.6394832134246826,1.4739787578582764
1777561211009087200,5.683087158203125,2.0003998279571533,-1.674975872039795,1.9836499691009521
1777561211027617000,5.701616943359375,2.59621262550354,-0.2991028428077698,2.6799614429473877
1777561211046146600,5.720146484375,1.1461620330810547,0.1698904037475586,3.3690943717956543
1777561211064676400,5.73867626953125,-1.100698471069336,-0.46899324655532837,3.2709884643554688
1777561211083206000,5.757205810546875,-2.5196423530578613,-4.646861553192139,1.6845471858978271
1777561211101735700,5.775735595703125,-1.2251251935958862,-12.696316719055176,-0.1866401731967926
1777561211120265500,5.794265380859375,3.483949661254883,-13.103096961975098,-2.431107759475708
1777561211138795000,5.812794921875,17.79063606262207,-13.785051345825195,-2.66560435295105
1777561211157324800,5.83132470703125,15.17288875579834,-11.80618667602539,-0.4426721930503845
1777561211175854300,5.849854248046875,7.300501823425293,-7.6666035652160645,0.3756731450557709
1777561211194384100,5.868384033203125,2.9479575157165527,-4.333401679992676,0.8470591902732849
1777561211212913700,5.88691357421875,-2.0171494483947754,-5.527420520782471,2.5746772289276123
1777561211231443500,5.905443359375,-2.148754835128784,-10.360921859741211,2.988635540008545
1777561211249973000,5.923972900390625,-0.8638089895248413,-14.691930770874023,1.1437692642211914
1777561211268502800,5.942502685546875,-7.164111137390137,-16.034303665161133,-1.9573289155960083
1777561211287032600,5.961032470703125,-2.830709218978882,-21.54497528076172,3.0580272674560547
1777561211305562000,5.97956201171875,33.6741943359375,-30.381669998168945,1.9669002294540405
1777561211324092000,5.998091796875,-3.658625841140747,-21.262622833251953,0.14835500717163086
1777561211342621400,6.016621337890625,-13.016955375671387,-11.337193489074707,0.6628118753433228
1777561211361151200,6.035151123046875,-11.614761352539062,-7.661818027496338,1.581655740737915
1777561211379680800,6.0536806640625,-2.612962245941162,-5.4628143310546875,3.1274192333221436
1777561211398210600,6.07221044921875,8.185846328735352,-8.642875671386719,1.031306505203247
1777561211416740400,6.090740234375,5.694917678833008,-12.531211853027344,-1.1868400573730469
1777561211435270000,6.109269775390625,0.4163511395454407,-13.373485565185547,-1.6701902151107788
1777561211453799700,6.127799560546875,-0.885344386100769,-11.172088623046875,-2.2301106452941895
1777561211472329200,6.1463291015625,2.1846470832824707,-9.183652877807617,-2.579462766647339
1777561211490859000,6.16485888671875,4.225724697113037,-7.934599876403809,-2.304288148880005
1777561211509388800,6.183388916015625,4.295116424560547,-6.534798622131348,-0.26081767678260803
1777561211527918300,6.20191845703125,4.7473602294921875,-4.991427898406982,1.7563318014144897
1777561211546448100,6.2204482421875,4.254438877105713,-4.383651256561279,1.4189438819885254
1777561211564977700,6.238977783203125,1.7012969255447388,-3.6083765029907227,1.3280165195465088
1777561211583507500,6.257507568359375,2.5938198566436768,-3.751945972442627,0.672383189201355
1777561211602037200,6.276037353515625,3.34995174407959,-4.694717884063721,-0.02153540402650833
1777561211620566800,6.29456689453125,2.2061824798583984,-5.453242778778076,-0.009571290574967861
1777561211639096600,6.3130966796875,0.3397808074951172,-5.477170944213867,-0.4091726839542389
1777561211657626000,6.331626220703125,-0.44745782017707825,-5.32403039932251,-1.301695466041565
1777561211676156000,6.350156005859375,5.903093338012695,-6.029912948608398,-0.4426721930503845
1777561211694685700,6.368685791015625,9.004191398620605,-7.4847493171691895,-0.20817556977272034
1777561211713215500,6.387215576171875,3.6466617584228516,-11.483156204223633,0.20099709928035736
1777561211731745000,6.4057451171875,6.245266914367676,-17.52742576599121,0.7393822073936462
1777561211750274800,6.42427490234375,11.064412117004395,-22.966312408447266,-0.8327022790908813
1777561211768804400,6.442804443359375,1.5026925802230835,-24.191436767578125,-1.5840486288070679
1777561211787334100,6.461334228515625,2.612962245941162,-21.339191436767578,-0.004785645287483931
1777561211805864000,6.479864013671875,2.9599215984344482,-18.106489181518555,2.076970100402832
1777561211824393500,6.4983935546875,2.7182464599609375,-12.112467765808105,4.161118507385254
1777561211842923300,6.51692333984375,3.88594388961792,-6.774080753326416,3.263810157775879
1777561211861453000,6.535453125,4.278367042541504,-3.359523057937622,3.5820555686950684
1777561211879982600,6.553982666015625,2.7661030292510986,-4.797609329223633,2.612962245941162
1777561211898512400,6.572512451171875,1.4333007335662842,-8.74337387084961,1.1126625537872314
1777561211917042000,6.5910419921875,0.25363919138908386,-10.3681001663208,-0.1339980661869049
1777561211935571700,6.60957177734375,-0.27756741642951965,-9.214759826660156,-0.35892340540885925
1777561211954101500,6.6281015625,-0.17228323221206665,-6.226124286651611,0.5431707501411438
1777561211972631300,6.64663134765625,0.7322037220001221,-2.9288148880004883,1.7276179790496826
1777561211991160800,6.665160888671875,1.5625132322311401,-0.9571290612220764,2.3952155113220215
1777561212009690600,6.683690673828125,1.5050854682922363,-0.7417750358581543,2.5914268493652344
1777561212028220200,6.70222021484375,1.9525432586669922,-1.4691931009292603,2.5052852630615234
1777561212046750000,6.72075,2.737389087677002,-2.352144718170166,2.3018953800201416
1777561212065279700,6.73927978515625,3.5533416271209717,-3.8285162448883057,1.9046868085861206
1777561212083809500,6.7578095703125,5.546562671661377,-8.305487632751465,1.1772687435150146
1777561212102339000,6.776339111328125,8.508877754211426,-14.526825904846191,-1.6055840253829956
1777561212120868900,6.794868896484375,8.707481384277344,-12.906885147094727,0.05742774158716202
1777561212139398700,6.813398681640625,5.749952793121338,-9.698110580444336,0.7034898400306702
1777561212157928200,6.83192822265625,4.67078971862793,-7.489534854888916,0.7489534616470337
1777561212176458000,6.8504580078125,3.5437703132629395,-5.362315654754639,1.1102696657180786
1777561212194987800,6.86898779296875,3.9194436073303223,-4.208974838256836,2.194218397140503
1777561212213517600,6.887517578125,4.7712883949279785,-7.322037220001221,4.00319242477417
1777561212232047000,6.906047119140625,6.022734642028809,-15.452848434448242,5.912664890289307
1777561212250577000,6.924576904296875,4.735395908355713,-22.923240661621094,4.7401814460754395
1777561212269106400,6.9431064453125,-7.561319351196289,-17.46999740600586,-3.548556089401245
1777561212287636200,6.96163623046875,-8.054241180419922,-13.646267890930176,7.917850017547607
1777561212306166000,6.980166015625,4.8813581466674805,-16.74018669128418,10.52363395690918
1777561212324695800,6.99869580078125,-1.6893328428268433,-15.127425193786621,-0.5479564070701599
1777561212343225600,7.0172255859375,-6.57547664642334,-14.627325057983398,-3.7782669067382812
1777561212361755100,7.035755126953125,-6.903293132781982,-15.90269947052002,-4.634897232055664
1777561212380285000,7.054284912109375,-3.012563705444336,-17.079967498779297,-1.5170495510101318
1777561212398814500,7.072814453125,-0.9236295223236084,-15.239887237548828,0.3565305769443512
1777561212417344300,7.09134423828125,0.18424734473228455,-12.323036193847656,-1.1078768968582153
1777561212435874000,7.1098740234375,0.1986042857170105,-9.008976936340332,-1.3591232299804688
1777561212454403600,7.128403564453125,0.7561319470405579,-6.759724140167236,-0.26081767678260803
1777561212482198300,7.1561982421875,2.0650060176849365,-7.465606689453125,1.6869399547576904
1777561212500728000,7.17472802734375,1.6247265338897705,-6.745367050170898,3.6466617584228516
1777561212519257900,7.1932578125,0.6317051649093628,-6.805187702178955,2.792423963546753
1777561212537787400,7.211787353515625,-2.014756679534912,-7.2430739402771,1.153340458869934
1777561212556317200,7.230317138671875,-3.342773199081421,-6.996613502502441,-0.6005984544754028
1777561212574847000,7.248846923828125,-4.118047714233398,-5.941378593444824,-1.306481122970581
1777561212593376500,7.26737646484375,-2.3330020904541016,-6.963113784790039,-3.6921253204345703
1777561212611906300,7.28590625,0.5575276613235474,-9.174081802368164,-6.946363925933838
1777561212630436000,7.30443603515625,2.2061824798583984,-11.889935493469238,-7.460821151733398
1777561212648966000,7.3229658203125,2.9383862018585205,-12.31107234954834,-7.4225358963012695
1777561212667495400,7.341495361328125,0.5383850932121277,-11.770294189453125,-5.682953834533691
1777561212686025200,7.360025146484375,-0.08374879509210587,-10.777273178100586,-2.770888566970825
1777561212704555000,7.378554931640625,1.301695466041565,-11.057233810424805,-0.7465606927871704
1777561212723084500,7.39708447265625,1.9262222051620483,-11.509476661682129,0.09571290761232376
1777561212741614300,7.4156142578125,1.3471591472625732,-12.863814353942871,-0.24885354936122894
1777561212760144100,7.43414404296875,0.6891329288482666,-14.34018611907959,0.07417750358581543
1777561212778674000,7.452673828125,0.6580262184143066,-16.37887191772461,0.5168496966362
1777561212797203700,7.47120361328125,1.301695466041565,-17.10868263244629,0.32303106784820557
1777561212815733200,7.489733154296875,2.8498518466949463,-14.301900863647461,1.2490534782409668
1777561212834263000,7.508262939453125,2.713460922241211,-9.980463027954102,3.1920254230499268
1777561212852792800,7.526792724609375,2.100898265838623,-8.181060791015625,3.617947816848755
1777561212871322400,7.545322265625,-5.027320384979248,-8.788837432861328,3.208775281906128
1777561212889852200,7.56385205078125,-5.079962253570557,-11.68893814086914,4.393222332000732
1777561212908382000,7.5823818359375,-2.6871397495269775,-14.601003646850586,5.7786664962768555
1777561212926911700,7.600911865234375,2.792423963546753,-15.306886672973633,6.675975322723389
1777561212945441500,7.619441650390625,6.032305717468262,-14.825928688049316,4.835894584655762
1777561212963971000,7.63797119140625,1.8664016723632812,-13.811372756958008,4.503292083740234
1777561212982500900,7.6565009765625,-5.178068161010742,-12.181859970092773,2.400001049041748
1777561213001030700,7.67503076171875,-9.611968994140625,-10.74138069152832,-0.33020952343940735
1777561213019560200,7.693560302734375,0.605384111404419,-8.609375953674316,-1.28255295753479
1777561213038090000,7.712090087890625,-0.6125625967979431,-6.4941205978393555,-2.586641311645508
1777561213056619800,7.730619873046875,-2.885744094848633,-4.522434711456299,-1.2897313833236694
1777561213075149600,7.749149658203125,-2.715853691101074,-3.562912940979004,0.729810893535614
1777561213093679000,7.76767919921875,-1.0887342691421509,-2.6727828979492188,2.421536445617676
1777561213112209000,7.786208984375,0.2105683982372284,-1.7084753513336182,3.0556344985961914
1777561213130738700,7.80473876953125,1.2729816436767578,-1.9525432586669922,2.455035924911499
1777561213149268500,7.8232685546875,2.909672260284424,-2.801995277404785,1.6031911373138428
1777561213167798300,7.84179833984375,5.029713153839111,-3.761517286300659,0.9451649188995361
1777561213186327800,7.860327880859375,8.11406135559082,-4.831109046936035,1.222732424736023
1777561213204857600,7.878857666015625,10.04267692565918,-7.066005229949951,0.7800601720809937
1777561213223387400,7.897387451171875,12.131610870361328,-9.844072341918945,1.0671988725662231
1777561213241917000,7.9159169921875,12.598211288452148,-11.140982627868652,3.94097900390625
1777561213260446700,7.93444677734375,8.772088050842285,-10.990234375,5.419743061065674
1777561213278976500,7.9529765625,6.908079147338867,-9.623932838439941,3.9936211109161377
1777561213297506300,7.97150634765625,6.8865437507629395,-7.747959613800049,1.404586911201477
1777561213316036000,7.9900361328125,10.535597801208496,-8.83669376373291,4.01037073135376
1777561213334565600,8.008565673828125,10.315458297729492,-17.55853271484375,9.45164966583252
1777561213353095400,8.027095458984375,-1.8544375896453857,-19.38425636291504,2.8905298709869385
1777561213371625200,8.045625244140625,-5.082355499267578,-9.863214492797852,-0.08135596662759781
1777561213390155000,8.064155029296876,-3.38105845451355,-2.1296122074127197,5.630311489105225
1777561213408684500,8.0826845703125,-0.25363919138908386,-0.9523434042930603,8.453842163085938
1777561213427214300,8.10121435546875,0.45942193269729614,-1.7443677186965942,3.8428730964660645
1777561213445744000,8.119744140625,-5.438885688781738,-4.235296249389648,0.2512463629245758
1777561213464274000,8.13827392578125,-7.001399040222168,-8.398807525634766,1.5098711252212524
1777561213482803700,8.1568037109375,-3.2063822746276855,-17.857635498046875,1.4428720474243164
1777561213501333200,8.175333251953125,-5.501099109649658,-25.847270965576172,-6.072983741760254
1777561213519863000,8.193863037109375,-4.366901397705078,-18.46062660217285,-7.365108013153076
1777561213538392800,8.212392822265626,0.5718846321105957,-11.282158851623535,-5.907878875732422
1777561213556922600,8.230922607421874,3.036491870880127,-8.786444664001465,-4.039084434509277
1777561213575452200,8.2494521484375,3.239881753921509,-7.195217609405518,0.4450650215148926
1777561213593982000,8.26798193359375,0.9308080077171326,-6.999006271362305,3.0652058124542236
1777561213612511700,8.28651171875,-0.6149554252624512,-7.869993686676025,4.381258487701416
1777561213631041500,8.30504150390625,-0.9954141974449158,-8.693124771118164,3.4983067512512207
1777561213649571300,8.3235712890625,-1.3567304611206055,-8.863015174865723,1.825723648071289
1777561213668100900,8.342100830078126,-0.8638089895248413,-8.159524917602539,0.2632105052471161
1777561213686630700,8.360630615234374,-0.36610186100006104,-7.8795647621154785,-0.8638089895248413
1777561213705160400,8.379160400390624,-2.0195422172546387,-8.7505521774292,-2.4574289321899414
1777561213723690200,8.397690185546875,-2.6632115840911865,-9.245866775512695,-3.4672000408172607
1777561213742219800,8.4162197265625,-0.6891329288482666,-8.994620323181152,-3.620340585708618
1777561213760749600,8.43474951171875,0.3565305769443512,-9.219545364379883,-2.4646072387695312
1777561213779279400,8.453279296875,-0.13878370821475983,-9.705288887023926,-0.9882357716560364
1777561213797809200,8.47180908203125,-1.074377417564392,-9.705288887023926,-0.4163511395454407
1777561213816338700,8.490338623046876,-1.007378339767456,-9.432506561279297,-1.1485549211502075
1777561213834868500,8.508868408203124,0.5240281820297241,-9.810572624206543,-2.4406790733337402
1777561213853398300,8.527398193359375,1.6342978477478027,-10.49252700805664,-2.3162522315979004
1777561213871928000,8.545927978515625,1.0600204467773438,-11.229516983032227,-1.6342978477478027
1777561213890457900,8.564457763671875,0.20338992774486542,-11.909078598022461,-1.495514154434204
1777561213908987600,8.582987548828125,0.3684946894645691,-12.217752456665039,-1.9932212829589844
1777561213927517200,8.60151708984375,0.5072783827781677,-12.990633964538574,-2.344966173171997
1777561213946047000,8.620046875,0.25363919138908386,-14.708681106567383,-1.9334007501602173
1777561213964576800,8.63857666015625,0.14117653667926788,-17.04407501220703,-1.832902193069458
1777561213983106300,8.657106201171874,2.495713949203491,-16.503297805786133,-0.08614161610603333
1777561214001636000,8.675635986328125,3.9625144004821777,-12.897314071655273,4.551148891448975
1777561214020166000,8.694165771484375,3.321237802505493,-10.401599884033203,5.637490272521973
1777561214038695700,8.71269580078125,-0.6819544434547424,-9.7005033493042,6.161518096923828
1777561214057225500,8.7312255859375,-5.032105922698975,-11.193624496459961,7.810173034667969
1777561214075755300,8.74975537109375,-5.970092296600342,-13.782658576965332,8.295916557312012
1777561214094284800,8.768284912109374,-1.0767701864242554,-13.715659141540527,6.908079147338867
1777561214112814600,8.786814697265624,6.8554368019104,-13.744373321533203,4.106083869934082
1777561214131344400,8.805344482421875,3.25663161277771,-13.981263160705566,1.2394821643829346
1777561214149874200,8.823874267578125,-3.2853455543518066,-12.80160140991211,0.7489534616470337
1777561214168403700,8.84240380859375,-8.623732566833496,-11.22233772277832,-0.8901300430297852
1777561214186933500,8.86093359375,-2.359323024749756,-9.571290969848633,-0.914058268070221
1777561214205463300,8.87946337890625,0.641276478767395,-8.056633949279785,-0.8446664214134216
1777561214223993000,8.8979931640625,-1.2897313833236694,-6.072983741760254,-0.2560320198535919
1777561214242523000,8.91652294921875,-1.9980069398880005,-4.754538536071777,0.5024927258491516
1777561214261052700,8.935052734375,-0.9475577473640442,-3.7663028240203857,1.3806586265563965
1777561214279582200,8.953582275390625,-0.4426721930503845,-2.9168508052825928,2.170290231704712
1777561214298112000,8.972112060546875,0.2512463629245758,-2.1894326210021973,2.447857618331909
1777561214316641800,8.990641845703125,0.6843472719192505,-2.421536445617676,1.674975872039795
1777561214335171600,9.009171630859376,1.8735800981521606,-3.115455150604248,0.6317051649093628
1777561214353701400,9.027701416015624,3.3954153060913086,-3.8572301864624023,0.1579262912273407
1777561214372231000,9.04623095703125,4.510470867156982,-4.773681163787842,-0.01196411345154047
1777561214390760700,9.0647607421875,5.625525951385498,-6.056233882904053,0.20817556977272034
1777561214409290500,9.08329052734375,7.348358154296875,-8.2695951461792,0.5551348328590393
1777561214427820300,9.1018203125,11.152946472167969,-11.626725196838379,1.7228323221206665
1777561214446350000,9.12035009765625,13.799407958984375,-14.562718391418457,3.783052682876587
1777561214464879900,9.1388798828125,10.724631309509277,-15.500704765319824,3.9433717727661133
1777561214483409400,9.157409423828126,6.333801746368408,-15.050854682922363,-0.8398807644844055
1777561214501939200,9.175939208984374,5.2283172607421875,-11.284551620483398,-3.510270833969116
1777561214520469000,9.194468994140625,6.905686378479004,-6.719046115875244,-1.4644074440002441
1777561214538998800,9.212998779296875,5.233103275299072,-3.8524444103240967,-0.380458801984787
1777561214557528300,9.2315283203125,6.939185619354248,-4.893322467803955,1.3902299404144287
1777561214576058000,9.25005810546875,11.152946472167969,-15.936199188232422,6.965506553649902
1777561214594588000,9.268587890625,-3.8668015003204346,-20.267208099365234,12.942777633666992
1777561214613117700,9.28711767578125,-7.848458290100098,-14.014761924743652,3.3954153060913086
1777561214631647200,9.305647216796874,-7.719245910644531,-6.0466628074646,3.3547372817993164
1777561214650177000,9.324177001953124,0.8279166221618652,-3.4959139823913574,4.78803825378418
1777561214668706800,9.342706787109375,-0.1818545162677765,-2.4191436767578125,1.9573289155960083
1777561214687236600,9.361236572265625,-2.0099709033966064,-3.7112679481506348,-0.16510476171970367
1777561214705766400,9.379766357421875,-4.431507587432861,-6.984649181365967,-0.7489534616470337
1777561214724296200,9.398296142578126,-5.077569484710693,-14.775679588317871,-0.19621145725250244
1777561214742826000,9.416825927734376,-4.503292083740234,-28.06541633605957,-5.917450428009033
1777561214761355500,9.43535546875,3.4265220165252686,-18.635303497314453,-7.525427341461182
1777561214779885300,9.45388525390625,4.587040901184082,-11.038090705871582,-5.391029357910156
1777561214798415000,9.4724150390625,1.581655740737915,-8.085348129272461,-1.9310078620910645
1777561214816945000,9.49094482421875,1.3256237506866455,-6.719046115875244,1.2203395366668701
1777561214835474400,9.509474365234375,2.2444677352905273,-6.522834300994873,3.1728827953338623
1777561214854004200,9.528004150390625,2.342573404312134,-7.267002582550049,4.768895626068115
1777561214872534000,9.546533935546876,3.005385160446167,-7.501499176025391,5.295316696166992
1777561214900328700,9.57432861328125,1.8305093050003052,-7.250252723693848,1.7635103464126587
1777561214918858500,9.5928583984375,2.2612173557281494,-7.759923934936523,-0.5910272002220154
1777561214937388300,9.61138818359375,4.338187217712402,-8.563912391662598,-2.414358139038086
1777561214955917800,9.629917724609374,6.166304111480713,-8.097311973571777,-3.242274761199951
1777561214974447600,9.648447509765624,5.252245903015137,-6.977470874786377,-3.1824541091918945
1777561214992977400,9.666977294921875,2.7732813358306885,-5.72123908996582,-1.4739787578582764
1777561215011507200,9.685507080078125,0.23688943684101105,-4.314259052276611,0.22492532432079315
1777561215030036700,9.70403662109375,-1.3040883541107178,-3.5676984786987305,1.28255295753479
1777561215048566500,9.72256640625,0.30149564146995544,-3.3308091163635254,1.7874385118484497
1777561215067096300,9.741096435546876,6.307480335235596,-4.249652862548828,1.0648061037063599
1777561215085626000,9.759626220703124,7.664210796356201,-6.116054534912109,0.4163511395454407
1777561215104156000,9.778156005859374,4.4482574462890625,-7.554141044616699,1.4428720474243164
1777561215122685700,9.796685791015625,2.2995026111602783,-8.901300430297852,1.2418749332427979
1777561215141215500,9.815215576171875,1.4476577043533325,-9.324830055236816,0.3613162338733673
1777561215159745000,9.8337451171875,6.204588890075684,-11.598011016845703,-0.5264210104942322
1777561215178274800,9.85227490234375,9.08554744720459,-15.933806419372559,0.8183453679084778
1777561215196804600,9.8708046875,6.58265495300293,-23.437698364257812,-0.3924229145050049
1777561215215334400,9.88933447265625,1.5050854682922363,-29.37907600402832,-0.6005984544754028
1777561215233864000,9.907864013671874,7.659425258636475,-26.203800201416016,0.3278166949748993
1777561215252393700,9.926393798828125,-1.5074782371520996,-15.828521728515625,6.001199245452881
1777561215270923500,9.944923583984375,-1.1772687435150146,-6.692724704742432,6.027520179748535
1777561215289453300,9.963453369140625,0.8159525394439697,-1.1318050622940063,4.07258415222168
1777561215307983000,9.981983154296875,1.4261223077774048,1.7228323221206665,3.713660717010498
1777561215326512600,10.0005126953125,1.9070796966552734,1.0001999139785767,4.213760852813721
1777561215345042400,10.01904248046875,-0.9092726111412048,-4.074976921081543,2.612962245941162
1777561215363572200,10.037572265625,-3.359523057937622,-7.357929706573486,1.0432707071304321
1777561215382102000,10.05610205078125,-2.280359983444214,-5.903093338012695,0.28953152894973755
1777561215409896700,10.083896728515626,1.3399807214736938,-1.6103696823120117,0.9930213689804077
1777561215428426200,10.10242626953125,2.5770699977874756,-0.29431718587875366,1.4093725681304932
1777561215446956000,10.1209560546875,2.950350284576416,-1.0097711086273193,0.9906286001205444
1777561215465485800,10.13948583984375,3.4887354373931885,-4.591826438903809,-0.20578274130821228
1777561215484015600,10.158015625,6.199803352355957,-14.823535919189453,-2.2851455211639404
1777561215502545200,10.176545166015625,9.181260108947754,-15.964912414550781,-2.1272194385528564
1777561215521075000,10.195074951171875,7.657032489776611,-11.973684310913086,-1.545763373374939
1777561215539604700,10.213604736328126,3.627519130706787,-8.858229637145996,0.4737788736820221
1777561215558134500,10.232134521484374,0.6699903607368469,-6.673582553863525,2.4670002460479736
1777561215576664300,10.250664306640624,0.6508477330207825,-7.16650390625,5.934200286865234
1777561215595194000,10.269194091796875,0.5838487148284912,-11.236695289611816,8.508877754211426
1777561215613724000,10.287723876953125,-3.1585259437561035,-15.146567344665527,10.41356372833252
1777561215632253400,10.30625341796875,14.993426322937012,-20.104496002197266,1.9956140518188477
1777561215650783200,10.324783203125,4.015156269073486,-18.924835205078125,-7.312466144561768
1777561215669313000,10.34331298828125,-2.4646072387695312,-17.639888763427734,-1.6941183805465698
1777561215687842800,10.3618427734375,5.039284706115723,-19.144973754882812,-0.7034898400306702
1777561215706372400,10.380372314453124,-3.862015724182129,-12.562318801879883,-1.368694543838501
1777561215724902100,10.398902099609375,-6.874579429626465,-8.635697364807129,1.4380863904953003
1777561215743432000,10.417431884765625,-4.335794448852539,-8.757730484008789,1.3663017749786377
1777561215761961700,10.435961669921875,0.6436693072319031,-8.805587768554688,2.0554347038269043
1777561215780491500,10.454491455078125,6.740581512451172,-10.554740905761719,0.4043870270252228
1777561215799021000,10.47302099609375,6.099305152893066,-11.545369148254395,-1.5625132322311401
1777561215817550800,10.49155078125,3.665804386138916,-10.40638542175293,-2.3736801147460938
1777561215836080600,10.51008056640625,4.335794448852539,-8.324629783630371,-2.091326951980591
1777561215854610400,10.5286103515625,4.704289436340332,-6.26440954208374,-0.6867401003837585
1777561215873140000,10.547139892578125,3.0269205570220947,-4.455435752868652,2.337787628173828
1777561215891669800,10.565669677734375,0.4426721930503845,-2.0410776138305664,3.1106693744659424
1777561215910199600,10.584199462890625,-0.5359922647476196,-1.581655740737915,2.0793628692626953
1777561215928729300,10.602729248046876,3.2781670093536377,-3.4504501819610596,0.7226324677467346
1777561215947259100,10.621259033203126,7.714460372924805,-6.857829570770264,-1.1030912399291992
1777561215965789000,10.639788818359374,4.572684288024902,-8.434700012207031,-1.8185452222824097
1777561215984318500,10.658318359375,-0.2512463629245758,-8.243273735046387,-1.643869161605835
1777561216002848300,10.67684814453125,1.4979069232940674,-8.50169849395752,-1.5720844268798828
1777561216021378000,10.6953779296875,4.972285270690918,-11.772686958312988,-1.8185452222824097
1777561216039907800,10.713907958984375,9.477970123291016,-16.168302536010742,-0.7250252366065979
1777561216058437400,10.732437255859375,8.908478736877441,-20.896520614624023,1.2131611108779907
1777561216076967200,10.75096728515625,3.955335855484009,-25.404598236083984,0.6173482537269592
1777561216095497000,10.7694970703125,5.044070243835449,-25.54338264465332,0.17706887423992157
1777561216114026500,10.788026611328124,1.069591760635376,-19.625930786132812,3.720839262008667
1777561216132556300,10.806556396484375,-0.02153540402650833,-11.483156204223633,3.5270206928253174
1777561216151086000,10.825086181640625,-0.5240281820297241,-6.092126369476318,2.0315065383911133
1777561216169616000,10.843615966796875,1.6247265338897705,-1.215553879737854,2.407179594039917
1777561216188145700,10.862145751953125,3.1417760848999023,1.4739787578582764,3.4983067512512207
1777561216206675500,10.880675537109376,1.703689694404602,-2.1918256282806396,2.1918256282806396
1777561216225205000,10.899205078125,0.42352959513664246,-7.135396957397461,0.4211367964744568
1777561216243734800,10.91773486328125,-1.129412293434143,-8.135597229003906,0.1986042857170105
1777561216262264600,10.9362646484375,-1.5122638940811157,-5.903093338012695,0.8542376756668091
1777561216290059000,10.96405908203125,-0.9547362327575684,-3.2063822746276855,1.1748759746551514
1777561216308588800,10.9825888671875,0.8709874153137207,-1.698904037475586,1.4117653369903564
1777561216327118600,11.00111865234375,1.2610175609588623,-0.6029912829399109,1.4572290182113647
1777561216345648400,11.0196484375,0.09810572862625122,-0.2273181527853012,1.155733346939087
1777561216364178200,11.03817822265625,1.1318050622940063,-2.359323024749756,0.2799602448940277
1777561216382707700,11.056707763671875,3.273381471633911,-13.174881935119629,-1.588834285736084
1777561216401237500,11.075237548828126,6.577869415283203,-14.605789184570312,-1.9908283948898315
1777561216419767300,11.093767333984376,16.895721435546875,-14.802000999450684,-1.797009825706482
1777561216438297000,11.112297119140624,11.444870948791504,-12.227323532104492,-0.1986042857170105
1777561216456826600,11.13082666015625,3.838087558746338,-8.630910873413086,1.2011969089508057
1777561216475356400,11.1493564453125,-2.500499725341797,-6.293123722076416,3.799802303314209
1777561216493886200,11.16788623046875,-3.87876558303833,-8.015955924987793,7.688138961791992
1777561216512416000,11.186416015625,-6.149554252624512,-12.224930763244629,9.923035621643066
1777561216530945500,11.204945556640626,-6.91765022277832,-15.002998352050781,10.53081226348877
1777561216549475300,11.223475341796876,18.12802505493164,-19.35554313659668,-3.4241292476654053
1777561216568005000,11.242005126953124,17.012968063354492,-23.866012573242188,-10.521241188049316
1777561216586535000,11.260534912109375,4.680361270904541,-27.361927032470703,0.6628118753433228
1777561216605064400,11.279064453125,-9.817750930786133,-14.029119491577148,1.397408366203308
1777561216623594200,11.29759423828125,-12.358928680419922,-6.128018856048584,1.3567304611206055
1777561216642124000,11.3161240234375,-9.57607650756836,-5.32403039932251,0.9786644577980042
1777561216660653800,11.33465380859375,-1.2418749332427979,-9.942177772521973,0.6460621356964111
1777561216679183600,11.35318359375,8.614161491394043,-13.062418937683105,-1.093519926071167
1777561216697713200,11.371713134765624,5.936593055725098,-14.562718391418457,-2.682354211807251
1777561216716243000,11.390242919921874,0.7417750358581543,-12.861421585083008,-3.3858439922332764
1777561216734772700,11.408772705078125,1.4069796800613403,-9.317651748657227,-2.5938198566436768
1777561216753302300,11.42730224609375,1.9310078620910645,-6.412764549255371,-0.02153540402650833
1777561216771832000,11.44583203125,1.1509476900100708,-4.2831525802612305,4.4961137771606445
1777561216790361900,11.46436181640625,3.053241729736328,-2.825923442840576,7.348358154296875
1777561216808891400,11.482891357421876,6.410371780395508,-4.005585193634033,4.4961137771606445
1777561216827421200,11.501421142578126,2.9312076568603516,-6.216553211212158,-0.2679961323738098
1777561216845951000,11.519950927734374,0.5120640397071838,-6.551548480987549,-2.4646072387695312
1777561216864480800,11.538480712890625,2.517249345779419,-6.226124286651611,-2.390429735183716
1777561216883010600,11.557010498046875,2.9144580364227295,-5.891129493713379,-1.7754744291305542
1777561216901540000,11.5755400390625,0.8566305041313171,-5.467599868774414,-1.34476637840271
1777561216920070000,11.59406982421875,-0.2967100143432617,-5.79780912399292,-1.1461620330810547
1777561216938599700,11.612599609375,1.5242279767990112,-6.297909259796143,-1.3830515146255493
1777561216957129200,11.631129150390626,3.8811583518981934,-7.343572616577148,-1.9669002294540405
1777561216975659000,11.649658935546874,4.656432628631592,-8.202595710754395,-1.789831280708313
1777561216994188800,11.668188720703125,4.692325115203857,-10.480563163757324,-2.1990039348602295
1777561217012718600,11.686718505859375,7.712067604064941,-14.4861478805542,-0.8997012972831726
1777561217031248100,11.705248046875,5.714060306549072,-19.48714828491211,0.3613162338733673
1777561217049778000,11.72377783203125,7.45364236831665,-25.58884620666504,1.399801254272461
1777561217068307700,11.7423076171875,7.530212879180908,-26.194229125976562,4.201796531677246
1777561217086837200,11.760837158203126,0.6484549641609192,-23.430519104003906,6.295516490936279
1777561217105367000,11.779366943359374,5.929414749145508,-17.785850524902344,6.123233318328857
1777561217123896800,11.797896728515624,0.39960137009620667,-11.09073257446289,2.2947168350219727
1777561217142426600,11.816426513671875,-3.2350962162017822,-5.740381717681885,0.4043870270252228
1777561217160956400,11.834956298828125,-0.20578274130821228,-0.9523434042930603,-0.1986042857170105
1777561217179486000,11.85348583984375,2.392822742462158,0.5072783827781677,0.8638089895248413
1777561217198015700,11.872015625,2.65842604637146,-3.4672000408172607,2.146361827850342
1777561217216545300,11.890545166015626,0.9762716293334961,-6.10169792175293,1.7156537771224976
1777561217235075000,11.909074951171876,-0.35413774847984314,-5.556134223937988,0.7561319470405579
1777561217253604900,11.92760498046875,-1.129412293434143,-4.3070807456970215,1.0528420209884644
1777561217272134700,11.946134765625,-2.258824586868286,-3.4432718753814697,1.1174482107162476
1777561217290664400,11.96466455078125,-1.3806586265563965,-2.3186452388763428,1.3088740110397339
1777561217309194000,11.983194091796875,0.17946170270442963,-1.1413763761520386,1.0001999139785767
1777561217327723800,12.001723876953125,0.9499505758285522,-0.2584248483181,1.2059825658798218
1777561217346253600,12.020253662109376,2.620140790939331,-0.31345975399017334,2.187039852142334
1777561217364783000,12.038783203125,3.1513473987579346,-2.287538528442383,3.0939197540283203
1777561217383313000,12.05731298828125,3.3714871406555176,-10.389636039733887,2.084148406982422
1777561217401842700,12.0758427734375,6.238088607788086,-18.049060821533203,0.5240281820297241
1777561217420372200,12.094372314453125,13.674981117248535,-17.180465698242188,-2.337787628173828
1777561217438902000,12.112902099609375,11.117053985595703,-11.863615036010742,-2.021935224533081
1777561217457431800,12.131431884765625,5.546562671661377,-7.3986077308654785,-0.7369893789291382
1777561217475961600,12.149961669921876,0.6340979933738708,-6.951149940490723,0.9858429431915283
1777561217494491400,12.168491455078126,-2.053041934967041,-9.181260108947754,6.661618232727051
1777561217513021000,12.18702099609375,-10.664810180664062,-14.512469291687012,10.124032974243164
1777561217531550700,12.20555078125,-8.185846328735352,-13.698909759521484,11.643474578857422
1777561217550080500,12.22408056640625,29.89353370666504,-26.423940658569336,-4.1036906242370605
1777561217568610000,12.242610107421875,20.264814376831055,-33.94936752319336,-8.980263710021973
1777561217587139800,12.261139892578125,-17.41257095336914,-17.71885108947754,-2.65842604637146
1777561217605669600,12.279669677734375,-15.242280006408691,-6.508477687835693,5.376672267913818
1777561217624199400,12.298199462890626,-8.889336585998535,-2.421536445617676,5.395814895629883
1777561217642729000,12.31672900390625,1.9621145725250244,-4.910071849822998,2.8354947566986084
1777561217661258800,12.3352587890625,9.190832138061523,-13.76351547241211,-1.8352949619293213
1777561217679788500,12.35378857421875,2.400001049041748,-16.969898223876953,-4.096512317657471
1777561217698318000,12.372318115234375,-0.40677985548973083,-14.615360260009766,-2.4646072387695312
1777561217716847900,12.390847900390625,1.9214365482330322,-10.04267692565918,-0.9882357716560364
1777561217735377700,12.409377685546875,3.1968109607696533,-7.264609336853027,0.02392822690308094
1777561217753907500,12.427907470703126,3.895515203475952,-5.395814895629883,1.098305583000183
1777561217772437000,12.44643701171875,4.553541660308838,-3.476771354675293,3.0340991020202637
1777561217790966800,12.464966796875,6.7310099601745605,-2.8977081775665283,2.7397818565368652
1777561217809496600,12.48349658203125,5.7619171142578125,-4.285545349121094,0.5359922647476196
1777561217828026000,12.502026123046875,-1.3351950645446777,-4.393222332000732,-0.45942193269729614
1777561217846556000,12.520555908203125,-4.579862594604492,-2.6488547325134277,0.2105683982372284
1777561217865085700,12.539085693359375,-0.2967100143432617,-3.651447296142578,1.2993026971817017
1777561217883615500,12.557615478515626,6.905686378479004,-6.192625045776367,1.7252250909805298
1777561217902145000,12.57614501953125,9.272188186645508,-9.040083885192871,-0.21774685382843018
1777561217920674800,12.5946748046875,2.1846470832824707,-9.18843936920166,-1.7443677186965942
1777561217939204600,12.61320458984375,-0.23449662327766418,-8.23130989074707,-1.8616160154342651
1777561217957734100,12.631734130859375,5.2115678787231445,-9.678967475891113,-2.304288148880005
1777561217976264000,12.650263916015625,8.525627136230469,-14.349757194519043,-2.6727828979492188
1777561217994793700,12.668793701171875,9.126225471496582,-18.912870407104492,-1.5649060010910034
1777561218013323300,12.6873232421875,4.5822553634643555,-22.336999893188477,-0.1986042857170105
1777561218031853000,12.70585302734375,4.797609329223633,-25.40699005126953,0.23688943684101105
1777561218050382800,12.7243828125,3.335594654083252,-23.930620193481445,1.454836130142212
1777561218068912600,12.74291259765625,-0.4139583110809326,-18.53719711303711,3.627519130706787
1777561218087442200,12.761442138671875,1.404586911201477,-10.191031455993652,2.6943182945251465
1777561218105972000,12.779971923828125,0.24167509377002716,-4.335794448852539,2.5674986839294434
1777561218124501800,12.798501708984375,0.9690931439399719,0.26081767678260803,3.4552359580993652
1777561218143031300,12.81703125,1.8855443000793457,-0.1818545162677765,2.2612173557281494
1777561218161561000,12.83556103515625,0.2584248483181,-4.570291042327881,0.7657032608985901
1777561218180091000,12.8540908203125,-0.7776673436164856,-7.389036178588867,0.5623133182525635
1777561218198620700,12.87262060546875,-0.9403793215751648,-6.269195556640625,1.0169496536254883
1777561218217150200,12.891150146484375,-2.038684844970703,-3.9768712520599365,1.3615161180496216
1777561218235680000,12.909679931640625,-1.550549030303955,-2.043470621109009,1.8951154947280884
1777561218254209800,12.928209716796875,-0.727418065071106,-0.4378865361213684,2.321038007736206
1777561218272739300,12.9467392578125,-0.7992027401924133,0.3278166949748993,1.820937991142273
1777561218291269000,12.96526904296875,0.014356935396790504,-0.18424734473228455,1.3112667798995972
1777561218309799000,12.983798828125,1.6175481081008911,-2.6464617252349854,1.0408778190612793
1777561218328328700,13.00232861328125,3.6442689895629883,-11.416156768798828,-0.19621145725250244
1777561218346858200,13.020858154296874,6.970292568206787,-12.028719902038574,-0.22492532432079315
1777561218365388000,13.039387939453125,16.98904037475586,-13.911870956420898,-1.892722725868225
1777561218383917800,13.057917724609375,11.736795425415039,-11.44965648651123,-1.911865234375
1777561218402447400,13.076447265625,4.7952165603637695,-9.667003631591797,-0.31106695532798767
1777561218420977200,13.09497705078125,-0.9667003750801086,-9.358329772949219,3.862015724182129
1777561218439507000,13.1135068359375,-9.131011009216309,-11.12901782989502,5.718846321105957
1777561218458036700,13.13203662109375,-20.047067642211914,-14.220544815063477,15.730416297912598
1777561218476566300,13.150566162109374,21.32244300842285,-25.093530654907227,8.882157325744629
1777561218495096000,13.169095947265625,30.72384262084961,-37.20360565185547,-11.016555786132812
1777561218513625900,13.1876259765625,-14.644074440002441,-18.867406845092773,-6.1950178146362305
1777561218532155400,13.2061552734375,-14.639288902282715,-8.71226692199707,3.2374889850616455
1777561218550685200,13.224685302734375,-8.602197647094727,-5.13021183013916,6.561119556427002
1777561218569215000,13.243215087890626,-1.6701902151107788,-6.190232276916504,4.051048755645752
1777561218587744800,13.261744873046876,5.998806476593018,-11.933006286621094,-0.363709032535553
1777561218606274300,13.2802744140625,7.0683979988098145,-13.552947044372559,-2.885744094848633
1777561218624803600,13.298803466796874,2.933600664138794,-12.90927791595459,-3.0484559535980225
1777561218643333400,13.31733349609375,2.988635540008545,-11.519047737121582,-3.084348440170288
1777561218661863000,13.33586279296875,5.757131099700928,-9.595218658447266,-2.7876384258270264
1777561218680392700,13.354392822265625,5.864808082580566,-6.106483459472656,0.5862415432929993
1777561218698922200,13.372922119140625,2.0338993072509766,-2.6153552532196045,2.809173822402954
1777561218717452000,13.3914521484375,0.2273181527853012,-0.32542386651039124,2.124826431274414
1777561218735981800,13.40998193359375,1.8711873292922974,-0.973878800868988,0.5670989751815796
1777561218754511600,13.42851171875,3.617947816848755,-4.704289436340332,-1.545763373374939
1777561218773041400,13.44704150390625,4.802394866943359,-7.8388872146606445,-2.007578134536743
1777561218791571000,13.465571044921875,2.572284460067749,-8.248059272766113,-1.674975872039795
1777561218810100700,13.484100830078125,-1.0528420209884644,-7.154539585113525,-0.8997012972831726
1777561218828630300,13.50263037109375,3.814159393310547,-6.97268533706665,-0.34217363595962524
1777561218847160000,13.52116015625,9.664610862731934,-7.929814338684082,-0.1698904037475586
1777561218865689900,13.53968994140625,7.781459331512451,-10.88016414642334,1.0145567655563354
1777561218884219400,13.558219482421874,4.479363918304443,-14.459827423095703,1.8592232465744019
1777561218902749200,13.576749267578125,4.156332969665527,-16.75454330444336,1.7611174583435059
1777561218921279000,13.595279052734375,2.4263222217559814,-23.77508544921875,-0.9858429431915283
1777561218939808800,13.613808837890625,6.190232276916504,-30.585058212280273,0.6652047038078308
1777561218958338300,13.63233837890625,4.235296249389648,-20.499311447143555,6.704689025878906
1777561218976868000,13.6508681640625,1.7204394340515137,-9.097511291503906,4.019941806793213
1777561218995398000,13.66939794921875,1.892722725868225,-3.0029923915863037,3.517449378967285
1777561219013927400,13.687927490234374,5.6207404136657715,0.5024927258491516,4.051048755645752
1777561219032457200,13.706457275390624,4.54636287689209,-3.627519130706787,2.062613010406494
1777561219050987000,13.724987060546875,0.2153540402650833,-10.243673324584961,0.3445664644241333
1777561219069516800,13.743516845703125,-1.423729419708252,-11.913864135742188,-0.6029912829399109
1777561219088046300,13.76204638671875,-1.557727575302124,-7.867600917816162,-0.2392822653055191
1777561219106576100,13.780576171875,-1.007378339767456,-4.450650215148926,0.19621145725250244
1777561219125106000,13.79910595703125,0.34217363595962524,-2.0650060176849365,0.1818545162677765
1777561219143635500,13.817635498046876,1.8735800981521606,-0.44745782017707825,1.196411371231079
1777561219162165200,13.836165283203124,1.7850457429885864,-0.10767702013254166,1.9645073413848877
1777561219180695000,13.854695068359375,1.8424733877182007,-0.4091726839542389,2.548356056213379
1777561219199224800,13.873224853515625,3.0556344985961914,-0.9810572862625122,2.486142635345459
1777561219217754400,13.89175439453125,5.276174068450928,-4.1419758796691895,2.0650060176849365
1777561219236284200,13.9102841796875,8.288737297058105,-14.352149963378906,-0.32542386651039124
1777561219254814000,13.92881396484375,14.634503364562988,-16.22812271118164,-0.48813581466674805
1777561219273343500,13.947343505859376,10.401599884033203,-14.66800308227539,1.4380863904953003
1777561219291873300,13.965873291015624,4.931607246398926,-12.708281517028809,2.4598217010498047
1777561219310403000,13.984403076171875,2.7349963188171387,-8.305487632751465,2.084148406982422
1777561219328932900,14.002932861328125,2.706282377243042,-3.8333017826080322,2.5531418323516846
1777561219347462400,14.02146240234375,3.1657042503356934,-2.266003131866455,4.0319061279296875
1777561219365992200,14.0399921875,2.8522446155548096,-6.161518096923828,5.948556900024414
1777561219384522000,14.05852197265625,-1.950150489807129,-16.93161392211914,2.062613010406494
1777561219403051500,14.077051513671876,-5.352744102478027,-19.92264175415039,-0.9762716293334961
1777561219421581300,14.095581298828124,-3.232703447341919,-24.500110626220703,7.444071292877197
1777561219440111000,14.114111083984374,7.168896675109863,-28.340591430664062,4.697110652923584
1777561219458640600,14.132640625,-4.185046672821045,-10.686346054077148,-2.376072883605957
1777561219477170400,14.15117041015625,-7.793423175811768,-9.726823806762695,-0.605384111404419
1777561219495700200,14.1697001953125,-8.496912956237793,-12.390035629272461,2.562713146209717
1777561219514230000,14.18822998046875,-5.280959606170654,-15.026926040649414,4.077369689941406
1777561219532759600,14.206759521484376,0.14117653667926788,-14.864213943481445,2.4574289321899414
1777561219551289300,14.225289306640626,1.7826528549194336,-11.897113800048828,0
1777561219569819100,14.243819091796874,0.8135597109794617,-10.423135757446289,-1.9070796966552734
1777561219588348700,14.2623486328125,0.5312066078186035,-9.075976371765137,-1.947757601737976
1777561219606878500,14.28087841796875,-1.3543375730514526,-7.503891944885254,-1.5026925802230835
1777561219625408300,14.299408203125,-1.5002998113632202,-6.159125328063965,-1.454836130142212
1777561219643938000,14.31793798828125,-1.2299108505249023,-5.8959150314331055,-1.2275179624557495
1777561219662467600,14.336467529296876,-2.5914268493652344,-6.281159400939941,-1.7228323221206665
1777561219680997400,14.354997314453126,-1.7324036359786987,-6.441478729248047,-2.2468605041503906
1777561219699527200,14.373527099609374,-0.39481574296951294,-6.4510498046875,-2.6392834186553955
1777561219718056700,14.392056640625,0.4666004180908203,-7.680960655212402,-3.218346357345581
1777561219736586500,14.41058642578125,0.5694918036460876,-9.647860527038574,-3.4648072719573975
1777561219755116300,14.4291162109375,-0.6317051649093628,-10.231709480285645,-3.2757742404937744
1777561219773646000,14.44764599609375,-0.8805587291717529,-9.659825325012207,-4.252045631408691
1777561219792175900,14.46617578125,0.9308080077171326,-10.250852584838867,-5.898307800292969
1777561219810705400,14.484705322265626,2.8977081775665283,-11.576476097106934,-5.079962253570557
1777561219829235200,14.503235107421874,2.9934210777282715,-12.088540077209473,-2.586641311645508
1777561219847765000,14.521764892578124,2.2683959007263184,-12.744173049926758,-0.8566305041313171
1777561219866294500,14.54029443359375,2.469393014907837,-13.35434341430664,0.25363919138908386
1777561219884824300,14.55882421875,2.967100143432617,-14.514862060546875,1.0360921621322632
1777561219903354000,14.57735400390625,2.2851455211639404,-16.78325843811035,1.794616937637329
1777561219921884000,14.5958837890625,0.9451649188995361,-17.32403564453125,2.194218397140503
1777561219940413400,14.614413330078126,2.2085752487182617,-14.483755111694336,3.1920254230499268
1777561219958943200,14.632943115234376,2.5914268493652344,-10.540383338928223,5.587240695953369
1777561219977473000,14.65147314453125,-5.422136306762695,-10.770094871520996,7.575676441192627
1777561219996002600,14.67000244140625,-7.013363361358643,-14.151153564453125,7.058826923370361
1777561220014532400,14.688532470703125,-3.445664644241333,-15.290136337280273,10.365707397460938
1777561220033062100,14.707062255859375,5.108676433563232,-15.979269981384277,8.896514892578125
1777561220051591700,14.725591796875,6.3122663497924805,-14.742179870605469,4.5583271980285645
1777561220070121500,14.74412158203125,-0.7465606927871704,-14.151153564453125,1.3088740110397339
1777561220088651300,14.7626513671875,-10.631311416625977,-12.823136329650879,1.184447169303894
1777561220107181000,14.78118115234375,-4.304687976837158,-9.281759262084961,0.6197410821914673
1777561220125710600,14.799710693359375,2.273181438446045,-6.903293132781982,-2.9168508052825928
1777561220144240400,14.818240478515625,-2.139183521270752,-5.292923450469971,-4.989035129547119
1777561220162770200,14.836770263671875,-2.8043880462646484,-3.081955671310425,-2.895315408706665
1777561220181300000,14.855300048828125,-2.256431818008423,-0.8805587291717529,0.48813581466674805
1777561220199829500,14.87382958984375,-1.277767300605774,-0.27756741642951965,1.4572290182113647
1777561220218359300,14.892359375,-0.7920243144035339,-0.17706887423992157,2.227717876434326
1777561220236889000,14.91088916015625,0.062213387340307236,-0.7178468108177185,1.734796404838562
1777561220255418600,14.929418701171874,2.4837498664855957,-1.6462619304656982,0.885344386100769
1777561220273948400,14.947948486328125,6.259624004364014,-3.2614171504974365,0.7680960893630981
1777561220292478200,14.966478271484375,11.497512817382812,-5.560919761657715,1.8137595653533936
1777561220311008000,14.985008056640625,13.868800163269043,-9.226723670959473,2.3856441974639893
1777561220329537500,15.00353759765625,17.797815322875977,-15.615560531616211,5.60399055480957
1777561220348067300,15.0220673828125,9.937392234802246,-17.446069717407227,8.805587768554688
1777561220366597000,15.04059716796875,6.3601226806640625,-13.651053428649902,6.740581512451172
1777561220385127000,15.059126953125,6.1950178146362305,-8.353343963623047,3.0580272674560547
1777561220403656700,15.07765673828125,4.802394866943359,-4.993820667266846,2.187039852142334
1777561220422186200,15.096186279296875,12.191431045532227,-7.5804619789123535,9.408578872680664
1777561220440716000,15.114716064453125,10.26042366027832,-19.21915054321289,8.719446182250977
1777561220459245600,15.13324560546875,-6.472585201263428,-13.198809623718262,-3.8261234760284424
1777561220477775400,15.151775390625,-3.7663028240203857,-1.495514154434204,1.2346965074539185
1777561220496305200,15.17030517578125,-0.8446664214134216,0.7058826684951782,9.812965393066406
1777561220514835000,15.1888349609375,-0.8685946464538574,-2.1894326210021973,7.9657063484191895
1777561220533364700,15.20736474609375,-2.6799614429473877,-5.5034918785095215,0.3565305769443512
1777561220551894300,15.225894287109375,-6.704689025878906,-9.013762474060059,1.5720844268798828
1777561220570424000,15.244424072265625,-3.4648072719573975,-15.976877212524414,3.500699520111084
1777561220588953900,15.262953857421875,-2.768495798110962,-19.90828514099121,-0.007178467698395252
1777561220607483600,15.281483642578126,-4.240081787109375,-20.719451904296875,-5.630311489105225
1777561220626013200,15.30001318359375,-4.041477680206299,-16.919649124145508,-7.293323516845703
1777561220644543000,15.31854296875,1.7467604875564575,-11.988041877746582,-5.120640277862549
1777561220663072800,15.33707275390625,5.443671703338623,-10.3681001663208,-2.854637384414673
1777561220681602300,15.355602294921875,11.93061351776123,-15.77109432220459,-10.408778190612793
1777561220700132000,15.374132080078125,-5.151747226715088,-4.479363918304443,7.8556365966796875
1777561220718662000,15.392661865234375,-1.2801600694656372,-2.861815929412842,8.0350980758667
1777561220737191700,15.411191650390625,3.1106693744659424,-8.468199729919434,3.290131092071533
1777561220755721500,15.429721435546876,-0.8327022790908813,-4.338187217712402,4.814359188079834
1777561220774251000,15.4482509765625,-1.5170495510101318,-8.477770805358887,-0.2560320198535919
1777561220792780800,15.46678076171875,0.11964113265275955,-11.042876243591309,-3.4432718753814697
1777561220811310600,15.485310546875,0.2225325107574463,-10.13599681854248,-3.704089403152466
1777561220829840100,15.503840087890625,0.4498506486415863,-8.338987350463867,-3.7567315101623535
1777561220848370000,15.522369873046875,-0.397208571434021,-7.9728851318359375,-1.8735800981521606
1777561220866899700,15.540899658203125,-0.5958128571510315,-7.853243827819824,-0.15074782073497772
1777561220885429500,15.559429443359376,-0.6245267391204834,-8.003992080688477,0.24167509377002716
1777561220903959300,15.577959228515626,-0.6269195079803467,-9.265008926391602,-0.48095735907554626
1777561220922488800,15.59648876953125,-0.20578274130821228,-9.664610862731934,-1.828116536140442
1777561220941018600,15.6150185546875,0.9906286001205444,-9.765109062194824,-2.919243574142456
1777561220959548400,15.63354833984375,1.8041882514953613,-10.061819076538086,-3.2590243816375732
1777561220978078000,15.652077880859375,0.8111668825149536,-10.466206550598145,-3.0101709365844727
1777561220996607700,15.670607666015625,-0.47617170214653015,-11.361122131347656,-2.548356056213379
1777561221015137500,15.689137451171876,0.9595218896865845,-11.69851016998291,-2.3641088008880615
1777561221033667300,15.707667236328126,3.730410575866699,-12.215359687805176,-2.416750907897949
1777561221052197000,15.726197021484374,4.9531426429748535,-13.208380699157715,-2.3952155113220215
1777561221070726700,15.7447265625,3.8811583518981934,-13.804193496704102,-2.172683000564575
1777561221089256400,15.76325634765625,2.00518536567688,-15.168102264404297,-2.493321180343628
1777561221107786200,15.7817861328125,0.02392822690308094,-17.27857208251953,-1.9716858863830566
1777561221126315800,15.800315673828125,1.8472590446472168,-15.732809066772461,4.625326156616211
1777561221144845600,15.818845458984375,-0.062213387340307236,-14.66800308227539,10.6624174118042
1777561221163375400,15.837375244140626,-2.2683959007263184,-17.33839225769043,13.811372756958008
1777561221181905200,15.8559052734375,-1.3710874319076538,-17.33839225769043,13.445270538330078
1777561221200435000,15.87443505859375,1.2179467678070068,-15.38345718383789,10.243673324584961
1777561221218964500,15.892964599609375,-1.0911271572113037,-15.948163032531738,4.744967460632324
1777561221237494300,15.911494384765625,-3.7902309894561768,-16.139589309692383,-0.15074782073497772
1777561221256024000,15.930024169921875,-4.170690059661865,-13.39262866973877,-1.8592232465744019
1777561221274553900,15.948553955078125,-6.898507595062256,-10.569097518920898,-3.620340585708618
1777561221293083400,15.96708349609375,-2.053041934967041,-7.324429988861084,-4.488935470581055
1777561221311613200,15.98561328125,-0.5527420043945312,-3.1441688537597656,-1.9405791759490967
1777561221330143000,16.00414306640625,-2.4358935356140137,0.3158525824546814,-0.08135596662759781
1777561221348672500,16.022672607421875,-2.7254250049591064,1.7563318014144897,1.3423734903335571
1777561221367202300,16.041202392578125,-2.495713949203491,2.1128623485565186,2.830709218978882
1777561221385732000,16.059732177734375,-1.5864413976669312,2.2779672145843506,3.8261234760284424
1777561221404262000,16.078261962890625,-0.1866401731967926,2.4765713214874268,3.483949661254883
1777561221422791700,16.096791748046876,-0.5934200286865234,2.2923240661621094,2.1990039348602295
1777561221441321200,16.1153212890625,-0.9690931439399719,1.5026925802230835,0.7106683254241943
1777561221459851000,16.13385107421875,-1.6007983684539795,0.21296121180057526,-0.45224347710609436
1777561221478380800,16.152380859375,-0.605384111404419,-2.139183521270752,-0.7369893789291382
1777561221496910300,16.170910400390625,0.9619147181510925,-7.645068168640137,-1.4883357286453247
1777561221515440000,16.189440185546875,12.902099609375,-26.196622848510742,-5.443671703338623
1777561221533970000,16.207969970703125,13.062418937683105,-21.341585159301758,-3.768695592880249
1777561221552499700,16.226499755859376,6.2500529289245605,-12.787243843078613,-2.1296122074127197
1777561221571029500,16.245029541015626,3.8356947898864746,-9.54496955871582,-0.17946170270442963
1777561221589559000,16.26355908203125,2.1822543144226074,-7.343572616577148,1.9836499691009521
1777561221608088800,16.2820888671875,-0.3924229145050049,-6.0466628074646,3.1130621433258057
1777561221626618600,16.30061865234375,-1.3926228284835815,-7.465606689453125,4.644468784332275
1777561221645148200,16.319148193359375,-0.9595218896865845,-9.8871431350708,5.883950710296631
1777561221663678000,16.337677978515625,0.7345965504646301,-12.885350227355957,4.3788652420043945
1777561221682207700,16.356207763671875,4.383651256561279,-15.117853164672852,-1.0887342691421509
1777561221700737500,16.374737548828126,33.70769119262695,-31.74318504333496,8.561519622802734
1777561221719267300,16.393267333984376,4.493721008300781,-25.91905403137207,-5.927021503448486
1777561221737796900,16.411796875,-16.835899353027344,-12.184252738952637,-4.503292083740234
1777561221756326700,16.43032666015625,-16.24247932434082,-4.185046672821045,-1.0480563640594482
1777561221774856400,16.4488564453125,-10.169496536254883,0.33738797903060913,5.288137912750244
1777561221793386000,16.467385986328125,-3.019742250442505,-1.9310078620910645,5.747560024261475
1777561221811915800,16.485915771484375,11.109875679016113,-9.695717811584473,2.7661030292510986
1777561221830445600,16.504445556640626,13.03370475769043,-18.132810592651367,-2.8043880462646484
1777561221848975400,16.522975341796876,-0.1579262912273407,-17.379070281982422,-4.292723655700684
1777561221867505200,16.541505126953126,3.0269205570220947,-11.526226997375488,-2.146361827850342
1777561221886034700,16.56003466796875,8.015955924987793,-8.97787094116211,0.4833501875400543
1777561221904564500,16.578564453125,12.009576797485352,-8.951549530029297,3.0484559535980225
1777561221923094300,16.59709423828125,7.511070251464844,-7.537391185760498,5.735595703125
1777561221941623800,16.615623779296875,3.2829527854919434,-7.250252723693848,5.752345561981201
1777561221960153600,16.634153564453126,8.391629219055176,-9.985248565673828,3.9194436073303223
1777561221978683400,16.652683349609376,-0.6005984544754028,-11.662617683410645,1.0552347898483276
1777561221997213200,16.671213134765626,-9.248259544372559,-11.684152603149414,-3.0484559535980225
1777561222015743000,16.689742919921876,-7.908278942108154,-9.214759826660156,-6.204588890075684
1777561222034272500,16.7082724609375,-1.0360921621322632,-4.632504463195801,-8.965906143188477
1777561222052802300,16.72680224609375,-0.9355936646461487,3.6083765029907227,-5.149354457855225
1777561222071332000,16.74533203125,1.160519003868103,8.693124771118164,4.503292083740234
1777561222089861600,16.763861572265625,2.5938198566436768,1.4787644147872925,5.371886730194092
1777561222108391400,16.782391357421876,1.7012969255447388,-4.388436794281006,4.1491546630859375
1777561222126921200,16.800921142578126,-0.638883650302887,-7.302894592285156,2.667997360229492
1777561222145450800,16.81945068359375,-1.9022940397262573,-9.396614074707031,-0.45224347710609436
1777561222163980500,16.83798046875,-0.10289137065410614,-12.002398490905762,-2.531606435775757
1777561222182510300,16.85651025390625,6.472585201263428,-14.155939102172852,-2.2779672145843506
1777561222201040100,16.8750400390625,8.74337387084961,-17.580068588256836,-2.63449764251709
1777561222219570000,16.89356982421875,8.793622970581055,-20.324636459350586,-1.5840486288070679
1777561222238099500,16.912099365234376,8.281558990478516,-17.12303924560547,0.5982056856155396
1777561222256629200,16.930629150390626,7.336394309997559,-13.383056640625,1.0528420209884644
1777561222275159000,16.949158935546876,4.790431022644043,-8.738588333129883,2.4598217010498047
1777561222293688600,16.9676884765625,1.4141582250595093,-5.661418437957764,3.28773832321167
1777561222312218400,16.98621826171875,4.256831645965576,-2.9790642261505127,3.656233072280884
1777561222330748200,17.004748046875,0.9355936646461487,-5.1565327644348145,3.562912940979004
1777561222349278000,17.02327783203125,-7.089933395385742,-7.11146879196167,10.96869945526123
1777561222367807500,17.041807373046876,2.5770699977874756,-13.404592514038086,4.656432628631592
1777561222386337300,17.060337158203126,15.132210731506348,-19.67139434814453,-5.391029357910156
1777561222404867000,17.0788671875,20.1164608001709,-28.484161376953125,-4.005585193634033
1777561222423396600,17.097396728515626,-9.650253295898438,-18.8123722076416,-0.7393822073936462
1777561222441926400,17.115926513671877,-11.56690502166748,-7.700103282928467,6.273981094360352
1777561222460456200,17.134456298828123,-3.0963125228881836,-3.9912281036376953,6.601797580718994
1777561222478986000,17.152986083984374,2.794816732406616,-3.91705060005188,0.9355936646461487
1777561222497515800,17.171515869140624,3.8428730964660645,-4.275974273681641,-1.5840486288070679
1777561222516045300,17.19004541015625,2.1750757694244385,-6.5419769287109375,-2.861815929412842
1777561222534575000,17.2085751953125,7.88913631439209,-12.492926597595215,-1.6055840253829956
1777561222553105000,17.22710498046875,11.337193489074707,-13.75633716583252,1.0432707071304321
1777561222571634400,17.245634521484376,12.65324592590332,-14.356935501098633,2.857030153274536
1777561222590164200,17.264164306640627,9.315258979797363,-13.076775550842285,5.893522262573242
1777561222608694000,17.282694091796873,4.893322467803955,-9.480362892150879,9.291330337524414
1777561222627223800,17.301223876953124,2.9694929122924805,-10.389636039733887,4.376472473144531
1777561222645753300,17.31975341796875,-6.0849480628967285,-13.366307258605957,-0.6891329288482666
1777561222673548000,17.347548095703125,-4.7401814460754395,-10.542776107788086,-4.019941806793213
1777561222692077800,17.366077880859375,-0.9690931439399719,-6.254838466644287,-2.9551360607147217
1777561222710607400,17.384607421875,1.0959128141403198,-1.8855443000793457,3.634697675704956
1777561222729137200,17.40313720703125,1.093519926071167,-5.395814895629883,5.759523868560791
1777561222747667000,17.4216669921875,0.3900300860404968,-5.340780258178711,3.34995174407959
1777561222766196500,17.440196533203125,1.0193424224853516,-4.192225456237793,2.0243279933929443
1777561222784726300,17.458726318359375,-1.0193424224853516,-3.2829527854919434,-0.4785645306110382
1777561222803256000,17.477256103515625,-1.5912270545959473,-3.297309637069702,-2.313859462738037
1777561222821785900,17.495785888671875,-0.8901300430297852,-3.7734813690185547,-1.94297194480896
1777561222840315400,17.5143154296875,1.3112667798995972,-4.591826438903809,0.08374879509210587
1777561222858845200,17.53284521484375,4.199403762817383,-7.271788120269775,2.266003131866455
1777561222877375000,17.551375,6.003592014312744,-20.1164608001709,2.8809585571289062
1777561222895904800,17.56990478515625,8.733802795410156,-20.398813247680664,4.567898273468018
1777561222914434300,17.588434326171875,12.813565254211426,-16.704294204711914,1.6390835046768188
1777561222932964000,17.606964111328125,10.49252700805664,-13.564911842346191,-2.830709218978882
1777561222951494000,17.625493896484375,3.7974095344543457,-7.853243827819824,-4.9292144775390625
1777561222970023700,17.644023681640626,-0.11964113265275955,-3.373879909515381,-3.328416347503662
1777561222988553200,17.66255322265625,4.563112735748291,-2.943171739578247,-1.832902193069458
1777561223007083000,17.6810830078125,-2.029113531112671,-5.015356063842773,0.6556333899497986
1777561223025612800,17.69961279296875,-4.386044025421143,-9.671789169311523,13.47877025604248
1777561223044142300,17.718142333984375,8.678768157958984,-22.351356506347656,8.642875671386719
1777561223062672100,17.736672119140625,24.043081283569336,-33.107093811035156,-4.570291042327881
1777561223081202000,17.755201904296875,-2.1894326210021973,-20.1284236907959,-6.099305152893066
1777561223099731700,17.773731689453125,-11.097911834716797,-8.927620887756348,1.4428720474243164
1777561223121941000,17.79594091796875,-7.312466144561768,-2.5363919734954834,6.948757171630859
1777561223140468500,17.814468505859374,-3.2685956954956055,-4.40757942199707,2.8905298709869385
1777561223158998000,17.832998046875,4.110869407653809,-10.198209762573242,-1.550549030303955
1777561223177527800,17.85152783203125,12.28953742980957,-14.189437866210938,-5.082355499267578
1777561223196057600,17.8700576171875,7.168896675109863,-12.854243278503418,-5.364708423614502
1777561223214587400,17.88858740234375,2.526820659637451,-11.112268447875977,-2.3545374870300293
1777561223233117000,17.907116943359377,1.6271194219589233,-9.059226989746094,-1.1150553226470947
1777561223251646700,17.925646728515623,2.641676187515259,-5.8959150314331055,0.727418065071106
1777561223270176500,17.944176513671874,5.2115678787231445,-3.9912281036376953,2.5459632873535156
1777561223288706300,17.962706298828124,6.872186660766602,-4.6995038986206055,2.3497519493103027
1777561223307235800,17.98123583984375,8.934800148010254,-6.786045074462891,2.713460922241211
1777561223325765600,17.999765625,8.34138011932373,-9.274580955505371,2.6464617252349854
1777561223344295400,18.01829541015625,5.881557941436768,-10.365707397460938,3.407379388809204
1777561223362825000,18.036824951171877,7.135396957397461,-12.672389030456543,3.10109806060791
1777561223381354800,18.055354736328123,-1.2299108505249023,-16.59661865234375,0.9810572862625122
1777561223399884500,18.073884521484374,1.3256237506866455,-21.750757217407227,-2.5459632873535156
1777561223427679000,18.101678955078125,-1.8616160154342651,-19.29572105407715,-2.775674343109131
1777561223446208800,18.120208740234375,1.2586246728897095,-10.944770812988281,2.1296122074127197
1777561223464738600,18.138738525390625,1.6414763927459717,-3.407379388809204,5.398207664489746
1777561223483268400,18.157268310546876,2.5938198566436768,0.15314064919948578,5.824130535125732
1777561223501798000,18.1757978515625,3.4169507026672363,-0.25363919138908386,4.962714195251465
1777561223520327700,18.19432763671875,1.7850457429885864,-2.6560330390930176,2.3258235454559326
1777561223538857500,18.212857421875,-0.6029912829399109,-5.000999450683594,0.6843472719192505
1777561223557387300,18.23138720703125,-2.957528829574585,-7.293323516845703,0.019142581149935722
1777561223575916800,18.249916748046875,-2.4502503871917725,-8.149953842163086,0.5407779216766357
1777561223594446600,18.268446533203125,1.34476637840271,-6.680760860443115,1.612762451171875
1777561223612976400,18.286976318359375,2.9001009464263916,-4.934000492095947,2.4981069564819336
1777561223631506200,18.305506103515626,3.105883836746216,-4.211368083953857,3.1585259437561035
1777561223650035700,18.32403564453125,2.8283164501190186,-9.638289451599121,1.4165509939193726
1777561223668565500,18.3425654296875,4.455435752868652,-10.293923377990723,2.234896421432495
1777561223687095300,18.36109521484375,6.9344000816345215,-8.4562349319458,1.3304094076156616
1777561223705625000,18.379625,11.337193489074707,-10.52363395690918,-3.397808074951172
1777561223724154600,18.398154541015625,11.399407386779785,-10.547562599182129,-2.9383862018585205
1777561223742684400,18.416684326171875,6.173482418060303,-7.537391185760498,-0.8231309652328491
1777561223761214200,18.435214111328126,1.5840486288070679,-6.522834300994873,0.6173482537269592
1777561223779744000,18.453743896484376,-2.172683000564575,-7.685746192932129,1.9525432586669922
1777561223798273500,18.4722734375,-6.900900363922119,-10.628918647766113,3.7232320308685303
1777561223816803300,18.49080322265625,-12.859028816223145,-12.701102256774902,9.135796546936035
1777561223835333000,18.5093330078125,16.941184997558594,-19.759929656982422,4.862215518951416
1777561223853863000,18.52786279296875,22.25803565979004,-25.83291244506836,-6.240481376647949
1777561223872392400,18.546392333984375,0.44027936458587646,-22.36332130432129,-0.38285163044929504
1777561223890922200,18.564922119140626,-7.5708909034729,-13.476377487182617,1.0001999139785767
1777561223909452000,18.5834521484375,-8.915657043457031,-8.030312538146973,3.029313564300537
1777561223927981800,18.60198193359375,-7.546962738037109,-7.661818027496338,3.3643085956573486
1777561223946511400,18.620511474609376,-5.312066078186035,-10.006784439086914,-0.5359922647476196
1777561223965041200,18.639041259765627,0.4833501875400543,-10.729416847229004,-1.947757601737976
1777561223983571000,18.657571044921873,13.921442031860352,-12.016755104064941,-2.3784656524658203
1777561224002100700,18.676100830078123,9.891928672790527,-11.772686958312988,-1.8807586431503296
1777561224020630300,18.69463037109375,0.2392822653055191,-10.112068176269531,0.20578274130821228
1777561224039160000,18.71316015625,1.5314065217971802,-7.4847493171691895,-0.38763725757598877
1777561224057689900,18.73168994140625,2.909672260284424,-5.661418437957764,-0.8183453679084778
1777561224076219400,18.750219482421876,1.919043779373169,-4.599005222320557,-1.0001999139785767
1777561224094749200,18.768749267578126,1.6175481081008911,-4.685146808624268,-0.8805587291717529
1777561224113279000,18.787279052734377,2.641676187515259,-5.594419479370117,-0.12921242415905
1777561224131808800,18.805808837890623,5.034498691558838,-7.259823799133301,0.2679961323738098
1777561224150338300,18.82433837890625,4.043870449066162,-8.25523853302002,0.5599204897880554
1777561224168868000,18.8428681640625,1.4117653369903564,-7.843672752380371,0.6269195079803467
1777561224187398000,18.86139794921875,3.0723843574523926,-7.910671710968018,0.03349951654672623
1777561224205927700,18.879927734375,4.058227062225342,-8.274380683898926,-0.7322037220001221
1777561224224457500,18.89845751953125,4.426722049713135,-9.69093132019043,-1.4500504732131958
1777561224242987000,18.916987060546877,7.743174076080322,-12.672389030456543,-2.1678972244262695
1777561224261516800,18.935516845703123,6.010770320892334,-17.692529678344727,-1.6319050788879395
1777561224280046600,18.954046630859374,7.494320392608643,-21.856042861938477,0.8374879360198975
1777561224298576400,18.972576416015624,4.713860511779785,-23.39702033996582,3.6466617584228516
1777561224317106000,18.99110595703125,0.45942193269729614,-19.377077102661133,4.46979284286499
1777561224335635700,19.0096357421875,-0.49292147159576416,-14.672788619995117,1.794616937637329
1777561224354165500,19.02816552734375,-0.28235307335853577,-9.762716293334961,1.196411371231079
1777561224372695300,19.0466953125,2.6321048736572266,-4.039084434509277,2.416750907897949
1777561224391225000,19.06522509765625,1.9525432586669922,1.2442678213119507,3.895515203475952
1777561224409754600,19.083754638671873,1.2586246728897095,1.062413215637207,4.388436794281006
1777561224428284400,19.102284423828124,-0.23449662327766418,-4.125226020812988,2.799602508544922
1777561224446814200,19.120814208984374,-1.2251251935958862,-6.771687984466553,2.1439690589904785
1777561224465344000,19.139343994140624,-0.6843472719192505,-6.269195556640625,2.014756679534912
1777561224483873500,19.15787353515625,-0.37806597352027893,-4.48414945602417,2.187039852142334
1777561224502403300,19.1764033203125,-0.40677985548973083,-3.043670415878296,2.3306093215942383
1777561224520933000,19.19493310546875,-1.057627558708191,-2.4885356426239014,2.3497519493103027
1777561224539463000,19.213462890625,-0.4833501875400543,-2.0961127281188965,2.6464617252349854
1777561224557992700,19.23199267578125,0.6173482537269592,-4.517649173736572,2.344966173171997
1777561224576522200,19.250522216796874,0.7465606927871704,-10.41356372833252,1.6366907358169556
1777561224595052000,19.269052001953124,3.7184464931488037,-8.872586250305176,2.2205393314361572
1777561224613581800,19.287581787109374,16.11326789855957,-12.375679016113281,-0.4833501875400543
1777561224632111600,19.306111572265625,16.634902954101562,-12.437891960144043,-0.9284151792526245
1777561224650641400,19.324641357421875,7.121040344238281,-8.0350980758667,-0.363709032535553
1777561224678435800,19.352435791015626,-2.7565317153930664,-4.541577339172363,0.7896314859390259
1777561224696965600,19.370965576171876,-4.756931304931641,-4.800002098083496,2.909672260284424
1777561224715495400,19.389495361328127,-7.733603000640869,-8.513663291931152,3.407379388809204
1777561224734025200,19.408025146484373,-11.270195007324219,-12.930813789367676,8.614161491394043
1777561224752554800,19.4265546875,9.384650230407715,-20.793628692626953,9.580862045288086
1777561224771084500,19.44508447265625,20.68355941772461,-24.201007843017578,-3.8524444103240967
1777561224789614300,19.4636142578125,12.265608787536621,-26.976682662963867,-3.4791641235351562
1777561224808144100,19.48214404296875,-4.034298896789551,-18.348163604736328,-3.067598581314087
1777561224826674000,19.500673828125,-10.561919212341309,-9.868000984191895,1.038485050201416
1777561224845203700,19.51920361328125,-9.509077072143555,-5.867201328277588,1.2299108505249023
1777561224863733200,19.537733154296873,-8.49452018737793,-8.173882484436035,0.3732803463935852
1777561224882263000,19.556262939453124,-2.775674343109131,-12.342179298400879,-1.7276179790496826
1777561224900792800,19.574792724609374,11.179266929626465,-14.289937019348145,-2.641676187515259
1777561224919322600,19.593322509765624,7.929814338684082,-13.768301963806152,-2.1056840419769287
1777561224937852200,19.61185205078125,0.4737788736820221,-12.519248008728027,-1.526620864868164
1777561224956382200,19.63038232421875,0.8087740540504456,-9.059226989746094,-1.0241280794143677
1777561224974911700,19.648911865234375,1.4739787578582764,-6.254838466644287,0.49292147159576416
1777561224993441500,19.667441650390625,1.9669002294540405,-4.2592244148254395,2.3880369663238525
1777561225011971300,19.685971435546875,1.5696916580200195,-3.483949661254883,2.746960401535034
1777561225030501000,19.704501220703126,1.459621787071228,-4.101297855377197,1.6941183805465698
1777561225049031000,19.723031005859376,0.5694918036460876,-5.3934221267700195,0.16749759018421173
1777561225067560700,19.741560791015626,0.8422735929489136,-6.876972198486328,-0.9954141974449158
1777561225086090200,19.76009033203125,1.923829436302185,-7.901100158691406,-1.9669002294540405
1777561225104620000,19.7786201171875,3.6945180892944336,-8.082955360412598,-1.8376877307891846
1777561225123149800,19.79714990234375,3.751945972442627,-7.135396957397461,-1.6510475873947144
1777561225141679600,19.8156796875,3.211168050765991,-6.0777692794799805,-1.5744773149490356
1777561225160209400,19.83420947265625,2.857030153274536,-6.857829570770264,-2.368894338607788
1777561225178739200,19.8527392578125,3.4743785858154297,-10.394421577453613,-3.5605201721191406
1777561225197269000,19.87126904296875,4.575077056884766,-17.20918083190918,-3.5365917682647705
1777561225215798500,19.889798583984376,4.809573650360107,-22.526031494140625,0.17228323221206665
1777561225234328300,19.908328369140627,0.10049854964017868,-24.30150604248047,3.263810157775879
1777561225252858000,19.926858154296873,-0.2727817893028259,-22.65045928955078,4.517649173736572
1777561225271388000,19.945387939453123,1.4644074440002441,-21.238693237304688,6.881757736206055
1777561225289917700,19.963917724609374,2.445464849472046,-19.00379753112793,8.628518104553223
1777561225308447500,19.982447509765624,2.4502503871917725,-15.203994750976562,7.0301127433776855
1777561225326977300,20.000977294921874,2.306680917739868,-12.720245361328125,1.3208380937576294
1777561225345507000,20.019507080078125,-1.153340458869934,-12.30389404296875,-2.445464849472046
1777561225364036600,20.03803662109375,-2.7900311946868896,-11.56690502166748,-3.326023578643799
1777561225382566400,20.05656640625,-5.422136306762695,-10.112068176269531,-2.187039852142334
1777561225401096200,20.07509619140625,-4.656432628631592,-8.528019905090332,0.9667003750801086
1777561225419626000,20.0936259765625,-0.794417142868042,-6.173482418060303,4.235296249389648
1777561225438155800,20.11215576171875,-0.7561319470405579,-3.751945972442627,5.125426292419434
1777561225456685600,20.130685546875,-0.9571290612220764,-1.4165509939193726,4.522434711456299
1777561225475215400,20.14921533203125,0.45942193269729614,-0.17228323221206665,3.211168050765991
1777561225493745200,20.1677451171875,1.3830515146255493,0.2679961323738098,2.2779672145843506
1777561225512275000,20.18627490234375,1.8759729862213135,-0.38285163044929504,2.3976082801818848
1777561225530804700,20.2048046875,1.832902193069458,-1.588834285736084,2.909672260284424
1777561225549334300,20.223334228515625,4.240081787109375,-3.4121651649475098,2.5746772289276123
1777561225567864000,20.241864013671876,8.24566650390625,-6.417550563812256,2.3641088008880615
1777561225586393900,20.260393798828126,10.466206550598145,-11.227124214172363,2.1918256282806396
1777561225604923600,20.278923583984376,10.226923942565918,-15.486348152160645,1.8376877307891846
1777561225623453400,20.297453369140626,8.824729919433594,-15.314064979553223,1.0001999139785767
1777561225641983200,20.315983154296877,7.637889862060547,-11.016555786132812,2.3976082801818848
1777561225660513000,20.334512939453123,6.063412666320801,-6.594619274139404,3.0484559535980225
1777561225679042800,20.353042724609374,9.145368576049805,-4.694717884063721,1.9908283948898315
1777561225697572600,20.371572509765624,9.174081802368164,-9.355937004089355,3.570091485977173
1777561225716102400,20.390102294921874,5.608776092529297,-17.769100189208984,5.087141036987305
1777561225734632200,20.408632080078124,-4.460221290588379,-17.48674774169922,6.9104719161987305
1777561225753162000,20.427161865234375,-7.4464640617370605,-10.217352867126465,1.6941183805465698
1777561225771691800,20.44569189453125,-3.809373617172241,-5.7858452796936035,6.556334018707275
1777561225790221300,20.46422119140625,1.3639088869094849,-3.3068809509277344,6.608976364135742
1777561225808751000,20.482751220703125,0.27756741642951965,-2.3306093215942383,2.4023938179016113
1777561225827281000,20.501281005859376,-2.7421748638153076,-5.087141036987305,0.7513462901115417
1777561225845810700,20.519810791015626,-4.900500774383545,-11.614761352539062,2.1056840419769287
1777561225864340500,20.538340576171876,-6.2500529289245605,-22.82752799987793,-3.1489546298980713
1777561225882870300,20.556870361328127,-2.531606435775757,-20.750558853149414,-6.589833736419678
1777561225901400000,20.575400146484377,4.201796531677246,-14.452649116516113,-4.996213912963867
1777561225919929900,20.593929931640623,5.441278457641602,-9.982855796813965,-2.9479575157165527
1777561225938459600,20.612459716796874,2.6081767082214355,-6.69990348815918,0.22492532432079315
1777561225956989400,20.630989501953124,-1.4165509939193726,-5.398207664489746,2.770888566970825
1777561225975519200,20.649519287109374,-2.809173822402954,-5.876772403717041,4.3070807456970215
1777561225994049000,20.668049072265624,-4.115654945373535,-7.412964344024658,3.3164522647857666
1777561226012578800,20.686578857421875,-2.3976082801818848,-10.107282638549805,0.7848458290100098
1777561226031108400,20.7051083984375,-0.397208571434021,-10.671989440917969,-1.2346965074539185
1777561226049638400,20.723638427734375,1.3399807214736938,-9.968499183654785,-2.612962245941162
1777561226068168200,20.742168212890626,-0.914058268070221,-9.384650230407715,-2.2779672145843506
1777561226086698000,20.760697998046876,-2.5220351219177246,-8.695517539978027,-1.9573289155960083
1777561226105227800,20.779227783203126,-2.043470621109009,-8.4562349319458,-2.172683000564575
1777561226123757600,20.797757568359376,-0.6556333899497986,-8.551948547363281,-1.6654045581817627
1777561226142287000,20.816287109375,0.2153540402650833,-8.997013092041016,-0.9667003750801086
1777561226160817000,20.83481689453125,-0.28235307335853577,-9.7005033493042,-0.9044869542121887
1777561226179346700,20.8533466796875,-0.33020952343940735,-10.202995300292969,-1.3112667798995972
1777561226197876500,20.87187646484375,1.4021940231323242,-10.408778190612793,-2.885744094848633
1777561226216406300,20.89040625,2.359323024749756,-10.695917129516602,-4.364508628845215
1777561226234936000,20.90893603515625,1.1150553226470947,-10.614561080932617,-4.685146808624268
1777561226253465900,20.9274658203125,-0.6508477330207825,-11.069197654724121,-2.919243574142456
1777561226271995600,20.94599560546875,-0.1052841991186142,-11.375478744506836,-0.8614161610603333
1777561226290525400,20.964525390625,2.0195422172546387,-11.973684310913086,0.4211367964744568
1777561226309055200,20.98305517578125,3.680161237716675,-12.208181381225586,1.1437692642211914
1777561226327585000,21.0015849609375,3.900300979614258,-12.160325050354004,0.8757730722427368
1777561226346114800,21.02011474609375,3.3786656856536865,-13.02652645111084,-0.349352091550827
1777561226364644600,21.03864453125,0.641276478767395,-15.050854682922363,-1.0671988725662231
1777561226383174400,21.05717431640625,-0.7465606927871704,-15.414563179016113,-0.9906286001205444
1777561226401704200,21.0757041015625,1.5026925802230835,-12.480962753295898,2.2923240661621094
1777561226420234000,21.09423388671875,-3.3786656856536865,-11.413763999938965,5.857629776000977
1777561226438763800,21.112763671875,-4.311866283416748,-13.773087501525879,8.910871505737305
1777561226457293600,21.13129345703125,-2.1104695796966553,-14.787644386291504,11.72004508972168
1777561226475823400,21.1498232421875,2.9001009464263916,-14.735001564025879,9.619147300720215
1777561226494353200,21.168353271484374,6.412764549255371,-13.414163589477539,6.025127410888672
1777561226512883000,21.186883056640625,-0.3445664644241333,-13.194024085998535,1.1820544004440308
1777561226531412700,21.205412841796875,-10.557133674621582,-13.50030517578125,-2.541177749633789
1777561226549942800,21.22394287109375,-6.4701924324035645,-10.782058715820312,-3.555734395980835
1777561226568472600,21.24247265625,2.4358935356140137,-8.049455642700195,-2.7182464599609375
1777561226587002400,21.26100244140625,-1.0097711086273193,-4.9435715675354,-1.4213366508483887
1777561226605532200,21.2795322265625,-2.919243574142456,-3.1202406883239746,-0.35892340540885925
1777561226624062000,21.29806201171875,-1.301695466041565,-1.9764715433120728,1.6319050788879395
1777561226642591700,21.316591796875,-0.7322037220001221,-1.306481122970581,2.493321180343628
1777561226661121500,21.33512158203125,-0.14356936514377594,-1.7419748306274414,2.7661030292510986
1777561226679651300,21.3536513671875,0.22971096634864807,-1.852044701576233,3.029313564300537
1777561226698181000,21.37218115234375,0.7704889178276062,-2.5603201389312744,2.4598217010498047
1777561226716711000,21.3907109375,2.0721843242645264,-3.88594388961792,1.5792629718780518
1777561226735240700,21.40924072265625,4.292723655700684,-5.264209747314453,1.4644074440002441
1777561226753770500,21.4277705078125,7.202396392822266,-7.17368221282959,1.459621787071228
1777561226772300300,21.44630029296875,9.853643417358398,-10.939985275268555,1.1629117727279663
1777561226790830000,21.464830078125,15.323636054992676,-17.984455108642578,0.31106695532798767
1777561226809360000,21.48335986328125,13.02652645111084,-19.697715759277344,3.0388846397399902
1777561226827889700,21.5018896484375,8.193024635314941,-13.548161506652832,3.957728624343872
1777561226846419500,21.52041943359375,7.063612461090088,-8.240880966186523,2.9766714572906494
1777561226864949200,21.53894921875,5.857629776000977,-5.010570526123047,2.5842485427856445
1777561226883479000,21.55747900390625,2.6177480220794678,-3.665804386138916,1.2011969089508057
1777561226902008800,21.5760087890625,4.728217601776123,-5.158925533294678,2.0817556381225586
1777561226920538600,21.59453857421875,8.346165657043457,-12.370893478393555,5.938985824584961
1777561226939068400,21.613068359375,7.269395351409912,-21.554546356201172,6.072983741760254
1777561226957598200,21.63159814453125,-2.5938198566436768,-16.481761932373047,3.2063822746276855
1777561226976128000,21.6501279296875,-4.60857629776001,-5.670989513397217,3.297309637069702
1777561226994658000,21.668657958984376,-5.752345561981201,-0.05742774158716202,5.867201328277588
1777561227013187800,21.687187744140626,-1.3351950645446777,-0.4163511395454407,8.116454124450684
1777561227031717600,21.705717529296876,0.7226324677467346,-2.210968017578125,5.3455657958984375
1777561227050247400,21.724247314453127,-3.321237802505493,-5.905486106872559,1.6031911373138428
1777561227068777200,21.742777099609373,-4.924428939819336,-13.9453706741333,1.5170495510101318
1777561227087307000,21.76130712890625,-7.70967435836792,-26.43590545654297,-4.800002098083496
1777561227105836800,21.7798369140625,-3.761517286300659,-20.60698890686035,-8.336593627929688
1777561227124366600,21.79836669921875,1.373480200767517,-13.816158294677734,-7.738388538360596
1777561227142896400,21.816896484375,3.8428730964660645,-9.896714210510254,-5.546562671661377
1777561227161426200,21.83542626953125,2.871387243270874,-8.657232284545898,-0.9379864931106567
1777561227179956000,21.8539560546875,0.6843472719192505,-7.829315662384033,2.943171739578247
1777561227198485800,21.87248583984375,-0.6795616149902344,-7.690532207489014,4.996213912963867
1777561227217015600,21.891015625,-0.8279166221618652,-8.054241180419922,5.058426856994629
1777561227235545300,21.90954541015625,-0.851844847202301,-8.374878883361816,3.2159535884857178
1777561227254075400,21.928075439453124,-0.04785645380616188,-8.422736167907715,1.1102696657180786
1777561227272605200,21.946605224609375,-0.4019941985607147,-8.0350980758667,-0.6269195079803467
1777561227291135000,21.965135009765625,-1.5409778356552124,-7.982456207275391,-1.7563318014144897
1777561227309664800,21.983664794921875,-1.856830358505249,-8.647661209106445,-3.2542388439178467
1777561227328194600,22.002194580078125,-0.9044869542121887,-9.011369705200195,-4.225724697113037
1777561227346724400,22.020724365234376,0.09571290761232376,-9.221938133239746,-3.981656789779663
1777561227365254100,22.039254150390626,0.5264210104942322,-9.298508644104004,-2.550748825073242
1777561227383784000,22.057783935546876,0.038285162299871445,-9.686145782470703,-1.0289137363433838
1777561227402313700,22.076313720703126,-0.8039883971214294,-9.571290969848633,-0.2392822653055191
1777561227420843500,22.094843505859377,-0.6939185857772827,-9.193224906921387,-1.2729816436767578
1777561227439373300,22.113373291015623,1.0001999139785767,-10.198209762573242,-3.22552490234375
1777561227457903000,22.131903076171874,2.306680917739868,-11.49512004852295,-4.555934429168701
1777561227476433200,22.15043310546875,1.4452649354934692,-11.24626636505127,-2.9623143672943115
1777561227494963000,22.168962890625,0.08614161610603333,-11.298908233642578,-0.8231309652328491
1777561227513492700,22.18749267578125,0.9044869542121887,-12.05504035949707,0.12921242415905
1777561227532022500,22.2060224609375,1.9716858863830566,-12.906885147094727,-0.607776939868927
1777561227550552300,22.22455224609375,1.1724830865859985,-14.538790702819824,-1.430907964706421
1777561227569082000,22.24308203125,0.7130611538887024,-16.204195022583008,-2.1678972244262695
1777561227587612000,22.26161181640625,2.1583259105682373,-15.577275276184082,-0.607776939868927
1777561227606141700,22.2801416015625,3.1441688537597656,-13.131811141967773,2.9766714572906494
1777561227624671500,22.29867138671875,3.081955671310425,-11.011770248413086,3.1920254230499268
1777561227643201300,22.317201171875,-1.9046868085861206,-9.710074424743652,3.78544545173645
1777561227661731300,22.3357314453125,-4.3070807456970215,-11.37069320678711,6.51326322555542
1777561227680261000,22.35426123046875,-4.53200626373291,-14.43350601196289,8.307880401611328
1777561227698791000,22.372791015625,-1.2921242713928223,-13.911870956420898,7.460821151733398
1777561227735850500,22.4098505859375,5.608776092529297,-12.605389595031738,1.3208380937576294
1777561227754380300,22.42838037109375,-2.723032236099243,-11.452049255371094,-0.33020952343940735
1777561227772910000,22.44691015625,-8.551948547363281,-10.356136322021484,-1.8807586431503296
1777561227791440000,22.46543994140625,-3.8285162448883057,-8.834300994873047,-2.0195422172546387
1777561227809969700,22.4839697265625,2.6368906497955322,-6.51326322555542,-0.3158525824546814
1777561227828499700,22.502499755859375,-0.397208571434021,-4.642076015472412,0.6364908218383789
1777561227847029500,22.521029541015626,-1.0336993932724,-3.5509488582611084,1.4021940231323242
1777561227865559300,22.539559326171876,-0.4785645306110382,-3.383451223373413,1.9381862878799438
1777561227884089000,22.558089111328126,-0.41156548261642456,-3.311666488647461,2.6081767082214355
1777561227902619000,22.576618896484376,-0.2679961323738098,-3.153740167617798,3.2303106784820557
1777561227921148700,22.595148681640627,-0.38285163044929504,-3.7806596755981445,2.56510591506958
1777561227939678500,22.613678466796873,0.4546363055706024,-4.455435752868652,1.9094724655151367
1777561227958208300,22.632208251953124,2.5746772289276123,-5.125426292419434,0.6604190468788147
1777561227976738000,22.650738037109374,6.455835342407227,-6.288337707519531,-0.10049854964017868
1777561227995268000,22.66926806640625,10.078569412231445,-8.21695327758789,0.46899324655532837
1777561228013798000,22.6877978515625,11.80618667602539,-11.45683479309082,1.5601203441619873
1777561228032327700,22.70632763671875,10.073782920837402,-14.811572074890137,0.8997012972831726
1777561228050857500,22.724857421875,8.274380683898926,-14.768501281738281,-2.100898265838623
1777561228069387300,22.74338720703125,5.8959150314331055,-10.906485557556152,-2.249253273010254
1777561228087917000,22.7619169921875,1.8424733877182007,-7.901100158691406,-1.1437692642211914
1777561228106446800,22.78044677734375,1.0815558433532715,-6.814758777618408,-0.37806597352027893
1777561228124976600,22.7989765625,7.523034572601318,-9.772287368774414,0.6699903607368469
1777561228143506700,22.817506591796874,7.4464640617370605,-16.256837844848633,3.680161237716675
1777561228162036500,22.836036376953125,2.885744094848633,-21.736400604248047,7.255038261413574
1777561228180566300,22.854566162109375,-6.503692150115967,-14.19422435760498,4.34536600112915
1777561228199096000,22.873095947265625,-8.135597229003906,-4.450650215148926,4.752145767211914
1777561228217625900,22.8916259765625,-4.675575256347656,-2.225325107574463,5.584847927093506
1777561228245420500,22.919420654296875,0.9044869542121887,-1.2586246728897095,4.311866283416748
1777561228263950300,22.937950439453125,0.6604190468788147,-5.776273727416992,1.7754744291305542
1777561228282480000,22.956480224609376,-0.5264210104942322,-14.165510177612305,-0.7130611538887024
1777561228301010200,22.97501025390625,-2.392822742462158,-24.59343147277832,-5.972485542297363
1777561228319540000,22.9935400390625,-0.04785645380616188,-19.06122589111328,-7.901100158691406
1777561228338069800,23.01206982421875,3.397808074951172,-12.696316719055176,-6.005984783172607
1777561228356599600,23.030599609375,1.9094724655151367,-8.365307807922363,-1.8472590446472168
1777561228375129300,23.04912939453125,0.8757730722427368,-7.154539585113525,1.9573289155960083
1777561228393659100,23.0676591796875,1.0097711086273193,-7.101897716522217,3.9385859966278076
1777561228412189000,23.08618896484375,1.4213366508483887,-7.0683979988098145,4.527220249176025
1777561228430718700,23.10471875,1.5792629718780518,-7.513463020324707,3.105883836746216
1777561228449248800,23.123248779296876,1.4644074440002441,-8.786444664001465,0.6173482537269592
1777561228467778600,23.141778564453126,2.187039852142334,-9.710074424743652,-1.4691931009292603
1777561228486308400,23.160308349609377,4.3310089111328125,-9.781859397888184,-2.1056840419769287
1777561228504838100,23.178838134765623,5.2354960441589355,-8.757730484008789,-1.1054840087890625
1777561228523368000,23.197367919921874,4.287938117980957,-7.70967435836792,-0.24885354936122894
1777561228541897700,23.215897705078124,4.206582069396973,-6.843472957611084,-0.12442677468061447
1777561228560427500,23.234427490234374,5.2115678787231445,-6.527620315551758,-0.698704183101654
1777561228578957600,23.25295751953125,0.8997012972831726,-5.551348686218262,-0.5886343717575073
1777561228597487400,23.2714873046875,-2.4885356426239014,-4.206582069396973,-0.6460621356964111
1777561228616017200,23.29001708984375,-1.3351950645446777,-3.7423746585845947,-1.2394821643829346
1777561228634547000,23.308546875,3.8524444103240967,-4.503292083740234,-1.1676974296569824
1777561228653076700,23.32707666015625,6.896114826202393,-5.388636589050293,-0.17228323221206665
1777561228671606500,23.3456064453125,2.517249345779419,-5.709274768829346,1.7994025945663452
1777561228690136300,23.36413623046875,-1.3495519161224365,-5.115854740142822,2.871387243270874
1777561228708666000,23.382666015625,0.2727817893028259,-6.16391134262085,2.531606435775757
1777561228727196200,23.401196044921875,3.7471601963043213,-8.039883613586426,1.435693621635437
1777561228745726000,23.419725830078125,4.115654945373535,-9.834501266479492,-0.1339980661869049
1777561228764255700,23.438255859375,4.766502857208252,-12.457035064697266,-2.2636101245880127
1777561228782785500,23.45678564453125,7.992027759552002,-18.70708656311035,-2.957528829574585
1777561228801315300,23.4753154296875,7.140182971954346,-25.909482955932617,-2.5220351219177246
1777561228819845000,23.49384521484375,8.413164138793945,-29.245079040527344,3.4504501819610596
1777561228838375000,23.512375,3.8428730964660645,-26.455047607421875,8.575876235961914
1777561228856905000,23.530905029296875,3.081955671310425,-19.396221160888672,9.32722282409668
1777561228875434800,23.549434814453125,3.704089403152466,-11.485548973083496,6.173482418060303
1777561228893964500,23.567964599609375,-2.3018953800201416,-6.427121639251709,3.005385160446167
1777561228912494300,23.586494384765626,-2.526820659637451,-2.7900311946868896,0.7130611538887024
1777561228931024100,23.605024169921876,-0.9427721500396729,-1.3543375730514526,1.5170495510101318
1777561228949554000,23.623553955078126,-0.5168496966362,-4.3788652420043945,0.7322037220001221
1777561228968083700,23.642083740234376,1.0480563640594482,-6.125626087188721,0.8566305041313171
1777561228986613500,23.660613525390627,0.7896314859390259,-4.3549370765686035,1.1198409795761108
1777561229005143600,23.6791435546875,-0.363709032535553,-2.66560435295105,1.435693621635437
