time,seconds_elapsed,z,y,x
1777561205210551800,-0.1154482421875,-23.15999984741211,-15.299999237060547,25.68000030517578
1777561205220522500,-0.1054775390625,-24.239999771118164,-18.059999465942383,23.69999885559082
1777561205240233700,-0.085766357421875,-25.68000030517578,-19.739999771118164,22.559999465942383
1777561205260344800,-0.0656552734375,-25.979999542236328,-20.03999900817871,22.619998931884766
1777561205270446000,-0.055553955078125,-25.079999923706055,-20.15999984741211,22.5
1777561205280486400,-0.045513671875,-25.260000228881836,-20.579999923706055,22.31999969482422
1777561205290557200,-0.03544287109375,-25.559999465942383,-20.579999923706055,22.439998626708984
1777561205300628000,-0.0253720703125,-25.31999969482422,-20.15999984741211,21.779998779296875
1777561205310668300,-0.015331787109375,-25.079999923706055,-19.68000030517578,22.260000228881836
1777561205340819700,0.01481982421875,-23.81999969482422,-19.799999237060547,21.479999542236328
1777561205350921000,0.0249208984375,-23.81999969482422,-20.69999885559082,21
1777561205371062500,0.0450625,-24.779998779296875,-21.959999084472656,21.65999984741211
1777561205391204000,0.0652041015625,-26.03999900817871,-20.69999885559082,22.3799991607666
1777561205411315200,0.085315185546875,-23.8799991607666,-19.799999237060547,23.279998779296875
1777561205421386000,0.095385986328125,-23.51999855041504,-20.15999984741211,22.68000030517578
1777561205461608200,0.135608154296875,-21.65999984741211,-21.719999313354492,21.239999771118164
1777561205471679000,0.145678955078125,-21.779998779296875,-22.5,20.399999618530273
1777561205481688800,0.155688720703125,-21.959999084472656,-22.68000030517578,19.439998626708984
1777561205491790000,0.1657900390625,-21.719999313354492,-23.459999084472656,18.899999618530273
1777561205501830400,0.175830322265625,-21.719999313354492,-23.51999855041504,18.65999984741211
1777561205511870700,0.18587060546875,-22.020000457763672,-22.979999542236328,19.619998931884766
1777561205521941500,0.19594140625,-22.260000228881836,-23.219999313354492,19.68000030517578
1777561205542052600,0.216052490234375,-23.459999084472656,-24,18.53999900817871
1777561205602477300,0.276477294921875,-23.760000228881836,-23.34000015258789,17.940000534057617
1777561205622649600,0.296649658203125,-26.459999084472656,-22.739999771118164,17.34000015258789
1777561205673003500,0.34700341796875,-27.35999870300293,-22.85999870300293,17.81999969482422
1777561205733428200,0.40742822265625,-24.239999771118164,-24.119998931884766,14.34000015258789
1777561205753508900,0.4275087890625,-23.69999885559082,-23.81999969482422,15.179999351501465
1777561205763610000,0.437610107421875,-23.399999618530273,-23.760000228881836,14.75999927520752
1777561205773681000,0.447680908203125,-23.81999969482422,-24.059999465942383,15.059999465942383
1777561205803862800,0.47786279296875,-24.84000015258789,-23.15999984741211,14.34000015258789
1777561205834044700,0.508044677734375,-25.920000076293945,-21.299999237060547,14.9399995803833
1777561205884398800,0.55839892578125,-31.979999542236328,-17.8799991607666,12.239999771118164
1777561205894500000,0.5685,-33.599998474121094,-17.219999313354492,11.639999389648438
1777561205914611200,0.588611083984375,-34.73999786376953,-14.399999618530273,11.460000038146973
1777561205934722300,0.608722412109375,-35.34000015258789,-10.380000114440918,11.75999927520752
1777561205995086000,0.669086181640625,-38.57999801635742,-3.5999999046325684,11.219999313354492
1777561206015227600,0.6892275390625,-38.15999984741211,-2.700000047683716,11.279999732971191
1777561206025298400,0.69929833984375,-37.439998626708984,-1.9199999570846558,11.9399995803833
1777561206035338800,0.7093388671875,-36.71999740600586,-1.6200000047683716,12.119999885559082
1777561206045409500,0.719409423828125,-36.89999771118164,-1.1999999284744263,12.899999618530273
1777561206055449900,0.729449951171875,-36.36000061035156,-0.8399999737739563,14.579999923706055
1777561206075591400,0.74959130859375,-37.97999954223633,-1.2599999904632568,16.920000076293945
1777561206105773300,0.779773193359375,-34.55999755859375,-4.079999923706055,15.960000038146973
1777561206156096800,0.8300966796875,-30.719999313354492,-5.819999694824219,20.34000015258789
1777561206186248200,0.860248291015625,-29.15999984741211,-9.719999313354492,20.15999984741211
1777561206216491000,0.890490966796875,-27,-10.920000076293945,20.219999313354492
1777561206256835300,0.93083544921875,-31.31999969482422,-12.479999542236328,20.34000015258789
1777561206287078100,0.961078125,-31.3799991607666,-11.75999927520752,21.18000030517578
1777561206327330800,1.001330810546875,-32.279998779296875,-9.359999656677246,22.19999885559082
1777561206387755800,1.061755859375,-33.119998931884766,-7.319999694824219,22.079999923706055
1777561206468230700,1.142230712890625,-29.81999969482422,-3.059999942779541,23.939998626708984
1777561206528716300,1.20271630859375,-29.81999969482422,-1.2599999904632568,25.68000030517578
1777561206589080000,1.263080078125,-31.5,0.6599999666213989,23.81999969482422
1777561206639373000,1.313373046875,-30.119998931884766,2.2200000286102295,24.059999465942383
1777561206679625700,1.353625732421875,-31.31999969482422,4.079999923706055,23.639999389648438
1777561206719878400,1.39387841796875,-30.53999900817871,6.539999961853027,23.639999389648438
1777561206770201900,1.444201904296875,-31.85999870300293,6.960000038146973,23.81999969482422
1777561206800414500,1.47441455078125,-31.85999870300293,6.71999979019165,21.959999084472656
1777561206810454500,1.48445458984375,-32.39999771118164,6.119999885559082,21.53999900817871
1777561206820556000,1.49455615234375,-32.459999084472656,6.539999961853027,22.139999389648438
1777561206830626800,1.504626708984375,-32.459999084472656,6.71999979019165,21.65999984741211
1777561206840758500,1.514758544921875,-32.880001068115234,6.599999904632568,21.84000015258789
1777561206871001600,1.545001708984375,-32.459999084472656,5.099999904632568,21
1777561206891173600,1.565173583984375,-32.040000915527344,4.440000057220459,20.8799991607666
1777561206911315200,1.585315185546875,-30.719999313354492,5.400000095367432,21.65999984741211
1777561206941527600,1.615527587890625,-29.8799991607666,5.279999732971191,20.15999984741211
1777561206961699800,1.635699951171875,-30.53999900817871,6.420000076293945,22.020000457763672
1777561206971740200,1.645740234375,-31.85999870300293,6.359999656677246,23.639999389648438
1777561207042205200,1.716205078125,-31.920000076293945,-4.319999694824219,24.959999084472656
1777561207082457900,1.756457763671875,-29.81999969482422,-7.139999866485596,26.279998779296875
1777561207132750800,1.806750732421875,-24.299999237060547,-11.09999942779541,26.279998779296875
1777561207142852000,1.81685205078125,-24.779998779296875,-11.519999504089355,25.439998626708984
1777561207152923000,1.8269228515625,-24.779998779296875,-11.15999984741211,25.31999969482422
1777561207173064400,1.847064453125,-25.68000030517578,-11.09999942779541,24.420000076293945
1777561207193175600,1.867175537109375,-25.5,-11.34000015258789,25.619998931884766
1777561207223449000,1.897448974609375,-25.19999885559082,-10.920000076293945,25.19999885559082
1777561207253661400,1.927661376953125,-24.53999900817871,-11.579999923706055,25.260000228881836
1777561207273742000,1.9477421875,-24.299999237060547,-12.300000190734863,25.799999237060547
1777561207313994800,1.987994873046875,-23.760000228881836,-12.119999885559082,26.399999618530273
1777561207364287700,2.038287841796875,-20.520000457763672,-12.119999885559082,28.439998626708984
1777561207434722300,2.108722412109375,-21.899999618530273,-12.65999984741211,26.34000015258789
1777561207525237200,2.1992373046875,-25.31999969482422,-2.0999999046325684,26.51999855041504
1777561207605712100,2.279712158203125,-22.139999389648438,6.539999961853027,25.920000076293945
1777561207676085800,2.350085693359375,-25.19999885559082,14.579999923706055,24.059999465942383
1777561207686156500,2.360156494140625,-25.079999923706055,14.75999927520752,23.100000381469727
1777561207696196900,2.37019677734375,-24.479999542236328,16.079999923706055,22.920000076293945
1777561207716277500,2.390277587890625,-25.01999855041504,17.69999885559082,22.31999969482422
1777561207726348300,2.400348388671875,-25.139999389648438,18.84000015258789,22.3799991607666
1777561207736419000,2.410419189453125,-25.3799991607666,18.899999618530273,21.53999900817871
1777561207746459400,2.42045947265625,-24.35999870300293,19.020000457763672,20.100000381469727
1777561207776641300,2.450641357421875,-25.739999771118164,20.81999969482422,17.760000228881836
1777561207816894000,2.49089404296875,-26.219999313354492,22.979999542236328,17.34000015258789
1777561207826964700,2.50096484375,-26.459999084472656,22.979999542236328,17.279998779296875
1777561207847106300,2.521106201171875,-26.279998779296875,21.299999237060547,16.020000457763672
1777561207887420000,2.561419921875,-24.119998931884766,21.119998931884766,17.34000015258789
1777561207897490700,2.57149072265625,-23.8799991607666,20.639999389648438,17.15999984741211
1777561207907592200,2.58159228515625,-23.459999084472656,20.520000457763672,18.719999313354492
1777561207917632500,2.591632568359375,-23.579999923706055,20.8799991607666,19.020000457763672
1777561207927703300,2.601703369140625,-24.899999618530273,19.739999771118164,20.100000381469727
1777561207937774000,2.611774169921875,-25.01999855041504,19.559999465942383,21.119998931884766
1777561207947814400,2.621814453125,-25.260000228881836,18.959999084472656,21.65999984741211
1777561207967986400,2.641986328125,-23.8799991607666,18.239999771118164,22.619998931884766
1777561208008239000,2.682239013671875,-25.19999885559082,13.4399995803833,22.739999771118164
1777561208018279400,2.692279541015625,-25.5,11.639999389648438,23.34000015258789
1777561208028319700,2.70231982421875,-25.5,11.279999732971191,25.19999885559082
1777561208038329300,2.712329345703125,-25.19999885559082,10.5,25.3799991607666
1777561208058501600,2.732501708984375,-24.059999465942383,9.300000190734863,26.219999313354492
1777561208078582000,2.75258203125,-22.619998931884766,7.319999694824219,27.299999237060547
1777561208098693000,2.772693115234375,-24,4.980000019073486,27.719999313354492
1777561208108764000,2.782763916015625,-24.18000030517578,3.5399999618530273,28.01999855041504
1777561208149047300,2.82304736328125,-22.5,-0.47999998927116394,30.779998779296875
1777561208179198500,2.853198486328125,-23.15999984741211,-5.099999904632568,31.67999839782715
1777561208199340000,2.873340087890625,-21.600000381469727,-8.639999389648438,31.079999923706055
1777561208219512300,2.89351220703125,-18.420000076293945,-12,31.67999839782715
1777561208269835800,2.943835693359375,-11.460000038146973,-14.039999961853027,32.880001068115234
1777561208279876000,2.9538759765625,-10.619999885559082,-14.460000038146973,33.119998931884766
1777561208289977300,2.963977294921875,-10.5,-15.899999618530273,32.880001068115234
1777561208310088400,2.98408837890625,-10.5,-16.3799991607666,32.81999969482422
1777561208350371600,3.02437158203125,-11.639999389648438,-17.15999984741211,31.01999855041504
1777561208380553500,3.054553466796875,-11.9399995803833,-18.35999870300293,29.579999923706055
1777561208400725800,3.074725830078125,-12,-18.65999984741211,29.279998779296875
1777561208430907600,3.10490771484375,-14.039999961853027,-17.940000534057617,30.059999465942383
1777561208461089500,3.135089599609375,-15.839999198913574,-16.139999389648438,29.219999313354492
1777561208501311500,3.1753115234375,-18.059999465942383,-13.380000114440918,30.119998931884766
1777561208551665700,3.225665771484375,-20.219999313354492,-4.559999942779541,29.81999969482422
1777561208581816800,3.25581689453125,-20.279998779296875,-0.7199999690055847,29.399999618530273
1777561208652343000,3.326343017578125,-20.69999885559082,6.899999618530273,28.439998626708984
1777561208692657000,3.366656982421875,-21.65999984741211,10.319999694824219,26.760000228881836
1777561208732940000,3.40693994140625,-25.799999237060547,13.739999771118164,24.18000030517578
1777561208783171800,3.457171875,-26.81999969482422,17.81999969482422,21.84000015258789
1777561208833434400,3.507434326171875,-28.920000076293945,18.899999618530273,19.920000076293945
1777561208903899400,3.5778994140625,-26.579999923706055,15.479999542236328,18.84000015258789
1777561208934112000,3.608112060546875,-26.639999389648438,15.960000038146973,20.579999923706055
1777561208944152000,3.618152099609375,-25.68000030517578,15.479999542236328,21.239999771118164
1777561208954192400,3.6281923828125,-25.559999465942383,14.279999732971191,22.5
1777561208964263200,3.63826318359375,-25.799999237060547,13.799999237060547,23.100000381469727
1777561208974303500,3.648303466796875,-26.219999313354492,13.079999923706055,23.34000015258789
1777561208984374300,3.658374267578125,-26.459999084472656,12.719999313354492,24.18000030517578
1777561209034697700,3.70869775390625,-25.920000076293945,9,24.899999618530273
1777561209044768500,3.7187685546875,-25.3799991607666,7.739999771118164,24.119998931884766
1777561209074950400,3.748950439453125,-23.51999855041504,6.71999979019165,26.69999885559082
1777561209085021200,3.759021240234375,-22.559999465942383,6.239999771118164,27.779998779296875
1777561209095122700,3.769122802734375,-21.479999542236328,5.579999923706055,28.31999969482422
1777561209105193500,3.779193359375,-20.69999885559082,4.739999771118164,27.65999984741211
1777561209135436300,3.809436279296875,-22.979999542236328,3.059999942779541,27
1777561209145476600,3.8194765625,-23.219999313354492,1.7400000095367432,27.65999984741211
1777561209155547400,3.82954736328125,-20.760000228881836,1.559999942779541,28.139999389648438
1777561209165618200,3.8396181640625,-18.299999237060547,0.47999998927116394,28.139999389648438
1777561209175689000,3.84968896484375,-19.139999389648438,-0.47999998927116394,27.479999542236328
1777561209185729300,3.859729248046875,-20.639999389648438,-0.9599999785423279,27.719999313354492
1777561209226012400,3.900012451171875,-25.01999855041504,-4.679999828338623,28.439998626708984
1777561209256225000,3.93022509765625,-21.84000015258789,-7.619999885559082,29.459999084472656
1777561209266265000,3.94026513671875,-19.920000076293945,-8.399999618530273,29.69999885559082
1777561209276305400,3.950305419921875,-18.65999984741211,-8.9399995803833,29.34000015258789
1777561209286376200,3.960376220703125,-18.959999084472656,-8.819999694824219,30.719999313354492
1777561209296477700,3.970477783203125,-19.979999542236328,-10.260000228881836,29.51999855041504
1777561209316619300,3.990619384765625,-22.139999389648438,-12.479999542236328,29.15999984741211
1777561209346770700,4.020770751953125,-19.68000030517578,-14.699999809265137,27.84000015258789
1777561209356841500,4.030841552734375,-18.84000015258789,-15.479999542236328,27.420000076293945
1777561209366912300,4.040912353515625,-17.760000228881836,-15.719999313354492,27.479999542236328
1777561209376983000,4.050983154296875,-17.69999885559082,-16.799999237060547,27.779998779296875
1777561209387023400,4.0610234375,-17.100000381469727,-17.219999313354492,27.299999237060547
1777561209397063400,4.0710634765625,-16.68000030517578,-16.799999237060547,28.439998626708984
1777561209417144000,4.09114404296875,-18.65999984741211,-16.739999771118164,28.5
1777561209437255200,4.111255126953125,-19.619998931884766,-16.559999465942383,28.139999389648438
1777561209447295500,4.12129541015625,-19.260000228881836,-16.139999389648438,28.920000076293945
1777561209457335800,4.131335693359375,-19.619998931884766,-15.839999198913574,28.85999870300293
1777561209467376000,4.141376220703125,-20.399999618530273,-14.75999927520752,28.799999237060547
1777561209477416400,4.15141650390625,-21.420000076293945,-14.039999961853027,29.760000228881836
1777561209487456500,4.16145654296875,-21.53999900817871,-12.899999618530273,30.239999771118164
1777561209497496800,4.171496826171875,-20.760000228881836,-10.979999542236328,31.559999465942383
1777561209507537200,4.181537109375,-19.5,-9.420000076293945,33.119998931884766
1777561209517608000,4.19160791015625,-19.619998931884766,-8.09999942779541,33.05999755859375
1777561209557860600,4.231860595703125,-23.34000015258789,-2.4600000381469727,32.880001068115234
1777561209567931400,4.241931396484375,-21.959999084472656,-1.7999999523162842,32.939998626708984
1777561209577971700,4.2519716796875,-20.579999923706055,-1.1399999856948853,32.57999801635742
1777561209588042500,4.26204248046875,-19.020000457763672,-0.7199999690055847,32.57999801635742
1777561209598113300,4.27211328125,-18.65999984741211,-0.11999999731779099,32.7599983215332
1777561209608153600,4.282153564453125,-18.959999084472656,0.7799999713897705,32.459999084472656
1777561209628295200,4.302295166015625,-19.799999237060547,3.5999999046325684,33.119998931884766
1777561209648436700,4.322436767578125,-20.03999900817871,6.239999771118164,32.7599983215332
1777561209658507500,4.332507568359375,-20.100000381469727,6.960000038146973,32.7599983215332
1777561209668578600,4.34257861328125,-20.399999618530273,8.34000015258789,32.57999801635742
1777561209678649300,4.3526494140625,-21,9,32.459999084472656
1777561209688689400,4.362689453125,-21.479999542236328,9.960000038146973,32.099998474121094
1777561209698760200,4.37276025390625,-22.139999389648438,11.15999984741211,31.260000228881836
1777561209708800500,4.382800537109375,-23.760000228881836,12,30.35999870300293
1777561209718871300,4.392871337890625,-25.139999389648438,12.59999942779541,29.459999084472656
1777561209749053200,4.42305322265625,-27.18000030517578,14.9399995803833,26.399999618530273
1777561209759093500,4.433093505859375,-26.279998779296875,16.079999923706055,25.85999870300293
1777561209769164300,4.443164306640625,-25.739999771118164,16.739999771118164,25.139999389648438
1777561209779235000,4.453235107421875,-24.84000015258789,16.979999542236328,24.059999465942383
1777561209789275400,4.463275390625,-26.03999900817871,18.239999771118164,23.51999855041504
1777561209799346200,4.47334619140625,-27.719999313354492,19.31999969482422,22.920000076293945
1777561209809386500,4.483386474609375,-28.85999870300293,19.979999542236328,22.31999969482422
1777561209819457300,4.493457275390625,-29.639999389648438,21.119998931884766,22.3799991607666
1777561209829528000,4.503528076171875,-29.69999885559082,21.600000381469727,22.68000030517578
1777561209859771100,4.533771240234375,-29.34000015258789,22.139999389648438,23.399999618530273
1777561209879943200,4.553943115234375,-26.34000015258789,22.439998626708984,23.279998779296875
1777561209889983500,4.5639833984375,-25.559999465942383,21.420000076293945,23.03999900817871
1777561209900054300,4.57405419921875,-26.15999984741211,20.520000457763672,22.260000228881836
1777561209910094600,4.584094482421875,-27.35999870300293,20.219999313354492,22.19999885559082
1777561209920195800,4.59419580078125,-29.15999984741211,19.559999465942383,22.739999771118164
1777561209950347300,4.62434716796875,-30.53999900817871,19.260000228881836,25.979999542236328
1777561209960448500,4.634448486328125,-29.34000015258789,19.619998931884766,27.119998931884766
1777561209970519300,4.644519287109375,-28.079999923706055,19.19999885559082,27.959999084472656
1777561209980590000,4.654590087890625,-26.219999313354492,18.18000030517578,28.260000228881836
1777561209990660900,4.664660888671875,-24.420000076293945,16.559999465942383,27.84000015258789
1777561210000731600,4.674731689453125,-25.01999855041504,14.460000038146973,27.53999900817871
1777561210010772000,4.68477197265625,-26.03999900817871,13.4399995803833,27.65999984741211
1777561210020873500,4.69487353515625,-27.479999542236328,12.719999313354492,28.439998626708984
1777561210040984300,4.714984375,-28.68000030517578,12.059999465942383,29.939998626708984
1777561210061126100,4.735126220703125,-26.399999618530273,10.019999504089355,31.31999969482422
1777561210071166200,4.745166259765625,-24.65999984741211,9.359999656677246,31.85999870300293
1777561210081237200,4.7552373046875,-23.34000015258789,7.619999885559082,32.040000915527344
1777561210091277300,4.76527734375,-22.68000030517578,5.87999963760376,32.39999771118164
1777561210101317600,4.775317626953125,-23.279998779296875,4.5,31.739999771118164
1777561210111388400,4.785388427734375,-24.65999984741211,2.5799999237060547,31.979999542236328
1777561210121459200,4.795459228515625,-25.3799991607666,1.8600000143051147,31.67999839782715
1777561210151610600,4.825610595703125,-24.959999084472656,1.0799999237060547,32.70000076293945
1777561210171752200,4.845752197265625,-25.619998931884766,-0.47999998927116394,33.119998931884766
1777561210201995300,4.875995361328125,-24,-2.1599998474121094,33.119998931884766
1777561210212035600,4.88603564453125,-22.139999389648438,-3.359999895095825,33.36000061035156
1777561210222106400,4.8961064453125,-20.8799991607666,-4.980000019073486,33.779998779296875
1777561210242217500,4.916217529296875,-21.479999542236328,-6.779999732971191,35.099998474121094
1777561210282500600,4.95650048828125,-23.03999900817871,-8.760000228881836,35.81999969482422
1777561210302642200,4.97664208984375,-20.03999900817871,-10.979999542236328,35.57999801635742
1777561210312682500,4.9866826171875,-19.19999885559082,-12.420000076293945,35.21999740600586
1777561210322753300,4.996753173828125,-18.779998779296875,-14.15999984741211,35.040000915527344
1777561210332824000,5.006823974609375,-19.739999771118164,-14.519999504089355,34.68000030517578
1777561210363036400,5.037036376953125,-22.19999885559082,-15.779999732971191,33.23999786376953
1777561210383178000,5.057177978515625,-20.8799991607666,-16.739999771118164,32.7599983215332
1777561210393187800,5.067187744140625,-19.439998626708984,-16.68000030517578,33.119998931884766
1777561210403289000,5.0772890625,-20.15999984741211,-17.100000381469727,32.81999969482422
1777561210413329400,5.087329345703125,-21,-17.279998779296875,33.41999816894531
1777561210423400200,5.097400146484375,-22.439998626708984,-17.100000381469727,33.36000061035156
1777561210433410000,5.10741015625,-24.65999984741211,-16.619998931884766,33.18000030517578
1777561210483703000,5.157703125,-25.619998931884766,-13.079999923706055,32.939998626708984
1777561210493743000,5.1677431640625,-24.959999084472656,-12.119999885559082,33.959999084472656
1777561210503814100,5.177814208984375,-23.51999855041504,-11.279999732971191,33.540000915527344
1777561210513823700,5.18782373046875,-23.219999313354492,-10.139999389648438,33.959999084472656
1777561210523894500,5.19789453125,-25.079999923706055,-8.819999694824219,33.959999084472656
1777561210533965300,5.20796533203125,-26.099998474121094,-7.5,33.71999740600586
1777561210584258300,5.25825830078125,-25.85999870300293,-0.35999998450279236,34.79999923706055
1777561210594298600,5.268298583984375,-24.84000015258789,0.29999998211860657,35.099998474121094
1777561210604399900,5.27839990234375,-23.100000381469727,1.3799999952316284,34.79999923706055
1777561210614470700,5.288470703125,-23.219999313354492,1.5,34.68000030517578
1777561210624511000,5.298510986328125,-24.059999465942383,2.93999981880188,35.21999740600586
1777561210634551300,5.30855126953125,-25.01999855041504,4.199999809265137,35.099998474121094
1777561210644622000,5.3186220703125,-26.760000228881836,5.279999732971191,35.040000915527344
1777561210654692900,5.32869287109375,-27.65999984741211,6.359999656677246,35.459999084472656
1777561210694945500,5.368945556640625,-26.03999900817871,11.699999809265137,34.91999816894531
1777561210705047000,5.379047119140625,-24.059999465942383,12.59999942779541,34.5
1777561210715117800,5.389117919921875,-22.85999870300293,13.4399995803833,34.13999938964844
1777561210725188600,5.399188720703125,-24,13.979999542236328,33.65999984741211
1777561210735229000,5.40922900390625,-25.559999465942383,15.059999465942383,33.18000030517578
1777561210745269000,5.41926904296875,-27.779998779296875,16.079999923706055,32.70000076293945
1777561210775451000,5.449450927734375,-29.939998626708984,19.020000457763672,30.479999542236328
1777561210785552400,5.459552490234375,-29.459999084472656,19.5,30.239999771118164
1777561210795623200,5.469623046875,-27.779998779296875,20.399999618530273,30
1777561210805724400,5.479724365234375,-26.639999389648438,21.239999771118164,29.69999885559082
1777561210815795200,5.489795166015625,-25.799999237060547,21.53999900817871,28.5
1777561210825896400,5.499896484375,-25.979999542236328,22.559999465942383,27.239999771118164
1777561210835936800,5.509936767578125,-27.84000015258789,23.100000381469727,26.459999084472656
1777561210846038300,5.520038330078125,-28.85999870300293,23.8799991607666,25.920000076293945
1777561210876281000,5.550281005859375,-30.420000076293945,26.099998474121094,25.799999237060547
1777561210896392200,5.57039208984375,-27.059999465942383,26.760000228881836,25.85999870300293
1777561210906463000,5.580462890625,-25.439998626708984,26.219999313354492,25.619998931884766
1777561210916442000,5.590442138671875,-24,26.03999900817871,26.279998779296875
1777561210926543600,5.600543701171875,-24.119998931884766,25.739999771118164,26.69999885559082
1777561210936614400,5.610614501953125,-25.01999855041504,26.03999900817871,26.8799991607666
1777561210946654700,5.62065478515625,-25.68000030517578,26.81999969482422,27.959999084472656
1777561210966796300,5.64079638671875,-27.65999984741211,26.639999389648438,28.559999465942383
1777561210976836600,5.650836669921875,-28.260000228881836,25.559999465942383,28.619998931884766
1777561210986907400,5.660907470703125,-28.3799991607666,25.31999969482422,28.68000030517578
1777561211017089300,5.69108935546875,-24,23.399999618530273,29.639999389648438
1777561211027160000,5.70116015625,-24.479999542236328,22.799999237060547,29.760000228881836
1777561211037230800,5.71123095703125,-25.85999870300293,22.619998931884766,30.059999465942383
1777561211047301600,5.721301513671875,-27.239999771118164,22.739999771118164,30.899999618530273
1777561211057342000,5.731342041015625,-27.35999870300293,22.739999771118164,30.84000015258789
1777561211067443200,5.741443115234375,-26.399999618530273,21.899999618530273,31.619998931884766
1777561211107726300,5.781726318359375,-25.139999389648438,20.579999923706055,34.31999969482422
1777561211127868000,5.801867919921875,-23.219999313354492,18.959999084472656,36.119998931884766
1777561211137938700,5.811938720703125,-22.260000228881836,17.69999885559082,36.41999816894531
1777561211148009500,5.822009521484375,-22.5,16.559999465942383,37.07999801635742
1777561211158049800,5.8320498046875,-22.85999870300293,15.899999618530273,37.439998626708984
1777561211178222000,5.85222216796875,-24,15,38.21999740600586
1777561211218444000,5.892444091796875,-23.15999984741211,11.9399995803833,39.36000061035156
1777561211228545500,5.902545654296875,-22.68000030517578,11.09999942779541,40.07999801635742
1777561211238585900,5.9125859375,-23.03999900817871,9.84000015258789,40.37999725341797
1777561211248656600,5.92265673828125,-23.459999084472656,8.460000038146973,39.959999084472656
1777561211258727400,5.9327275390625,-24.119998931884766,6.899999618530273,40.13999938964844
1777561211268798200,5.942798095703125,-24,4.920000076293945,39.779998779296875
1777561211288909300,5.962909423828125,-22.85999870300293,0.9599999785423279,40.68000030517578
1777561211298980000,5.97297998046875,-21.65999984741211,-1.5,40.55999755859375
1777561211309111800,5.98311181640625,-21.239999771118164,-3.4800000190734863,41.57999801635742
1777561211319182600,5.9931826171875,-21.119998931884766,-5.279999732971191,41.63999938964844
1777561211329253400,6.00325341796875,-21,-7.259999752044678,41.459999084472656
1777561211339324200,6.01332421875,-20.579999923706055,-8.699999809265137,42.18000030517578
1777561211349425700,6.02342578125,-20.399999618530273,-10.139999389648438,41.7599983215332
1777561211359435300,6.033435302734375,-20.100000381469727,-12.65999984741211,40.91999816894531
1777561211369536800,6.043536865234375,-19.979999542236328,-14.039999961853027,40.97999954223633
1777561211399718700,6.07371875,-22.559999465942383,-16.139999389648438,40.02000045776367
1777561211409820000,6.08381982421875,-22.739999771118164,-17.100000381469727,39
1777561211419860200,6.093860107421875,-21.119998931884766,-17.34000015258789,39.23999786376953
1777561211429931000,6.103930908203125,-21.35999870300293,-18.299999237060547,39.36000061035156
1777561211440001800,6.114001708984375,-20.760000228881836,-18.899999618530273,37.68000030517578
1777561211460143400,6.134143310546875,-21.35999870300293,-18,38.39999771118164
1777561211490325200,6.1643251953125,-23.639999389648438,-15.65999984741211,38.21999740600586
1777561211500365600,6.174365478515625,-24.420000076293945,-14.279999732971191,37.73999786376953
1777561211510436400,6.184436279296875,-23.34000015258789,-12.539999961853027,39.540000915527344
1777561211520507100,6.194507080078125,-23.03999900817871,-12.059999465942383,39.23999786376953
1777561211530578000,6.204577880859375,-22.799999237060547,-11.09999942779541,39.779998779296875
1777561211540618200,6.2146181640625,-23.219999313354492,-10.559999465942383,40.20000076293945
1777561211550689000,6.22468896484375,-24,-9.239999771118164,39.89999771118164
1777561211580901400,6.2549013671875,-21.84000015258789,-3.9599997997283936,41.87999725341797
1777561211621154000,6.295154052734375,-20.399999618530273,-0.5399999618530273,42.18000030517578
1777561211651427600,6.325427490234375,-16.979999542236328,3.240000009536743,43.13999938964844
1777561211661498400,6.335498291015625,-15.59999942779541,5.21999979019165,43.86000061035156
1777561211671569200,6.345569091796875,-15.719999313354492,6.659999847412109,43.79999923706055
1777561211691680300,6.36568017578125,-18.479999542236328,10.079999923706055,43.86000061035156
1777561211701720600,6.375720458984375,-19.19999885559082,11.519999504089355,43.07999801635742
1777561211711821800,6.38582177734375,-17.34000015258789,12.899999618530273,42.779998779296875
1777561211721923000,6.395923095703125,-15.59999942779541,13.979999542236328,42.23999786376953
1777561211732024600,6.406024658203125,-15.119999885559082,15.719999313354492,41.70000076293945
1777561211742095400,6.416095458984375,-15.239999771118164,17.279998779296875,41.70000076293945
1777561211752135700,6.4261357421875,-17.279998779296875,18.779998779296875,40.79999923706055
1777561211762237000,6.43623681640625,-18.779998779296875,19.979999542236328,40.20000076293945
1777561211772277200,6.44627734375,-19.079999923706055,21.239999771118164,39.959999084472656
1777561211782348000,6.45634814453125,-19.5,22.139999389648438,39.119998931884766
1777561211842711800,6.5167119140625,-17.69999885559082,26.760000228881836,35.39999771118164
1777561211893035300,6.56703515625,-16.68000030517578,25.5,35.81999969482422
1777561211963500300,6.637500244140625,-18.420000076293945,16.619998931884766,41.15999984741211
1777561211993682200,6.66768212890625,-11.039999961853027,12.119999885559082,42.18000030517578
1777561212013823700,6.68782373046875,-9.719999313354492,9.960000038146973,41.7599983215332
1777561212023833600,6.69783349609375,-11.460000038146973,8.760000228881836,41.81999969482422
1777561212033904400,6.707904296875,-12.779999732971191,7.5,41.459999084472656
1777561212044005600,6.718005615234375,-14.880000114440918,6.599999904632568,41.52000045776367
1777561212074157000,6.748156982421875,-15.899999618530273,2.5799999237060547,44.21999740600586
1777561212084197400,6.758197265625,-16.020000457763672,0.41999998688697815,44.70000076293945
1777561212094298600,6.768298583984375,-15.479999542236328,-0.5399999618530273,45.47999954223633
1777561212124572200,6.798572265625,-12.59999942779541,-4.380000114440918,45.29999923706055
1777561212144683300,6.818683349609375,-9,-6.119999885559082,45.23999786376953
1777561212154723300,6.828723388671875,-6.599999904632568,-7.37999963760376,45.18000030517578
1777561212174865200,6.848865234375,-2.759999990463257,-9.479999542236328,44.7599983215332
1777561212215148300,6.889148193359375,-3.059999942779541,-13.619999885559082,42.89999771118164
1777561212225219000,6.899218994140625,-3.8999998569488525,-14.039999961853027,42.47999954223633
1777561212235320300,6.9093203125,-3.4800000190734863,-13.319999694824219,42.71999740600586
1777561212245360600,6.919360595703125,-3.7200000286102295,-13.619999885559082,43.31999969482422
1777561212275603500,6.949603515625,-2.6399998664855957,-14.819999694824219,41.63999938964844
1777561212305816000,6.979816162109375,-0.29999998211860657,-15.960000038146973,41.279998779296875
1777561212315856400,6.9898564453125,1.0199999809265137,-16.440000534057617,41.459999084472656
1777561212325927200,6.99992724609375,2.0999999046325684,-15.960000038146973,42.119998931884766
1777561212336028400,7.0100283203125,1.1999999284744263,-15.65999984741211,42.23999786376953
1777561212346099200,7.02009912109375,0.29999998211860657,-15.179999351501465,42.23999786376953
1777561212356170000,7.030169921875,-1.6200000047683716,-14.09999942779541,42.36000061035156
1777561212376220200,7.05022021484375,-2.879999876022339,-13.25999927520752,41.099998474121094
1777561212386291000,7.060291015625,-3.059999942779541,-11.819999694824219,41.81999969482422
1777561212406402000,7.080402099609375,0.17999999225139618,-9.779999732971191,43.02000045776367
1777561212416503300,7.09050341796875,2.0999999046325684,-9.359999656677246,43.37999725341797
1777561212436614400,7.110614501953125,2.5199999809265137,-8.9399995803833,41.939998626708984
1777561212446654700,7.12065478515625,1.5,-8.09999942779541,41.87999725341797
1777561212456725500,7.1307255859375,0.23999999463558197,-6.71999979019165,41.81999969482422
1777561212486907400,7.160907470703125,0.41999998688697815,-1.6799999475479126,43.68000030517578
1777561212527160000,7.20116015625,1.7400000095367432,2.2799999713897705,42.36000061035156
1777561212537230800,7.21123095703125,2.819999933242798,3.059999942779541,41.70000076293945
1777561212547271200,7.221271240234375,3.8399999141693115,3.9599997997283936,41.459999084472656
1777561212557372400,7.231372314453125,3,4.920000076293945,41.39999771118164
1777561212567443200,7.241443115234375,0.7799999713897705,5.87999963760376,40.55999755859375
1777561212627776500,7.301776611328125,-1.3199999332427979,11.819999694824219,40.97999954223633
1777561212637816800,7.31181689453125,0,12.479999542236328,40.79999923706055
1777561212647857000,7.32185693359375,0.23999999463558197,13.25999927520752,40.439998626708984
1777561212657927700,7.331927734375,-0.7799999713897705,13.4399995803833,39.23999786376953
1777561212667998700,7.341998779296875,-2.0399999618530273,14.039999961853027,38.81999969482422
1777561212688109600,7.362109619140625,-4.920000076293945,14.880000114440918,36.599998474121094
1777561212698211000,7.372211181640625,-5.460000038146973,16.260000228881836,35.880001068115234
1777561212708312300,7.382312255859375,-5.039999961853027,16.979999542236328,35.7599983215332
1777561212718383000,7.392383056640625,-4.139999866485596,17.8799991607666,35.52000045776367
1777561212728423400,7.40242333984375,-4.139999866485596,19.139999389648438,35.880001068115234
1777561212738494200,7.412494140625,-3.5999999046325684,18.600000381469727,35.63999938964844
1777561212748534500,7.422534423828125,-4.799999713897705,20.100000381469727,35.880001068115234
1777561212758605300,7.432605224609375,-6.359999656677246,20.100000381469727,35.099998474121094
1777561212768645600,7.442645751953125,-7.980000019073486,19.85999870300293,35.21999740600586
1777561212798858000,7.47285791015625,-10.979999542236328,20.639999389648438,33.959999084472656
1777561212818999600,7.49299951171875,-8.220000267028809,21.299999237060547,32.939998626708984
1777561212829070300,7.5030703125,-6.480000019073486,21.65999984741211,33.18000030517578
1777561212839110700,7.513110595703125,-5.21999979019165,22.19999885559082,33.779998779296875
1777561212849181400,7.523181396484375,-4.559999942779541,22.920000076293945,34.79999923706055
1777561212859252200,7.533252197265625,-5.159999847412109,22.31999969482422,33.36000061035156
1777561212869292500,7.54329248046875,-6.059999942779541,22.439998626708984,33.05999755859375
1777561212889434000,7.56343408203125,-8.460000038146973,21.959999084472656,31.85999870300293
1777561212909575700,7.58357568359375,-8.039999961853027,22.31999969482422,33
1777561212919677200,7.59367724609375,-6.659999847412109,21.600000381469727,33.41999816894531
1777561212929748000,7.603748046875,-4.619999885559082,21.299999237060547,33.18000030517578
1777561212939849200,7.61384912109375,-4.559999942779541,21.119998931884766,33.47999954223633
1777561212949889500,7.6238896484375,-5.639999866485596,20.03999900817871,32.880001068115234
1777561212959960300,7.633960205078125,-7.199999809265137,19.920000076293945,32.880001068115234
1777561212970000600,7.644000732421875,-8.220000267028809,19.619998931884766,33.119998931884766
1777561212980071400,7.654071533203125,-8.15999984741211,19.85999870300293,33.47999954223633
1777561212990111700,7.66411181640625,-7.619999885559082,19.739999771118164,33.89999771118164
1777561213000213000,7.674212890625,-6.359999656677246,19.739999771118164,34.13999938964844
1777561213030364400,7.704364501953125,-3.6599998474121094,17.459999084472656,33.959999084472656
1777561213050506000,7.724506103515625,0.29999998211860657,17.03999900817871,34.86000061035156
1777561213060576800,7.73457666015625,1.2599999904632568,16.440000534057617,35.040000915527344
1777561213070647600,7.7446474609375,1.5,16.68000030517578,35.34000015258789
1777561213080748800,7.754748779296875,1.7999999523162842,16.5,36
1777561213110961200,7.784961181640625,-1.9199999570846558,15.059999465942383,36.18000030517578
1777561213141143000,7.81514306640625,-1.0199999809265137,12.479999542236328,37.91999816894531
1777561213151183400,7.825183349609375,1.1399999856948853,11.519999504089355,38.939998626708984
1777561213161284600,7.83528466796875,3.179999828338623,10.079999923706055,38.81999969482422
1777561213171325000,7.845324951171875,5.21999979019165,9.479999542236328,38.87999725341797
1777561213181395700,7.855395751953125,7.079999923706055,9.239999771118164,38.87999725341797
1777561213201476400,7.875476318359375,7.980000019073486,8.039999961853027,36.779998779296875
1777561213231627800,7.905627685546875,5.159999847412109,8.579999923706055,36.65999984741211
1777561213241729000,7.91572900390625,4.920000076293945,8.9399995803833,36.779998779296875
1777561213251769300,7.925769287109375,5.819999694824219,9.539999961853027,37.380001068115234
1777561213261840100,7.935840087890625,6.299999713897705,9.539999961853027,37.73999786376953
1777561213271941400,7.94594140625,6.71999979019165,9.59999942779541,38.39999771118164
1777561213282012200,7.95601220703125,7.559999942779541,9.960000038146973,38.34000015258789
1777561213292083200,7.966083251953125,8.579999923706055,10.019999504089355,37.68000030517578
1777561213312224800,7.986224853515625,10.260000228881836,10.079999923706055,36.71999740600586
1777561213332396800,8.006396728515625,8.15999984741211,9.119999885559082,35.880001068115234
1777561213342437000,8.01643701171875,7.799999713897705,8.9399995803833,35.81999969482422
1777561213352477400,8.0264775390625,7.259999752044678,8.9399995803833,35.279998779296875
1777561213362548200,8.03654833984375,8.220000267028809,9.059999465942383,35.7599983215332
1777561213372588500,8.046588623046874,8.399999618530273,9.119999885559082,36
1777561213382689800,8.056689697265625,7.859999656677246,8.880000114440918,35.63999938964844
1777561213392699600,8.06669970703125,7.679999828338623,9.420000076293945,35.880001068115234
1777561213412871700,8.08687158203125,4.739999771118164,10.139999389648438,35.63999938964844
1777561213422973000,8.096972900390625,3.299999952316284,10.380000114440918,35.7599983215332
1777561213443114500,8.117114501953125,2.1599998474121094,11.039999961853027,36.29999923706055
1777561213453185300,8.127185302734375,2.2799999713897705,10.139999389648438,35.81999969482422
1777561213463195100,8.137195068359375,3.240000009536743,9.899999618530273,35.63999938964844
1777561213473266000,8.147265869140625,3.419999837875366,9.420000076293945,35.81999969482422
1777561213483367200,8.1573671875,2.2200000286102295,9.119999885559082,34.86000061035156
1777561213493377000,8.167376953125,0.6599999666213989,9.84000015258789,35.459999084472656
1777561213503478300,8.177478271484375,-1.7400000095367432,10.619999885559082,35.279998779296875
1777561213523619800,8.197619873046875,-3.8399999141693115,10.920000076293945,35.63999938964844
1777561213533629700,8.207629638671875,-4.199999809265137,10.800000190734863,34.79999923706055
1777561213543731000,8.21773095703125,-3.6599998474121094,11.460000038146973,35.52000045776367
1777561213553832400,8.22783251953125,-3.419999837875366,12,35.63999938964844
1777561213563903200,8.2379033203125,-3.6599998474121094,12.539999961853027,36.29999923706055
1777561213573943600,8.247943603515624,-3.359999895095825,12.539999961853027,36.29999923706055
1777561213584014300,8.258014404296874,-4.559999942779541,11.399999618530273,34.86000061035156
1777561213594085000,8.268085205078124,-6.839999675750732,11.219999313354492,34.68000030517578
1777561213604186400,8.278186279296875,-8.34000015258789,11.75999927520752,34.13999938964844
1777561213614287600,8.28828759765625,-9.899999618530273,12.59999942779541,34.5
1777561213644469500,8.318469482421875,-10.859999656677246,14.399999618530273,33.29999923706055
1777561213654509800,8.328509765625,-10.559999465942383,14.699999809265137,32.57999801635742
1777561213664580600,8.33858056640625,-9.84000015258789,15.65999984741211,32.7599983215332
1777561213674651400,8.3486513671875,-8.699999809265137,15.719999313354492,31.5
1777561213684722200,8.35872216796875,-10.019999504089355,16.5,30.959999084472656
1777561213694793000,8.36879296875,-11.880000114440918,16.799999237060547,30.239999771118164
1777561213704802800,8.378802734375,-14.15999984741211,16.19999885559082,29.219999313354492
1777561213724944400,8.3989443359375,-17.8799991607666,17.520000457763672,29.03999900817871
1777561213745055500,8.419055419921875,-18,19.559999465942383,29.099998474121094
1777561213755126300,8.429126220703125,-17.639999389648438,19.85999870300293,29.03999900817871
1777561213765197000,8.439197021484375,-17.15999984741211,19.020000457763672,28.31999969482422
1777561213775237400,8.4492373046875,-17.100000381469727,18.600000381469727,27.84000015258789
1777561213785277700,8.459277587890625,-18.84000015258789,18.65999984741211,27.299999237060547
1777561213795348500,8.469348388671875,-20.760000228881836,18.899999618530273,26.579999923706055
1777561213805419300,8.479419189453125,-22.68000030517578,20.279998779296875,26.579999923706055
1777561213825560800,8.499560791015625,-24.299999237060547,21.119998931884766,24.239999771118164
1777561213845763600,8.519763671875,-22.619998931884766,21.479999542236328,22.739999771118164
1777561213855864800,8.52986474609375,-20.760000228881836,22.559999465942383,23.760000228881836
1777561213865905200,8.5399052734375,-19.739999771118164,22.979999542236328,24.18000030517578
1777561213875976000,8.549975830078125,-18.53999900817871,23.219999313354492,23.81999969482422
1777561213886046700,8.560046630859375,-19.3799991607666,23.15999984741211,23.639999389648438
1777561213896087000,8.570087158203124,-21.18000030517578,23.219999313354492,22.559999465942383
1777561213906127400,8.58012744140625,-22.739999771118164,22.85999870300293,21.479999542236328
1777561213936400600,8.610400634765625,-24.959999084472656,23.69999885559082,20.520000457763672
1777561213946471400,8.620471435546875,-24.239999771118164,24.479999542236328,20.399999618530273
1777561213956542200,8.630542236328125,-23.100000381469727,24.65999984741211,20.100000381469727
1777561213966613000,8.640613037109375,-21.53999900817871,24.600000381469727,20.03999900817871
1777561213976684000,8.65068408203125,-20.399999618530273,24.53999900817871,20.34000015258789
1777561213986724000,8.66072412109375,-19.139999389648438,24.299999237060547,20.279998779296875
1777561213996764400,8.670764404296875,-19.739999771118164,24.53999900817871,20.399999618530273
1777561214006835200,8.680835205078125,-20.69999885559082,24.959999084472656,20.03999900817871
1777561214016906000,8.690906005859375,-21.420000076293945,25.139999389648438,19.439998626708984
1777561214057219800,8.7312197265625,-22.5,26.279998779296875,20.34000015258789
1777561214077331000,8.7513310546875,-20.459999084472656,26.760000228881836,20.81999969482422
1777561214087401700,8.761401611328125,-19.19999885559082,26.639999389648438,21.35999870300293
1777561214097472500,8.771472412109375,-18.299999237060547,26.69999885559082,21.600000381469727
1777561214107543300,8.781543212890625,-18.119998931884766,26.459999084472656,21.35999870300293
1777561214117583600,8.79158349609375,-18.779998779296875,26.81999969482422,21.84000015258789
1777561214137694700,8.81169482421875,-20.100000381469727,26.939998626708984,22.3799991607666
1777561214157866800,8.83186669921875,-18.719999313354492,27.059999465942383,23.760000228881836
1777561214167937500,8.8419375,-16.619998931884766,26.639999389648438,24.420000076293945
1777561214178008300,8.85200830078125,-15.119999885559082,26.15999984741211,24.84000015258789
1777561214188079000,8.8620791015625,-13.859999656677246,25.5,25.920000076293945
1777561214198150000,8.87214990234375,-13.619999885559082,24.239999771118164,25.3799991607666
1777561214208220700,8.882220703125,-14.519999504089355,23.8799991607666,25.739999771118164
1777561214218291500,8.89229150390625,-15.359999656677246,23.459999084472656,25.68000030517578
1777561214248504000,8.922504150390624,-15.779999732971191,23.399999618530273,25.619998931884766
1777561214268645600,8.942645751953124,-14.039999961853027,23.279998779296875,27.119998931884766
1777561214278747000,8.952746826171875,-13.079999923706055,22.68000030517578,27.299999237060547
1777561214288817700,8.962817626953125,-12.059999465942383,22.439998626708984,28.439998626708984
1777561214298888400,8.972888427734375,-12.239999771118164,21.65999984741211,29.69999885559082
1777561214308959200,8.982959228515625,-13.739999771118164,20.939998626708984,30
1777561214319030000,8.993030029296875,-15.359999656677246,20.760000228881836,31.559999465942383
1777561214329100800,9.003100830078125,-17.219999313354492,19.85999870300293,32.34000015258789
1777561214359313400,9.0333134765625,-16.19999885559082,18.600000381469727,34.20000076293945
1777561214369384200,9.04338427734375,-13.380000114440918,18.479999542236328,34.86000061035156
1777561214379455000,9.053455078125,-11.75999927520752,17.69999885559082,34.79999923706055
1777561214389525800,9.06352587890625,-8.9399995803833,17.34000015258789,35.040000915527344
1777561214399596500,9.073596435546875,-7.139999866485596,16.799999237060547,35.70000076293945
1777561214409667300,9.083667236328125,-6.899999618530273,16.079999923706055,35.52000045776367
1777561214419738000,9.093738037109375,-6.359999656677246,15.479999542236328,35.279998779296875
1777561214429809000,9.103808837890625,-7.37999963760376,14.639999389648438,35.34000015258789
1777561214449950500,9.123950439453125,-9.719999313354492,14.039999961853027,35.70000076293945
1777561214460021200,9.134021240234375,-10.619999885559082,14.579999923706055,36.65999984741211
1777561214470092000,9.144092041015625,-10.920000076293945,14.519999504089355,36.779998779296875
1777561214480193500,9.154193603515624,-8.579999923706055,14.279999732971191,36.41999816894531
1777561214490264300,9.164264404296874,-6.839999675750732,13.5,36.540000915527344
1777561214500304400,9.174304443359375,-5.87999963760376,12.300000190734863,35.939998626708984
1777561214510375400,9.18437548828125,-5.339999675750732,12.300000190734863,36.29999923706055
1777561214520446200,9.1944462890625,-6.779999732971191,11.880000114440918,36.18000030517578
1777561214570769700,9.244769775390624,-8.399999618530273,12.960000038146973,35.70000076293945
1777561214590880800,9.264880859375,-7.199999809265137,13.559999465942383,36.47999954223633
1777561214600951600,9.27495166015625,-5.339999675750732,13.859999656677246,36.89999771118164
1777561214611052800,9.285052734375,-4.980000019073486,13.799999237060547,36.89999771118164
1777561214621123600,9.29512353515625,-6,13.859999656677246,36.41999816894531
1777561214631224800,9.305224853515625,-6.599999904632568,14.34000015258789,35.70000076293945
1777561214651366400,9.325366455078125,-9.65999984741211,14.75999927520752,34.619998931884766
1777561214671508200,9.34550830078125,-9.719999313354492,15.899999618530273,35.70000076293945
1777561214681517800,9.355517822265625,-9,16.020000457763672,36.05999755859375
1777561214691619300,9.365619384765624,-7.859999656677246,16.19999885559082,36.599998474121094
1777561214701690000,9.375690185546874,-6.960000038146973,16.3799991607666,36.05999755859375
1777561214711730200,9.385730224609375,-8.699999809265137,16.799999237060547,35.81999969482422
1777561214721770500,9.3957705078125,-9.420000076293945,16.979999542236328,35.880001068115234
1777561214731841300,9.40584130859375,-11.639999389648438,18.18000030517578,35.939998626708984
1777561214772155100,9.446155029296875,-14.699999809265137,20.69999885559082,34.79999923706055
1777561214782226000,9.456225830078125,-14.399999618530273,21.059999465942383,33.959999084472656
1777561214792235800,9.46623583984375,-13.979999542236328,22.439998626708984,33.959999084472656
1777561214802306600,9.476306640625,-13.4399995803833,23.51999855041504,33
1777561214812377300,9.48637744140625,-12.65999984741211,24.35999870300293,32.099998474121094
1777561214822417700,9.496417724609374,-11.699999809265137,25.079999923706055,31.079999923706055
1777561214832488400,9.506488525390624,-11.039999961853027,24.53999900817871,28.85999870300293
1777561214862700800,9.53670068359375,-10.5,25.5,26.279998779296875
1777561214882842400,9.55684228515625,-11.579999923706055,28.079999923706055,24.959999084472656
1777561214892913200,9.5669130859375,-11.399999618530273,28.3799991607666,23.760000228881836
1777561214903014400,9.577014404296875,-11.880000114440918,30.059999465942383,23.34000015258789
1777561214913085200,9.587085205078125,-10.380000114440918,30.65999984741211,22.619998931884766
1777561214923125500,9.59712548828125,-9.960000038146973,31.739999771118164,21.420000076293945
1777561214933196300,9.6071962890625,-10.979999542236328,32.880001068115234,19.979999542236328
1777561214973449000,9.647448974609375,-13.739999771118164,35.939998626708984,14.519999504089355
1777561214983519700,9.657519775390625,-14.34000015258789,36.599998474121094,13.619999885559082
1777561214993590500,9.667590576171875,-14.519999504089355,36.540000915527344,12
1777561215003661600,9.67766162109375,-14.34000015258789,36.47999954223633,11.039999961853027
1777561215013762800,9.6877626953125,-14.75999927520752,35.63999938964844,10.019999504089355
1777561215023833600,9.69783349609375,-13.679999351501465,34.91999816894531,8.699999809265137
1777561215033934800,9.707934814453125,-14.399999618530273,34.13999938964844,7.259999752044678
1777561215064147200,9.738147216796875,-16.559999465942383,33.47999954223633,3.8999998569488525
1777561215074248700,9.748248779296874,-17.459999084472656,33.779998779296875,3.240000009536743
1777561215084288800,9.758288818359375,-18.299999237060547,33.540000915527344,2.0999999046325684
1777561215104400000,9.77839990234375,-18.899999618530273,33.779998779296875,-0.29999998211860657
1777561215114501400,9.78850146484375,-18.059999465942383,33.84000015258789,-0.7799999713897705
1777561215124602600,9.7986025390625,-18.479999542236328,33.65999984741211,-1.0799999237060547
1777561215134673400,9.80867333984375,-18,33.84000015258789,-0.9599999785423279
1777561215144683300,9.818683349609374,-17.639999389648438,34.20000076293945,-0.9599999785423279
1777561215164794400,9.83879443359375,-16.31999969482422,35.15999984741211,-0.8399999737739563
1777561215174865200,9.848865234375,-16.5,35.21999740600586,-1.0199999809265137
1777561215184844300,9.85884423828125,-17.520000457763672,34.91999816894531,-1.3199999332427979
1777561215225097000,9.899096923828125,-21.959999084472656,34.86000061035156,0
1777561215235198200,9.9091982421875,-20.69999885559082,34.68000030517578,0.41999998688697815
1777561215245238500,9.919238525390625,-18.779998779296875,34.380001068115234,2.0999999046325684
1777561215255309300,9.929309326171875,-17.8799991607666,33.959999084472656,4.199999809265137
1777561215265349600,9.939349609375,-16.31999969482422,34.07999801635742,6.480000019073486
1777561215275420400,9.94942041015625,-14.579999923706055,33.599998474121094,9
1777561215345855000,10.01985498046875,-6.599999904632568,36.18000030517578,21.299999237060547
1777561215355956500,10.02995654296875,-9.119999885559082,36,24.239999771118164
1777561215386107600,10.060107666015625,-15.779999732971191,29.51999855041504,31.5
1777561215406280000,10.080280029296874,-17.8799991607666,23.639999389648438,33.36000061035156
1777561215416350700,10.090350830078124,-18.420000076293945,21.35999870300293,33.36000061035156
1777561215436492300,10.1104921875,-18.059999465942383,17.279998779296875,35.57999801635742
1777561215446563000,10.12056298828125,-18.18000030517578,15.65999984741211,36
1777561215456633900,10.1306337890625,-18.420000076293945,14.399999618530273,36.65999984741211
1777561215476775400,10.150775390625,-19.5,13.139999389648438,36.540000915527344
1777561215496917000,10.1709169921875,-17.940000534057617,13.4399995803833,37.439998626708984
1777561215506987800,10.18098779296875,-16.19999885559082,13.199999809265137,38.279998779296875
1777561215517089300,10.19108935546875,-15.420000076293945,13.139999389648438,38.939998626708984
1777561215527129300,10.20112939453125,-14.219999313354492,12.719999313354492,40.02000045776367
1777561215537200400,10.211200439453124,-13.199999809265137,12.65999984741211,39.779998779296875
1777561215547271200,10.221271240234374,-13.559999465942383,12.179999351501465,40.02000045776367
1777561215557372400,10.231372314453125,-13.25999927520752,12.119999885559082,39.18000030517578
1777561215567443200,10.241443115234375,-13.739999771118164,11.519999504089355,37.619998931884766
1777561215587584800,10.261584716796875,-14.639999389648438,11.75999927520752,36.84000015258789
1777561215607756800,10.2817568359375,-12.779999732971191,12.960000038146973,39.41999816894531
1777561215617858300,10.2918583984375,-11.219999313354492,12.479999542236328,39.36000061035156
1777561215637999900,10.311999755859375,-8.279999732971191,11.579999923706055,40.37999725341797
1777561215648070700,10.322070556640625,-8.519999504089355,11.34000015258789,40.37999725341797
1777561215658141400,10.332141357421875,-8.220000267028809,11.039999961853027,40.68000030517578
1777561215668181800,10.342181640625,-9,11.15999984741211,40.5
1777561215688323300,10.3623232421875,-9.84000015258789,11.09999942779541,39.779998779296875
1777561215708434400,10.382434326171875,-10.859999656677246,11.639999389648438,40.02000045776367
1777561215718535700,10.39253564453125,-11.399999618530273,12.179999351501465,40.37999725341797
1777561215728606500,10.4026064453125,-11.819999694824219,13.25999927520752,41.15999984741211
1777561215738677200,10.41267724609375,-12.420000076293945,14.219999313354492,40.439998626708984
1777561215748748000,10.422748046875,-12.59999942779541,14.9399995803833,40.02000045776367
1777561215758818800,10.43281884765625,-12.84000015258789,15.59999942779541,39.65999984741211
1777561215768889600,10.4428896484375,-13.079999923706055,16.739999771118164,39.36000061035156
1777561215799102200,10.473102294921874,-12.960000038146973,20.15999984741211,36.71999740600586
1777561215819274200,10.493274169921875,-14.460000038146973,23.399999618530273,34.13999938964844
1777561215829314600,10.503314453125,-15.059999465942383,25.739999771118164,34.02000045776367
1777561215839385300,10.51338525390625,-15.299999237060547,27.479999542236328,32.040000915527344
1777561215849395200,10.523395263671874,-14.639999389648438,28.85999870300293,30.299999237060547
1777561215859466000,10.533466064453124,-14.279999732971191,30.299999237060547,28.920000076293945
1777561215869506000,10.543506103515625,-13.679999351501465,31.67999839782715,28.19999885559082
1777561215919890700,10.593890625,-10.380000114440918,34.86000061035156,22.139999389648438
1777561215940032300,10.6140322265625,-9.65999984741211,36.41999816894531,19.439998626708984
1777561215950103000,10.62410302734375,-9.119999885559082,36.29999923706055,18
1777561215960173800,10.634173828125,-9.239999771118164,36.89999771118164,16.85999870300293
1777561215970244600,10.64424462890625,-10.319999694824219,37.02000045776367,14.639999389648438
1777561215980285000,10.654284912109375,-10.859999656677246,37.439998626708984,13.679999351501465
1777561216000396000,10.67439599609375,-12.59999942779541,37.2599983215332,10.559999465942383
1777561216010497300,10.684497314453125,-13.019999504089355,37.380001068115234,10.199999809265137
1777561216030639000,10.70463916015625,-14.639999389648438,37.13999938964844,7.559999942779541
1777561216040710000,10.7147099609375,-15.239999771118164,37.79999923706055,7.139999866485596
1777561216050780700,10.72478076171875,-15.779999732971191,37.619998931884766,5.940000057220459
1777561216060851500,10.7348515625,-17.399999618530273,37.55999755859375,4.799999713897705
1777561216070922200,10.744922119140625,-19.079999923706055,38.040000915527344,4.859999656677246
1777561216080993000,10.754992919921875,-20.279998779296875,37.97999954223633,4.199999809265137
1777561216101134600,10.775134521484375,-22.260000228881836,37.439998626708984,2.759999990463257
1777561216121306600,10.795306640625,-22.19999885559082,36.540000915527344,2.2200000286102295
1777561216131347000,10.805346923828125,-21.239999771118164,36.71999740600586,3.419999837875366
1777561216141417700,10.815417724609375,-20.219999313354492,36.36000061035156,4.319999694824219
1777561216151458000,10.8254580078125,-19.31999969482422,36.36000061035156,4.319999694824219
1777561216161528800,10.83552880859375,-20.399999618530273,36.959999084472656,6.119999885559082
1777561216171599600,10.845599609375,-21.299999237060547,36.959999084472656,6.71999979019165
1777561216181701000,10.855701171875,-22.020000457763672,37.5,8.220000267028809
1777561216191772000,10.86577197265625,-22.139999389648438,37.619998931884766,10.559999465942383
1777561216232024600,10.906024658203124,-16.3799991607666,36.540000915527344,17.279998779296875
1777561216242095400,10.916095458984374,-14.15999984741211,35.939998626708984,18.35999870300293
1777561216252166100,10.926166259765624,-13.619999885559082,35.15999984741211,19.559999465942383
1777561216262237000,10.93623681640625,-14.34000015258789,34.31999969482422,20.69999885559082
1777561216272307700,10.9463076171875,-15.239999771118164,34.13999938964844,22.19999885559082
1777561216282378500,10.95637841796875,-15.960000038146973,34.31999969482422,24.239999771118164
1777561216302550500,10.976550537109375,-16.920000076293945,33.29999923706055,28.079999923706055
1777561216332732400,11.006732421875,-15.179999351501465,29.51999855041504,35.15999984741211
1777561216342803200,11.01680322265625,-13.799999237060547,27.959999084472656,36.71999740600586
1777561216352874000,11.0268740234375,-13.979999542236328,25.979999542236328,38.34000015258789
1777561216362944800,11.03694482421875,-15.420000076293945,24.35999870300293,38.63999938964844
1777561216373015800,11.047015869140624,-17.520000457763672,23.03999900817871,39.779998779296875
1777561216383117000,11.057116943359375,-19.19999885559082,21.299999237060547,40.73999786376953
1777561216393187800,11.067187744140625,-20.15999984741211,19.079999923706055,41.099998474121094
1777561216433471000,11.107470947265625,-19.5,14.039999961853027,42.540000915527344
1777561216443541800,11.117541748046875,-17.8799991607666,13.079999923706055,42.65999984741211
1777561216453612500,11.127612548828125,-16.68000030517578,12.300000190734863,43.439998626708984
1777561216463714000,11.137714111328124,-15.65999984741211,11.819999694824219,44.15999984741211
1777561216473815300,11.147815185546875,-15.65999984741211,11.819999694824219,45.18000030517578
1777561216483886000,11.157885986328125,-16.079999923706055,11.699999809265137,45.47999954223633
1777561216493926400,11.167926513671874,-16.739999771118164,11.34000015258789,45.18000030517578
1777561216503936000,11.17793603515625,-16.739999771118164,11.09999942779541,45.119998931884766
1777561216534179000,11.208178955078125,-17.15999984741211,10.979999542236328,45.779998779296875
1777561216544219400,11.218219482421874,-15.179999351501465,10.859999656677246,46.37999725341797
1777561216554320600,11.228320556640625,-13.079999923706055,10.559999465942383,46.73999786376953
1777561216564391400,11.238391357421875,-11.279999732971191,10.319999694824219,46.97999954223633
1777561216574462200,11.248462158203125,-10.559999465942383,8.579999923706055,46.5
1777561216584502500,11.25850244140625,-11.880000114440918,7.919999599456787,46.2599983215332
1777561216594603800,11.268603759765625,-13.139999389648438,7.739999771118164,46.07999801635742
1777561216634826000,11.308825927734375,-14.75999927520752,8.639999389648438,48.959999084472656
1777561216654967600,11.328967529296875,-11.460000038146973,9.119999885559082,49.86000061035156
1777561216665038300,11.339038330078125,-10.079999923706055,8.699999809265137,49.97999954223633
1777561216675139800,11.349139892578124,-11.399999618530273,7.739999771118164,48.65999984741211
1777561216685241000,11.359240966796875,-13.25999927520752,7.5,48.18000030517578
1777561216695312000,11.369311767578125,-14.219999313354492,8.279999732971191,47.099998474121094
1777561216715392500,11.389392578125,-15.539999961853027,10.679999351501465,46.13999938964844
1777561216745604900,11.41960498046875,-14.639999389648438,15.839999198913574,44.52000045776367
1777561216755675600,11.429675537109375,-14.15999984741211,17.639999389648438,43.73999786376953
1777561216765746400,11.439746337890625,-13.739999771118164,19.3799991607666,42.599998474121094
1777561216775756300,11.44975634765625,-12.179999351501465,20.760000228881836,41.87999725341797
1777561216785827000,11.4598271484375,-11.399999618530273,22.260000228881836,40.619998931884766
1777561216795897900,11.46989794921875,-10.380000114440918,23.399999618530273,40.07999801635742
1777561216836242000,11.510241943359375,-9.239999771118164,27.53999900817871,35.39999771118164
1777561216846312700,11.520312744140625,-9.960000038146973,29.639999389648438,34.439998626708984
1777561216856383500,11.530383544921875,-10.679999351501465,31.139999389648438,33.36000061035156
1777561216866423800,11.540423828125,-9.84000015258789,33.41999816894531,32.040000915527344
1777561216876464000,11.550464111328125,-10.019999504089355,35.099998474121094,30.719999313354492
1777561216886535000,11.560534912109375,-9.479999542236328,36.41999816894531,29.219999313354492
1777561216896605700,11.570605712890625,-8.9399995803833,38.15999984741211,27.719999313354492
1777561216926818300,11.600818359375,-10.739999771118164,40.86000061035156,21.299999237060547
1777561216946990300,11.620990234375,-11.399999618530273,42.71999740600586,16.139999389648438
1777561216957061000,11.63106103515625,-9.960000038146973,43.31999969482422,14.09999942779541
1777561216967162400,11.641162353515625,-8.34000015258789,43.55999755859375,11.519999504089355
1777561216977233200,11.651233154296875,-7.319999694824219,43.68000030517578,10.260000228881836
1777561216987334700,11.661334716796874,-7.259999752044678,44.39999771118164,8.399999618530273
1777561216997405400,11.671405517578124,-8.220000267028809,44.39999771118164,6.599999904632568
1777561217007506700,11.681506591796875,-8.880000114440918,44.87999725341797,5.400000095367432
1777561217037688600,11.7116884765625,-13.319999694824219,44.15999984741211,1.8600000143051147
1777561217077910800,11.751910888671874,-15.65999984741211,43.31999969482422,-0.41999998688697815
1777561217098022000,11.77202197265625,-15.299999237060547,42.65999984741211,-1.6799999475479126
1777561217108123100,11.782123046875,-15.779999732971191,42.05999755859375,-1.8600000143051147
1777561217148406300,11.82240625,-21.959999084472656,42.71999740600586,1.1399999856948853
1777561217158477000,11.83247705078125,-21.18000030517578,43.07999801635742,2.879999876022339
1777561217168547800,11.8425478515625,-20.100000381469727,43.2599983215332,4.980000019073486
1777561217178618600,11.85261865234375,-18.719999313354492,42.41999816894531,6.71999979019165
1777561217188689400,11.862689453125,-19.19999885559082,41.459999084472656,8.519999504089355
1777561217198760400,11.872760498046874,-20.15999984741211,41.279998779296875,10.319999694824219
1777561217208861700,11.88286181640625,-21.35999870300293,40.86000061035156,12.239999771118164
1777561217218932500,11.892932373046875,-22.5,40.68000030517578,13.920000076293945
1777561217239043600,11.913043701171874,-22.619998931884766,39.41999816894531,17.15999984741211
1777561217259154700,11.93315478515625,-19.439998626708984,38.099998474121094,21.420000076293945
1777561217269195000,11.943195068359374,-17.100000381469727,36.779998779296875,22.439998626708984
1777561217279265800,11.953265869140624,-15.119999885559082,35.7599983215332,24.719999313354492
1777561217289336600,11.963336669921874,-13.679999351501465,34.73999786376953,24.65999984741211
1777561217299437800,11.973437744140625,-12.779999732971191,33,25.68000030517578
1777561217309508600,11.983508544921875,-13.4399995803833,33,27.299999237060547
1777561217319579400,11.993579345703125,-14.399999618530273,32.7599983215332,28.799999237060547
1777561217329650200,12.003650146484375,-15.359999656677246,32.39999771118164,31.3799991607666
1777561217349730800,12.023730712890625,-16.079999923706055,31.559999465942383,35.15999984741211
1777561217369842000,12.043842041015624,-13.4399995803833,30,38.459999084472656
1777561217379882200,12.05388232421875,-12,28.559999465942383,39.599998474121094
1777561217389953000,12.063953125,-10.920000076293945,26.8799991607666,40.37999725341797
1777561217400023800,12.07402392578125,-11.639999389648438,25.079999923706055,41.040000915527344
1777561217410125000,12.084125,-13.079999923706055,23.34000015258789,41.21999740600586
1777561217420165400,12.094165283203125,-13.979999542236328,22.68000030517578,41.63999938964844
1777561217430236200,12.104236083984375,-14.819999694824219,22.619998931884766,42.65999984741211
1777561217450377700,12.124377685546875,-13.859999656677246,22.739999771118164,44.040000915527344
1777561217480590000,12.154590087890625,-10.199999809265137,21.600000381469727,45.119998931884766
1777561217490660900,12.164660888671875,-7.980000019073486,20.520000457763672,45.29999923706055
1777561217500701200,12.174701171875,-5.940000057220459,19.3799991607666,45.47999954223633
1777561217510772000,12.18477197265625,-4.079999923706055,18.35999870300293,46.20000076293945
1777561217520842800,12.1948427734375,-4.559999942779541,18.119998931884766,46.79999923706055
1777561217541015000,12.21501513671875,-6.659999847412109,17.579999923706055,47.63999938964844
1777561217571257900,12.2452578125,-5.400000095367432,16.3799991607666,49.2599983215332
1777561217581298200,12.255298095703125,-3.359999895095825,15.539999961853027,49.73999786376953
1777561217591369000,12.265368896484375,-2.0999999046325684,14.399999618530273,50.099998474121094
1777561217601409300,12.2754091796875,-1.6799999475479126,13.380000114440918,49.97999954223633
1777561217611480000,12.28547998046875,-2.759999990463257,12.300000190734863,49.97999954223633
1777561217621550800,12.29555078125,-4.199999809265137,11.15999984741211,49.37999725341797
1777561217631652000,12.305652099609375,-5.759999752044678,11.15999984741211,49.2599983215332
1777561217641723000,12.315722900390625,-6.899999618530273,10.319999694824219,48.959999084472656
1777561217681975600,12.3559755859375,-4.920000076293945,12.300000190734863,48.29999923706055
1777561217692046300,12.36604638671875,-5.099999904632568,12.300000190734863,47.81999969482422
1777561217702117400,12.376117431640624,-4.199999809265137,12.84000015258789,47.34000015258789
1777561217712157400,12.386157470703125,-4.380000114440918,13.920000076293945,46.73999786376953
1777561217722197800,12.39619775390625,-5.460000038146973,15.899999618530273,46.5
1777561217732268500,12.4062685546875,-5.159999847412109,18.059999465942383,45.18000030517578
1777561217762420000,12.436419921875,-5.279999732971191,24.53999900817871,42.29999923706055
1777561217782561500,12.4565615234375,-2.879999876022339,29.279998779296875,40.02000045776367
1777561217792632300,12.46663232421875,-0.7799999713897705,30.35999870300293,38.099998474121094
1777561217802672600,12.476672607421875,0.47999998927116394,31.260000228881836,36.05999755859375
1777561217812713000,12.486712890625,1.3799999952316284,32.52000045776367,34.13999938964844
1777561217822783700,12.49678369140625,-0.35999998450279236,33.36000061035156,32.099998474121094
1777561217832885000,12.506885009765625,-2.3999998569488525,35.099998474121094,30.479999542236328
1777561217842925300,12.51692529296875,-3.8399999141693115,37.13999938964844,29.34000015258789
1777561217863067000,12.53706689453125,-3.8999998569488525,40.20000076293945,25.920000076293945
1777561217883239200,12.5572392578125,-2.2799999713897705,41.63999938964844,21.959999084472656
1777561217893340400,12.56734033203125,-2.0999999046325684,42.36000061035156,21.18000030517578
1777561217903411200,12.5774111328125,-1.3799999952316284,42.959999084472656,19.260000228881836
1777561217913512400,12.587512451171875,-1.5,43.79999923706055,17.81999969482422
1777561217923583200,12.597583251953125,-3.6599998474121094,44.459999084472656,15.960000038146973
1777561217933654000,12.607654052734375,-4.5,44.87999725341797,13.619999885559082
1777561217943724800,12.617724853515625,-5.579999923706055,45.599998474121094,11.699999809265137
1777561217983886000,12.657885986328125,-4.440000057220459,47.57999801635742,5.039999961853027
1777561217993987300,12.6679873046875,-3.4800000190734863,46.91999816894531,3.299999952316284
1777561218004058000,12.67805810546875,-2.5799999237060547,46.20000076293945,1.7999999523162842
1777561218024138800,12.698138671875,-3.8999998569488525,45.41999816894531,-0.11999999731779099
1777561218034240000,12.708239990234375,-5.460000038146973,45.89999771118164,-0.5399999618530273
1777561218044280300,12.7182802734375,-7.619999885559082,46.5,-0.35999998450279236
1777561218054351000,12.72835107421875,-9.119999885559082,46.2599983215332,-0.8399999737739563
1777561218094603800,12.768603759765625,-11.15999984741211,46.2599983215332,2.700000047683716
1777561218104613600,12.778613525390625,-10.319999694824219,45.599998474121094,4.199999809265137
1777561218114715000,12.78871484375,-9.960000038146973,44.87999725341797,5.819999694824219
1777561218124785700,12.79878564453125,-9.719999313354492,44.63999938964844,7.139999866485596
1777561218134826000,12.808825927734375,-10.380000114440918,44.70000076293945,8.039999961853027
1777561218144866300,12.8188662109375,-10.920000076293945,44.7599983215332,9.539999961853027
1777561218185149400,12.8591494140625,-12.84000015258789,42.89999771118164,16.440000534057617
1777561218205321500,12.879321533203125,-12.479999542236328,42.18000030517578,18.719999313354492
1777561218225432600,12.8994326171875,-11.579999923706055,40.02000045776367,21.119998931884766
1777561218235534000,12.9095341796875,-10.260000228881836,38.939998626708984,22.5
1777561218245574400,12.919574462890624,-8.399999618530273,38.87999725341797,24.35999870300293
1777561218265685200,12.939685302734375,-5.759999752044678,37.439998626708984,27.719999313354492
1777561218295958800,12.969958740234375,-6.899999618530273,34.79999923706055,30.899999618530273
1777561218316130800,12.990130859375,-4.5,33.599998474121094,32.880001068115234
1777561218326171100,13.000171142578125,-3.6599998474121094,33.05999755859375,34.02000045776367
1777561218336242000,13.010241943359375,-4.440000057220459,32.880001068115234,34.86000061035156
1777561218346312700,13.020312744140625,-4.980000019073486,31.979999542236328,35.57999801635742
1777561218356353000,13.03035302734375,-4.920000076293945,32.040000915527344,37.20000076293945
1777561218376464100,13.050464111328125,-3.9599997997283936,30,38.57999801635742
1777561218396636400,13.070636474609374,-2.759999990463257,27.899999618530273,39.779998779296875
1777561218406676500,13.080676513671875,-1.4399999380111694,27.059999465942383,40.73999786376953
1777561218416747300,13.090747314453125,-1.0799999237060547,25.5,41.099998474121094
1777561218426787600,13.10078759765625,-0.17999999225139618,24.719999313354492,42.23999786376953
1777561218436858400,13.1108583984375,-1.7400000095367432,23.459999084472656,42.18000030517578
1777561218446929200,13.12092919921875,-2.4600000381469727,22.68000030517578,42.65999984741211
1777561218457030700,13.13103076171875,-3.240000009536743,22.31999969482422,42.89999771118164
1777561218477141800,13.151141845703124,-2.6399998664855957,20.34000015258789,43.5
1777561218497252900,13.1712529296875,-0.29999998211860657,18.239999771118164,45.23999786376953
1777561218507323600,13.18132373046875,0.23999999463558197,17.639999389648438,46.55999755859375
1777561218517394400,13.19139453125,0.9599999785423279,16.079999923706055,46.97999954223633
1777561218527465200,13.20146533203125,1.9799998998641968,14.880000114440918,47.70000076293945
1777561218537566500,13.21156640625,1.6799999475479126,14.279999732971191,47.52000045776367
1777561218547606800,13.221606689453125,1.7400000095367432,13.319999694824219,46.97999954223633
1777561218557708000,13.2317080078125,2.4600000381469727,12.479999542236328,46.02000045776367
1777561218577880300,13.25188037109375,3.240000009536743,12.539999961853027,46.2599983215332
1777561218608031500,13.282031494140625,0.29999998211860657,14.9399995803833,45.05999755859375
1777561218618102300,13.292102294921875,-0.8999999761581421,15.119999885559082,43.97999954223633
1777561218628142600,13.302142578125,-1.3199999332427979,16.020000457763672,43.31999969482422
1777561218638213400,13.31221337890625,-0.7799999713897705,17.399999618530273,42.23999786376953
1777561218648253700,13.322253662109375,0,19.439998626708984,41.81999969482422
1777561218658324500,13.332324462890625,0.11999999731779099,21.059999465942383,41.459999084472656
1777561218688506400,13.36250634765625,1.7400000095367432,23.579999923706055,38.939998626708984
1777561218698577200,13.3725771484375,2.93999981880188,24.899999618530273,37.73999786376953
1777561218708587000,13.3825869140625,4.079999923706055,27.059999465942383,37.31999969482422
1777561218718688300,13.392688232421875,6.359999656677246,28.31999969482422,36.36000061035156
1777561218728759000,13.402759033203125,6.659999847412109,29.81999969482422,35.52000045776367
1777561218738829800,13.412829833984375,7.259999752044678,31.139999389648438,34.5
1777561218748870100,13.4228701171875,8.460000038146973,31.559999465942383,32.63999938964844
1777561218758941000,13.43294091796875,7.199999809265137,32.279998779296875,31.01999855041504
1777561218789153300,13.4631533203125,1.6799999475479126,35.39999771118164,26.279998779296875
1777561218799224000,13.47322412109375,0.7799999713897705,37.31999969482422,24.959999084472656
1777561218809295000,13.483295166015624,1.3799999952316284,38.15999984741211,22.979999542236328
1777561218819366000,13.493365966796874,2.1599998474121094,39.18000030517578,21.53999900817871
1777561218829436700,13.503436767578124,2.4600000381469727,39.47999954223633,20.399999618530273
1777561218839507500,13.513507568359374,1.1399999856948853,39.89999771118164,18.719999313354492
1777561218849578200,13.523578125,-0.8999999761581421,40.91999816894531,17.15999984741211
1777561218859649000,13.53364892578125,-2.5199999809265137,41.7599983215332,15.479999542236328
1777561218869719800,13.5437197265625,-3.9599997997283936,43.02000045776367,14.399999618530273
1777561218899932200,13.57393212890625,-4.440000057220459,43.37999725341797,9.960000038146973
1777561218920012800,13.5940126953125,-2.879999876022339,43.73999786376953,8.039999961853027
1777561218930114000,13.604114013671875,-0.8399999737739563,43.31999969482422,7.199999809265137
1777561218940184800,13.614184814453125,0.29999998211860657,43.31999969482422,6.899999618530273
1777561218950255600,13.624255615234375,0.5999999642372131,43.31999969482422,6
1777561218960326400,13.634326416015625,-0.5999999642372131,43.619998931884766,5.039999961853027
1777561218970366700,13.64436669921875,-2.0999999046325684,43.55999755859375,4.199999809265137
1777561218980407000,13.654406982421875,-3.8399999141693115,43.79999923706055,3.8999998569488525
1777561219020629200,13.694629150390625,-4.980000019073486,44.21999740600586,5.579999923706055
1777561219030700000,13.704699951171875,-4.079999923706055,43.79999923706055,6.539999961853027
1777561219040770800,13.714770751953125,-2.879999876022339,43.20000076293945,6.899999618530273
1777561219050841600,13.724841552734375,-2.3999998569488525,43.37999725341797,8.639999389648438
1777561219060912400,13.734912353515625,-2.759999990463257,42.89999771118164,9.239999771118164
1777561219070983200,13.744983154296875,-2.93999981880188,42.36000061035156,10.619999885559082
1777561219091155500,13.765155517578124,-3.6599998474121094,41.70000076293945,14.09999942779541
1777561219101226200,13.775226318359374,-3.5999999046325684,41.099998474121094,16.19999885559082
1777561219121306600,13.795306640625,0.8999999761581421,40.5,20.279998779296875
1777561219131347000,13.805346923828125,2.819999933242798,39.84000015258789,21.53999900817871
1777561219141387300,13.81538720703125,4.139999866485596,39.23999786376953,22.559999465942383
1777561219151458000,13.8254580078125,3.5999999046325684,38.21999740600586,23.279998779296875
1777561219161528800,13.83552880859375,3.059999942779541,37.86000061035156,25.079999923706055
1777561219171599600,13.845599609375,2.2200000286102295,36.29999923706055,26.459999084472656
1777561219181670400,13.85567041015625,2.5199999809265137,35.21999740600586,28.739999771118164
1777561219191741200,13.8657412109375,2.2200000286102295,33.65999984741211,30.479999542236328
1777561219211913500,13.88591357421875,3.4800000190734863,30.899999618530273,32.63999938964844
1777561219221984300,13.895984375,4.380000114440918,29.219999313354492,33.29999923706055
1777561219232024600,13.906024658203124,5.87999963760376,28.079999923706055,34.02000045776367
1777561219242064600,13.916064697265625,6.960000038146973,26.69999885559082,34.97999954223633
1777561219252135700,13.9261357421875,5.699999809265137,25.739999771118164,35.81999969482422
1777561219262237000,13.93623681640625,3.9599997997283936,25.139999389648438,36.23999786376953
1777561219272338200,13.946338134765625,2.3399999141693115,24.420000076293945,36.540000915527344
1777561219282409000,13.956408935546875,1.6200000047683716,24.420000076293945,36.65999984741211
1777561219312590800,13.9865908203125,2.4600000381469727,23.8799991607666,36.599998474121094
1777561219332702000,14.006701904296875,3.9599997997283936,22.68000030517578,36.18000030517578
1777561219342772700,14.016772705078125,5.759999752044678,22.439998626708984,36.599998474121094
1777561219352843500,14.026843505859375,6.71999979019165,22.3799991607666,37.13999938964844
1777561219362944800,14.03694482421875,8.039999961853027,22.31999969482422,37.79999923706055
1777561219373015800,14.047015869140624,7.440000057220459,22.31999969482422,38.21999740600586
1777561219383086600,14.057086669921874,5.940000057220459,22.020000457763672,37.619998931884766
1777561219393157400,14.067157470703124,4.619999885559082,22.439998626708984,38.040000915527344
1777561219423278000,14.097278076171875,2.759999990463257,23.69999885559082,37.13999938964844
1777561219433348900,14.107348876953125,4.079999923706055,22.85999870300293,36.540000915527344
1777561219443450400,14.117450439453124,5.21999979019165,22.920000076293945,36.36000061035156
1777561219453521200,14.127521240234374,6.059999942779541,22.619998931884766,35.81999969482422
1777561219463592000,14.137592041015624,6.659999847412109,22.619998931884766,36
1777561219473693200,14.147693115234375,5.639999866485596,23.81999969482422,35.939998626708984
1777561219483733500,14.1577333984375,4.259999752044678,24.119998931884766,36.05999755859375
1777561219493773800,14.16777392578125,2.4600000381469727,25.139999389648438,36.47999954223633
1777561219523986200,14.197986083984375,-1.7400000095367432,27.779998779296875,36.23999786376953
1777561219534057000,14.208056884765625,-1.0199999809265137,28.5,36.47999954223633
1777561219544097300,14.21809716796875,-0.29999998211860657,28.619998931884766,36.23999786376953
1777561219554198500,14.228198486328125,0,28.19999885559082,35.21999740600586
1777561219564299800,14.2382998046875,-0.23999999463558197,28.5,35.040000915527344
1777561219574370600,14.24837060546875,-2.0399999618530273,28.5,33.71999740600586
1777561219584411000,14.258410888671875,-4.679999828338623,29.399999618530273,33.599998474121094
1777561219594481700,14.268481689453125,-7.799999713897705,30.53999900817871,33.71999740600586
1777561219634765000,14.30876513671875,-12.179999351501465,35.70000076293945,30.479999542236328
1777561219644866300,14.3188662109375,-11.279999732971191,35.939998626708984,29.399999618530273
1777561219654937000,14.32893701171875,-10.679999351501465,37.13999938964844,28.01999855041504
1777561219664977400,14.338977294921875,-9.719999313354492,37.31999969482422,26.939998626708984
1777561219675048200,14.349048095703125,-10.619999885559082,37.55999755859375,25.439998626708984
1777561219685088500,14.359088623046874,-12.179999351501465,38.21999740600586,24
1777561219695128800,14.36912890625,-13.799999237060547,38.52000045776367,23.03999900817871
1777561219735381500,14.409381591796874,-16.139999389648438,40.91999816894531,18.420000076293945
1777561219745452300,14.419452392578124,-15.899999618530273,41.63999938964844,18.059999465942383
1777561219755492600,14.42949267578125,-14.699999809265137,41.939998626708984,16.559999465942383
1777561219765563400,14.4395634765625,-14.880000114440918,41.279998779296875,15.239999771118164
1777561219775634200,14.44963427734375,-15.899999618530273,41.34000015258789,14.399999618530273
1777561219785735400,14.4597353515625,-17.100000381469727,41.87999725341797,12.65999984741211
1777561219795806200,14.46980615234375,-19.020000457763672,42.05999755859375,11.819999694824219
1777561219805907500,14.479907470703125,-20.219999313354492,42.65999984741211,11.039999961853027
1777561219835998000,14.509998046875,-22.68000030517578,42.959999084472656,8.34000015258789
1777561219846099200,14.52009912109375,-21.779998779296875,42.84000015258789,6.779999732971191
1777561219856139500,14.530139404296875,-21.35999870300293,42.36000061035156,5.940000057220459
1777561219866240800,14.54024072265625,-20.399999618530273,41.52000045776367,4.559999942779541
1777561219876311600,14.5503115234375,-21.119998931884766,40.55999755859375,4.079999923706055
1777561219886382300,14.56038232421875,-23.100000381469727,40.55999755859375,3.9599997997283936
1777561219896392200,14.57039208984375,-25.31999969482422,40.07999801635742,3.359999895095825
1777561219906493400,14.580493408203125,-27.53999900817871,40.55999755859375,3.5399999618530273
1777561219926635000,14.600635009765625,-28.739999771118164,39.36000061035156,2.2799999713897705
1777561219936675300,14.61067529296875,-29.399999618530273,38.7599983215332,2.3999998569488525
1777561219946715600,14.620715576171875,-29.03999900817871,38.040000915527344,2.0999999046325684
1777561219956786400,14.630786376953125,-28.68000030517578,37.07999801635742,2.2200000286102295
1777561219976928000,14.650927978515625,-27.35999870300293,35.70000076293945,2.2799999713897705
1777561219987029200,14.661029296875,-29.760000228881836,34.73999786376953,2.700000047683716
1777561219997069600,14.671069580078125,-32.34000015258789,34.07999801635742,3.4800000190734863
1777561220007140400,14.681140380859375,-33.89999771118164,34.07999801635742,4.139999866485596
1777561220027282000,14.701281982421875,-35.21999740600586,33.36000061035156,5.699999809265137
1777561220057463800,14.7314638671875,-33.23999786376953,33.47999954223633,7.859999656677246
1777561220067534800,14.741534912109374,-31.979999542236328,33.05999755859375,9.059999465942383
1777561220077575000,14.751574951171875,-30.53999900817871,32.63999938964844,10.319999694824219
1777561220087676400,14.761676513671874,-31.260000228881836,31.19999885559082,11.15999984741211
1777561220097716700,14.771716796875,-32.459999084472656,30.53999900817871,11.9399995803833
1777561220107818000,14.78181787109375,-34.07999801635742,30.059999465942383,12.779999732971191
1777561220117858300,14.7918583984375,-35.880001068115234,29.399999618530273,13.859999656677246
1777561220137969400,14.811969482421874,-36.05999755859375,28.079999923706055,14.15999984741211
1777561220158080500,14.83208056640625,-33.47999954223633,27.059999465942383,15.420000076293945
1777561220168181800,14.842181640625,-32.099998474121094,27.239999771118164,17.15999984741211
1777561220178222000,14.85222216796875,-31.01999855041504,26.34000015258789,16.979999542236328
1777561220188292900,14.86229296875,-30.959999084472656,25.01999855041504,16.739999771118164
1777561220198333200,14.872333251953124,-31.85999870300293,24.65999984741211,17.03999900817871
1777561220208373200,14.882373291015625,-32.70000076293945,24.059999465942383,16.979999542236328
1777561220218444000,14.892444091796875,-33.779998779296875,24.059999465942383,17.940000534057617
1777561220228515000,14.90251513671875,-35.34000015258789,24.719999313354492,19.260000228881836
1777561220248656600,14.92265673828125,-36.18000030517578,24.119998931884766,21.239999771118164
1777561220258727400,14.9327275390625,-36,23.760000228881836,22.559999465942383
1777561220268798200,14.942798095703125,-35.57999801635742,22.19999885559082,24
1777561220278838500,14.952838623046874,-35.099998474121094,20.8799991607666,24.479999542236328
1777561220288909300,14.962909423828124,-32.279998779296875,20.279998779296875,25.3799991607666
1777561220298949600,14.97294970703125,-31.31999969482422,19.139999389648438,25.68000030517578
1777561220309020400,14.9830205078125,-29.760000228881836,18.899999618530273,25.799999237060547
1777561220319121700,14.99312158203125,-28.260000228881836,18.479999542236328,25.799999237060547
1777561220359435300,15.033435302734375,-28.31999969482422,17.219999313354492,26.579999923706055
1777561220369506000,15.043506103515625,-27.779998779296875,16.619998931884766,26.81999969482422
1777561220379577000,15.0535771484375,-28.139999389648438,16.920000076293945,27.84000015258789
1777561220389648000,15.06364794921875,-28.01999855041504,16.020000457763672,27.959999084472656
1777561220399688000,15.07368798828125,-28.139999389648438,15.960000038146973,29.03999900817871
1777561220409789400,15.08378955078125,-28.85999870300293,15.299999237060547,29.099998474121094
1777561220419829800,15.093829833984374,-28.559999465942383,14.819999694824219,28.85999870300293
1777561220450103000,15.12410302734375,-31.67999839782715,13.4399995803833,28.979999542236328
1777561220460173800,15.134173828125,-32.70000076293945,13.25999927520752,28.920000076293945
1777561220470275300,15.144275390625,-33.18000030517578,13.380000114440918,29.279998779296875
1777561220480346000,15.15434619140625,-31.979999542236328,13.079999923706055,30.119998931884766
1777561220490417000,15.1644169921875,-30,12.779999732971191,30.059999465942383
1777561220500457200,15.174457275390624,-29.279998779296875,11.519999504089355,29.579999923706055
1777561220510528000,15.184528076171874,-28.739999771118164,10.920000076293945,29.099998474121094
1777561220520598800,15.194598876953124,-28.559999465942383,10.619999885559082,28.559999465942383
1777561220530669600,15.204669677734374,-29.219999313354492,10.019999504089355,28.619998931884766
1777561220570983200,15.244983154296875,-33.540000915527344,8.399999618530273,29.639999389648438
1777561220581054000,15.255053955078125,-33.65999984741211,8.220000267028809,28.68000030517578
1777561220601226200,15.275226318359374,-30.239999771118164,7.019999980926514,28.85999870300293
1777561220611297000,15.285297119140624,-28.920000076293945,5.579999923706055,28.68000030517578
1777561220621367800,15.295367919921874,-27.899999618530273,4.440000057220459,28.559999465942383
1777561220631469000,15.305468994140625,-26.81999969482422,3.9599997997283936,29.81999969482422
1777561220671813400,15.3458134765625,-28.19999885559082,2.879999876022339,30.719999313354492
1777561220681884200,15.35588427734375,-28.619998931884766,3.419999837875366,31.619998931884766
1777561220691985400,15.3659853515625,-28.5,3.059999942779541,31.3799991607666
1777561220702025700,15.376025634765625,-27.779998779296875,3.299999952316284,32.34000015258789
1777561220712127000,15.386126953125,-27.959999084472656,3.179999828338623,33.779998779296875
1777561220722167300,15.396167236328125,-28.979999542236328,2.3399999141693115,33.36000061035156
1777561220732238000,15.406238037109375,-30.299999237060547,3.119999885559082,33.71999740600586
1777561220762450400,15.436450439453125,-29.939998626708984,5.039999961853027,33.89999771118164
1777561220772521200,15.446521240234375,-28.260000228881836,5.87999963760376,33.540000915527344
1777561220782561500,15.4565615234375,-25.619998931884766,6.359999656677246,33.71999740600586
1777561220802703000,15.476703125,-23.15999984741211,6.119999885559082,33.41999816894531
1777561220812743400,15.486743408203125,-23.100000381469727,6,34.02000045776367
1777561220822753300,15.496753173828125,-23.03999900817871,6.539999961853027,33.959999084472656
1777561220832854500,15.5068544921875,-23.219999313354492,7.319999694824219,33.65999984741211
1777561220862975500,15.5369755859375,-24,10.739999771118164,33.05999755859375
1777561220883147500,15.5571474609375,-21.899999618530273,12.899999618530273,33.84000015258789
1777561220893248800,15.567248779296875,-19.739999771118164,14.09999942779541,34.13999938964844
1777561220903258600,15.577258544921875,-17.81999969482422,14.9399995803833,33.779998779296875
1777561220913360000,15.58735986328125,-16.3799991607666,15.479999542236328,33.599998474121094
1777561220923430700,15.5974306640625,-17.34000015258789,16.619998931884766,33.41999816894531
1777561220933532200,15.6075322265625,-18.84000015258789,17.34000015258789,33.540000915527344
1777561220943572200,15.617572265625,-19.920000076293945,18.35999870300293,33.23999786376953
1777561220963744500,15.63774462890625,-20.760000228881836,20.760000228881836,32.81999969482422
1777561220983855600,15.657855712890624,-19.260000228881836,23.399999618530273,32.939998626708984
1777561220993956900,15.667956787109375,-17.69999885559082,24.299999237060547,31.920000076293945
1777561221004027600,15.678027587890625,-16.139999389648438,25.139999389648438,32.15999984741211
1777561221014098400,15.688098388671875,-14.639999389648438,25.979999542236328,32.39999771118164
1777561221024108300,15.6981083984375,-13.799999237060547,25.559999465942383,31.439998626708984
1777561221034179000,15.708178955078125,-14.460000038146973,25.01999855041504,31.5
1777561221044249900,15.718249755859375,-15.65999984741211,25.439998626708984,30.53999900817871
1777561221074431700,15.748431640625,-16.920000076293945,27.53999900817871,29.34000015258789
1777561221084472000,15.75847216796875,-16.020000457763672,28.19999885559082,29.34000015258789
1777561221094542800,15.76854296875,-14.15999984741211,28.739999771118164,29.760000228881836
1777561221104552400,15.778552490234375,-12.179999351501465,28.68000030517578,29.34000015258789
1777561221114654000,15.788654052734374,-10.679999351501465,28.31999969482422,29.219999313354492
1777561221124724700,15.798724853515624,-9.65999984741211,27.84000015258789,29.219999313354492
1777561221134826000,15.808825927734375,-10.019999504089355,27.18000030517578,28.5
1777561221144835800,15.8188359375,-11.460000038146973,26.8799991607666,28.3799991607666
1777561221165008000,15.8390078125,-14.279999732971191,26.760000228881836,28.079999923706055
1777561221185149400,15.8591494140625,-13.739999771118164,26.939998626708984,28.559999465942383
1777561221195189800,15.869189697265625,-11.579999923706055,25.979999542236328,28.3799991607666
1777561221205260500,15.879260498046875,-10.619999885559082,25.260000228881836,28.559999465942383
1777561221215331300,15.889331298828125,-9.059999465942383,24.299999237060547,28.559999465942383
1777561221225371600,15.89937158203125,-9.719999313354492,22.979999542236328,28.5
1777561221235442400,15.9094423828125,-10.559999465942383,22.68000030517578,28.5
1777561221245482800,15.919482666015625,-10.859999656677246,21.899999618530273,28.260000228881836
1777561221265624300,15.939624267578125,-9,20.760000228881836,26.760000228881836
1777561221285827000,15.9598271484375,-4.139999866485596,22.5,27.119998931884766
1777561221295928300,15.96992822265625,-3.059999942779541,24,29.69999885559082
1777561221305999000,15.9799990234375,-3.8399999141693115,25.31999969482422,31.799999237060547
1777561221316070000,15.99006982421875,-7.440000057220459,23.81999969482422,34.13999938964844
1777561221326140700,16.000140625,-11.15999984741211,21.18000030517578,36.36000061035156
1777561221336242000,16.010241943359375,-14.34000015258789,17.459999084472656,36.89999771118164
1777561221346312700,16.020312744140625,-16.3799991607666,13.739999771118164,37.55999755859375
1777561221386626600,16.06062646484375,-11.039999961853027,3.8999998569488525,36.89999771118164
1777561221396727800,16.070727783203125,-7.919999599456787,2.1599998474121094,37.439998626708984
1777561221406798600,16.080798583984375,-5.699999809265137,0,36.89999771118164
1777561221416869400,16.090869384765625,-3.7200000286102295,-2.6399998664855957,36.47999954223633
1777561221426940200,16.100940185546875,-2.93999981880188,-4.440000057220459,36.36000061035156
1777561221447081700,16.121081787109375,-3.179999828338623,-5.579999923706055,36.36000061035156
1777561221457152800,16.13115283203125,-3.419999837875366,-6,36.47999954223633
1777561221477294300,16.15129443359375,-0.9599999785423279,-5.87999963760376,35.939998626708984
1777561221497436000,16.171435791015625,2.759999990463257,-6.299999713897705,34.91999816894531
1777561221507506700,16.181506591796875,4.440000057220459,-6.960000038146973,34.619998931884766
1777561221517608000,16.19160791015625,5.579999923706055,-7.679999828338623,34.73999786376953
1777561221527678700,16.2016787109375,6.119999885559082,-7.619999885559082,34.79999923706055
1777561221537749500,16.21174951171875,5.279999732971191,-7.5,34.73999786376953
1777561221547789800,16.221789794921875,4.5,-7.079999923706055,34.91999816894531
1777561221557860600,16.231860595703125,3.8399999141693115,-6.899999618530273,34.31999969482422
1777561221578002200,16.252002197265625,4.920000076293945,-5.699999809265137,33.71999740600586
1777561221588042500,16.26204248046875,6.239999771118164,-5.21999979019165,33.41999816894531
1777561221598143700,16.272143798828125,9.300000190734863,-3.9599997997283936,33.36000061035156
1777561221608214800,16.28221484375,12,-4.319999694824219,33
1777561221618316000,16.29231591796875,13.380000114440918,-4.679999828338623,32.39999771118164
1777561221628356400,16.3023564453125,13.920000076293945,-4.739999771118164,31.5
1777561221638396700,16.312396728515626,12.420000076293945,-4.980000019073486,30.53999900817871
1777561221648467500,16.322467529296876,10.380000114440918,-4.859999656677246,30.479999542236328
1777561221658538200,16.332538330078126,9.119999885559082,-4.679999828338623,30.239999771118164
1777561221708861700,16.38286181640625,7.5,-2.3399999141693115,30.299999237060547
1777561221728942000,16.402942138671875,7.019999980926514,-1.3799999952316284,30.959999084472656
1777561221738982400,16.412982421875,7.259999752044678,-0.11999999731779099,32.459999084472656
1777561221749053200,16.42305322265625,8.09999942779541,0.7799999713897705,33
1777561221759154700,16.43315478515625,8.399999618530273,1.6799999475479126,33.29999923706055
1777561221789367000,16.463366943359375,2.2799999713897705,5.940000057220459,30.959999084472656
1777561221799437800,16.473437744140625,1.7400000095367432,8.15999984741211,28.739999771118164
1777561221809478100,16.48347802734375,2.5799999237060547,10.260000228881836,28.439998626708984
1777561221819579400,16.493579345703125,4.679999828338623,11.699999809265137,27.599998474121094
1777561221829619700,16.50361962890625,5.099999904632568,13.25999927520752,27.239999771118164
1777561221839721000,16.513720947265625,4.5,13.619999885559082,27.299999237060547
1777561221849761300,16.52376123046875,3.4800000190734863,14.460000038146973,25.85999870300293
1777561221859832000,16.53383203125,1.9799998998641968,15.479999542236328,26.099998474121094
1777561221900146000,16.57414599609375,2.5799999237060547,21.959999084472656,25.260000228881836
1777561221920287500,16.59428759765625,3.5999999046325684,24.35999870300293,22.3799991607666
1777561221950469400,16.624469482421876,7.679999828338623,28.979999542236328,21
1777561221960540200,16.6345400390625,7.259999752044678,30.779998779296875,19.85999870300293
1777561221970611000,16.64461083984375,6.539999961853027,31.5,18.719999313354492
1777561221980681700,16.654681640625,4.920000076293945,31.439998626708984,18.059999465942383
1777561222000823300,16.6748232421875,1.8600000143051147,31.31999969482422,16.920000076293945
1777561222010894000,16.68489404296875,3.119999885559082,31.739999771118164,16.739999771118164
1777561222020995300,16.694995361328125,4.920000076293945,31.619998931884766,16.85999870300293
1777561222031066000,16.705066162109375,6.299999713897705,31.3799991607666,16.139999389648438
1777561222041137200,16.71513720703125,7.37999963760376,32.040000915527344,16.68000030517578
1777561222051208000,16.7252080078125,6,31.559999465942383,16.5
1777561222061309200,16.73530908203125,4.679999828338623,31.67999839782715,16.079999923706055
1777561222071349500,16.745349609375,3.299999952316284,31.439998626708984,16.19999885559082
1777561222091491000,16.765490966796875,2.819999933242798,32.099998474121094,16.440000534057617
1777561222111602200,16.785602294921876,3.8999998569488525,32.52000045776367,16.739999771118164
1777561222121703400,16.795703369140625,4.859999656677246,32.21999740600586,17.399999618530273
1777561222131713300,16.80571337890625,6.299999713897705,31.139999389648438,16.979999542236328
1777561222141814500,16.815814453125,7.259999752044678,30.84000015258789,17.279998779296875
1777561222151915800,16.825915771484375,6.659999847412109,29.69999885559082,16.799999237060547
1777561222161986600,16.835986572265625,5.21999979019165,29.459999084472656,16.5
1777561222172057300,16.846057373046875,3.059999942779541,29.099998474121094,16.31999969482422
1777561222202300400,16.876300537109376,1.1399999856948853,29.15999984741211,17.279998779296875
1777561222212371200,16.88637109375,1.5,28.979999542236328,18.18000030517578
1777561222222442000,16.89644189453125,2.4600000381469727,28.739999771118164,18.299999237060547
1777561222232512800,16.9065126953125,3.179999828338623,27.719999313354492,18.84000015258789
1777561222242614000,16.916614013671875,3.5399999618530273,26.579999923706055,19.31999969482422
1777561222252684800,16.926684814453125,2.700000047683716,25.68000030517578,19.439998626708984
1777561222262725000,16.93672509765625,0.7199999690055847,24.899999618530273,19.799999237060547
1777561222272796000,16.9467958984375,-0.7799999713897705,24.299999237060547,20.03999900817871
1777561222323150000,16.997150146484376,-2.700000047683716,18.059999465942383,23.34000015258789
1777561222333220900,17.007220947265626,-1.7999999523162842,16.139999389648438,23.51999855041504
1777561222343291600,17.017291748046876,-0.47999998927116394,13.739999771118164,24.299999237060547
1777561222353393000,17.027392822265625,0.7799999713897705,11.880000114440918,25.079999923706055
1777561222363494100,17.037494140625,1.1399999856948853,10.019999504089355,26.03999900817871
1777561222373565000,17.04756494140625,1.3199999332427979,9.420000076293945,27.18000030517578
1777561222413848300,17.087848388671876,0.23999999463558197,2.0999999046325684,27.059999465942383
1777561222423919000,17.097919189453126,0.41999998688697815,-0.35999998450279236,26.8799991607666
1777561222434020400,17.108020263671875,0.8399999737739563,-2.4600000381469727,25.979999542236328
1777561222444091100,17.118091064453125,0.8999999761581421,-3.7799999713897705,26.459999084472656
1777561222454162000,17.128161865234375,0.35999998450279236,-5.460000038146973,26.34000015258789
1777561222464202200,17.1382021484375,0.8999999761581421,-6.059999942779541,26.34000015258789
1777561222474242600,17.14824267578125,1.0199999809265137,-6,26.51999855041504
1777561222504515800,17.178515869140625,0.23999999463558197,-6.539999961853027,24.53999900817871
1777561222514586600,17.188586669921875,-0.47999998927116394,-6.71999979019165,24.18000030517578
1777561222534728400,17.208728515625,2.0399999618530273,-6.480000019073486,23.760000228881836
1777561222544768500,17.2187685546875,3.6599998474121094,-6.119999885559082,23.34000015258789
1777561222554808800,17.228808837890625,4.679999828338623,-6.480000019073486,23.15999984741211
1777561222564879600,17.238879638671875,4.199999809265137,-6.659999847412109,23.639999389648438
1777561222574920000,17.248919921875,3.9599997997283936,-6.960000038146973,22.920000076293945
1777561222615172600,17.289172607421875,-1.9799998998641968,-7.739999771118164,21.35999870300293
1777561222625243400,17.299243408203125,-1.9199999570846558,-7.440000057220459,21.420000076293945
1777561222635314200,17.309314208984375,-0.9599999785423279,-7.679999828338623,21.35999870300293
1777561222645385000,17.319385009765625,0.05999999865889549,-7.859999656677246,21.719999313354492
1777561222655456000,17.3294560546875,0.5999999642372131,-8.15999984741211,22.31999969482422
1777561222665526800,17.33952685546875,0.5999999642372131,-8.880000114440918,22.079999923706055
1777561222675536400,17.349536376953125,-1.559999942779541,-9.479999542236328,21.239999771118164
1777561222685638000,17.359637939453126,-3.179999828338623,-9.65999984741211,20.939998626708984
1777561222725951500,17.399951416015625,-4.859999656677246,-8.880000114440918,21.299999237060547
1777561222736022300,17.410022216796875,-4.319999694824219,-8.460000038146973,22.139999389648438
1777561222746123500,17.42012353515625,-3.7200000286102295,-8.399999618530273,22.19999885559082
1777561222756194300,17.4301943359375,-3.419999837875366,-7.739999771118164,23.760000228881836
1777561222766265000,17.44026513671875,-3.119999885559082,-6.839999675750732,24.420000076293945
1777561222776336100,17.450336181640626,-2.879999876022339,-6.119999885559082,25.31999969482422
1777561222786407000,17.460406982421876,-3.4800000190734863,-4.980000019073486,26.51999855041504
1777561222806487300,17.4804873046875,-3.5999999046325684,-2.3399999141693115,26.81999969482422
1777561222816588800,17.4905888671875,-5.039999961853027,-0.6599999666213989,26.459999084472656
1777561222826659600,17.50065966796875,-4.739999771118164,0.9599999785423279,25.979999542236328
1777561222836699600,17.51069970703125,-4.679999828338623,2.2799999713897705,25.85999870300293
1777561222846740000,17.520739990234375,-4.559999942779541,3.8399999141693115,26.34000015258789
1777561222856780300,17.5307802734375,-2.6399998664855957,4.980000019073486,27
1777561222866851000,17.54085107421875,-1.4399999380111694,6,27.479999542236328
1777561222876921900,17.550921875,-0.8399999737739563,7.079999923706055,27.899999618530273
1777561222887023400,17.5610234375,0.23999999463558197,9.119999885559082,29.34000015258789
1777561222897094100,17.57109423828125,0.5399999618530273,10.260000228881836,29.03999900817871
1777561222927276000,17.601276123046876,-0.7799999713897705,15.359999656677246,27.84000015258789
1777561222937316400,17.61131640625,-0.9599999785423279,16.979999542236328,27.599998474121094
1777561222947356400,17.6213564453125,-1.0199999809265137,18.959999084472656,27.119998931884766
1777561222957396700,17.631396728515625,-0.7799999713897705,20.279998779296875,27.35999870300293
1777561222967467500,17.641467529296875,-0.41999998688697815,21.420000076293945,26.639999389648438
1777561222977507800,17.6515078125,-2.0999999046325684,22.5,26.099998474121094
1777561222987609000,17.661609130859375,-4.259999752044678,22.85999870300293,25.01999855041504
1777561222997679900,17.671679931640625,-5.940000057220459,23.15999984741211,24
1777561223027861800,17.70186181640625,-8.639999389648438,25.3799991607666,23.100000381469727
1777561223048003600,17.722003662109376,-6.599999904632568,25.739999771118164,22.559999465942383
1777561223058043600,17.732043701171875,-5.940000057220459,24.84000015258789,21.719999313354492
1777561223068114700,17.74211474609375,-3.9599997997283936,25.139999389648438,21.65999984741211
1777561223078185500,17.752185546875,-3.240000009536743,24.420000076293945,21.35999870300293
1777561223088256300,17.76225634765625,-4.319999694824219,24.779998779296875,21.84000015258789
1777561223098327000,17.7723271484375,-4.859999656677246,25.01999855041504,22.3799991607666
1777561223118499000,17.7924990234375,-7.199999809265137,24.959999084472656,23.15999984741211
1777561223138640600,17.812640625,-6.059999942779541,23.69999885559082,23.639999389648438
1777561223148711400,17.82271142578125,-4.139999866485596,23.100000381469727,24.18000030517578
1777561223158782200,17.8327822265625,-3.359999895095825,22.260000228881836,25.439998626708984
1777561223168883700,17.8428837890625,-2.3399999141693115,21.479999542236328,25.979999542236328
1777561223178923800,17.852923828125,-3.179999828338623,21.479999542236328,26.279998779296875
1777561223188994800,17.862994873046876,-4.980000019073486,21,26.760000228881836
1777561223199035000,17.873034912109375,-6.71999979019165,20.579999923706055,27.239999771118164
1777561223209105700,17.883105712890625,-8.519999504089355,19.68000030517578,27.84000015258789
1777561223239226600,17.9132265625,-9,16.979999542236328,28.01999855041504
1777561223249267000,17.923266845703125,-7.619999885559082,17.03999900817871,28.3799991607666
1777561223259337700,17.933337646484375,-5.819999694824219,15.899999618530273,28.619998931884766
1777561223269439000,17.94343896484375,-4.199999809265137,14.460000038146973,28.3799991607666
1777561223279509800,17.953509765625,-3,12.719999313354492,28.799999237060547
1777561223289611300,17.963611328125,-3.6599998474121094,10.380000114440918,29.219999313354492
1777561223299651300,17.9736513671875,-4.440000057220459,9.300000190734863,30
1777561223309722000,17.98372216796875,-4.559999942779541,8.639999389648438,30.899999618530273
1777561223350036000,18.024035888671875,-5.159999847412109,5.519999980926514,30.059999465942383
1777561223360076300,18.034076171875,-5.579999923706055,5.759999752044678,30.719999313354492
1777561223370147000,18.04414697265625,-4.799999713897705,4.859999656677246,30.53999900817871
1777561223380217900,18.0542177734375,-4.019999980926514,4.380000114440918,31.19999885559082
1777561223390319000,18.064319091796875,-4.440000057220459,3.059999942779541,32.39999771118164
1777561223400390000,18.074389892578125,-4.739999771118164,0.5399999618530273,32.099998474121094
1777561223410491400,18.084491455078126,-5.339999675750732,-1.5,32.7599983215332
1777561223440673300,18.11467333984375,-3.8399999141693115,-8.15999984741211,31.619998931884766
1777561223460814800,18.13481494140625,-3.119999885559082,-11.699999809265137,29.099998474121094
1777561223470855200,18.144855224609376,-2.879999876022339,-13.079999923706055,28.139999389648438
1777561223480895200,18.154895263671875,-3.419999837875366,-14.880000114440918,26.579999923706055
1777561223490966000,18.164966064453125,-3,-16.619998931884766,25.979999542236328
1777561223501006300,18.17500634765625,-3,-17.760000228881836,24.779998779296875
1777561223511077000,18.1850771484375,-3.6599998474121094,-18.600000381469727,24.18000030517578
1777561223531249400,18.20524951171875,-3.6599998474121094,-19.619998931884766,22.920000076293945
1777561223551360500,18.225360595703126,-3.7799999713897705,-20.459999084472656,22.079999923706055
1777561223561400600,18.235400634765625,-1.9799998998641968,-20.15999984741211,22.439998626708984
1777561223571502000,18.245502197265626,-0.23999999463558197,-20.69999885559082,21.84000015258789
1777561223581572900,18.25557275390625,1.0199999809265137,-20.939998626708984,22.020000457763672
1777561223591674000,18.265674072265625,2.6399998664855957,-21,22.5
1777561223601714400,18.27571435546875,3.119999885559082,-21.119998931884766,22.439998626708984
1777561223611785200,18.28578515625,3.359999895095825,-20.459999084472656,23.15999984741211
1777561223652068400,18.326068359375,1.3199999332427979,-17.459999084472656,25.139999389648438
1777561223662078200,18.336078125,2.6399998664855957,-16.68000030517578,25.739999771118164
1777561223672179500,18.346179443359375,3.299999952316284,-16.31999969482422,26.639999389648438
1777561223682219800,18.3562197265625,4.319999694824219,-16.19999885559082,26.760000228881836
1777561223692321000,18.366321044921875,4.199999809265137,-17.03999900817871,27.18000030517578
1777561223702300400,18.376300537109376,2.6399998664855957,-16.799999237060547,27.18000030517578
1777561223712401700,18.386401611328125,1.559999942779541,-16.920000076293945,26.8799991607666
1777561223722472400,18.396472412109375,0.41999998688697815,-16.739999771118164,27.599998474121094
1777561223752623900,18.426623779296875,-0.8999999761581421,-13.380000114440918,28.19999885559082
1777561223762694700,18.436694580078125,-0.7799999713897705,-12.84000015258789,28.19999885559082
1777561223772796000,18.4467958984375,-0.6599999666213989,-13.019999504089355,28.619998931884766
1777561223782836200,18.456836181640625,0.05999999865889549,-12.179999351501465,29.219999313354492
1777561223792937500,18.4669375,1.3199999332427979,-12.359999656677246,29.69999885559082
1777561223802977800,18.476977783203125,2.1599998474121094,-11.819999694824219,29.69999885559082
1777561223813018000,18.48701806640625,2.819999933242798,-11.519999504089355,30.059999465942383
1777561223823058400,18.497058349609375,3.359999895095825,-11.15999984741211,30.239999771118164
1777561223863311000,18.53731103515625,3.359999895095825,-7.199999809265137,27.65999984741211
1777561223873412400,18.547412353515625,3.9599997997283936,-6.779999732971191,28.079999923706055
1777561223883422200,18.557422119140625,3.4800000190734863,-6.539999961853027,28.68000030517578
1777561223893523500,18.5675234375,3.7799999713897705,-5.519999980926514,29.279998779296875
1777561223903563800,18.577563720703125,4.139999866485596,-5.699999809265137,28.799999237060547
1777561223913634600,18.587634521484375,3.5999999046325684,-5.699999809265137,28.5
1777561223923735800,18.59773583984375,3.179999828338623,-4.319999694824219,29.15999984741211
1777561223943847000,18.617846923828125,3.359999895095825,-1.6200000047683716,30.65999984741211
1777561223953917700,18.627917724609375,3.299999952316284,-0.05999999865889549,31.619998931884766
1777561223963958000,18.6379580078125,2.93999981880188,0.7199999690055847,31.67999839782715
1777561223974028800,18.64802880859375,1.9799998998641968,1.9199999570846558,31.920000076293945
1777561223984099600,18.658099609375,1.1399999856948853,3.059999942779541,31.619998931884766
1777561223994170400,18.66817041015625,0.7199999690055847,4.739999771118164,31.139999389648438
1777561224004180200,18.67818017578125,0.5399999618530273,6.539999961853027,31.260000228881836
1777561224014281500,18.688281494140625,0,8.399999618530273,31.85999870300293
1777561224024352300,18.698352294921875,0.17999999225139618,10.260000228881836,32.34000015258789
1777561224054564900,18.72856494140625,2.2799999713897705,14.15999984741211,30.959999084472656
1777561224064635600,18.7386357421875,2.3399999141693115,15.299999237060547,30
1777561224074706400,18.74870654296875,3.119999885559082,16.440000534057617,28.979999542236328
1777561224084716000,18.758716064453125,1.9799998998641968,17.34000015258789,27.959999084472656
1777561224094817500,18.768817626953126,1.2599999904632568,17.81999969482422,26.639999389648438
1777561224104827100,18.7788271484375,0.8999999761581421,18.420000076293945,25.799999237060547
1777561224114898000,18.78889794921875,0.47999998927116394,18.899999618530273,25.5
1777561224124938200,18.798938232421875,0.23999999463558197,19.68000030517578,24.959999084472656
1777561224134978600,18.808978515625,0.5999999642372131,20.639999389648438,24.65999984741211
1777561224165160400,18.839160400390625,1.3199999332427979,23.760000228881836,23.69999885559082
1777561224175261700,18.84926171875,1.2599999904632568,24.53999900817871,23.51999855041504
1777561224185332500,18.85933251953125,0.11999999731779099,24.779998779296875,22.439998626708984
1777561224195403300,18.8694033203125,-0.17999999225139618,25.079999923706055,22.19999885559082
1777561224205474300,18.879474365234376,-0.35999998450279236,25.01999855041504,21.899999618530273
1777561224225616000,18.899615966796876,0,25.739999771118164,21.479999542236328
1777561224235686700,18.909686767578126,-1.6200000047683716,24.719999313354492,21
1777561224265868500,18.93986865234375,-6,25.079999923706055,19.31999969482422
1777561224275969800,18.9499697265625,-5.579999923706055,25.979999542236328,18.899999618530273
1777561224296081000,18.970080810546875,-4.079999923706055,24.600000381469727,19.68000030517578
1777561224306121200,18.980121337890626,-3.7799999713897705,23.579999923706055,19.979999542236328
1777561224316222500,18.990222412109375,-4.920000076293945,22.739999771118164,21.299999237060547
1777561224326293200,19.000293212890625,-7.019999980926514,22.020000457763672,21.600000381469727
1777561224336364000,19.010364013671875,-8.699999809265137,20.69999885559082,22.020000457763672
1777561224346434800,19.020434814453125,-9.84000015258789,19.5,22.979999542236328
1777561224366546000,19.0405458984375,-9.359999656677246,16.079999923706055,23.579999923706055
1777561224396697300,19.070697265625,-5.519999980926514,10.319999694824219,26.399999618530273
1777561224406737700,19.080737548828125,-3.119999885559082,7.980000019073486,26.639999389648438
1777561224416808400,19.090808349609375,-1.0799999237060547,5.87999963760376,27.35999870300293
1777561224426818300,19.100818359375,-1.0799999237060547,4.079999923706055,26.579999923706055
1777561224436889000,19.11088916015625,-1.4399999380111694,2.3999998569488525,26.03999900817871
1777561224446959900,19.1209599609375,-3.179999828338623,1.7999999523162842,26.219999313354492
1777561224467071000,19.141071044921876,-6.239999771118164,-1.0799999237060547,26.459999084472656
1777561224487243000,19.161242919921875,-7.319999694824219,-5.759999752044678,27.599998474121094
1777561224497313800,19.171313720703125,-6.659999847412109,-8.399999618530273,27.059999465942383
1777561224507293000,19.18129296875,-5.460000038146973,-10.859999656677246,25.739999771118164
1777561224517394400,19.19139453125,-4.920000076293945,-12.719999313354492,24.719999313354492
1777561224527404000,19.201404052734375,-5.579999923706055,-14.699999809265137,22.68000030517578
1777561224537444400,19.2114443359375,-6.179999828338623,-16.19999885559082,21.420000076293945
1777561224547515100,19.22151513671875,-6.239999771118164,-17.100000381469727,20.219999313354492
1777561224557586000,19.2315859375,-5.579999923706055,-17.639999389648438,19.619998931884766
1777561224587707000,19.261706787109375,-1.1999999284744263,-18.779998779296875,17.940000534057617
1777561224607818000,19.28181787109375,3.8399999141693115,-18.719999313354492,18.35999870300293
1777561224617919200,19.291919189453125,6.119999885559082,-18.53999900817871,19.19999885559082
1777561224627959600,19.30195947265625,7.799999713897705,-18.600000381469727,19.5
1777561224638030300,19.3120302734375,8.15999984741211,-18.959999084472656,19.19999885559082
1777561224648101000,19.32210107421875,8.460000038146973,-19.139999389648438,18.959999084472656
1777561224658202400,19.332202392578125,7.799999713897705,-19.559999465942383,18.420000076293945
1777561224668273200,19.342273193359375,6.71999979019165,-19.020000457763672,18.299999237060547
1777561224678374700,19.352374755859376,4.799999713897705,-19.020000457763672,18.239999771118164
1777561224718596900,19.392596923828126,0.05999999865889549,-18.65999984741211,16.979999542236328
1777561224728637000,19.402636962890625,1.7999999523162842,-18.600000381469727,16.619998931884766
1777561224738707700,19.412707763671875,2.759999990463257,-18.600000381469727,16.619998931884766
1777561224748748000,19.422748046875,3.8399999141693115,-19.5,16.3799991607666
1777561224758818800,19.43281884765625,3.179999828338623,-20.100000381469727,16.079999923706055
1777561224768859100,19.442859130859375,1.2599999904632568,-20.03999900817871,16.5
1777561224788970200,19.46297021484375,-0.8999999761581421,-19.5,16.619998931884766
1777561224809142300,19.483142333984375,0.7199999690055847,-19.68000030517578,17.279998779296875
1777561224819213300,19.49321337890625,3,-19.739999771118164,17.100000381469727
1777561224829284000,19.5032841796875,4.739999771118164,-19.85999870300293,17.520000457763672
1777561224839355000,19.51335498046875,6.359999656677246,-20.03999900817871,18.18000030517578
1777561224849425700,19.52342578125,5.400000095367432,-19.799999237060547,18.420000076293945
1777561224859496400,19.533496337890625,4.259999752044678,-19.619998931884766,18.600000381469727
1777561224869536800,19.543536865234376,2.5799999237060547,-19.439998626708984,19.19999885559082
1777561224889647900,19.56364794921875,1.9199999570846558,-18.35999870300293,20.03999900817871
1777561224899718700,19.57371875,1.3199999332427979,-17.69999885559082,21.479999542236328
1777561224909789400,19.58378955078125,2.5199999809265137,-16.020000457763672,22.619998931884766
1777561224919860200,19.593860107421875,3.6599998474121094,-14.519999504089355,23.100000381469727
1777561224929869800,19.603869873046875,4.079999923706055,-12.84000015258789,23.51999855041504
1777561224939971300,19.613971435546876,5.400000095367432,-10.859999656677246,23.399999618530273
1777561224950042000,19.6240419921875,4.920000076293945,-9.420000076293945,23.100000381469727
1777561224960051700,19.6340517578125,4.079999923706055,-7.919999599456787,23.69999885559082
1777561224970092000,19.644092041015625,3.059999942779541,-6.239999771118164,24.53999900817871
1777561224980132400,19.65413232421875,1.3199999332427979,-4.980000019073486,25.3799991607666
1777561225000243500,19.674243408203125,2.0399999618530273,-1.0799999237060547,26.34000015258789
1777561225030395000,19.704394775390625,4.019999980926514,4.980000019073486,26.399999618530273
1777561225040465700,19.714465576171875,5.400000095367432,6.779999732971191,26.639999389648438
1777561225050536400,19.724536376953125,6.239999771118164,8.220000267028809,26.459999084472656
1777561225060637700,19.7346376953125,7.079999923706055,9.359999656677246,26.219999313354492
1777561225070739200,19.7447392578125,6.179999828338623,10.739999771118164,26.03999900817871
1777561225080810000,19.75481005859375,3.240000009536743,11.34000015258789,24.65999984741211
1777561225090850000,19.76485009765625,1.4399999380111694,12.539999961853027,23.81999969482422
1777561225121001500,19.79500146484375,-1.3799999952316284,17.100000381469727,21.84000015258789
1777561225131072300,19.805072265625,-1.3199999332427979,18.420000076293945,20.8799991607666
1777561225141143000,19.81514306640625,-0.47999998927116394,19.19999885559082,20.579999923706055
1777561225161284600,19.83528466796875,2.5799999237060547,20.34000015258789,19.3799991607666
1777561225171355600,19.845355712890626,2.0999999046325684,20.760000228881836,18.899999618530273
1777561225181395700,19.855395751953125,0.6599999666213989,20.520000457763672,17.399999618530273
1777561225191497200,19.865497314453126,-1.1399999856948853,20.219999313354492,16.5
1777561225221648400,19.8956484375,-1.6200000047683716,21.84000015258789,15.899999618530273
1777561225231719400,19.905719482421876,-0.05999999865889549,21.959999084472656,16.139999389648438
1777561225241790200,19.915790283203126,1.7400000095367432,22.5,16.739999771118164
1777561225251830300,19.925830322265625,2.6399998664855957,22.139999389648438,16.619998931884766
1777561225261840100,19.935840087890625,3.7799999713897705,21.420000076293945,17.100000381469727
1777561225271911000,19.945910888671875,3.059999942779541,21.600000381469727,17.520000457763672
1777561225281981700,19.955981689453125,1.0799999237060547,20.8799991607666,17.459999084472656
