time,seconds_elapsed,z,y,x
1777561205200481000,-0.12551904296875,0,0,-0.0012217304902151227
1777561205220522500,-0.1054775390625,-0.15760323405265808,0.38240164518356323,0.2125810980796814
1777561205240233700,-0.085766357421875,0.2272418737411499,-0.23090706765651703,-0.6695083379745483
1777561205270446000,-0.055553955078125,0.1869247704744339,0.08307767659425735,-0.021991148591041565
1777561205280486400,-0.045513671875,0.1966986060142517,0.08796459436416626,-0.006108652334660292
1777561205300628000,-0.0253720703125,0.21868975460529327,0.09040805697441101,-0.036651913076639175
1777561205310668300,-0.015331787109375,0.23579397797584534,0.09162978827953339,-0.06352998316287994
1777561205330749000,0.0047490234375,0.2590068578720093,0.11362093687057495,-0.07941248267889023
1777561205350921000,0.0249208984375,0.3029891550540924,0.13927727937698364,-0.06963863968849182
1777561205371062500,0.0450625,0.35552358627319336,0.15271630883216858,-0.08918632566928864
1777561205391204000,0.0652041015625,0.44226643443107605,0.19058994948863983,-0.0806342139840126
1777561205411315200,0.085315185546875,0.5595525503158569,0.26633724570274353,-0.030543262138962746
1777561205431426300,0.10542626953125,0.740368664264679,0.27488934993743896,-0.1270599663257599
1777561205461608200,0.135608154296875,0.979827880859375,0.2528982162475586,-0.34208452701568604
1777561205471679000,0.145678955078125,1.007927656173706,0.2382374405860901,-0.3689626157283783
1777561205481688800,0.155688720703125,0.9920451641082764,0.2541199326515198,-0.33108896017074585
1777561205491790000,0.1657900390625,0.9834930300712585,0.3017674386501312,-0.2125810980796814
1777561205501830400,0.175830322265625,0.9737191796302795,0.3689626157283783,-0.024434609338641167
1777561205511870700,0.18587060546875,0.9358455538749695,0.4288274049758911,0.12217304855585098
1777561205521941500,0.19594140625,0.9053022861480713,0.4544837474822998,0.19914206862449646
1777561205552153900,0.22615380859375,0.8600982427597046,0.4508185386657715,0.03787364438176155
1777561205602477300,0.276477294921875,0.8735373020172119,0.34086281061172485,-0.45326200127601624
1777561205622649600,0.296649658203125,0.8808676600456238,0.38117989897727966,-0.3836233615875244
1777561205683074300,0.35707421875,1.0152580738067627,0.4031710624694824,-0.7415903806686401
1777561205743468500,0.417468505859375,1.2510520219802856,0.6194173693656921,-0.9272934198379517
1777561205753508900,0.4275087890625,1.3096951246261597,0.6572909951210022,-0.96883225440979
1777561205763610000,0.437610107421875,1.380555510520935,0.7086036801338196,-1.0311405658721924
1777561205773681000,0.447680908203125,1.4831807613372803,0.7721336483955383,-1.1423180103302002
1777561205803862800,0.47786279296875,1.8753563165664673,0.8979719281196594,-2.057394027709961
1777561205834044700,0.508044677734375,2.4190263748168945,0.9358455538749695,-3.352428436279297
1777561205884398800,0.55839892578125,3.4293975830078125,0.5815436840057373,-5.867971420288086
1777561205894500000,0.5685,3.6163222789764404,0.5290092825889587,-6.093991756439209
1777561205914611200,0.588611083984375,3.9681806564331055,0.5241223573684692,-6.1514129638671875
1777561205934722300,0.608722412109375,4.274835109710693,0.3628539443016052,-5.644394874572754
1777561205995086000,0.669086181640625,5.031085968017578,1.1630873680114746,-3.584557294845581
1777561206015227600,0.6892275390625,5.158145904541016,1.3060299158096313,-3.2070424556732178
1777561206025298400,0.69929833984375,5.213123798370361,1.4489723443984985,-2.5583035945892334
1777561206035338800,0.7093388671875,5.263215065002441,1.7654005289077759,-1.8069393634796143
1777561206045409500,0.719409423828125,5.269323825836182,2.0891592502593994,-1.1997393369674683
1777561206065520600,0.739520751953125,5.021312236785889,2.6670377254486084,-0.8038986921310425
1777561206075591400,0.74959130859375,4.801400661468506,2.7953193187713623,-1.0030407905578613
1777561206085692700,0.759692626953125,4.558276653289795,2.682920217514038,-1.215621829032898
1777561206105773300,0.779773193359375,4.030488967895508,2.2235496044158936,-1.0409144163131714
1777561206166137000,0.84013720703125,1.4538593292236328,1.4477506875991821,2.0195205211639404
1777561206196319000,0.870319091796875,0.25045475363731384,1.016479730606079,1.566258430480957
1777561206226592300,0.90059228515625,-0.21380282938480377,0.35674530267715454,0.740368664264679
1777561206266906000,0.940906005859375,-0.5363397002220154,-0.15271630883216858,-0.475253164768219
1777561206307158800,0.98115869140625,-1.29381263256073,-0.34697145223617554,-0.4508185386657715
1777561206367583500,1.04158349609375,-2.3664920330047607,-0.32131510972976685,0.3029891550540924
1777561206438079200,1.112079345703125,-2.8686232566833496,-0.3237585723400116,1.0971139669418335
1777561206498504000,1.17250390625,-2.6902506351470947,-0.3689626157283783,1.2034045457839966
1777561206579039700,1.253039794921875,-2.090380907058716,-0.455705463886261,0.4948008358478546
1777561206619231500,1.2932314453125,-1.6847662925720215,-0.37751471996307373,0.02687807008624077
1777561206649443800,1.32344384765625,-1.3781119585037231,-0.40683624148368835,-0.1771509200334549
1777561206689696500,1.363696533203125,-1.1007791757583618,-0.4288274049758911,-0.2577851414680481
1777561206729949200,1.40394921875,-0.5082398653030396,-0.34208452701568604,-0.4801400899887085
1777561206780273000,1.45427294921875,0.304210901260376,-0.4251621961593628,-0.4043927788734436
1777561206810454500,1.48445458984375,0.8515461683273315,-0.1612684279680252,-0.8381071090698242
1777561206820556000,1.49455615234375,1.047023057937622,-0.051312681287527084,-1.1129964590072632
1777561206830626800,1.504626708984375,1.244943380355835,0.01710422709584236,-1.2974777221679688
1777561206840758500,1.514758544921875,1.4648548364639282,0.02687807008624077,-1.264491081237793
1777561206850829300,1.524829345703125,1.7153096199035645,0.010995574295520782,-1.0335839986801147
1777561206871001600,1.545001708984375,2.2149972915649414,-0.06230825558304787,-0.5632177591323853
1777561206881102800,1.555102783203125,2.442239284515381,-0.09285151958465576,-0.4899139404296875
1777561206901275000,1.57527490234375,2.824640989303589,-0.08796459436416626,-0.5974262356758118
1777561206921355500,1.59535546875,3.0946433544158936,-0.04153883829712868,-0.797789990901947
1777561206951598300,1.625598388671875,3.306002616882324,0.2223549485206604,-0.988379955291748
1777561206971740200,1.645740234375,3.3512067794799805,0.37140607833862305,-0.7428121566772461
1777561207042205200,1.716205078125,2.869844913482666,0.8625417351722717,0.998153805732727
1777561207072356600,1.746356689453125,2.1991147994995117,0.7867944240570068,1.1520918607711792
1777561207082457900,1.756457763671875,1.9217820167541504,0.6951646208763123,1.0726794004440308
1777561207142852000,1.81685205078125,0.7843509912490845,0.49846604466438293,-0.48747047781944275
1777561207163024100,1.837024169921875,0.6719517707824707,0.4813618063926697,-0.7819074988365173
1777561207183135200,1.85713525390625,0.5668829679489136,0.3995058834552765,-0.6304129362106323
1777561207203276800,1.87727685546875,0.42638394236564636,0.2773328125476837,-0.26511552929878235
1777561207223449000,1.897448974609375,0.31642818450927734,0.2565633952617645,0.07208210229873657
1777561207263762700,1.9377626953125,-0.11484266817569733,0.35552358627319336,0.8759807348251343
1777561207303954400,1.977954345703125,-0.5106833577156067,0.5375614166259766,1.7519614696502686
1777561207354186200,2.028186279296875,-0.7733554244041443,0.5216789245605469,2.129476308822632
1777561207424682000,2.098681884765625,-1.359786033630371,-1.7373007535934448,-0.08552113175392151
1777561207515136000,2.189135986328125,-3.699399948120117,-0.8222246170043945,-1.3561208248138428
1777561207595641300,2.269641357421875,-4.29804801940918,-0.015882495790719986,0.09040805697441101
1777561207676085800,2.350085693359375,-3.523470640182495,-0.3225368559360504,0.5607742667198181
1777561207686156500,2.360156494140625,-3.3793065547943115,-0.37140607833862305,0.48258355259895325
1777561207696196900,2.37019677734375,-3.243694543838501,-0.40194934606552124,0.3604104816913605
1777561207716277500,2.390277587890625,-2.9798007011413574,-0.43249258399009705,0.09773843735456467
1777561207726348300,2.400348388671875,-2.8099801540374756,-0.44593164324760437,0.03176499158143997
1777561207736419000,2.410419189453125,-2.6426031589508057,-0.4605923891067505,-0.006108652334660292
1777561207746459400,2.42045947265625,-2.4752259254455566,-0.48258355259895325,-0.013439035043120384
1777561207776641300,2.450641357421875,-1.9254472255706787,-0.43249258399009705,0.2272418737411499
1777561207816894000,2.49089404296875,-0.9615018963813782,-0.3738495409488678,0.5351179838180542
1777561207826964700,2.50096484375,-0.5839871764183044,-0.2785545587539673,0.3628539443016052
1777561207837035500,2.511035400390625,-0.13439035415649414,-0.16371189057826996,0.1258382350206375
1777561207847106300,2.521106201171875,0.35674530267715454,-0.07452555745840073,-0.09285151958465576
1777561207887420000,2.561419921875,2.1624629497528076,0.13316862285137177,-0.3237585723400116
1777561207897490700,2.57149072265625,2.4214699268341064,0.16859880089759827,-0.3701843321323395
1777561207907592200,2.58159228515625,2.609616279602051,0.18936823308467865,-0.4080579876899719
1777561207917632500,2.591632568359375,2.791654109954834,0.2015855312347412,-0.384845107793808
1777561207927703300,2.601703369140625,2.9969048500061035,0.19425514340400696,-0.23090706765651703
1777561207937774000,2.611774169921875,3.174055814743042,0.1966986060142517,0.05619960278272629
1777561207947814400,2.621814453125,3.2925636768341064,0.23457226157188416,0.42149701714515686
1777561207957885200,2.63188525390625,3.2925636768341064,0.23457226157188416,0.42149701714515686
1777561207978026800,2.65202685546875,3.5381314754486084,0.45204028487205505,0.9676105380058289
1777561208008239000,2.682239013671875,3.7055084705352783,0.5925393104553223,0.6120869517326355
1777561208018279400,2.692279541015625,3.7678167819976807,0.6524040699005127,0.40194934606552124
1777561208028319700,2.70231982421875,3.8117990493774414,0.6841690540313721,0.2480112910270691
1777561208038329300,2.712329345703125,3.8264598846435547,0.6988298296928406,0.14049901068210602
1777561208048430800,2.722430908203125,3.8166861534118652,0.7318165898323059,0.04764748737215996
1777561208058501600,2.732501708984375,3.79958176612854,0.8234463334083557,-0.03176499158143997
1777561208078582000,2.75258203125,3.671300172805786,0.93095862865448,-0.02687807008624077
1777561208088652800,2.76265283203125,3.55645751953125,0.9712757468223572,0.12950342893600464
1777561208108764000,2.782763916015625,3.3145549297332764,1.0934487581253052,0.9077457785606384
1777561208159057000,2.833056884765625,2.269975185394287,1.4147639274597168,3.2901201248168945
1777561208189269200,2.863269287109375,1.5723671913146973,1.8558086156845093,4.877148151397705
1777561208209441500,2.883441650390625,1.2095131874084473,2.1087067127227783,4.726875305175781
1777561208229583000,2.9035830078125,0.9896016716957092,2.2675318717956543,3.7641515731811523
1777561208279876000,2.9538759765625,1.1655309200286865,1.7275269031524658,-0.03298672288656235
1777561208289977300,2.963977294921875,1.2290608882904053,1.7287486791610718,-0.978606104850769
1777561208320128800,2.994128662109375,1.5894713401794434,1.1985175609588623,-3.1532864570617676
1777561208350371600,3.02437158203125,1.4953981637954712,-0.2064724564552307,-1.880243182182312
1777561208380553500,3.054553466796875,0.9077457785606384,-0.4398229718208313,-0.5180137157440186
1777561208390655000,3.064655029296875,0.5900958180427551,-0.5180137157440186,-0.50335294008255
1777561208420836900,3.0948369140625,-0.3995058834552765,-1.0543533563613892,-0.9908234477043152
1777561208461089500,3.135089599609375,-1.7702875137329102,-1.197295904159546,-1.6505578756332397
1777561208501311500,3.1753115234375,-3.0579915046691895,-0.9138544201850891,-2.0757200717926025
1777561208561706000,3.2357060546875,-4.0158281326293945,-0.6450737118721008,-0.960280179977417
1777561208591918300,3.26591845703125,-4.103792667388916,-0.5412266254425049,-0.1966986060142517
1777561208652343000,3.326343017578125,-3.751934289932251,-0.9456194043159485,0.9431759119033813
1777561208672515300,3.346515380859375,-3.578448534011841,-1.1191051006317139,0.8393288254737854
1777561208712768000,3.38676806640625,-3.280346393585205,-1.2864822149276733,0.4789183437824249
1777561208763091500,3.437091552734375,-2.5717427730560303,-1.1520918607711792,0.02321287989616394
1777561208793181700,3.467181640625,-1.9083430767059326,-1.0421360731124878,0.7721336483955383
1777561208843505200,3.517505126953125,-0.09529497474431992,-0.3543018400669098,0.5155702829360962
1777561208913939700,3.587939697265625,2.0390682220458984,0.4948008358478546,-0.19425514340400696
1777561208934112000,3.608112060546875,2.409252643585205,0.5974262356758118,-0.17959438264369965
1777561208944152000,3.618152099609375,2.56563401222229,0.6352998614311218,-0.22602014243602753
1777561208954192400,3.6281923828125,2.691472291946411,0.66584312915802,-0.31642818450927734
1777561208964263200,3.63826318359375,2.7953193187713623,0.6927211880683899,-0.4056145250797272
1777561208974303500,3.648303466796875,2.8881709575653076,0.7171558141708374,-0.45204028487205505
1777561208984374300,3.658374267578125,2.9712486267089844,0.7134906053543091,-0.455705463886261
1777561209034697700,3.70869775390625,3.076317310333252,0.7147123217582703,-0.7257078886032104
1777561209044768500,3.7187685546875,3.050661087036133,0.7257078886032104,-0.7806857824325562
1777561209064910300,3.738910400390625,2.961474657058716,0.7660250067710876,-0.7806857824325562
1777561209074950400,3.748950439453125,2.9077186584472656,0.789237916469574,-0.7269296646118164
1777561209085021200,3.759021240234375,2.8576276302337646,0.7855727076530457,-0.6487388610839844
1777561209095122700,3.769122802734375,2.8075366020202637,0.7745771408081055,-0.5522221922874451
1777561209105193500,3.779193359375,2.758667469024658,0.7672467231750488,-0.4386012554168701
1777561209135436300,3.809436279296875,2.596177339553833,0.7770205736160278,0.02076941914856434
1777561209145476600,3.8194765625,2.5692992210388184,0.8112290501594543,0.2577851414680481
1777561209155547400,3.82954736328125,2.5534167289733887,0.799011766910553,0.4960225820541382
1777561209165618200,3.8396181640625,2.5448646545410156,0.7635815739631653,0.6731734871864319
1777561209175689000,3.84968896484375,2.5387558937072754,0.7342600226402283,0.7635815739631653
1777561209185729300,3.859729248046875,2.528982162475586,0.7012733221054077,0.7574729323387146
1777561209226012400,3.900012451171875,2.442239284515381,0.789237916469574,0.31154128909111023
1777561209236083200,3.910083251953125,2.4544565677642822,0.9004153609275818,0.18570303916931152
1777561209256225000,3.93022509765625,2.417804718017578,1.1191051006317139,0.04764748737215996
1777561209266265000,3.94026513671875,2.39825701713562,1.1288789510726929,0.059864792972803116
1777561209276305400,3.950305419921875,2.356718063354492,1.0653489828109741,0.07452555745840073
1777561209286376200,3.960376220703125,2.2797491550445557,1.0152580738067627,0.10384709388017654
1777561209296477700,3.970477783203125,2.2125539779663086,1.086118459701538,0.2064724564552307
1777561209326659600,4.00065966796875,1.987755537033081,0.7941248416900635,0.9541715383529663
1777561209346770700,4.020770751953125,1.6273449659347534,0.13072516024112701,1.1239920854568481
1777561209356841500,4.030841552734375,1.3243558406829834,0.1368338167667389,0.9553932547569275
1777561209366912300,4.040912353515625,0.9101892113685608,0.2431243658065796,0.6951646208763123
1777561209376983000,4.050983154296875,0.4337143301963806,0.31154128909111023,0.4386012554168701
1777561209387023400,4.0610234375,-0.06230825558304787,0.2773328125476837,0.2638937830924988
1777561209397063400,4.0710634765625,-0.5375614166259766,0.14416420459747314,0.10751228034496307
1777561209417144000,4.09114404296875,-0.9346238374710083,-0.03787364438176155,-0.12828169763088226
1777561209437255200,4.111255126953125,-1.5748106241226196,-0.3445279896259308,-0.8991936445236206
1777561209447295500,4.12129541015625,-1.8851301670074463,-0.41172316670417786,-1.2681562900543213
1777561209457335800,4.131335693359375,-2.183232307434082,-0.4129449129104614,-1.5234979391098022
1777561209467376000,4.141376220703125,-2.4605650901794434,-0.3591887652873993,-1.6688838005065918
1777561209477416400,4.15141650390625,-2.713463306427002,-0.27977627515792847,-1.7434093952178955
1777561209487456500,4.16145654296875,-3.152064561843872,-0.16982053220272064,-1.547932505607605
1777561209497496800,4.171496826171875,-3.152064561843872,-0.16982053220272064,-1.547932505607605
1777561209507537200,4.181537109375,-3.3402111530303955,-0.1319468915462494,-1.1924089193344116
1777561209517608000,4.19160791015625,-3.503922939300537,-0.10506882518529892,-0.6719517707824707
1777561209557860600,4.231860595703125,-3.992615222930908,-0.23335053026676178,1.587027907371521
1777561209567931400,4.241931396484375,-4.04881477355957,-0.29565876722335815,1.7690657377243042
1777561209577971700,4.2519716796875,-4.078136444091797,-0.3677408695220947,1.7788395881652832
1777561209588042500,4.26204248046875,-4.096462249755859,-0.4239404797554016,1.6847662925720215
1777561209598113300,4.27211328125,-4.096462249755859,-0.47769662737846375,1.5540411472320557
1777561209608153600,4.282153564453125,-4.057366847991943,-0.5326744914054871,1.4159855842590332
1777561209628295200,4.302295166015625,-3.949854612350464,-0.656069278717041,1.1313223838806152
1777561209648436700,4.322436767578125,-3.89121150970459,-0.8026769161224365,0.9053022861480713
1777561209658507500,4.332507568359375,-3.827681541442871,-0.901637077331543,0.788016140460968
1777561209668578600,4.34257861328125,-3.7617082595825195,-1.0152580738067627,0.6218608021736145
1777561209678649300,4.3526494140625,-3.679852247238159,-1.1337659358978271,0.4153883755207062
1777561209688689400,4.362689453125,-3.6004397869110107,-1.2302825450897217,0.1966986060142517
1777561209698760200,4.37276025390625,-3.536909818649292,-1.273043155670166,0.024434609338641167
1777561209708800500,4.382800537109375,-3.4648277759552,-1.2718214988708496,-0.06475171446800232
1777561209718871300,4.392871337890625,-3.393967390060425,-1.246165156364441,-0.09651670604944229
1777561209728942000,4.402942138671875,-3.299894094467163,-1.2082914113998413,-0.08307767659425735
1777561209749053200,4.42305322265625,-3.0531044006347656,-1.1447614431381226,-0.09407325088977814
1777561209759093500,4.433093505859375,-2.863736152648926,-1.1093312501907349,-0.10018189996480942
1777561209769164300,4.443164306640625,-2.5912904739379883,-1.1154398918151855,-0.10751228034496307
1777561209779235000,4.453235107421875,-2.3383922576904297,-1.1276572942733765,-0.16371189057826996
1777561209789275400,4.463275390625,-2.101376533508301,-1.1325441598892212,-0.22968533635139465
1777561209799346200,4.47334619140625,-1.8313740491867065,-1.1362093687057495,-0.25534167885780334
1777561209809386500,4.483386474609375,-1.5332717895507812,-1.0714576244354248,-0.23090706765651703
1777561209819457300,4.493457275390625,-1.1850786209106445,-0.9395107626914978,-0.19547687470912933
1777561209829528000,4.503528076171875,-0.779464066028595,-0.7733554244041443,-0.20036379992961884
1777561209849669600,4.523669677734375,0.12950342893600464,-0.4544837474822998,-0.24923302233219147
1777561209869842000,4.543842041015625,0.7770205736160278,-0.2370157092809677,-0.2528982162475586
1777561209879943200,4.553943115234375,0.9932668805122375,-0.10751228034496307,-0.25534167885780334
1777561209889983500,4.5639833984375,1.1936306953430176,0.024434609338641167,-0.294437050819397
1777561209900054300,4.57405419921875,1.3964380025863647,0.14416420459747314,-0.384845107793808
1777561209910094600,4.584094482421875,1.5906931161880493,0.25045475363731384,-0.513126790523529
1777561209920195800,4.59419580078125,1.7690657377243042,0.35552358627319336,-0.5913175344467163
1777561209950347300,4.62434716796875,2.1930062770843506,0.6792821288108826,-0.06841690838336945
1777561209960448500,4.634448486328125,2.2675318717956543,0.7000515460968018,0.1966986060142517
1777561209970519300,4.644519287109375,2.3713788986206055,0.7073819637298584,0.4178318381309509
1777561209980590000,4.654590087890625,2.495995283126831,0.7171558141708374,0.5522221922874451
1777561209990660900,4.664660888671875,2.607172966003418,0.7379252314567566,0.6059783101081848
1777561210000731600,4.674731689453125,2.6988027095794678,0.769690215587616,0.616973876953125
1777561210010772000,4.68477197265625,2.780658483505249,0.8185594081878662,0.6279694437980652
1777561210020873500,4.69487353515625,2.8466320037841797,0.8747590184211731,0.646295428276062
1777561210040984300,4.714984375,2.9138271808624268,0.9395107626914978,0.685390830039978
1777561210061126100,4.735126220703125,2.9382617473602295,0.9468411207199097,0.6707300543785095
1777561210071166200,4.745166259765625,2.9431488513946533,0.9285151958465576,0.616973876953125
1777561210081237200,4.7552373046875,2.941926956176758,0.9028588533401489,0.5302310585975647
1777561210091277300,4.76527734375,2.9333748817443848,0.8674286603927612,0.4251621961593628
1777561210101317600,4.775317626953125,2.9236011505126953,0.8197811841964722,0.3090978264808655
1777561210111388400,4.785388427734375,2.9126055240631104,0.7672467231750488,0.20036379992961884
1777561210121459200,4.795459228515625,2.8857274055480957,0.7183775305747986,0.10751228034496307
1777561210151610600,4.825610595703125,2.772106409072876,0.6096435189247131,-0.0354301854968071
1777561210171752200,4.845752197265625,2.6645941734313965,0.5448917746543884,0.03420845419168472
1777561210191893800,4.865893798828125,2.5326473712921143,0.4948008358478546,0.10384709388017654
1777561210201995300,4.875995361328125,2.461786985397339,0.4789183437824249,0.1111774742603302
1777561210212035600,4.88603564453125,2.3774874210357666,0.46547931432724,0.13439035415649414
1777561210222106400,4.8961064453125,2.289522886276245,0.475253164768219,0.1918116807937622
1777561210232146400,4.906146484375,2.2064452171325684,0.504574716091156,0.26511552929878235
1777561210252288300,4.926288330078125,2.03540301322937,0.6255260109901428,0.35185837745666504
1777561210282500600,4.95650048828125,1.901012659072876,0.827111542224884,0.4349360466003418
1777561210302642200,4.97664208984375,1.803274154663086,0.7037167549133301,0.4544837474822998
1777561210312682500,4.9866826171875,1.7654005289077759,0.6023131608963013,0.3982841372489929
1777561210322753300,4.996753173828125,1.7263051271438599,0.5387831330299377,0.2687807083129883
1777561210332824000,5.006823974609375,1.6774359941482544,0.5167919993400574,0.1160643994808197
1777561210363036400,5.037036376953125,1.4599679708480835,0.0354301854968071,-0.32620203495025635
1777561210383178000,5.057177978515625,1.0922271013259888,-0.3689626157283783,-0.7709119319915771
1777561210393187800,5.067187744140625,0.8307767510414124,-0.3494149148464203,-1.0067058801651
1777561210403289000,5.0772890625,0.5229006409645081,-0.27977627515792847,-1.187522053718567
1777561210413329400,5.087329345703125,0.18936823308467865,-0.2223549485206604,-1.2901474237442017
1777561210423400200,5.097400146484375,-0.1258382350206375,-0.2076941877603531,-1.3561208248138428
1777561210433410000,5.10741015625,-0.40072759985923767,-0.23090706765651703,-1.4330898523330688
1777561210443511300,5.11751123046875,-0.6487388610839844,-0.2736676335334778,-1.5503759384155273
1777561210483703000,5.157703125,-1.549154281616211,-0.3139847218990326,-1.9633208513259888
1777561210493743000,5.1677431640625,-1.7446311712265015,-0.2590068578720093,-1.9181169271469116
1777561210503814100,5.177814208984375,-1.9523253440856934,-0.1869247704744339,-1.82404363155365
1777561210513823700,5.18782373046875,-2.1649065017700195,-0.10384709388017654,-1.6994271278381348
1777561210523894500,5.19789453125,-2.353052854537964,-0.028099801391363144,-1.577254056930542
1777561210533965300,5.20796533203125,-2.5130996704101562,0.030543262138962746,-1.470963478088379
1777561210544036000,5.2180361328125,-2.648711681365967,0.0659734457731247,-1.3585642576217651
1777561210584258300,5.25825830078125,-3.0775392055511475,0.18081611394882202,-0.49846604466438293
1777561210594298600,5.268298583984375,-3.1422908306121826,0.1918116807937622,-0.24923302233219147
1777561210604399900,5.27839990234375,-3.2229249477386475,0.16859880089759827,-0.08796459436416626
1777561210614470700,5.288470703125,-3.3072245121002197,0.12461651116609573,0.024434609338641167
1777561210624511000,5.298510986328125,-3.378084897994995,0.08674286305904388,0.1368338167667389
1777561210634551300,5.30855126953125,-3.4355061054229736,0.03787364438176155,0.2638937830924988
1777561210644622000,5.3186220703125,-3.4855971336364746,-0.02321287989616394,0.394618958234787
1777561210654692900,5.32869287109375,-3.5332446098327637,-0.08429940044879913,0.504574716091156
1777561210694945500,5.368945556640625,-3.615100622177124,-0.394618958234787,0.7086036801338196
1777561210705047000,5.379047119140625,-3.6199874877929688,-0.4691445231437683,0.7330383062362671
1777561210715117800,5.389117919921875,-3.5992181301116943,-0.5326744914054871,0.759916365146637
1777561210725188600,5.399188720703125,-3.584557294845581,-0.5729916095733643,0.7806857824325562
1777561210735229000,5.40922900390625,-3.5882225036621094,-0.5791002511978149,0.8148942589759827
1777561210745269000,5.41926904296875,-3.584557294845581,-0.5681046843528748,0.8784242272377014
1777561210775451000,5.449450927734375,-3.3377676010131836,-0.5937610268592834,0.8185594081878662
1777561210785552400,5.459552490234375,-3.2180380821228027,-0.616973876953125,0.6646214127540588
1777561210795623200,5.469623046875,-3.0995302200317383,-0.6059783101081848,0.43615779280662537
1777561210805724400,5.479724365234375,-2.9492573738098145,-0.5571091175079346,0.23335053026676178
1777561210815795200,5.489795166015625,-2.6865854263305664,-0.4911356568336487,0.10873401165008545
1777561210825896400,5.499896484375,-2.6865854263305664,-0.4911356568336487,0.10873401165008545
1777561210835936800,5.509936767578125,-2.3469443321228027,-0.3982841372489929,-0.0024434609804302454
1777561210846038300,5.520038330078125,-1.949881911277771,-0.2541199326515198,-0.13805554807186127
1777561210876281000,5.550281005859375,-0.750142514705658,0.2871066629886627,-0.3127630054950714
1777561210896392200,5.57039208984375,0.17104226350784302,0.48258355259895325,0.00855211354792118
1777561210906463000,5.580462890625,0.17104226350784302,0.48258355259895325,0.00855211354792118
1777561210916442000,5.590442138671875,0.32986724376678467,0.5412266254425049,0.03298672288656235
1777561210926543600,5.600543701171875,0.4544837474822998,0.5962044596672058,0.013439035043120384
1777561210936614400,5.610614501953125,0.5607742667198181,0.6426302194595337,0.02932153269648552
1777561210946654700,5.62065478515625,0.6499606370925903,0.6682865619659424,0.13561208546161652
1777561210976836600,5.650836669921875,0.8674286603927612,0.5876523852348328,0.6120869517326355
1777561210986907400,5.660907470703125,0.9480628371238708,0.5290092825889587,0.5998696684837341
1777561210996947500,5.670947509765625,1.0348057746887207,0.4691445231437683,0.49235737323760986
1777561211017089300,5.69108935546875,1.273043155670166,0.38117989897727966,0.18814650177955627
1777561211027160000,5.70116015625,1.3976596593856812,0.3481931984424591,0.045204028487205505
1777561211037230800,5.71123095703125,1.5161675214767456,0.31031954288482666,-0.0757472887635231
1777561211047301600,5.721301513671875,1.6407840251922607,0.2736676335334778,-0.16371189057826996
1777561211067443200,5.741443115234375,1.9058995246887207,0.26633724570274353,-0.26633724570274353
1777561211077483500,5.7514833984375,2.0219640731811523,0.2919935882091522,-0.3396410644054413
1777561211107726300,5.781726318359375,2.29440975189209,0.3323107063770294,-0.6951646208763123
1777561211127868000,5.801867919921875,2.4581217765808105,0.2565633952617645,-0.9969320893287659
1777561211137938700,5.811938720703125,2.5216517448425293,0.21624629199504852,-1.1398745775222778
1777561211148009500,5.822009521484375,2.554638385772705,0.18081611394882202,-1.2424999475479126
1777561211158049800,5.8320498046875,2.5619688034057617,0.1270599663257599,-1.2596040964126587
1777561211178222000,5.85222216796875,2.554638385772705,-0.0354301854968071,-0.9859365224838257
1777561211208373200,5.882373291015625,2.6206119060516357,-0.18081611394882202,-0.10751228034496307
1777561211218444000,5.892444091796875,2.6645941734313965,-0.22602014243602753,0.2883284091949463
1777561211228545500,5.902545654296875,2.7281241416931152,-0.23335053026676178,0.7489207983016968
1777561211238585900,5.9125859375,2.8356363773345947,-0.16004669666290283,1.2388347387313843
1777561211248656600,5.92265673828125,2.995683193206787,-0.012217304669320583,1.6713273525238037
1777561211258727400,5.9327275390625,3.196047067642212,0.21380282938480377,1.9694294929504395
1777561211268798200,5.942798095703125,3.411071538925171,0.4911356568336487,2.090380907058716
1777561211288909300,5.962909423828125,3.7861428260803223,1.0140362977981567,1.793500304222107
1777561211298980000,5.97297998046875,3.933972120285034,1.1459832191467285,1.4453071355819702
1777561211309111800,5.98311181640625,3.9632937908172607,1.076344609260559,1.0421360731124878
1777561211319182600,5.9931826171875,3.9816195964813232,0.8503243923187256,0.6963863968849182
1777561211329253400,6.00325341796875,4.087910175323486,0.6316346526145935,0.3787364661693573
1777561211339324200,6.01332421875,4.1160101890563965,0.5009095072746277,0.09529497474431992
1777561211349425700,6.02342578125,3.98895001411438,0.3738495409488678,-0.14416420459747314
1777561211359435300,6.033435302734375,3.7531561851501465,0.1466076523065567,-0.30054569244384766
1777561211369536800,6.043536865234375,3.447723388671875,-0.13927727937698364,-0.3445279896259308
1777561211399718700,6.07371875,2.120924234390259,-0.38240164518356323,-0.5827654600143433
1777561211409820000,6.08381982421875,1.5149458646774292,-0.32009339332580566,-0.7391469478607178
1777561211419860200,6.093860107421875,0.8991936445236206,-0.22357667982578278,-0.9077457785606384
1777561211440001800,6.114001708984375,-0.16982053220272064,-0.0403171069920063,-1.2107349634170532
1777561211460143400,6.134143310546875,-0.9492846131324768,0.015882495790719986,-1.3072515726089478
1777561211490325200,6.1643251953125,-1.804495930671692,0.14416420459747314,-1.0128145217895508
1777561211500365600,6.174365478515625,-2.001194477081299,0.22846360504627228,-0.8869763612747192
1777561211510436400,6.184436279296875,-2.172236919403076,0.3384193480014801,-0.7855727076530457
1777561211520507100,6.194507080078125,-2.339613914489746,0.4495968222618103,-0.7024950385093689
1777561211530578000,6.204577880859375,-2.5130996704101562,0.5241223573684692,-0.5644394755363464
1777561211540618200,6.2146181640625,-2.649933338165283,0.5791002511978149,-0.30054569244384766
1777561211550689000,6.22468896484375,-2.7488934993743896,0.6255260109901428,0.051312681287527084
1777561211560729300,6.234729248046875,-2.8539624214172363,0.6487388610839844,0.3982841372489929
1777561211580901400,6.2549013671875,-3.115412712097168,0.6377432942390442,0.8784242272377014
1777561211631255600,6.305255615234375,-3.478266716003418,0.4251621961593628,1.3365731239318848
1777561211651427600,6.325427490234375,-3.5747833251953125,0.29565876722335815,1.1484266519546509
1777561211661498400,6.335498291015625,-3.5882225036621094,0.22846360504627228,1.037249207496643
1777561211671569200,6.345569091796875,-3.6053266525268555,0.15760323405265808,0.9004153609275818
1777561211691680300,6.36568017578125,-3.62609601020813,0.0708603709936142,0.6499606370925903
1777561211711821800,6.38582177734375,-3.573561668395996,0.025656340643763542,0.485027015209198
1777561211721923000,6.395923095703125,-3.5503487586975098,0.0024434609804302454,0.46181413531303406
1777561211732024600,6.406024658203125,-3.484375476837158,-0.012217304669320583,0.48869219422340393
1777561211742095400,6.416095458984375,-3.391523838043213,-0.012217304669320583,0.5485569834709167
1777561211752135700,6.4261357421875,-3.288898468017578,0.009773843921720982,0.5900958180427551
1777561211762237000,6.43623681640625,-3.1581733226776123,0.0403171069920063,0.5913175344467163
1777561211772277200,6.44627734375,-2.9859092235565186,0.06108652427792549,0.5546656250953674
1777561211782348000,6.45634814453125,-2.7928760051727295,0.07696902006864548,0.5082398653030396
1777561211802459100,6.476459228515625,-2.2675318717956543,0.12828169763088226,0.5302310585975647
1777561211852813000,6.52681298828125,-0.1514945775270462,0.31031954288482666,1.567480206489563
1777561211903075600,6.57707568359375,2.4446825981140137,0.44593164324760437,1.1997393369674683
1777561211973540600,6.64754052734375,3.871663808822632,0.8063421249389648,0.7843509912490845
1777561211993682200,6.66768212890625,3.782477617263794,0.7171558141708374,0.44837507605552673
1777561212013823700,6.68782373046875,3.6102135181427,0.6133087277412415,0.0757472887635231
1777561212023833600,6.69783349609375,3.5075881481170654,0.5815436840057373,-0.004886921960860491
1777561212033904400,6.707904296875,3.397632598876953,0.5852088928222656,-0.015882495790719986
1777561212044005600,6.718005615234375,3.2730159759521484,0.616973876953125,0.012217304669320583
1777561212074157000,6.748156982421875,2.8368582725524902,0.8894197940826416,0.1466076523065567
1777561212094298600,6.768298583984375,2.5534167289733887,1.0873401165008545,0.35674530267715454
1777561212134643000,6.808642822265625,1.9828685522079468,1.1484266519546509,1.3671164512634277
1777561212154723300,6.828723388671875,1.7299703359603882,1.1410962343215942,1.8399261236190796
1777561212184905200,6.8589052734375,1.4575244188308716,0.9957103729248047,2.155132532119751
1777561212215148300,6.889148193359375,1.2192870378494263,0.6841690540313721,2.266309976577759
1777561212225219000,6.899218994140625,1.166752576828003,0.5595525503158569,2.1123719215393066
1777561212235320300,6.9093203125,1.1056660413742065,0.4434881806373596,1.814269781112671
1777561212245360600,6.919360595703125,1.0005972385406494,0.30054569244384766,1.4379768371582031
1777561212255431400,6.929431396484375,0.8857545852661133,0.19303341209888458,1.0604621171951294
1777561212275603500,6.949603515625,0.608421802520752,0.09407325088977814,0.5290092825889587
1777561212305816000,6.979816162109375,0.12828169763088226,-0.013439035043120384,0.3689626157283783
1777561212315856400,6.9898564453125,-0.045204028487205505,-0.018325956538319588,0.4153883755207062
1777561212325927200,6.99992724609375,-0.21502456068992615,-0.030543262138962746,0.4801400899887085
1777561212336028400,7.0100283203125,-0.3836233615875244,-0.0659734457731247,0.5595525503158569
1777561212346099200,7.02009912109375,-0.5656611919403076,-0.1014036312699318,0.6389650702476501
1777561212356170000,7.030169921875,-0.5656611919403076,-0.1014036312699318,0.6389650702476501
1777561212376220200,7.05022021484375,-0.9443976879119873,-0.13316862285137177,0.7574729323387146
1777561212386291000,7.060291015625,-1.1288789510726929,-0.1417207419872284,0.807563841342926
1777561212406402000,7.080402099609375,-1.7348573207855225,-0.019547687843441963,1.2217304706573486
1777561212416503300,7.09050341796875,-1.7348573207855225,-0.019547687843441963,1.2217304706573486
1777561212426543600,7.100543701171875,-1.9339994192123413,0.10262536257505417,1.4892895221710205
1777561212436614400,7.110614501953125,-2.1001546382904053,0.19547687470912933,1.7739527225494385
1777561212446654700,7.12065478515625,-2.2259929180145264,0.23335053026676178,2.0341813564300537
1777561212456725500,7.1307255859375,-2.317622661590576,0.23090706765651703,2.244318962097168
1777561212466796300,7.14079638671875,-2.3799309730529785,0.2028072625398636,2.3860397338867188
1777561212496917000,7.1709169921875,-2.3994786739349365,0,2.685363531112671
1777561212527160000,7.20116015625,-2.328618288040161,-0.32131510972976685,2.255314588546753
1777561212537230800,7.21123095703125,-2.3066272735595703,-0.42638394236564636,1.968207836151123
1777561212547271200,7.221271240234375,-2.285857677459717,-0.5082398653030396,1.6994271278381348
1777561212557372400,7.231372314453125,-2.2626447677612305,-0.5705481171607971,1.4599679708480835
1777561212567443200,7.241443115234375,-2.2455406188964844,-0.6230825781822205,1.2412781715393066
1777561212577514000,7.251513916015625,-2.246762275695801,-0.6670648455619812,1.0592403411865234
1777561212627776500,7.301776611328125,-2.3127357959747314,-0.607200026512146,0.9431759119033813
1777561212637816800,7.31181689453125,-2.2992968559265137,-0.5693264007568359,0.988379955291748
1777561212647857000,7.32185693359375,-2.269975185394287,-0.5290092825889587,1.018923282623291
1777561212657927700,7.331927734375,-2.2321016788482666,-0.48869219422340393,1.0250319242477417
1777561212667998700,7.341998779296875,-2.188119411468506,-0.4544837474822998,1.017701506614685
1777561212688109600,7.362109619140625,-2.063502788543701,-0.3787364661693573,1.009149432182312
1777561212698211000,7.372211181640625,-1.9853121042251587,-0.33108896017074585,1.0103710889816284
1777561212708312300,7.382312255859375,-1.8961256742477417,-0.2773328125476837,1.0054842233657837
1777561212718383000,7.392383056640625,-1.7996090650558472,-0.22602014243602753,0.9896016716957092
1777561212728423400,7.40242333984375,-1.6957619190216064,-0.18570303916931152,0.9663888216018677
1777561212738494200,7.412494140625,-1.5809192657470703,-0.15515977144241333,0.9382890462875366
1777561212748534500,7.422534423828125,-1.4611896276474,-0.12828169763088226,0.8979719281196594
1777561212758605300,7.432605224609375,-1.3390166759490967,-0.08796459436416626,0.8417723178863525
1777561212768645600,7.442645751953125,-1.2180652618408203,-0.021991148591041565,0.769690215587616
1777561212798858000,7.47285791015625,-0.8319984674453735,0.19425514340400696,0.5974262356758118
1777561212829070300,7.5030703125,-0.47769662737846375,0.3433062732219696,0.43127086758613586
1777561212839110700,7.513110595703125,-0.39706242084503174,0.4251621961593628,0.40683624148368835
1777561212849181400,7.523181396484375,-0.3188716471195221,0.5412266254425049,0.4386012554168701
1777561212859252200,7.533252197265625,-0.2382374405860901,0.6609562039375305,0.504574716091156
1777561212869292500,7.54329248046875,-0.15760323405265808,0.7611380815505981,0.5925393104553223
1777561212879363300,7.55336328125,-0.045204028487205505,0.8552113175392151,0.6548475623130798
1777561212889434000,7.56343408203125,0.12950342893600464,0.9028588533401489,0.6536257863044739
1777561212909575700,7.58357568359375,0.5229006409645081,0.8735373020172119,0.43249258399009705
1777561212919677200,7.59367724609375,0.7134906053543091,0.9566149711608887,0.3286454975605011
1777561212929748000,7.603748046875,0.901637077331543,1.1325441598892212,0.2968805134296417
1777561212939849200,7.61384912109375,1.0311405658721924,1.3231340646743774,0.3701843321323395
1777561212949889500,7.6238896484375,1.1068878173828125,1.4575244188308716,0.5742133259773254
1777561212959960300,7.633960205078125,1.1459832191467285,1.528384804725647,0.856433093547821
1777561212970000600,7.644000732421875,1.1533136367797852,1.5906931161880493,1.1227703094482422
1777561212980071400,7.654071533203125,1.1520918607711792,1.6920967102050781,1.3365731239318848
1777561212990111700,7.66411181640625,1.1423180103302002,1.822821855545044,1.4660766124725342
1777561213010283800,7.68428369140625,1.1007791757583618,2.001194477081299,1.6701055765151978
1777561213030364400,7.704364501953125,1.1386528015136719,2.0867156982421875,2.155132532119751
1777561213040435200,7.714435302734375,1.1630873680114746,2.079385280609131,2.356718063354492
1777561213050506000,7.724506103515625,1.2278391122817993,2.0647244453430176,2.4361305236816406
1777561213060576800,7.73457666015625,1.330464482307434,2.096489429473877,2.313957452774048
1777561213070647600,7.7446474609375,1.3927727937698364,2.144136905670166,1.9657644033432007
1777561213080748800,7.754748779296875,1.4575244188308716,2.14902400970459,1.6371188163757324
1777561213110961200,7.784961181640625,1.588249683380127,1.927890658378601,1.7812830209732056
1777561213141143000,7.81514306640625,1.3903292417526245,1.8399261236190796,1.7140878438949585
1777561213151183400,7.825183349609375,1.2510520219802856,1.8264870643615723,1.605353832244873
1777561213161284600,7.83528466796875,1.1301007270812988,1.8081611394882202,1.5515977144241333
1777561213171325000,7.845324951171875,1.0238101482391357,1.7641788721084595,1.5418238639831543
1777561213181395700,7.855395751953125,0.9028588533401489,1.6872098445892334,1.5467108488082886
1777561213191436000,7.86543603515625,0.7770205736160278,1.585806131362915,1.5613715648651123
1777561213201476400,7.875476318359375,0.66584312915802,1.5063936710357666,1.566258430480957
1777561213231627800,7.905627685546875,0.2883284091949463,1.2131783962249756,1.4844025373458862
1777561213241729000,7.91572900390625,0.20525072515010834,1.1166616678237915,1.4844025373458862
1777561213251769300,7.925769287109375,0.10384709388017654,1.0250319242477417,1.441641926765442
1777561213261840100,7.935840087890625,-0.0024434609804302454,0.9529497623443604,1.3524556159973145
1777561213271941400,7.94594140625,-0.08796459436416626,0.8796459436416626,1.23394775390625
1777561213282012200,7.95601220703125,-0.13561208546161652,0.7916813492774963,1.1337659358978271
1777561213292083200,7.966083251953125,-0.13072516024112701,0.6890559792518616,1.1178834438323975
1777561213312224800,7.986224853515625,-0.00733038317412138,0.4740314185619354,1.2559388875961304
1777561213332396800,8.006396728515625,0.08429940044879913,0.294437050819397,1.4159855842590332
1777561213342437000,8.01643701171875,0.11362093687057495,0.1918116807937622,1.5601497888565063
1777561213352477400,8.0264775390625,0.14416420459747314,0.06352998316287994,1.892460584640503
1777561213362548200,8.03654833984375,0.16493362188339233,-0.030543262138962746,2.355496406555176
1777561213372588500,8.046588623046874,0.18081611394882202,-0.0806342139840126,2.7965409755706787
1777561213382689800,8.056689697265625,0.17348572611808777,-0.10995574295520782,3.070208787918091
1777561213392699600,8.06669970703125,0.1368338167667389,-0.14782938361167908,3.137403964996338
1777561213412871700,8.08687158203125,0.02321287989616394,-0.21380282938480377,2.789210796356201
1777561213422973000,8.096972900390625,-0.036651913076639175,-0.2871066629886627,2.5619688034057617
1777561213443114500,8.117114501953125,-0.16982053220272064,-0.4153883755207062,2.0867156982421875
1777561213453185300,8.127185302734375,-0.2382374405860901,-0.48869219422340393,1.8350391387939453
1777561213463195100,8.137195068359375,-0.30054569244384766,-0.5656611919403076,1.5943583250045776
1777561213473266000,8.147265869140625,-0.39706242084503174,-0.6145304441452026,1.398881435394287
1777561213483367200,8.1573671875,-0.47769662737846375,-0.6243042945861816,1.3561208248138428
1777561213493377000,8.167376953125,-0.5216789245605469,-0.6450737118721008,1.4538593292236328
1777561213503478300,8.177478271484375,-0.5791002511978149,-0.7147123217582703,1.615127682685852
1777561213523619800,8.197619873046875,-0.7147123217582703,-1.06657075881958,1.99752938747406
1777561213533629700,8.207629638671875,-0.827111542224884,-1.2388347387313843,2.146580457687378
1777561213543731000,8.21773095703125,-0.9431759119033813,-1.351233959197998,2.258979558944702
1777561213553832400,8.22783251953125,-1.0714576244354248,-1.4172073602676392,2.3041837215423584
1777561213563903200,8.2379033203125,-1.2376129627227783,-1.4587461948394775,2.2736403942108154
1777561213573943600,8.247943603515624,-1.4343116283416748,-1.4611896276474,2.2015583515167236
1777561213584014300,8.258014404296874,-1.6224581003189087,-1.3915510177612305,2.140471935272217
1777561213594085000,8.268085205078124,-1.7470746040344238,-1.2889256477355957,2.120924234390259
1777561213604186400,8.278186279296875,-1.7983872890472412,-1.2082914113998413,2.135584831237793
1777561213624358400,8.2983583984375,-1.7690657377243042,-1.207069754600525,2.163684606552124
1777561213644469500,8.318469482421875,-1.6688838005065918,-1.2217304706573486,2.040289878845215
1777561213654509800,8.328509765625,-1.626123309135437,-1.2376129627227783,1.9168951511383057
1777561213664580600,8.33858056640625,-1.6029103994369507,-1.2620476484298706,1.7702875137329102
1777561213674651400,8.3486513671875,-1.5968017578125,-1.2877039909362793,1.6016886234283447
1777561213684722200,8.35872216796875,-1.6102408170700073,-1.3158037662506104,1.4037683010101318
1777561213694793000,8.36879296875,-1.644449234008789,-1.3329079151153564,1.1838568449020386
1777561213704802800,8.378802734375,-1.6896532773971558,-1.3451253175735474,0.9566149711608887
1777561213724944400,8.3989443359375,-1.7837265729904175,-1.350012183189392,0.5522221922874451
1777561213745055500,8.419055419921875,-1.8655824661254883,-1.282817006111145,0.2638937830924988
1777561213755126300,8.429126220703125,-1.8875735998153687,-1.2180652618408203,0.1771509200334549
1777561213765197000,8.439197021484375,-1.890017032623291,-1.1435397863388062,0.11972958594560623
1777561213775237400,8.4492373046875,-1.8790215253829956,-1.0604621171951294,0.07452555745840073
1777561213785277700,8.459277587890625,-1.86191725730896,-0.9676105380058289,0.025656340643763542
1777561213795348500,8.469348388671875,-1.8399261236190796,-0.8662069439888,-0.010995574295520782
1777561213805419300,8.479419189453125,-1.8399261236190796,-0.8662069439888,-0.010995574295520782
1777561213825560800,8.499560791015625,-1.7544050216674805,-0.6682865619659424,0.12095131725072861
1777561213845763600,8.519763671875,-1.633453607559204,-0.4801400899887085,0.43249258399009705
1777561213855864800,8.52986474609375,-1.5699236392974854,-0.4092797040939331,0.5424483418464661
1777561213865905200,8.5399052734375,-1.5149458646774292,-0.3396410644054413,0.5949827432632446
1777561213875976000,8.549975830078125,-1.4697418212890625,-0.2638937830924988,0.6035348773002625
1777561213886046700,8.560046630859375,-1.4245377779006958,-0.18081611394882202,0.5803219676017761
1777561213896087000,8.570087158203124,-1.380555510520935,-0.09407325088977814,0.5277875661849976
1777561213906127400,8.58012744140625,-1.3377948999404907,-0.010995574295520782,0.4447098970413208
1777561213916228600,8.590228515625,-1.2583824396133423,0.15271630883216858,0.19914206862449646
1777561213936400600,8.610400634765625,-1.2192870378494263,0.2382374405860901,0.06719517707824707
1777561213946471400,8.620471435546875,-1.1814134120941162,0.33108896017074585,-0.051312681287527084
1777561213956542200,8.630542236328125,-1.1410962343215942,0.4300491213798523,-0.1466076523065567
1777561213966613000,8.640613037109375,-1.0885618925094604,0.5253441333770752,-0.21991148591041565
1777561213976684000,8.65068408203125,-1.027475357055664,0.6157521605491638,-0.28099802136421204
1777561213986724000,8.66072412109375,-0.9663888216018677,0.7086036801338196,-0.32620203495025635
1777561213996764400,8.670764404296875,-0.9089674949645996,0.7965682744979858,-0.34574973583221436
1777561214006835200,8.680835205078125,-0.8405506014823914,0.8662069439888,-0.31642818450927734
1777561214016906000,8.690906005859375,-0.7574729323387146,0.9040805697441101,-0.24068090319633484
1777561214027007500,8.701007568359374,-0.6731734871864319,0.9297369122505188,-0.14416420459747314
1777561214067290600,8.74129052734375,-0.2528982162475586,0.911410927772522,-0.059864792972803116
1777561214077331000,8.7513310546875,-0.1160643994808197,0.9162978529930115,-0.09773843735456467
1777561214087401700,8.761401611328125,0.051312681287527084,0.8857545852661133,-0.06841690838336945
1777561214097472500,8.771472412109375,0.251676470041275,0.8796459436416626,-0.02932153269648552
1777561214107543300,8.781543212890625,0.45204028487205505,0.9615018963813782,-0.05619960278272629
1777561214117583600,8.79158349609375,0.6670648455619812,1.0519099235534668,-0.16982053220272064
1777561214127654400,8.801654296875,0.9260717034339905,1.1007791757583618,-0.3481931984424591
1777561214137694700,8.81169482421875,1.186300277709961,1.0897835493087769,-0.5522221922874451
1777561214157866800,8.83186669921875,1.5601497888565063,0.9077457785606384,-0.6890559792518616
1777561214167937500,8.8419375,1.6762142181396484,0.8698720932006836,-0.5852088928222656
1777561214178008300,8.85200830078125,1.7373007535934448,0.9248499870300293,-0.4153883755207062
1777561214188079000,8.8620791015625,1.7250834703445435,1.0250319242477417,-0.2028072625398636
1777561214198150000,8.87214990234375,1.6872098445892334,1.1178834438323975,0.06841690838336945
1777561214208220700,8.882220703125,1.653001308441162,1.1911872625350952,0.35063666105270386
1777561214218291500,8.89229150390625,1.5809192657470703,1.1997393369674683,0.5937610268592834
1777561214228393000,8.90239306640625,1.5063936710357666,1.1655309200286865,0.7318165898323059
1777561214248504000,8.922504150390624,1.4856243133544922,1.1129964590072632,0.6023131608963013
1777561214268645600,8.942645751953124,1.5332717895507812,1.0421360731124878,0.2321287989616394
1777561214278747000,8.952746826171875,1.567480206489563,0.9834930300712585,0.028099801391363144
1777561214288817700,8.962817626953125,1.643227458000183,0.93095862865448,-0.2431243658065796
1777561214298888400,8.972888427734375,1.7434093952178955,0.8796459436416626,-0.6059783101081848
1777561214308959200,8.982959228515625,1.7800613641738892,0.846659243106842,-1.0629055500030518
1777561214319030000,8.993030029296875,1.7776178121566772,0.8087855577468872,-1.500285029411316
1777561214329100800,9.003100830078125,1.8203784227371216,0.7428121566772461,-1.8753563165664673
1777561214359313400,9.0333134765625,1.7556266784667969,0.6157521605491638,-1.9620991945266724
1777561214369384200,9.04338427734375,1.7409659624099731,0.6108652353286743,-1.5931365489959717
1777561214379455000,9.053455078125,1.7140878438949585,0.6230825781822205,-1.1496484279632568
1777561214389525800,9.06352587890625,1.6603317260742188,0.616973876953125,-0.675616979598999
1777561214399596500,9.073596435546875,1.5943583250045776,0.5803219676017761,-0.20891591906547546
1777561214409667300,9.083667236328125,1.5063936710357666,0.5387831330299377,0.19425514340400696
1777561214419738000,9.093738037109375,1.3854423761367798,0.5143485069274902,0.48380526900291443
1777561214429809000,9.103808837890625,1.253495454788208,0.49724429845809937,0.6536257863044739
1777561214449950500,9.123950439453125,0.9651671051979065,0.4544837474822998,0.797789990901947
1777561214460021200,9.134021240234375,0.8197811841964722,0.4593706727027893,0.7513642311096191
1777561214470092000,9.144092041015625,0.7000515460968018,0.4642575979232788,0.6255260109901428
1777561214480193500,9.154193603515624,0.5827654600143433,0.4190535545349121,0.4813618063926697
1777561214490264300,9.164264404296874,0.485027015209198,0.35063666105270386,0.3396410644054413
1777561214500304400,9.174304443359375,0.3836233615875244,0.2993239760398865,0.21135938167572021
1777561214510375400,9.18437548828125,0.2590068578720093,0.2736676335334778,0.12828169763088226
1777561214520446200,9.1944462890625,0.12339477986097336,0.2687807083129883,0.11972958594560623
1777561214530517000,9.20451708984375,-0.00366519158706069,0.2822197377681732,0.2064724564552307
1777561214570769700,9.244769775390624,-0.5143485069274902,0.3274237811565399,0.8319984674453735
1777561214590880800,9.264880859375,-0.7440338730812073,0.3176499307155609,1.018923282623291
1777561214600951600,9.27495166015625,-0.8258898258209229,0.31031954288482666,1.1044443845748901
1777561214611052800,9.285052734375,-0.8894197940826416,0.2871066629886627,1.177748203277588
1777561214621123600,9.29512353515625,-0.9358455538749695,0.2431243658065796,1.23394775390625
1777561214631224800,9.305224853515625,-0.9724974632263184,0.20036379992961884,1.2571606636047363
1777561214651366400,9.325366455078125,-1.0653489828109741,0.10751228034496307,1.2877039909362793
1777561214671508200,9.34550830078125,-1.0299187898635864,0.02076941914856434,1.2620476484298706
1777561214681517800,9.355517822265625,-1.0250319242477417,-0.042760565876960754,1.1545352935791016
1777561214691619300,9.365619384765624,-1.0299187898635864,-0.11972958594560623,1.0005972385406494
1777561214701690000,9.375690185546874,-1.0030407905578613,-0.1563815027475357,0.8454375267028809
1777561214711730200,9.385730224609375,-1.016479730606079,-0.15027284622192383,0.7024950385093689
1777561214721770500,9.3957705078125,-1.0873401165008545,-0.11484266817569733,0.6572909951210022
1777561214731841300,9.40584130859375,-1.0983357429504395,-0.12461651116609573,0.7147123217582703
1777561214772155100,9.446155029296875,-1.244943380355835,-0.3066543638706207,0.779464066028595
1777561214782226000,9.456225830078125,-1.2693779468536377,-0.49357911944389343,0.6096435189247131
1777561214792235800,9.46623583984375,-1.4110987186431885,-0.8344419002532959,0.44593164324760437
1777561214802306600,9.476306640625,-1.588249683380127,-1.1606439352035522,0.3176499307155609
1777561214812377300,9.48637744140625,-1.7849482297897339,-1.3768903017044067,0.19914206862449646
1777561214822417700,9.496417724609374,-2.0415115356445312,-1.4526375532150269,-0.013439035043120384
1777561214832488400,9.506488525390624,-2.326174736022949,-1.4159855842590332,-0.3604104816913605
1777561214862700800,9.53670068359375,-3.391523838043213,-1.0751228332519531,-1.4660766124725342
1777561214882842400,9.55684228515625,-3.977954387664795,-0.6695083379745483,-1.7079792022705078
1777561214892913200,9.5669130859375,-4.136779308319092,-0.4495968222618103,-1.703092336654663
1777561214903014400,9.577014404296875,-4.236961364746094,-0.27611109614372253,-1.6224581003189087
1777561214913085200,9.587085205078125,-4.299269676208496,-0.1563815027475357,-1.4563027620315552
1777561214923125500,9.59712548828125,-4.317595481872559,-0.04642575979232788,-1.2510520219802856
1777561214933196300,9.6071962890625,-4.311486721038818,0.045204028487205505,-0.9932668805122375
1777561214943267000,9.61726708984375,-4.268726348876953,0.12828169763088226,-0.6536257863044739
1777561214973449000,9.647448974609375,-3.9681806564331055,0.23579397797584534,0.8723155856132507
1777561214983519700,9.657519775390625,-3.8337903022766113,0.21013765037059784,1.3377948999404907
1777561214993590500,9.667590576171875,-3.706730365753174,0.1466076523065567,1.643227458000183
1777561215003661600,9.67766162109375,-3.584557294845581,0.04764748737215996,1.7922786474227905
1777561215013762800,9.6877626953125,-3.439171314239502,-0.06230825558304787,1.832595705986023
1777561215023833600,9.69783349609375,-3.26935076713562,-0.16737708449363708,1.8301522731781006
1777561215033934800,9.707934814453125,-3.0946433544158936,-0.26145032048225403,1.8179349899291992
1777561215044005600,9.718005615234375,-2.900388240814209,-0.3323107063770294,1.7580702304840088
1777561215064147200,9.738147216796875,-2.4251351356506348,-0.4996877610683441,1.3439035415649414
1777561215074248700,9.748248779296874,-2.1649065017700195,-0.6157521605491638,1.0238101482391357
1777561215084288800,9.758288818359375,-1.9083430767059326,-0.7098253965377808,0.6939429044723511
1777561215094390300,9.768390380859374,-1.663996934890747,-0.7770205736160278,0.3995058834552765
1777561215104400000,9.77839990234375,-1.4269812107086182,-0.8148942589759827,0.15882496535778046
1777561215114501400,9.78850146484375,-1.1887437105178833,-0.8185594081878662,-0.03787364438176155
1777561215124602600,9.7986025390625,-0.9346238374710083,-0.807563841342926,-0.19914206862449646
1777561215134673400,9.80867333984375,-0.6609562039375305,-0.8026769161224365,-0.3225368559360504
1777561215144683300,9.818683349609374,-0.38728857040405273,-0.799011766910553,-0.4031710624694824
1777561215164794400,9.83879443359375,0.2028072625398636,-0.8087855577468872,-0.3836233615875244
1777561215174865200,9.848865234375,0.5839871764183044,-0.7672467231750488,-0.3078760802745819
1777561215184844300,9.85884423828125,1.0482447147369385,-0.6829473376274109,-0.21013765037059784
1777561215205016300,9.879016357421875,2.141693592071533,-0.4386012554168701,0.09285151958465576
1777561215235198200,9.9091982421875,4.156327247619629,0.3933972120285034,0.5583308339118958
1777561215245238500,9.919238525390625,4.819726943969727,0.6120869517326355,0.5461135506629944
1777561215255309300,9.929309326171875,5.384166240692139,0.7574729323387146,0.3604104816913605
1777561215275420400,9.94942041015625,6.103765487670898,0.9101892113685608,-0.43127086758613586
1777561215285522000,9.95952197265625,6.320011615753174,0.9822713136672974,-0.8319984674453735
1777561215345855000,10.01985498046875,6.106208801269531,1.3952162265777588,-0.8246681094169617
1777561215355956500,10.02995654296875,5.833763122558594,1.341460108757019,-0.4190535545349121
1777561215396209200,10.070209228515624,4.04881477355957,0.9944885969161987,2.9859092235565186
1777561215416350700,10.090350830078124,2.8625144958496094,1.273043155670166,4.735427379608154
1777561215426391000,10.10039111328125,1.7861700057983398,1.598023533821106,4.875926494598389
1777561215436492300,10.1104921875,1.7861700057983398,1.598023533821106,4.875926494598389
1777561215446563000,10.12056298828125,1.359786033630371,1.626123309135437,4.42755126953125
1777561215456633900,10.1306337890625,1.0458012819290161,1.6310101747512817,3.743382215499878
1777561215466704600,10.14070458984375,0.8087855577468872,1.616349458694458,2.9798007011413574
1777561215486846200,10.16084619140625,0.4386012554168701,1.4355332851409912,1.9120081663131714
1777561215496917000,10.1709169921875,0.2736676335334778,1.340238332748413,1.624901533126831
1777561215506987800,10.18098779296875,0.19303341209888458,1.253495454788208,1.4196507930755615
1777561215517089300,10.19108935546875,0.14782938361167908,1.166752576828003,1.1679743528366089
1777561215527129300,10.20112939453125,0.08674286305904388,1.0848966836929321,0.8112290501594543
1777561215537200400,10.211200439453124,0.03420845419168472,0.998153805732727,0.38117989897727966
1777561215547271200,10.221271240234374,0.02076941914856434,0.9004153609275818,-0.04153883829712868
1777561215557372400,10.231372314453125,0.00855211354792118,0.8112290501594543,-0.3787364661693573
1777561215567443200,10.241443115234375,-0.009773843921720982,0.7672467231750488,-0.5754350423812866
1777561215577514000,10.251513916015625,0.02076941914856434,0.7440338730812073,-0.6524040699005127
1777561215597686000,10.27168603515625,0.14294247329235077,0.47769662737846375,-0.5949827432632446
1777561215617858300,10.2918583984375,0.1466076523065567,0.018325956538319588,-0.5021312236785889
1777561215637999900,10.311999755859375,0.17104226350784302,-0.10018189996480942,-0.5607742667198181
1777561215648070700,10.322070556640625,0.16737708449363708,-0.14905111491680145,-0.675616979598999
1777561215658141400,10.332141357421875,0.17959438264369965,-0.34574973583221436,-0.7452555894851685
1777561215668181800,10.342181640625,0.2015855312347412,-0.636521577835083,-0.8234463334083557
1777561215698394000,10.37239404296875,-0.16249015927314758,-1.3829989433288574,-1.3475687503814697
1777561215708434400,10.382434326171875,-0.3995058834552765,-1.379333734512329,-1.5723671913146973
1777561215718535700,10.39253564453125,-0.7024950385093689,-1.3060299158096313,-1.7336355447769165
1777561215728606500,10.4026064453125,-1.0787880420684814,-1.216843605041504,-1.8191566467285156
1777561215738677200,10.41267724609375,-1.4868459701538086,-1.1410962343215942,-1.8496999740600586
1777561215748748000,10.422748046875,-1.8765780925750732,-1.1044443845748901,-1.8472565412521362
1777561215758818800,10.43281884765625,-2.2272145748138428,-1.0787880420684814,-1.8301522731781006
1777561215768889600,10.4428896484375,-2.5705208778381348,-1.0396926403045654,-1.8374826908111572
1777561215778960600,10.452960693359374,-2.9272663593292236,-0.9651671051979065,-1.8496999740600586
1777561215799102200,10.473102294921874,-3.5967745780944824,-0.7073819637298584,-1.7873916625976562
1777561215819274200,10.493274169921875,-4.172209739685059,-0.45204028487205505,-1.6310101747512817
1777561215829314600,10.503314453125,-4.395786285400391,-0.3530801236629486,-1.5503759384155273
1777561215839385300,10.51338525390625,-4.574159145355225,-0.2773328125476837,-1.4563027620315552
1777561215849395200,10.523395263671874,-4.706105709075928,-0.21380282938480377,-1.3145819902420044
1777561215859466000,10.533466064453124,-4.8026227951049805,-0.14416420459747314,-1.0971139669418335
1777561215869506000,10.543506103515625,-4.873482704162598,-0.06841690838336945,-0.846659243106842
1777561215889708800,10.563708740234375,-4.915021896362305,0.06230825558304787,-0.2724458873271942
1777561215940032300,10.6140322265625,-4.497189998626709,0.1820378452539444,1.0702359676361084
1777561215950103000,10.62410302734375,-4.301712989807129,0.15760323405265808,1.2864822149276733
1777561215960173800,10.634173828125,-4.0769147872924805,0.10751228034496307,1.4856243133544922
1777561215970244600,10.64424462890625,-3.849672794342041,0.019547687843441963,1.654223084449768
1777561215980285000,10.654284912109375,-3.6395351886749268,-0.08429940044879913,1.7825047969818115
1777561215990325200,10.6643251953125,-3.4403929710388184,-0.2064724564552307,1.863139033317566
1777561216010497300,10.684497314453125,-2.973691940307617,-0.5522221922874451,1.833817481994629
1777561216020568000,10.694568115234375,-2.718350410461426,-0.7073819637298584,1.7104226350784302
1777561216040710000,10.7147099609375,-2.1905627250671387,-0.8234463334083557,1.4001030921936035
1777561216050780700,10.72478076171875,-1.8790215253829956,-0.8808676600456238,1.3096951246261597
1777561216060851500,10.7348515625,-1.549154281616211,-1.0018190145492554,1.2718214988708496
1777561216070922200,10.744922119140625,-1.235169529914856,-1.1215485334396362,1.2877039909362793
1777561216080993000,10.754992919921875,-0.8906415104866028,-1.1508700847625732,1.3231340646743774
1777561216101134600,10.775134521484375,0,-1.1545352935791016,1.224173903465271
1777561216121306600,10.795306640625,1.06657075881958,-0.9004153609275818,0.5277875661849976
1777561216131347000,10.805346923828125,1.6872098445892334,-0.6976081132888794,0.02076941914856434
1777561216141417700,10.815417724609375,2.2675318717956543,-0.5106833577156067,-0.44715335965156555
1777561216151458000,10.8254580078125,2.783102035522461,-0.32131510972976685,-0.779464066028595
1777561216161528800,10.83552880859375,3.26935076713562,-0.13927727937698364,-0.9908234477043152
1777561216171599600,10.845599609375,3.699399948120117,0.010995574295520782,-1.19607412815094
1777561216181701000,10.855701171875,4.039041042327881,0.10995574295520782,-1.4526375532150269
1777561216201842700,10.8758427734375,4.599815368652344,0.2223549485206604,-1.940108060836792
1777561216232024600,10.906024658203124,5.13737678527832,0.3543018400669098,-1.4672982692718506
1777561216242095400,10.916095458984374,5.232671737670898,0.3799581825733185,-1.0482447147369385
1777561216252166100,10.926166259765624,5.270545482635498,0.3885102868080139,-0.6572909951210022
1777561216262237000,10.93623681640625,5.279097557067871,0.38117989897727966,-0.35674530267715454
1777561216272307700,10.9463076171875,5.275432109832764,0.375071257352829,-0.17470745742321014
1777561216282378500,10.95637841796875,5.244888782501221,0.38240164518356323,-0.1062905490398407
1777561216302550500,10.976550537109375,5.0261993408203125,0.44226643443107605,-0.1270599663257599
1777561216322692000,10.996692138671875,4.637689113616943,0.4715879559516907,-0.10995574295520782
1777561216332732400,11.006732421875,4.4067816734313965,0.45204028487205505,-0.013439035043120384
1777561216342803200,11.01680322265625,4.157548904418945,0.4251621961593628,0.16371189057826996
1777561216352874000,11.0268740234375,3.8899898529052734,0.39584067463874817,0.4105014503002167
1777561216362944800,11.03694482421875,3.608991861343384,0.3689626157283783,0.6890559792518616
1777561216373015800,11.047015869140624,3.3145549297332764,0.3494149148464203,0.9651671051979065
1777561216383117000,11.057116943359375,2.992017984390259,0.34574973583221436,1.224173903465271
1777561216403258600,11.077258544921875,2.302962064743042,0.4105014503002167,1.6420058012008667
1777561216433471000,11.107470947265625,1.340238332748413,0.5876523852348328,1.7153096199035645
1777561216443541800,11.117541748046875,1.0714576244354248,0.6414085030555725,1.5454890727996826
1777561216453612500,11.127612548828125,0.8381071090698242,0.6731734871864319,1.301142930984497
1777561216463714000,11.137714111328124,0.6243042945861816,0.675616979598999,1.0323622226715088
1777561216473815300,11.147815185546875,0.4300491213798523,0.6646214127540588,0.8087855577468872
1777561216483886000,11.157885986328125,0.26633724570274353,0.6890559792518616,0.788016140460968
1777561216493926400,11.167926513671874,0.11484266817569733,0.6866125464439392,1.1129964590072632
1777561216503936000,11.17793603515625,0.01466076634824276,0.6988298296928406,1.63467538356781
1777561216534179000,11.208178955078125,-0.20891591906547546,0.7782423496246338,2.90649676322937
1777561216544219400,11.218219482421874,-0.29565876722335815,0.7354817390441895,3.1777210235595703
1777561216554320600,11.228320556640625,-0.33719760179519653,0.6780604124069214,3.4269540309906006
1777561216564391400,11.238391357421875,-0.3139847218990326,0.636521577835083,3.5051448345184326
1777561216574462200,11.248462158203125,-0.27000242471694946,0.48747047781944275,3.3536500930786133
1777561216584502500,11.25850244140625,-0.21991148591041565,0.3127630054950714,2.981022357940674
1777561216594603800,11.268603759765625,-0.17470745742321014,0.2223549485206604,2.456900119781494
1777561216634826000,11.308825927734375,0.11484266817569733,0.08552113175392151,0.8491026759147644
1777561216654967600,11.328967529296875,-0.07330382615327835,-0.789237916469574,-0.4031710624694824
1777561216665038300,11.339038330078125,-0.3066543638706207,-1.0445796251296997,-1.1337659358978271
1777561216675139800,11.349139892578124,-0.608421802520752,-1.0494664907455444,-1.7617353200912476
1777561216685241000,11.359240966796875,-0.9590584635734558,-0.9517280459403992,-2.1905627250671387
1777561216695312000,11.369311767578125,-1.3439035415649414,-0.8637634515762329,-2.420248031616211
1777561216705352200,11.379352294921874,-1.7177530527114868,-0.8442157506942749,-2.5106561183929443
1777561216725493800,11.39949365234375,-2.39214825630188,-0.96883225440979,-2.4740042686462402
1777561216745604900,11.41960498046875,-3.011565685272217,-1.018923282623291,-2.020742177963257
1777561216755675600,11.429675537109375,-3.3035593032836914,-0.970054030418396,-1.6762142181396484
1777561216765746400,11.439746337890625,-3.587000608444214,-0.8894197940826416,-1.3353514671325684
1777561216775756300,11.44975634765625,-3.8533380031585693,-0.8051204085350037,-1.0323622226715088
1777561216785827000,11.4598271484375,-4.1025710105896,-0.7330383062362671,-0.7831292152404785
1777561216795897900,11.46989794921875,-4.328591346740723,-0.6792821288108826,-0.588874101638794
1777561216805999000,11.4799990234375,-4.510629177093506,-0.6450737118721008,-0.43127086758613586
1777561216836242000,11.510241943359375,-4.869817733764648,-0.7745771408081055,-0.21991148591041565
1777561216846312700,11.520312744140625,-4.940678119659424,-0.8454375267028809,-0.2577851414680481
1777561216856383500,11.530383544921875,-4.976108074188232,-0.9187413454055786,-0.3396410644054413
1777561216866423800,11.540423828125,-4.983438491821289,-0.9847147464752197,-0.45204028487205505
1777561216876464000,11.550464111328125,-4.965112686157227,-1.0213667154312134,-0.5803219676017761
1777561216886535000,11.560534912109375,-4.924795627593994,-1.037249207496643,-0.7171558141708374
1777561216896605700,11.570605712890625,-4.861265659332275,-1.0543533563613892,-0.8637634515762329
1777561216926818300,11.600818359375,-4.62302827835083,-1.0604621171951294,-1.0580185651779175
1777561216946990300,11.620990234375,-4.316373825073242,-1.0922271013259888,-1.0751228332519531
1777561216957061000,11.63106103515625,-4.139223098754883,-1.0934487581253052,-0.979827880859375
1777561216967162400,11.641162353515625,-3.930306911468506,-1.0971139669418335,-0.6976081132888794
1777561216977233200,11.651233154296875,-3.704286813735962,-1.1728612184524536,-0.27488934993743896
1777561216987334700,11.661334716796874,-3.4428365230560303,-1.2583824396133423,0.13561208546161652
1777561216997405400,11.671405517578124,-3.165503740310669,-1.3048081398010254,0.4508185386657715
1777561217007506700,11.681506591796875,-2.90649676322937,-1.3439035415649414,0.7916813492774963
1777561217037688600,11.7116884765625,-1.5906931161880493,-1.301142930984497,2.5326473712921143
1777561217077910800,11.751910888671874,-0.5143485069274902,-1.1129964590072632,2.3151793479919434
1777561217087981600,11.761981689453124,-0.20891591906547546,-0.9651671051979065,1.9987510442733765
1777561217098022000,11.77202197265625,0.18325957655906677,-0.7623597979545593,1.674992561340332
1777561217108123100,11.782123046875,0.6951646208763123,-0.4740314185619354,1.29381263256073
1777561217118194000,11.79219384765625,1.2767083644866943,-0.12217304855585098,0.8796459436416626
1777561217148406300,11.82240625,2.7207937240600586,0.8686503767967224,0.27977627515792847
1777561217158477000,11.83247705078125,3.0616567134857178,1.0787880420684814,0.5057964324951172
1777561217168547800,11.8425478515625,3.4746015071868896,1.207069754600525,0.799011766910553
1777561217178618600,11.85261865234375,3.7727036476135254,1.2864822149276733,0.836885392665863
1777561217188689400,11.862689453125,3.8985419273376465,1.389107584953308,0.6768386960029602
1777561217198760400,11.872760498046874,3.9852848052978516,1.5625933408737183,0.5180137157440186
1777561217208861700,11.88286181640625,4.111123085021973,1.7873916625976562,0.4092797040939331
1777561217218932500,11.892932373046875,4.25406551361084,1.977981686592102,0.3384193480014801
1777561217239043600,11.913043701171874,4.447099208831787,2.065946340560913,-0.01466076634824276
1777561217259154700,11.93315478515625,4.483750820159912,1.8643606901168823,-0.7489207983016968
1777561217269195000,11.943195068359374,4.492302894592285,1.7189748287200928,-1.1435397863388062
1777561217279265800,11.953265869140624,4.481307506561279,1.5906931161880493,-1.4184291362762451
1777561217289336600,11.963336669921874,4.4373250007629395,1.490511178970337,-1.5015068054199219
1777561217299437800,11.973437744140625,4.342030048370361,1.4245377779006958,-1.4147639274597168
1777561217309508600,11.983508544921875,4.192978858947754,1.3829989433288574,-1.2119566202163696
1777561217319579400,11.993579345703125,3.99505877494812,1.3646728992462158,-0.9285151958465576
1777561217329650200,12.003650146484375,3.74582576751709,1.3768903017044067,-0.6023131608963013
1777561217349730800,12.023730712890625,3.1887166500091553,1.4367550611495972,0.1661553531885147
1777561217369842000,12.043842041015624,2.574186086654663,1.4648548364639282,1.3854423761367798
1777561217379882200,12.05388232421875,2.2492058277130127,1.5027284622192383,1.9816468954086304
1777561217389953000,12.063953125,1.9425514936447144,1.5247195959091187,2.4239132404327393
1777561217400023800,12.07402392578125,1.6798794269561768,1.5222761631011963,2.6597073078155518
1777561217410125000,12.084125,1.4636331796646118,1.510058879852295,2.6816983222961426
1777561217420165400,12.094165283203125,1.2791517972946167,1.4868459701538086,2.4996604919433594
1777561217430236200,12.104236083984375,1.1362093687057495,1.4819591045379639,2.1820106506347656
1777561217440307000,12.114306884765625,1.0726794004440308,1.5271631479263306,1.8264870643615723
1777561217450377700,12.124377685546875,1.0787880420684814,1.577254056930542,1.4892895221710205
1777561217480590000,12.154590087890625,1.2791517972946167,1.490511178970337,0.5815436840057373
1777561217490660900,12.164660888671875,1.359786033630371,1.4782938957214355,0.27122417092323303
1777561217500701200,12.174701171875,1.4123204946517944,1.5027284622192383,0.0024434609804302454
1777561217510772000,12.18477197265625,1.4697418212890625,1.5161675214767456,-0.10751228034496307
1777561217520842800,12.1948427734375,1.5503759384155273,1.4758504629135132,0.02076941914856434
1777561217530944300,12.2049443359375,1.616349458694458,1.3952162265777588,0.30054569244384766
1777561217551085800,12.2250859375,1.6591099500656128,1.1997393369674683,0.8393288254737854
1777561217571257900,12.2452578125,1.7434093952178955,1.1582005023956299,1.1496484279632568
1777561217581298200,12.255298095703125,1.742187738418579,1.1276572942733765,1.1655309200286865
1777561217591369000,12.265368896484375,1.693318486213684,0.9553932547569275,1.0714576244354248
1777561217601409300,12.2754091796875,1.588249683380127,0.5803219676017761,0.827111542224884
1777561217611480000,12.28547998046875,1.441641926765442,0.039095375686883926,0.4190535545349121
1777561217621550800,12.29555078125,1.246165156364441,-0.5424483418464661,-0.14294247329235077
1777561217631652000,12.305652099609375,0.9492846131324768,-1.0067058801651,-0.8136724829673767
1777561217641723000,12.315722900390625,0.5302310585975647,-1.263269305229187,-1.5161675214767456
1777561217681975600,12.3559755859375,-1.7727309465408325,-1.4110987186431885,-4.199087619781494
1777561217692046300,12.36604638671875,-2.3273966312408447,-1.3231340646743774,-4.773301124572754
1777561217702117400,12.376117431640624,-2.841745138168335,-1.2009611129760742,-5.183802604675293
1777561217712157400,12.386157470703125,-3.277902841567993,-1.0299187898635864,-5.291314601898193
1777561217722197800,12.39619775390625,-3.645643711090088,-0.8185594081878662,-5.0542988777160645
1777561217732268500,12.4062685546875,-3.969402313232422,-0.5925393104553223,-4.533842086791992
1777561217742308900,12.416308837890625,-4.240626335144043,-0.35185837745666504,-3.8594465255737305
1777561217762420000,12.436419921875,-4.685336589813232,0.03420845419168472,-2.4666738510131836
1777561217782561500,12.4565615234375,-5.011538505554199,0.20525072515010834,-1.0286970138549805
1777561217792632300,12.46663232421875,-5.0958380699157715,0.22968533635139465,-0.3689626157283783
1777561217802672600,12.476672607421875,-5.166698455810547,0.20891591906547546,0.13439035415649414
1777561217812713000,12.486712890625,-5.225341320037842,0.16004669666290283,0.49724429845809937
1777561217822783700,12.49678369140625,-5.247332572937012,0.1014036312699318,0.7709119319915771
1777561217832885000,12.506885009765625,-5.2412238121032715,0.0354301854968071,0.9724974632263184
1777561217842925300,12.51692529296875,-5.205793380737305,-0.045204028487205505,1.1117748022079468
1777561217873168400,12.54716845703125,-4.954117298126221,-0.49235737323760986,1.0458012819290161
1777561217883239200,12.5572392578125,-4.868596076965332,-0.6133087277412415,0.8307767510414124
1777561217893340400,12.56734033203125,-4.76841402053833,-0.7061602473258972,0.5681046843528748
1777561217903411200,12.5774111328125,-4.635245323181152,-0.789237916469574,0.29077184200286865
1777561217913512400,12.587512451171875,-4.469089984893799,-0.8625417351722717,0.04642575979232788
1777561217923583200,12.597583251953125,-4.294382572174072,-0.9053022861480713,-0.13805554807186127
1777561217933654000,12.607654052734375,-4.127005577087402,-0.9272934198379517,-0.22357667982578278
1777561217943724800,12.617724853515625,-3.960850238800049,-0.9358455538749695,-0.19792033731937408
1777561217983886000,12.657885986328125,-3.0274481773376465,-0.9541715383529663,0.6963863968849182
1777561217993987300,12.6679873046875,-2.6816983222961426,-0.9724974632263184,0.9724974632263184
1777561218004058000,12.67805810546875,-2.2736403942108154,-0.9834930300712585,1.2046263217926025
1777561218024138800,12.698138671875,-1.1496484279632568,-0.8857545852661133,1.6627751588821411
1777561218034240000,12.708239990234375,-0.40683624148368835,-0.6524040699005127,1.938886284828186
1777561218044280300,12.7182802734375,0.39706242084503174,-0.3139847218990326,2.140471935272217
1777561218064361000,12.73836083984375,1.8692476749420166,0.3274237811565399,2.120924234390259
1777561218094603800,12.768603759765625,2.8173105716705322,0.5192354321479797,0.8808676600456238
1777561218104613600,12.778613525390625,3.0408871173858643,0.3286454975605011,0.38728857040405273
1777561218114715000,12.78871484375,3.2082643508911133,0.3029891550540924,0.0757472887635231
1777561218124785700,12.79878564453125,3.327993869781494,0.4544837474822998,0.0012217304902151227
1777561218134826000,12.808825927734375,3.425732374191284,0.646295428276062,0.20402899384498596
1777561218144866300,12.8188662109375,3.469714641571045,0.8185594081878662,0.5656611919403076
1777561218154967600,12.828967529296875,3.4574973583221436,0.9749409556388855,0.8894197940826416
1777561218195250700,12.869250732421875,3.4074063301086426,1.2852604389190674,0.4349360466003418
1777561218205321500,12.879321533203125,3.400075912475586,1.303586483001709,0.0708603709936142
1777561218225432600,12.8994326171875,3.358537197113037,1.3475687503814697,-0.475253164768219
1777561218235534000,12.9095341796875,3.3402111530303955,1.380555510520935,-0.636521577835083
1777561218245574400,12.919574462890624,3.3157765865325928,1.4147639274597168,-0.7379252314567566
1777561218275786800,12.949786865234374,3.1276299953460693,1.4257594347000122,-0.7562511563301086
1777561218316130800,12.990130859375,2.858849287033081,1.321912407875061,-0.11362093687057495
1777561218326171100,13.000171142578125,2.769663095474243,1.2486085891723633,0.11972958594560623
1777561218336242000,13.010241943359375,2.6780333518981934,1.1606439352035522,0.39095374941825867
1777561218346312700,13.020312744140625,2.5644123554229736,1.0812314748764038,0.6841690540313721
1777561218356353000,13.03035302734375,2.4678955078125,1.0519099235534668,1.0103710889816284
1777561218376464100,13.050464111328125,2.3823745250701904,1.0140362977981567,1.567480206489563
1777561218396636400,13.070636474609374,2.2821924686431885,0.8894197940826416,1.6615535020828247
1777561218406676500,13.080676513671875,2.2406537532806396,0.8405506014823914,1.5845844745635986
1777561218416747300,13.090747314453125,2.2186625003814697,0.8222246170043945,1.4819591045379639
1777561218426787600,13.10078759765625,2.2186625003814697,0.8222246170043945,1.4819591045379639
1777561218436858400,13.1108583984375,2.2345449924468994,0.8527678847312927,1.330464482307434
1777561218446929200,13.12092919921875,2.2345449924468994,0.8955284357070923,0.93095862865448
1777561218457030700,13.13103076171875,2.2345449924468994,0.8955284357070923,0.93095862865448
1777561218477141800,13.151141845703124,2.5106561183929443,1.1801916360855103,0.5937610268592834
1777561218497252900,13.1712529296875,2.528982162475586,0.608421802520752,0.27122417092323303
1777561218507323600,13.18132373046875,2.4495697021484375,-0.08918632566928864,0.1612684279680252
1777561218517394400,13.19139453125,2.367713689804077,-0.5815436840057373,0.05253441259264946
1777561218527465200,13.20146533203125,2.129476308822632,-0.6524040699005127,-0.16249015927314758
1777561218537566500,13.21156640625,1.6236798763275146,-0.46670106053352356,-0.5143485069274902
1777561218547606800,13.221606689453125,0.9004153609275818,-0.2834414839744568,-0.9260717034339905
1777561218557708000,13.2317080078125,0.13072516024112701,-0.17104226350784302,-1.1716395616531372
1777561218577880300,13.25188037109375,-0.9908234477043152,0.025656340643763542,-1.1606439352035522
1777561218608031500,13.282031494140625,-1.966986060142517,-0.27977627515792847,-1.5125023126602173
1777561218618102300,13.292102294921875,-2.230879783630371,-0.3066543638706207,-1.6187928915023804
1777561218628142600,13.302142578125,-2.4972171783447266,-0.24434609711170197,-1.6371188163757324
1777561218638213400,13.31221337890625,-2.7769935131073,-0.14294247329235077,-1.6224581003189087
1777561218648253700,13.322253662109375,-3.050661087036133,-0.02932153269648552,-1.5699236392974854
1777561218658324500,13.332324462890625,-3.2730159759521484,0.07452555745840073,-1.4257594347000122
1777561218668364800,13.34236474609375,-3.4526102542877197,0.1563815027475357,-1.1276572942733765
1777561218688506400,13.36250634765625,-3.7274997234344482,0.2577851414680481,-0.14905111491680145
1777561218698577200,13.3725771484375,-3.8398988246917725,0.26022860407829285,0.36651915311813354
1777561218708587000,13.3825869140625,-3.955963373184204,0.22357667982578278,0.8051204085350037
1777561218718688300,13.392688232421875,-4.0854668617248535,0.17104226350784302,1.1533136367797852
1777561218728759000,13.402759033203125,-4.207639694213867,0.11484266817569733,1.4428637027740479
1777561218738829800,13.412829833984375,-4.322482585906982,0.05864306539297104,1.6957619190216064
1777561218748870100,13.4228701171875,-4.428772926330566,0.0024434609804302454,1.9217820167541504
1777561218758941000,13.43294091796875,-4.511850833892822,-0.0708603709936142,2.124589204788208
1777561218769011700,13.44301171875,-4.57293701171875,-0.15027284622192383,2.2883012294769287
1777561218789153300,13.4631533203125,-4.528954982757568,-0.3543018400669098,2.4715607166290283
1777561218799224000,13.47322412109375,-4.43366003036499,-0.4862487316131592,2.4495697021484375
1777561218809295000,13.483295166015624,-4.3310346603393555,-0.6035348773002625,2.337170362472534
1777561218819366000,13.493365966796874,-4.181983470916748,-0.7415903806686401,2.168571710586548
1777561218829436700,13.503436767578124,-3.980397939682007,-0.8955284357070923,1.9413297176361084
1777561218839507500,13.513507568359374,-3.765373468399048,-1.037249207496643,1.655444860458374
1777561218849578200,13.523578125,-3.5747833251953125,-1.1606439352035522,1.350012183189392
1777561218859649000,13.53364892578125,-3.3927454948425293,-1.2217304706573486,1.06657075881958
1777561218869719800,13.5437197265625,-3.1703906059265137,-1.253495454788208,0.8417723178863525
1777561218899932200,13.57393212890625,-2.5143213272094727,-1.2693779468536377,0.21624629199504852
1777561218920012800,13.5940126953125,-2.098932981491089,-1.166752576828003,-0.06475171446800232
1777561218930114000,13.604114013671875,-1.8668042421340942,-1.1044443845748901,-0.0757472887635231
1777561218940184800,13.614184814453125,-1.615127682685852,-1.0348057746887207,-0.03298672288656235
1777561218950255600,13.624255615234375,-1.3426817655563354,-0.9822713136672974,0.025656340643763542
1777561218960326400,13.634326416015625,-1.0396926403045654,-0.9053022861480713,0.09651670604944229
1777561218970366700,13.64436669921875,-0.6731734871864319,-0.7281513810157776,0.20402899384498596
1777561218990447400,13.664447265625,0.3286454975605011,-0.24556782841682434,0.636521577835083
1777561219020629200,13.694629150390625,1.8496999740600586,0.5619960427284241,1.1117748022079468
1777561219030700000,13.704699951171875,2.4043655395507812,0.9053022861480713,1.1386528015136719
1777561219040770800,13.714770751953125,2.8967230319976807,1.1850786209106445,0.9419541954994202
1777561219050841600,13.724841552734375,3.232698917388916,1.4404202699661255,0.5534439086914062
1777561219060912400,13.734912353515625,3.48071026802063,1.7153096199035645,0.10873401165008545
1777561219070983200,13.744983154296875,3.687182664871216,1.996307611465454,-0.29565876722335815
1777561219081084400,13.75508447265625,3.8508944511413574,2.241875410079956,-0.5742133259773254
1777561219091155500,13.765155517578124,3.98895001411438,2.41413950920105,-0.7073819637298584
1777561219101226200,13.775226318359374,4.095240592956543,2.5130996704101562,-0.750142514705658
1777561219121306600,13.795306640625,4.190535545349121,2.5717427730560303,-0.7819074988365173
1777561219131347000,13.805346923828125,4.21619176864624,2.5057692527770996,-0.8014551997184753
1777561219141387300,13.81538720703125,4.233295917510986,2.4080307483673096,-0.7635815739631653
1777561219151458000,13.8254580078125,4.240626335144043,2.2968533039093018,-0.608421802520752
1777561219161528800,13.83552880859375,4.223522186279297,2.1673498153686523,-0.32009339332580566
1777561219171599600,13.845599609375,4.168544292449951,2.048841953277588,0.10018189996480942
1777561219181670400,13.85567041015625,4.067140579223633,1.9547687768936157,0.618195652961731
1777561219191741200,13.8657412109375,3.9193115234375,1.901012659072876,1.186300277709961
1777561219211913500,13.88591357421875,3.503922939300537,1.8558086156845093,2.339613914489746
1777561219221984300,13.895984375,3.2400293350219727,1.82404363155365,2.8710665702819824
1777561219232024600,13.906024658203124,2.9443705081939697,1.7702875137329102,3.321885108947754
1777561219242064600,13.916064697265625,2.626720666885376,1.6884315013885498,3.660304546356201
1777561219252135700,13.9261357421875,2.3151793479919434,1.615127682685852,3.869220495223999
1777561219262237000,13.93623681640625,2.02929425239563,1.5638149976730347,3.930306911468506
1777561219272338200,13.946338134765625,1.7715091705322266,1.528384804725647,3.8362338542938232
1777561219282409000,13.956408935546875,1.5430456399917603,1.4917329549789429,3.589444160461426
1777561219312590800,13.9865908203125,1.017701506614685,1.2693779468536377,2.372600555419922
1777561219332702000,14.006701904296875,0.7305948138237,1.0824532508850098,1.8216001987457275
1777561219342772700,14.016772705078125,0.5791002511978149,0.979827880859375,1.6896532773971558
1777561219352843500,14.026843505859375,0.42271876335144043,0.8857545852661133,1.5821410417556763
1777561219362944800,14.03694482421875,0.2541199326515198,0.7757988572120667,1.4880677461624146
1777561219373015800,14.047015869140624,0.08918632566928864,0.6609562039375305,1.4037683010101318
1777561219383086600,14.057086669921874,-0.0659734457731247,0.5485569834709167,1.33168625831604
1777561219393157400,14.067157470703124,-0.21991148591041565,0.44593164324760437,1.2901474237442017
1777561219423278000,14.097278076171875,-0.636521577835083,0.2919935882091522,1.3646728992462158
1777561219433348900,14.107348876953125,-0.7391469478607178,0.2993239760398865,1.4355332851409912
1777561219443450400,14.117450439453124,-0.807563841342926,0.294437050819397,1.528384804725647
1777561219453521200,14.127521240234374,-0.8515461683273315,0.24556782841682434,1.6297885179519653
1777561219463592000,14.137592041015624,-0.8943067193031311,0.14905111491680145,1.7214182615280151
1777561219473693200,14.147693115234375,-0.9480628371238708,-0.0012217304902151227,1.7800613641738892
1777561219483733500,14.1577333984375,-1.0128145217895508,-0.17592918872833252,1.7776178121566772
1777561219493773800,14.16777392578125,-1.1007791757583618,-0.32498031854629517,1.7018705606460571
1777561219523986200,14.197986083984375,-1.4721852540969849,-0.3139847218990326,1.3915510177612305
1777561219534057000,14.208056884765625,-1.6297885179519653,-0.2321287989616394,1.4831807613372803
1777561219544097300,14.21809716796875,-1.7739527225494385,-0.16859880089759827,1.7092009782791138
1777561219554198500,14.228198486328125,-1.8692476749420166,-0.14049901068210602,1.9755382537841797
1777561219564299800,14.2382998046875,-1.909564733505249,-0.16859880089759827,2.191784381866455
1777561219574370600,14.24837060546875,-1.9315558671951294,-0.2638937830924988,2.2956316471099854
1777561219584411000,14.258410888671875,-1.9437731504440308,-0.3933972120285034,2.2870795726776123
1777561219594481700,14.268481689453125,-1.95965576171875,-0.5057964324951172,2.172236919403076
1777561219604552400,14.278552490234375,-2.043955087661743,-0.5424483418464661,1.9792033433914185
1777561219634765000,14.30876513671875,-2.5387558937072754,-0.31031954288482666,1.4917329549789429
1777561219644866300,14.3188662109375,-2.6731462478637695,-0.2076941877603531,1.3292428255081177
1777561219654937000,14.32893701171875,-2.805093288421631,-0.12828169763088226,1.1154398918151855
1777561219664977400,14.338977294921875,-2.9211575984954834,-0.0757472887635231,0.8894197940826416
1777561219675048200,14.349048095703125,-3.012787342071533,-0.03420845419168472,0.7684684991836548
1777561219685088500,14.359088623046874,-3.0775392055511475,0.045204028487205505,0.7525860071182251
1777561219695128800,14.36912890625,-3.1166343688964844,0.13439035415649414,0.7562511563301086
1777561219705169000,14.3791689453125,-3.148399591445923,0.21380282938480377,0.7415903806686401
1777561219735381500,14.409381591796874,-3.1337387561798096,0.46792277693748474,0.8014551997184753
1777561219745452300,14.419452392578124,-3.11785626411438,0.5583308339118958,0.8637634515762329
1777561219755492600,14.42949267578125,-3.1105258464813232,0.6352998614311218,0.9224064946174622
1777561219765563400,14.4395634765625,-3.0616567134857178,0.6572909951210022,0.979827880859375
1777561219775634200,14.44963427734375,-2.9883527755737305,0.6279694437980652,1.0128145217895508
1777561219785735400,14.4597353515625,-2.9138271808624268,0.5900958180427551,1.0201449394226074
1777561219795806200,14.46980615234375,-2.839301586151123,0.5778785347938538,1.009149432182312
1777561219805907500,14.479907470703125,-2.7647759914398193,0.5962044596672058,0.9908234477043152
1777561219835998000,14.509998046875,-2.495995283126831,0.6792821288108826,1.0702359676361084
1777561219846099200,14.52009912109375,-2.370157241821289,0.6731734871864319,1.1459832191467285
1777561219856139500,14.530139404296875,-2.2125539779663086,0.6487388610839844,1.2180652618408203
1777561219866240800,14.54024072265625,-2.026850938796997,0.6243042945861816,1.2852604389190674
1777561219876311600,14.5503115234375,-1.813048005104065,0.6096435189247131,1.36955988407135
1777561219886382300,14.56038232421875,-1.578475832939148,0.6157521605491638,1.4917329549789429
1777561219896392200,14.57039208984375,-1.3365731239318848,0.6340781450271606,1.624901533126831
1777561219906493400,14.580493408203125,-1.3365731239318848,0.6340781450271606,1.624901533126831
1777561219926635000,14.600635009765625,-0.8295549750328064,0.6023131608963013,1.7776178121566772
1777561219936675300,14.61067529296875,-0.5619960427284241,0.5656611919403076,1.7629570960998535
1777561219946715600,14.620715576171875,-0.3017674386501312,0.5546656250953674,1.6994271278381348
1777561219956786400,14.630786376953125,0.1661553531885147,0.5729916095733643,1.5332717895507812
1777561219966857200,14.640857177734375,0.1661553531885147,0.5729916095733643,1.5332717895507812
1777561219976928000,14.650927978515625,0.37262779474258423,0.6108652353286743,1.4526375532150269
1777561219987029200,14.661029296875,0.5998696684837341,0.6426302194595337,1.350012183189392
1777561219997069600,14.671069580078125,0.8319984674453735,0.6426302194595337,1.1850786209106445
1777561220007140400,14.681140380859375,1.0494664907455444,0.6352998614311218,0.9358455538749695
1777561220027282000,14.701281982421875,1.3817771673202515,0.7513642311096191,0.44715335965156555
1777561220047393000,14.72139306640625,1.6139060258865356,0.9676105380058289,0.4434881806373596
1777561220057463800,14.7314638671875,1.6896532773971558,0.9908234477043152,0.5742133259773254
1777561220067534800,14.741534912109374,1.7348573207855225,0.9724974632263184,0.7098253965377808
1777561220077575000,14.751574951171875,1.7385225296020508,0.9773843884468079,0.8161159753799438
1777561220087676400,14.761676513671874,1.7067575454711914,1.0286970138549805,0.8637634515762329
1777561220097716700,14.771716796875,1.6920967102050781,1.0702359676361084,0.8686503767967224
1777561220107818000,14.78181787109375,1.7104226350784302,1.0800096988677979,0.8478809595108032
1777561220117858300,14.7918583984375,1.7385225296020508,1.0702359676361084,0.8210029006004333
1777561220137969400,14.811969482421874,1.7788395881652832,1.037249207496643,0.7843509912490845
1777561220158080500,14.83208056640625,1.822821855545044,1.037249207496643,0.6988298296928406
1777561220168181800,14.842181640625,1.8264870643615723,1.056796908378601,0.6230825781822205
1777561220178222000,14.85222216796875,1.803274154663086,1.086118459701538,0.5387831330299377
1777561220188292900,14.86229296875,1.7470746040344238,1.086118459701538,0.475253164768219
1777561220198333200,14.872333251953124,1.6884315013885498,1.0580185651779175,0.46181413531303406
1777561220208373200,14.882373291015625,1.6420058012008667,1.0299187898635864,0.4862487316131592
1777561220218444000,14.892444091796875,1.5711454153060913,0.9957103729248047,0.5192354321479797
1777561220228515000,14.90251513671875,1.4721852540969849,0.9541715383529663,0.5412266254425049
1777561220248656600,14.92265673828125,1.2705997228622437,0.8845328688621521,0.5534439086914062
1777561220258727400,14.9327275390625,1.1716395616531372,0.8649851679801941,0.5375614166259766
1777561220268798200,14.942798095703125,1.0690141916275024,0.8576548099517822,0.5070181488990784
1777561220278838500,14.952838623046874,0.9541715383529663,0.8405506014823914,0.4495968222618103
1777561220288909300,14.962909423828124,0.8417723178863525,0.8087855577468872,0.3677408695220947
1777561220298949600,14.97294970703125,0.7550294399261475,0.7672467231750488,0.2773328125476837
1777561220309020400,14.9830205078125,0.6878342628479004,0.7098253965377808,0.20036379992961884
1777561220319121700,14.99312158203125,0.6255260109901428,0.646295428276062,0.18081611394882202
1777561220349364500,15.023364501953125,0.48258355259895325,0.5522221922874451,0.3530801236629486
1777561220359435300,15.033435302734375,0.4398229718208313,0.5351179838180542,0.42271876335144043
1777561220369506000,15.043506103515625,0.40072759985923767,0.5167919993400574,0.5009095072746277
1777561220379577000,15.0535771484375,0.36651915311813354,0.4948008358478546,0.5864306092262268
1777561220389648000,15.06364794921875,0.3274237811565399,0.46670106053352356,0.6609562039375305
1777561220399688000,15.07368798828125,0.29077184200286865,0.4349360466003418,0.720820963382721
1777561220409789400,15.08378955078125,0.2638937830924988,0.3836233615875244,0.7611380815505981
1777561220419829800,15.093829833984374,0.23457226157188416,0.3188716471195221,0.7855727076530457
1777561220450103000,15.12410302734375,0.09285151958465576,0.1918116807937622,0.8381071090698242
1777561220460173800,15.134173828125,0.02932153269648552,0.1820378452539444,0.8503243923187256
1777561220470275300,15.144275390625,-0.0403171069920063,0.17837265133857727,0.8625417351722717
1777561220480346000,15.15434619140625,-0.10873401165008545,0.1820378452539444,0.8906415104866028
1777561220490417000,15.1644169921875,-0.1722639948129654,0.19547687470912933,0.9382890462875366
1777561220500457200,15.174457275390624,-0.22602014243602753,0.2076941877603531,1.0067058801651
1777561220510528000,15.184528076171874,-0.26633724570274353,0.20891591906547546,1.0897835493087769
1777561220520598800,15.194598876953124,-0.2968805134296417,0.19914206862449646,1.1826350688934326
1777561220530669600,15.204669677734374,-0.32131510972976685,0.19792033731937408,1.2901474237442017
1777561220550811100,15.22481103515625,-0.3591887652873993,0.20525072515010834,1.518610954284668
1777561220591155500,15.265155517578124,-0.46303585171699524,0.15393804013729095,1.6615535020828247
1777561220601226200,15.275226318359374,-0.485027015209198,0.12950342893600464,1.5931365489959717
1777561220611297000,15.285297119140624,-0.5338962078094482,0.11850785464048386,1.4599679708480835
1777561220621367800,15.295367919921874,-0.6096435189247131,0.1612684279680252,1.3145819902420044
1777561220631469000,15.305468994140625,-0.6633996367454529,0.2736676335334778,1.1948524713516235
1777561220671813400,15.3458134765625,-0.9358455538749695,-0.010995574295520782,1.7507398128509521
1777561220681884200,15.35588427734375,-1.0445796251296997,-0.08796459436416626,1.948660135269165
1777561220691985400,15.3659853515625,-1.1887437105178833,-0.04642575979232788,1.9999728202819824
1777561220702025700,15.376025634765625,-1.3573426008224487,0.09651670604944229,1.9840903282165527
1777561220712127000,15.386126953125,-1.528384804725647,0.251676470041275,1.9987510442733765
1777561220722167300,15.396167236328125,-1.663996934890747,0.35552358627319336,2.065946340560913
1777561220732238000,15.406238037109375,-1.7470746040344238,0.3897320330142975,2.1478021144866943
1777561220762450400,15.436450439453125,-1.793500304222107,0.3029891550540924,1.986533761024475
1777561220772521200,15.446521240234375,-1.8118263483047485,0.2272418737411499,1.793500304222107
1777561220782561500,15.4565615234375,-1.8594738245010376,0.15760323405265808,1.5625933408737183
1777561220792662800,15.466662841796875,-1.949881911277771,0.10873401165008545,1.303586483001709
1777561220802703000,15.476703125,-2.074498414993286,0.08552113175392151,1.0250319242477417
1777561220812743400,15.486743408203125,-2.213775634765625,0.09529497474431992,0.7318165898323059
1777561220822753300,15.496753173828125,-2.3542747497558594,0.11850785464048386,0.4288274049758911
1777561220832854500,15.5068544921875,-2.4911084175109863,0.1514945775270462,0.1319468915462494
1777561220842925300,15.51692529296875,-2.6120598316192627,0.19914206862449646,-0.13561208546161652
1777561220862975500,15.5369755859375,-2.7769935131073,0.33108896017074585,-0.5119050741195679
1777561220873076700,15.54707666015625,-2.8356363773345947,0.39217549562454224,-0.5974262356758118
1777561220883147500,15.5571474609375,-2.8857274055480957,0.47280970215797424,-0.6340781450271606
1777561220893248800,15.567248779296875,-2.9211575984954834,0.5681046843528748,-0.616973876953125
1777561220903258600,15.577258544921875,-2.9333748817443848,0.6621779203414917,-0.5595525503158569
1777561220913360000,15.58735986328125,-2.9077186584472656,0.7220427393913269,-0.46670106053352356
1777561220923430700,15.5974306640625,-2.8576276302337646,0.7452555894851685,-0.36529740691185
1777561220933532200,15.6075322265625,-2.7989845275878906,0.7635815739631653,-0.27611109614372253
1777561220943572200,15.617572265625,-2.7317893505096436,0.8026769161224365,-0.18570303916931152
1777561220953673700,15.627673828125,-2.6450464725494385,0.8454375267028809,-0.07941248267889023
1777561220983855600,15.657855712890624,-2.274862289428711,0.8735373020172119,0.3323107063770294
1777561220993956900,15.667956787109375,-2.13314151763916,0.8539896011352539,0.4899139404296875
1777561221004027600,15.678027587890625,-1.9938641786575317,0.8319984674453735,0.6328563690185547
1777561221014098400,15.688098388671875,-1.8545868396759033,0.8148942589759827,0.7244861721992493
1777561221024108300,15.6981083984375,-1.7116444110870361,0.8038986921310425,0.7281513810157776
1777561221034179000,15.708178955078125,-1.5625933408737183,0.7904596328735352,0.6291912198066711
1777561221044249900,15.718249755859375,-1.398881435394287,0.7672467231750488,0.46792277693748474
1777561221074431700,15.748431640625,-0.8124507665634155,0.6817256212234497,0.21868975460529327
1777561221084472000,15.75847216796875,-0.6096435189247131,0.598647952079773,0.26511552929878235
1777561221094542800,15.76854296875,-0.40683624148368835,0.4544837474822998,0.30054569244384766
1777561221104552400,15.778552490234375,-0.20891591906547546,0.28099802136421204,0.2822197377681732
1777561221114654000,15.788654052734374,-0.024434609338641167,0.12339477986097336,0.2272418737411499
1777561221124724700,15.798724853515624,0.1612684279680252,-0.015882495790719986,0.1820378452539444
1777561221134826000,15.808825927734375,0.3530801236629486,-0.14905111491680145,0.15393804013729095
1777561221144835800,15.8188359375,0.5387831330299377,-0.2675589919090271,0.13561208546161652
1777561221175078700,15.84907861328125,1.1386528015136719,-0.44837507605552673,0.15882496535778046
1777561221185149400,15.8591494140625,1.2864822149276733,-0.5216789245605469,0.14294247329235077
1777561221195189800,15.869189697265625,1.3732250928878784,-0.6145304441452026,0.11728613078594208
1777561221205260500,15.879260498046875,1.4672982692718506,-0.6841690540313721,0.10751228034496307
1777561221215331300,15.889331298828125,1.5809192657470703,-0.7122688889503479,0.13072516024112701
1777561221225371600,15.89937158203125,1.7250834703445435,-0.6536257863044739,0.1563815027475357
1777561221235442400,15.9094423828125,1.957212209701538,-0.4764748811721802,0.14538592100143433
1777561221245482800,15.919482666015625,2.2907447814941406,-0.21502456068992615,0.0806342139840126
1777561221265624300,15.939624267578125,3.031113386154175,0.15271630883216858,0.09407325088977814
1777561221285827000,15.9598271484375,3.6945130825042725,0.14294247329235077,0.4960225820541382
1777561221295928300,15.96992822265625,4.023158550262451,0.19425514340400696,0.5106833577156067
1777561221305999000,15.9799990234375,4.295604228973389,0.2968805134296417,0.31154128909111023
1777561221316070000,15.99006982421875,4.436103343963623,0.4251621961593628,0.059864792972803116
1777561221326140700,16.000140625,4.436103343963623,0.5876523852348328,-0.01710422709584236
1777561221336242000,16.010241943359375,4.2699480056762695,0.8087855577468872,-0.08918632566928864
1777561221346312700,16.020312744140625,4.107458114624023,0.979827880859375,-0.006108652334660292
1777561221356414200,16.030414306640626,4.354247570037842,0.9920451641082764,0.8185594081878662
1777561221386626600,16.06062646484375,3.952298164367676,1.1349875926971436,2.7818803787231445
1777561221396727800,16.070727783203125,3.7250561714172363,1.0873401165008545,2.9944615364074707
1777561221406798600,16.080798583984375,3.3450980186462402,1.0800096988677979,3.1642820835113525
1777561221416869400,16.090869384765625,2.872288465499878,1.1313223838806152,3.3402111530303955
1777561221426940200,16.100940185546875,2.406809091567993,1.2522737979888916,3.467271089553833
1777561221447081700,16.121081787109375,1.5564846992492676,1.5210545063018799,3.1813862323760986
1777561221457152800,16.13115283203125,1.1924089193344116,1.577254056930542,2.75500226020813
1777561221477294300,16.15129443359375,0.8808676600456238,1.5638149976730347,2.29440975189209
1777561221497436000,16.171435791015625,0.3591887652873993,1.4013248682022095,1.653001308441162
1777561221507506700,16.181506591796875,0.09040805697441101,1.3145819902420044,1.4196507930755615
1777561221517608000,16.19160791015625,-0.16371189057826996,1.2412781715393066,1.1704177856445312
1777561221527678700,16.2016787109375,-0.3579670190811157,1.1789699792861938,0.8710938692092896
1777561221537749500,16.21174951171875,-0.4740314185619354,1.1264355182647705,0.5375614166259766
1777561221547789800,16.221789794921875,-0.5363397002220154,1.0677924156188965,0.21135938167572021
1777561221557860600,16.231860595703125,-0.5754350423812866,0.9859365224838257,-0.09773843735456467
1777561221578002200,16.252002197265625,-0.6023131608963013,0.9101892113685608,-0.5082398653030396
1777561221588042500,16.26204248046875,-0.5949827432632446,0.9272934198379517,-0.5473352670669556
1777561221598143700,16.272143798828125,-0.5583308339118958,0.9590584635734558,-0.46303585171699524
1777561221608214800,16.28221484375,-0.4899139404296875,0.9529497623443604,-0.28588494658470154
1777561221618316000,16.29231591796875,-0.40072759985923767,0.8930850028991699,-0.05864306539297104
1777561221628356400,16.3023564453125,-0.2993239760398865,0.779464066028595,0.22357667982578278
1777561221638396700,16.312396728515626,-0.22479841113090515,0.6157521605491638,0.5998696684837341
1777561221648467500,16.322467529296876,-0.21624629199504852,0.42149701714515686,1.0873401165008545
1777561221658538200,16.332538330078126,-0.2528982162475586,0.1417207419872284,1.6627751588821411
1777561221668578600,16.34257861328125,-0.23579397797584534,-0.15271630883216858,2.1392500400543213
1777561221708861700,16.38286181640625,-0.8026769161224365,-2.630385637283325,-0.7831292152404785
1777561221728942000,16.402942138671875,-1.9413297176361084,-2.689028739929199,-3.11785626411438
1777561221738982400,16.412982421875,-2.5130996704101562,-2.4911084175109863,-3.6590828895568848
1777561221749053200,16.42305322265625,-2.9993484020233154,-2.3383922576904297,-3.910759210586548
1777561221759154700,16.43315478515625,-3.414736747741699,-2.2492058277130127,-3.9620718955993652
1777561221789367000,16.463366943359375,-4.397007942199707,-1.6884315013885498,-3.8508944511413574
1777561221799437800,16.473437744140625,-4.678006172180176,-1.3634512424468994,-3.721390962600708
1777561221809478100,16.48347802734375,-4.922352313995361,-1.0250319242477417,-3.4733798503875732
1777561221819579400,16.493579345703125,-5.144707202911377,-0.7000515460968018,-3.0860912799835205
1777561221829619700,16.50361962890625,-5.3499579429626465,-0.39706242084503174,-2.5888469219207764
1777561221839721000,16.513720947265625,-5.540547847747803,-0.14294247329235077,-2.0806069374084473
1777561221849761300,16.52376123046875,-5.694485664367676,0.05497787147760391,-1.624901533126831
1777561221859832000,16.53383203125,-5.7604594230651855,0.18325957655906677,-1.2278391122817993
1777561221869933300,16.543933349609375,-5.7189202308654785,0.26022860407829285,-0.8588765263557434
1777561221900146000,16.57414599609375,-5.392718315124512,0.44226643443107605,-0.20891591906547546
1777561221920287500,16.59428759765625,-4.78429651260376,0.5619960427284241,-0.2590068578720093
1777561221940398600,16.614398681640626,-3.773925542831421,0.6145304441452026,-0.3640756905078888
1777561221950469400,16.624469482421876,-3.1642820835113525,0.7257078886032104,-0.28099802136421204
1777561221960540200,16.6345400390625,-2.557081937789917,0.8747590184211731,-0.12217304855585098
1777561221970611000,16.64461083984375,-2.0219640731811523,0.9859365224838257,0.10751228034496307
1777561221990783000,16.664782958984375,-1.1081095933914185,0.9566149711608887,0.35674530267715454
1777561222000823300,16.6748232421875,-0.7782423496246338,0.9175195693969727,0.2577851414680481
1777561222010894000,16.68489404296875,-0.5461135506629944,0.9431759119033813,0.03176499158143997
1777561222020995300,16.694995361328125,-0.3604104816913605,0.9969320893287659,-0.20036379992961884
1777561222031066000,16.705066162109375,-0.19914206862449646,1.0409144163131714,-0.3066543638706207
1777561222041137200,16.71513720703125,-0.08307767659425735,1.0641272068023682,-0.26145032048225403
1777561222051208000,16.7252080078125,-0.025656340643763542,1.0751228332519531,-0.11728613078594208
1777561222061309200,16.73530908203125,0.009773843921720982,1.0885618925094604,0.05375614017248154
1777561222071349500,16.745349609375,0.0708603709936142,1.1056660413742065,0.17470745742321014
1777561222101561900,16.775561767578125,0.35185837745666504,1.1264355182647705,0.12095131725072861
1777561222111602200,16.785602294921876,0.47280970215797424,1.0946705341339111,0.07696902006864548
1777561222121703400,16.795703369140625,0.5962044596672058,0.9920451641082764,0.07452555745840073
1777561222131713300,16.80571337890625,0.6951646208763123,0.8356636762619019,0.1258382350206375
1777561222141814500,16.815814453125,0.7635815739631653,0.6609562039375305,0.23457226157188416
1777561222151915800,16.825915771484375,0.7929030656814575,0.49357911944389343,0.384845107793808
1777561222161986600,16.835986572265625,0.788016140460968,0.36651915311813354,0.5619960427284241
1777561222172057300,16.846057373046875,0.7941248416900635,0.2883284091949463,0.7831292152404785
1777561222182128000,16.856128173828125,0.8185594081878662,0.21868975460529327,0.9969320893287659
1777561222202300400,16.876300537109376,0.921184778213501,0.0708603709936142,1.2767083644866943
1777561222212371200,16.88637109375,1.0299187898635864,-0.05497787147760391,1.2400563955307007
1777561222222442000,16.89644189453125,1.19607412815094,-0.19914206862449646,1.0409144163131714
1777561222232512800,16.9065126953125,1.4428637027740479,-0.37751471996307373,0.7440338730812073
1777561222242614000,16.916614013671875,1.7739527225494385,-0.6047565937042236,0.4092797040939331
1777561222252684800,16.926684814453125,2.1930062770843506,-0.8100073337554932,0.09407325088977814
1777561222262725000,16.93672509765625,2.704911231994629,-0.950506329536438,-0.12828169763088226
1777561222272796000,16.9467958984375,3.286454916000366,-1.0885618925094604,-0.1771509200334549
1777561222323150000,16.997150146484376,6.372546195983887,-1.4477506875991821,0.24190263450145721
1777561222333220900,17.007220947265626,6.627887725830078,-1.441641926765442,-0.1368338167667389
1777561222343291600,17.017291748046876,6.775717258453369,-1.3243558406829834,-0.5070181488990784
1777561222353393000,17.027392822265625,6.828251838684082,-1.1301007270812988,-0.7012733221054077
1777561222363494100,17.037494140625,6.817255973815918,-0.9089674949645996,-0.6194173693656921
1777561222373565000,17.04756494140625,6.76594352722168,-0.66584312915802,-0.3323107063770294
1777561222403777500,17.077777587890626,6.098878383636475,-0.2174680233001709,0.7757988572120667
1777561222413848300,17.087848388671876,5.66760778427124,-0.3127630054950714,1.205847978591919
1777561222423919000,17.097919189453126,5.189910888671875,-0.4349360466003418,1.633453607559204
1777561222434020400,17.108020263671875,4.61691951751709,-0.49724429845809937,2.0195205211639404
1777561222444091100,17.118091064453125,3.9046506881713867,-0.44593164324760437,2.30051851272583
1777561222454162000,17.128161865234375,3.0750956535339355,-0.25045475363731384,2.400700330734253
1777561222464202200,17.1382021484375,2.2577579021453857,0.010995574295520782,2.348165988922119
1777561222474242600,17.14824267578125,1.624901533126831,0.22357667982578278,2.311514139175415
1777561222484343800,17.15834375,1.1911872625350952,0.38117989897727966,2.2846360206604004
1777561222514586600,17.188586669921875,0.13439035415649414,0.5546656250953674,0.759916365146637
1777561222534728400,17.208728515625,-0.3897320330142975,0.6499606370925903,-1.4465289115905762
1777561222544768500,17.2187685546875,-0.5387831330299377,0.6120869517326355,-2.4996604919433594
1777561222554808800,17.228808837890625,-0.5119050741195679,0.5461135506629944,-3.302337408065796
1777561222564879600,17.238879638671875,-0.3066543638706207,0.50335294008255,-3.79958176612854
1777561222574920000,17.248919921875,0.004886921960860491,0.4789183437824249,-4.036597728729248
1777561222605101800,17.279101806640625,0.9077457785606384,-0.1014036312699318,-3.8154642581939697
1777561222615172600,17.289172607421875,1.0335839986801147,-0.3127630054950714,-3.2962288856506348
1777561222635314200,17.309314208984375,0.6670648455619812,-0.4251621961593628,-1.2705997228622437
1777561222645385000,17.319385009765625,0.4080579876899719,-0.27000242471694946,0.0708603709936142
1777561222655456000,17.3294560546875,0.1514945775270462,-0.12828169763088226,1.3292428255081177
1777561222665526800,17.33952685546875,-0.14416420459747314,-0.06230825558304787,2.144136905670166
1777561222675536400,17.349536376953125,-0.4899139404296875,-0.08674286305904388,2.465452194213867
1777561222685638000,17.359637939453126,-0.8613200187683105,-0.1319468915462494,2.3457224369049072
1777561222725951500,17.399951416015625,-2.5717427730560303,-0.2724458873271942,-0.3701843321323395
1777561222736022300,17.410022216796875,-3.011565685272217,-0.2223549485206604,-0.9004153609275818
1777561222746123500,17.42012353515625,-3.3841934204101562,-0.11362093687057495,-1.2302825450897217
1777561222756194300,17.4301943359375,-3.6920695304870605,0.00855211354792118,-1.3646728992462158
1777561222766265000,17.44026513671875,-3.9767327308654785,0.14905111491680145,-1.3658946752548218
1777561222776336100,17.450336181640626,-4.246735095977783,0.2993239760398865,-1.291369080543518
1777561222786407000,17.460406982421876,-4.4849724769592285,0.4801400899887085,-1.19607412815094
1777561222796447000,17.470447021484375,-4.686558246612549,0.7257078886032104,-1.1227703094482422
1777561222816588800,17.4905888671875,-5.092172622680664,1.1801916360855103,-0.8600982427597046
1777561222826659600,17.50065966796875,-5.238780498504639,1.3927727937698364,-0.45692721009254456
1777561222836699600,17.51069970703125,-5.337740421295166,1.578475832939148,0.1111774742603302
1777561222846740000,17.520739990234375,-5.402492046356201,1.7104226350784302,0.7452555894851685
1777561222856780300,17.5307802734375,-5.459913730621338,1.7825047969818115,1.3292428255081177
1777561222866851000,17.54085107421875,-5.518556594848633,1.794722080230713,1.8057177066802979
1777561222876921900,17.550921875,-5.557651996612549,1.7446311712265015,2.1734585762023926
1777561222887023400,17.5610234375,-5.567425727844238,1.633453607559204,2.4581217765808105
1777561222897094100,17.57109423828125,-5.551543235778809,1.4758504629135132,2.660928964614868
1777561222927276000,17.601276123046876,-5.269323825836182,0.9395107626914978,2.757445812225342
1777561222937316400,17.61131640625,-5.053077220916748,0.7220427393913269,2.6535985469818115
1777561222947356400,17.6213564453125,-4.775744438171387,0.5021312236785889,2.498438835144043
1777561222957396700,17.631396728515625,-4.429994583129883,0.26633724570274353,2.285857677459717
1777561222967467500,17.641467529296875,-3.9877283573150635,0.013439035043120384,2.012190103530884
1777561222977507800,17.6515078125,-3.445280075073242,-0.23090706765651703,1.7055357694625854
1777561222987609000,17.661609130859375,-2.8515188694000244,-0.4337143301963806,1.3927727937698364
1777561222997679900,17.671679931640625,-2.2406537532806396,-0.5791002511978149,1.0531316995620728
1777561223027861800,17.70186181640625,-1.1801916360855103,-0.7037167549133301,0.28466320037841797
1777561223048003600,17.722003662109376,-0.4043927788734436,-0.7965682744979858,-0.30543261766433716
1777561223058043600,17.732043701171875,-0.042760565876960754,-0.7929030656814575,-0.5277875661849976
1777561223068114700,17.74211474609375,0.304210901260376,-0.7489207983016968,-0.7342600226402283
1777561223078185500,17.752185546875,0.8991936445236206,-0.607200026512146,-1.037249207496643
1777561223088256300,17.76225634765625,0.8991936445236206,-0.607200026512146,-1.037249207496643
1777561223098327000,17.7723271484375,1.1618657112121582,-0.5290092825889587,-1.0421360731124878
1777561223108428300,17.78242822265625,1.3817771673202515,-0.44104471802711487,-0.9541715383529663
1777561223118499000,17.7924990234375,1.5515977144241333,-0.3433062732219696,-0.8014551997184753
1777561223138640600,17.812640625,1.7898352146148682,-0.15882496535778046,-0.4398229718208313
1777561223148711400,17.82271142578125,1.8839083909988403,-0.10018189996480942,-0.28955012559890747
1777561223158782200,17.8327822265625,1.9620991945266724,-0.07330382615327835,-0.1661553531885147
1777561223168883700,17.8428837890625,2.024407386779785,-0.07696902006864548,-0.06841690838336945
1777561223178923800,17.852923828125,2.072054862976074,-0.09407325088977814,0.013439035043120384
1777561223188994800,17.862994873046876,2.1123719215393066,-0.10384709388017654,0.09529497474431992
1777561223199035000,17.873034912109375,2.157576084136963,-0.1062905490398407,0.17470745742321014
1777561223209105700,17.883105712890625,2.2125539779663086,-0.08552113175392151,0.24678955972194672
1777561223239226600,17.9132265625,2.3994786739349365,0.14905111491680145,0.27977627515792847
1777561223249267000,17.923266845703125,2.4544565677642822,0.23335053026676178,0.27000242471694946
1777561223259337700,17.933337646484375,2.4996604919433594,0.2785545587539673,0.304210901260376
1777561223269439000,17.94343896484375,2.5277602672576904,0.2822197377681732,0.37751471996307373
1777561223279509800,17.953509765625,2.5363125801086426,0.27977627515792847,0.4862487316131592
1777561223289611300,17.963611328125,2.5302038192749023,0.2773328125476837,0.6279694437980652
1777561223299651300,17.9736513671875,2.5253169536590576,0.24434609711170197,0.7843509912490845
1777561223309722000,17.98372216796875,2.520430088043213,0.18325957655906677,0.9566149711608887
1777561223350036000,18.024035888671875,2.783102035522461,-0.024434609338641167,1.292590856552124
1777561223360076300,18.034076171875,2.919935941696167,0.04153883829712868,1.0409144163131714
1777561223370147000,18.04414697265625,3.1080822944641113,0.10506882518529892,0.8014551997184753
1777561223380217900,18.0542177734375,3.386636972427368,0.2590068578720093,0.5949827432632446
1777561223390319000,18.064319091796875,3.6395351886749268,0.5876523852348328,0.1062905490398407
1777561223400390000,18.074389892578125,3.827681541442871,0.6707300543785095,-1.2082914113998413
1777561223410491400,18.084491455078126,4.394564628601074,0.3188716471195221,-2.161241292953491
1777561223440673300,18.11467333984375,5.100724697113037,0.7110471725463867,-0.3494149148464203
1777561223460814800,18.13481494140625,5.805663108825684,0.5436700582504272,-1.1252137422561646
1777561223470855200,18.144855224609376,5.412266254425049,0.3836233615875244,-1.6371188163757324
1777561223480895200,18.154895263671875,5.100724697113037,0.304210901260376,-1.3439035415649414
1777561223490966000,18.164966064453125,4.867374420166016,0.35185837745666504,-0.45326200127601624
1777561223501006300,18.17500634765625,4.483750820159912,0.5534439086914062,0.5681046843528748
1777561223511077000,18.1850771484375,3.847229242324829,0.8100073337554932,1.291369080543518
1777561223541289700,18.215289794921876,1.3781119585037231,1.1374311447143555,1.6297885179519653
1777561223551360500,18.225360595703126,0.8051204085350037,1.1716395616531372,1.9046778678894043
1777561223561400600,18.235400634765625,0.28099802136421204,1.2192870378494263,2.244318962097168
1777561223571502000,18.245502197265626,-0.2932153046131134,1.2205088138580322,2.411695957183838
1777561223581572900,18.25557275390625,-0.8625417351722717,1.1545352935791016,2.2650883197784424
1777561223591674000,18.265674072265625,-1.3744467496871948,1.0030407905578613,1.793500304222107
1777561223601714400,18.27571435546875,-1.7886134386062622,0.8588765263557434,1.1691961288452148
1777561223611785200,18.28578515625,-2.015855312347412,0.66584312915802,0.36529740691185
1777561223652068400,18.326068359375,-1.7201964855194092,-0.1722639948129654,-1.1508700847625732
1777561223662078200,18.336078125,-1.6713273525238037,-0.3885102868080139,-1.2192870378494263
1777561223672179500,18.346179443359375,-1.6224581003189087,-0.5338962078094482,-1.1643091440200806
1777561223682219800,18.3562197265625,-1.6016886234283447,-0.6401867866516113,-0.9749409556388855
1777561223692321000,18.366321044921875,-1.588249683380127,-0.7379252314567566,-0.6524040699005127
1777561223702300400,18.376300537109376,-1.5625933408737183,-0.7953465580940247,-0.24434609711170197
1777561223712401700,18.386401611328125,-1.5173892974853516,-0.8161159753799438,0.22968533635139465
1777561223722472400,18.396472412109375,-1.4501941204071045,-0.8051204085350037,0.7269296646118164
1777561223752623900,18.426623779296875,-1.3927727937698364,-0.6743952035903931,1.663996934890747
1777561223762694700,18.436694580078125,-1.389107584953308,-0.6524040699005127,1.7556266784667969
1777561223772796000,18.4467958984375,-1.359786033630371,-0.6157521605491638,1.7910568714141846
1777561223782836200,18.456836181640625,-1.310916781425476,-0.5375614166259766,1.8362609148025513
1777561223792937500,18.4669375,-1.254717230796814,-0.44837507605552673,1.9181169271469116
1777561223802977800,18.476977783203125,-1.2180652618408203,-0.4948008358478546,2.0842721462249756
1777561223813018000,18.48701806640625,-1.1936306953430176,-0.6023131608963013,2.364048480987549
1777561223823058400,18.497058349609375,-1.2473868131637573,-0.5412266254425049,2.411695957183838
1777561223833159700,18.50715966796875,-1.4343116283416748,-0.45204028487205505,2.122145891189575
1777561223863311000,18.53731103515625,-1.927890658378601,-0.9199630618095398,-0.13927727937698364
1777561223873412400,18.547412353515625,-2.1038198471069336,-1.246165156364441,-0.6670648455619812
1777561223883422200,18.557422119140625,-2.2870795726776123,-1.4734070301055908,-0.9541715383529663
1777561223893523500,18.5675234375,-2.5118777751922607,-1.5308283567428589,-1.1093312501907349
1777561223903563800,18.577563720703125,-2.75500226020813,-1.4636331796646118,-1.2412781715393066
1777561223913634600,18.587634521484375,-3.0030136108398438,-1.3585642576217651,-1.3939944505691528
1777561223923735800,18.59773583984375,-3.246137857437134,-1.2669345140457153,-1.539380431175232
1777561223943847000,18.617846923828125,-3.6774086952209473,-1.027475357055664,-1.6481144428253174
1777561223953917700,18.627917724609375,-3.8423423767089844,-0.8515461683273315,-1.5528194904327393
1777561223963958000,18.6379580078125,-3.955963373184204,-0.6670648455619812,-1.3585642576217651
1777561223974028800,18.64802880859375,-4.023158550262451,-0.5009095072746277,-1.1129964590072632
1777561223984099600,18.658099609375,-4.0549235343933105,-0.3591887652873993,-0.8600982427597046
