time,seconds_elapsed,z,y,x
1777561205200481000,-0.12551904296875,9.818621635437012,2.1092917919158936,-0.4644751250743866
1777561205220522500,-0.1054775390625,9.856928825378418,1.941697597503662,-0.4141969084739685
1777561205240233700,-0.085766357421875,10.046070098876953,1.8794482946395874,-0.5315127968788147
1777561205270446000,-0.055553955078125,9.962273597717285,1.9512743949890137,-0.7493851184844971
1777561205280486400,-0.045513671875,9.964667320251465,2.0183119773864746,-0.7158663272857666
1777561205300628000,-0.0253720703125,10.005369186401367,2.1045033931732178,-0.8331822156906128
1777561205310668300,-0.015331787109375,10.096348762512207,1.9393033981323242,-0.9074024558067322
1777561205320708600,-0.00529150390625,10.127472877502441,1.9943699836730957,-0.9361328482627869
1777561205350921000,0.0249208984375,10.086771965026855,1.886630892753601,-1.2114660739898682
1777561205371062500,0.0450625,9.967061996459961,1.721431016921997,-1.4413094520568848
1777561205391204000,0.0652041015625,9.734824180603027,1.039083480834961,-1.5897499322891235
1777561205411315200,0.085315185546875,9.567230224609375,1.015141487121582,-1.886630892753601
1777561205421386000,0.095385986328125,9.545681953430176,1.0965443849563599,-2.2194249629974365
1777561205431426300,0.10542626953125,9.284713745117188,1.173158884048462,-2.497152328491211
1777561205461608200,0.135608154296875,8.379706382751465,0.6177040338516235,-2.535459518432617
1777561205471679000,0.145678955078125,8.544905662536621,-0.12928688526153564,-2.3965959548950195
1777561205481688800,0.155688720703125,8.695740699768066,-0.43335050344467163,-2.432508945465088
1777561205491790000,0.1657900390625,8.825027465820312,-0.5027823448181152,-2.27209734916687
1777561205501830400,0.175830322265625,9.311050415039062,-0.3663128614425659,-2.2577321529388428
1777561205511870700,0.18587060546875,9.497797966003418,-0.12449848651885986,-2.346317768096924
1777561205521941500,0.19594140625,9.770736694335938,-0.035913024097681046,-2.367865562438965
1777561205532012300,0.20601220703125,10.010157585144043,0.05027823522686958,-2.434903144836426
1777561205552153900,0.22615380859375,10.228029251098633,0.5410895943641663,-2.434903144836426
1777561205602477300,0.276477294921875,9.327810287475586,-0.22026655077934265,-2.432508945465088
1777561205622649600,0.296649658203125,8.947132110595703,0.35913026332855225,-2.233790159225464
1777561205632720400,0.306720458984375,8.669404029846191,0.6416460275650024,-2.229001760482788
1777561205683074300,0.35707421875,6.631938934326172,0.8810662031173706,-1.8291701078414917
1777561205743468500,0.417468505859375,6.354211330413818,1.0031704902648926,-2.449268341064453
1777561205763610000,0.437610107421875,6.112396717071533,1.6543933153152466,-2.896984100341797
1777561205773681000,0.447680908203125,5.726930618286133,1.8962076902389526,-3.2321722507476807
1777561205783721200,0.45772119140625,5.386953830718994,2.169146776199341,-3.4763808250427246
1777561205803862800,0.47786279296875,5.0876784324646,2.250549554824829,-4.086902141571045
1777561205834044700,0.508044677734375,5.355829238891602,3.620033025741577,-4.884171485900879
1777561205884398800,0.55839892578125,3.450044631958008,-0.26815059781074524,-6.026205539703369
1777561205894500000,0.5685,2.779668092727661,-1.259350061416626,-6.232107162475586
1777561205914611200,0.588611083984375,2.518700122833252,-2.9041666984558105,-6.835445880889893
1777561205934722300,0.608722412109375,1.8914192914962769,-5.319916248321533,-7.292738437652588
1777561205944793000,0.61879296875,2.185906171798706,-5.906495571136475,-7.510610580444336
1777561205995086000,0.669086181640625,4.194641590118408,-6.311115741729736,-10.424354553222656
1777561206015227600,0.6892275390625,3.936067581176758,-8.698134422302246,-12.521675109863281
1777561206025298400,0.69929833984375,4.199429988861084,-8.868123054504395,-12.832921028137207
1777561206035338800,0.7093388671875,5.307945251464844,-8.614337921142578,-13.445837020874023
1777561206045409500,0.719409423828125,6.100425720214844,-8.451532363891602,-14.235923767089844
1777561206055449900,0.729449951171875,6.912060260772705,-8.29590892791748,-15.322891235351562
1777561206065520600,0.739520751953125,8.221688270568848,-8.044517517089844,-16.46971321105957
1777561206075591400,0.74959130859375,9.39245319366455,-7.7643961906433105,-17.489643096923828
1777561206085692700,0.759692626953125,9.639056205749512,-7.94635534286499,-17.74821662902832
1777561206115813600,0.789813720703125,7.129932880401611,-10.60152530670166,-15.674838066101074
1777561206166137000,0.84013720703125,4.843470096588135,-10.558429718017578,-9.713275909423828
1777561206196319000,0.870319091796875,4.309563159942627,-7.5201873779296875,-10.074800491333008
1777561206226592300,0.90059228515625,5.310339450836182,-6.967126846313477,-8.358158111572266
1777561206266906000,0.940906005859375,5.195417881011963,-8.664615631103516,-7.558494567871094
1777561206297149000,0.97114892578125,3.6080620288848877,-8.497021675109863,-7.448361396789551
1777561206337432300,1.011432373046875,2.3295583724975586,-6.931213855743408,-8.429984092712402
1777561206397826600,1.07182666015625,1.1300631761550903,-6.110002517700195,-10.065223693847656
1777561206478332000,1.152331787109375,0.7015010714530945,-4.484339714050293,-10.742782592773438
1777561206538817800,1.21281787109375,0.6631938815116882,-3.9815573692321777,-9.639056205749512
1777561206589080000,1.263080078125,0.5003881454467773,-3.485957622528076,-9.440337181091309
1777561206639373000,1.313373046875,1.0797849893569946,-3.758896589279175,-10.522516250610352
1777561206689696500,1.363696533203125,1.5083470344543457,-3.205836057662964,-11.997344970703125
1777561206729949200,1.40394921875,1.4844050407409668,-2.918531894683838,-12.006921768188477
1777561206780273000,1.45427294921875,2.5091233253479004,0.05985504388809204,-7.632715225219727
1777561206810454500,1.48445458984375,1.4724340438842773,0.7493851184844971,-7.000645637512207
1777561206830626800,1.504626708984375,1.6663644313812256,-0.7589619159698486,-8.69095230102539
1777561206840758500,1.514758544921875,1.7573440074920654,-1.3096283674240112,-9.445125579833984
1777561206850829300,1.524829345703125,1.886630892753601,-1.7094600200653076,-9.923966407775879
1777561206871001600,1.545001708984375,1.742978811264038,-1.9536685943603516,-10.244789123535156
1777561206881102800,1.555102783203125,1.5059528350830078,-2.209848165512085,-10.378864288330078
1777561206901275000,1.57527490234375,0.9720458984375,-3.050212860107422,-10.558429718017578
1777561206921355500,1.59535546875,0.7398083209991455,-3.5960910320281982,-10.457873344421387
1777561206951598300,1.625598388671875,0.9385270476341248,-5.049371242523193,-10.496180534362793
1777561206981841400,1.65584130859375,1.3239935636520386,-5.925649166107178,-10.469843864440918
1777561207052276000,1.72627587890625,3.179499864578247,-7.024587631225586,-8.152256965637207
1777561207082457900,1.756457763671875,4.108449935913086,-5.521028995513916,-6.244078159332275
1777561207142852000,1.81685205078125,2.4612393379211426,-4.213795185089111,-4.443638324737549
1777561207163024100,1.837024169921875,2.8395233154296875,-5.161899089813232,-4.891354084014893
1777561207183135200,1.85713525390625,3.246537446975708,-5.767632007598877,-4.927267074584961
1777561207203276800,1.87727685546875,3.047818660736084,-5.631162166595459,-4.55616569519043
1777561207223449000,1.897448974609375,2.6815059185028076,-5.8442463874816895,-4.381389141082764
1777561207233489400,1.907489501953125,2.609679937362671,-5.961562156677246,-4.5394062995910645
1777561207263762700,1.9377626953125,2.9975404739379883,-6.1267619132995605,-5.9519853591918945
1777561207283843300,1.95784326171875,3.043030261993408,-6.196194171905518,-7.16584587097168
1777561207334136300,2.00813623046875,3.883395195007324,-7.132327079772949,-15.665261268615723
1777561207394500000,2.0685,1.0821791887283325,-7.773972988128662,-21.98834800720215
1777561207464904200,2.138904296875,0.7134721279144287,-4.8602294921875,-13.555970191955566
1777561207545348400,2.219348388671875,0.3687070608139038,-5.147533416748047,-8.99740982055664
1777561207635894000,2.30989404296875,-0.4429273009300232,-2.8802247047424316,-8.80587387084961
1777561207676085800,2.350085693359375,-0.07661445438861847,-2.1595699787139893,-7.879317760467529
1777561207686156500,2.360156494140625,-0.22266076505184174,-2.5761611461639404,-7.539340972900391
1777561207696196900,2.37019677734375,-0.08140286058187485,-2.801215887069702,-7.295132637023926
1777561207706237200,2.3802373046875,0.2106897532939911,-2.5665841102600098,-7.237671852111816
1777561207716277500,2.390277587890625,0.3471592366695404,-2.3582887649536133,-7.0341644287109375
1777561207726348300,2.400348388671875,0.5410895943641663,-2.3942017555236816,-6.6846113204956055
1777561207736419000,2.410419189453125,0.8882488012313843,-2.451662540435791,-6.294356346130371
1777561207746459400,2.42045947265625,1.1994950771331787,-2.52109432220459,-5.834669589996338
1777561207776641300,2.450641357421875,2.298433542251587,-4.417302131652832,-5.760449409484863
1777561207816894000,2.49089404296875,1.0007762908935547,-2.8347349166870117,-5.4444146156311035
1777561207826964700,2.50096484375,1.0821791887283325,-3.0789434909820557,-5.827486991882324
1777561207837035500,2.511035400390625,1.534683346748352,-4.134786128997803,-6.464344501495361
1777561207857177000,2.531177001953125,2.7964274883270264,-6.406883716583252,-7.405265808105469
1777561207887420000,2.561419921875,4.285621166229248,-8.980650901794434,-7.2783732414245605
1777561207897490700,2.57149072265625,4.687847137451172,-9.445125579833984,-7.275979042053223
1777561207907592200,2.58159228515625,4.90571928024292,-9.006986618041992,-7.240066051483154
1777561207917632500,2.591632568359375,5.006275653839111,-8.281543731689453,-7.311892032623291
1777561207927703300,2.601703369140625,4.948814868927002,-7.7213006019592285,-7.292738437652588
1777561207937774000,2.611774169921875,4.611232280731201,-6.926425457000732,-7.096413612365723
1777561207947814400,2.621814453125,4.611232280731201,-6.926425457000732,-7.096413612365723
1777561207957885200,2.63188525390625,4.082113742828369,-6.124367713928223,-6.983886241912842
1777561207978026800,2.65202685546875,2.7940332889556885,-4.8051629066467285,-6.916848659515381
1777561208008239000,2.682239013671875,1.8315643072128296,-4.95120906829834,-7.259219646453857
1777561208018279400,2.692279541015625,1.889025092124939,-5.374982833862305,-7.424419403076172
1777561208028319700,2.70231982421875,1.8507179021835327,-5.432443618774414,-7.441178798675537
1777561208038329300,2.712329345703125,1.7980455160140991,-5.193023681640625,-7.19936466217041
1777561208048430800,2.722430908203125,1.6855180263519287,-5.018246650695801,-7.015010833740234
1777561208068572400,2.742572509765625,1.9704279899597168,-5.319916248321533,-7.110779285430908
1777561208078582000,2.75258203125,2.4013843536376953,-5.817910194396973,-7.412448406219482
1777561208088652800,2.76265283203125,2.1332337856292725,-6.1530985832214355,-8.037335395812988
1777561208108764000,2.782763916015625,2.4157495498657227,-6.588842868804932,-8.573636054992676
1777561208118834700,2.792834716796875,2.631227731704712,-6.315904140472412,-8.56884765625
1777561208159057000,2.833056884765625,1.9321208000183105,-6.856993675231934,-8.365341186523438
1777561208189269200,2.863269287109375,2.4827871322631836,-4.388571739196777,-8.676587104797363
1777561208209441500,2.883441650390625,3.825934410095215,-2.978386878967285,-9.01895809173584
1777561208229583000,2.9035830078125,5.363011837005615,-2.7461493015289307,-10.359710693359375
1777561208279876000,2.9538759765625,6.301538944244385,-4.750096321105957,-13.048398971557617
1777561208289977300,2.963977294921875,5.693411827087402,-4.879383087158203,-14.173673629760742
1777561208300048100,2.974048095703125,5.686229228973389,-5.398924827575684,-15.883133888244629
1777561208320128800,2.994128662109375,6.2847795486450195,-7.91283655166626,-18.22226905822754
1777561208350371600,3.02437158203125,5.552153587341309,-10.168174743652344,-13.572729110717773
1777561208390655000,3.064655029296875,5.461174011230469,-8.456320762634277,-13.306973457336426
1777561208420836900,3.0948369140625,5.351040840148926,-7.311892032623291,-10.960655212402344
1777561208461089500,3.135089599609375,3.536235809326172,-5.48272180557251,-8.020575523376465
1777561208481200400,3.155200439453125,3.160346269607544,-4.99669885635376,-7.331045627593994
1777561208531524000,3.205524169921875,1.800439715385437,-5.578489780426025,-7.568071365356445
1777561208571776800,3.24577685546875,0.689530074596405,-5.971138954162598,-7.726089000701904
1777561208591918300,3.26591845703125,0.811634361743927,-6.141127586364746,-8.382100105285645
1777561208652343000,3.326343017578125,1.4101848602294922,-4.0964789390563965,-9.121908187866211
1777561208662413800,3.336413818359375,1.4197616577148438,-4.017470359802246,-8.925583839416504
1777561208712768000,3.38676806640625,0.6607996821403503,-3.995922565460205,-8.796297073364258
1777561208753020700,3.427020751953125,1.1180921792984009,-5.56173038482666,-8.834604263305664
1777561208783171800,3.457171875,3.1268274784088135,-6.0621185302734375,-9.394847869873047
1777561208823394000,3.49739404296875,2.650381326675415,-4.707000732421875,-7.790732383728027
1777561208903899400,3.5778994140625,5.621585369110107,-5.25527286529541,-5.635950565338135
1777561208934112000,3.608112060546875,4.7405195236206055,-3.7158010005950928,-5.523423194885254
1777561208944152000,3.618152099609375,4.24970817565918,-3.5003228187561035,-5.398924827575684
1777561208954192400,3.6281923828125,3.907337188720703,-3.663128614425659,-5.396530628204346
1777561208964263200,3.63826318359375,3.5482068061828613,-3.8762125968933105,-5.499481201171875
1777561208974303500,3.648303466796875,3.1244332790374756,-4.1395745277404785,-5.568912982940674
1777561208984374300,3.658374267578125,2.940079689025879,-4.0294413566589355,-5.530605792999268
1777561208994414600,3.66841455078125,2.650381326675415,-3.8786067962646484,-5.501875400543213
1777561209044768500,3.7187685546875,2.315192937850952,-3.861847400665283,-5.34625244140625
1777561209064910300,3.738910400390625,2.3750481605529785,-4.165910720825195,-5.942408561706543
1777561209074950400,3.748950439453125,2.276885747909546,-4.369418144226074,-6.189011573791504
1777561209085021200,3.759021240234375,2.10210919380188,-4.462791919708252,-6.301538944244385
1777561209095122700,3.769122802734375,1.9273324012756348,-4.496310710906982,-6.457161903381348
1777561209105193500,3.779193359375,1.8076223134994507,-4.587290287017822,-6.5912370681762695
1777561209115233800,3.78923388671875,1.6160861253738403,-4.776432514190674,-6.828263282775879
1777561209135436300,3.809436279296875,1.1851298809051514,-5.003881454467773,-7.953537940979004
1777561209145476600,3.8194765625,1.1013327836990356,-5.018246650695801,-8.561665534973145
1777561209155547400,3.82954736328125,0.9241618514060974,-5.070919036865234,-8.9064302444458
1777561209165618200,3.8396181640625,0.8643068075180054,-5.070919036865234,-9.045293807983398
1777561209175689000,3.84968896484375,0.9289502501487732,-5.243301868438721,-9.050082206726074
1777561209185729300,3.859729248046875,0.7709329724311829,-5.295974254608154,-8.892065048217773
1777561209195830500,3.86983056640625,0.9241618514060974,-5.480327606201172,-8.78432559967041
1777561209226012400,3.900012451171875,0.7374141216278076,-5.2911858558654785,-9.30386734008789
1777561209236083200,3.910083251953125,1.2521674633026123,-5.523423194885254,-10.216058731079102
1777561209256225000,3.93022509765625,2.9496564865112305,-6.598419666290283,-12.708422660827637
1777561209266265000,3.94026513671875,3.869029998779297,-7.319074630737305,-13.560758590698242
1777561209276305400,3.950305419921875,4.4292731285095215,-7.960720539093018,-14.195221900939941
1777561209286376200,3.960376220703125,4.185064792633057,-8.525752067565918,-15.322891235351562
1777561209296477700,3.970477783203125,4.8602294921875,-9.737217903137207,-17.63568878173828
1777561209306548500,3.980548583984375,6.27280855178833,-11.295844078063965,-20.5494327545166
1777561209326659600,4.00065966796875,5.592854976654053,-11.604695320129395,-20.365079879760742
1777561209346770700,4.020770751953125,2.671929121017456,-8.916007041931152,-14.980520248413086
1777561209356841500,4.030841552734375,2.4468741416931152,-8.528146743774414,-14.192827224731445
1777561209366912300,4.040912353515625,3.3734302520751953,-8.461109161376953,-14.415488243103027
1777561209376983000,4.050983154296875,4.568136692047119,-8.250418663024902,-15.023615837097168
1777561209387023400,4.0610234375,5.552153587341309,-7.491456985473633,-15.24867057800293
1777561209397063400,4.0710634765625,5.815515995025635,-6.378153324127197,-14.628572463989258
1777561209407103700,4.081103759765625,5.815515995025635,-6.378153324127197,-14.628572463989258
1777561209417144000,4.09114404296875,5.614402770996094,-5.693411827087402,-13.275848388671875
1777561209437255200,4.111255126953125,4.668693542480469,-5.700594425201416,-10.335768699645996
1777561209447295500,4.12129541015625,3.9911341667175293,-5.9974751472473145,-9.198522567749023
1777561209457335800,4.131335693359375,3.4356794357299805,-6.224924564361572,-8.451532363891602
1777561209467376000,4.141376220703125,3.2082302570343018,-6.356605529785156,-7.927201747894287
1777561209477416400,4.15141650390625,3.071760892868042,-6.555324077606201,-7.747636795043945
1777561209487456500,4.16145654296875,3.0334534645080566,-6.892906665802002,-7.692570209503174
1777561209497496800,4.171496826171875,2.9903578758239746,-7.225700855255127,-7.714118003845215
1777561209507537200,4.181537109375,2.5953147411346436,-7.6997528076171875,-7.6111674308776855
1777561209517608000,4.19160791015625,2.2912509441375732,-7.637503623962402,-7.6566572189331055
1777561209527678700,4.2016787109375,1.900996208190918,-7.491456985473633,-7.42681360244751
1777561209557860600,4.231860595703125,0.9433154463768005,-5.161899089813232,-7.2113356590271
1777561209567931400,4.241931396484375,0.8762778043746948,-4.618414878845215,-7.072471618652344
1777561209577971700,4.2519716796875,0.9528923034667969,-4.230554580688477,-6.933608055114746
1777561209588042500,4.26204248046875,0.9888052940368652,-4.05817174911499,-6.682217121124268
1777561209598113300,4.27211328125,1.1420341730117798,-3.732560396194458,-6.543353080749512
1777561209608153600,4.282153564453125,1.4053963422775269,-3.7445313930511475,-6.45476770401001
1777561209618224400,4.292224365234375,1.5682021379470825,-4.484339714050293,-6.478709697723389
1777561209628295200,4.302295166015625,1.6376339197158813,-5.099649429321289,-6.682217121124268
1777561209648436700,4.322436767578125,1.4844050407409668,-5.25527286529541,-7.445967197418213
1777561209658507500,4.332507568359375,1.2545616626739502,-4.7836151123046875,-7.6351094245910645
1777561209668578600,4.34257861328125,0.9481038451194763,-4.106055736541748,-7.532158374786377
1777561209678649300,4.3526494140625,0.5793967843055725,-3.8714241981506348,-7.225700855255127
1777561209688689400,4.362689453125,0.2059013396501541,-3.646369218826294,-6.840234279632568
1777561209698760200,4.37276025390625,-0.08858546614646912,-3.7421371936798096,-6.646304130554199
1777561209708800500,4.382800537109375,-0.24181437492370605,-4.084507942199707,-6.445190906524658
1777561209718871300,4.392871337890625,-0.36152446269989014,-4.082113742828369,-6.710947513580322
1777561209728942000,4.402942138671875,-0.2059013396501541,-4.4939165115356445,-6.900089263916016
1777561209749053200,4.42305322265625,-0.181959331035614,-4.99669885635376,-7.522581577301025
1777561209759093500,4.433093505859375,0.07182604819536209,-4.8602294921875,-7.714118003845215
1777561209769164300,4.443164306640625,0.3064578175544739,-5.16429328918457,-7.718906402587891
1777561209779235000,4.453235107421875,0.8331822156906128,-5.147533416748047,-7.560888767242432
1777561209789275400,4.463275390625,1.3670891523361206,-5.39174222946167,-7.443572998046875
1777561209799346200,4.47334619140625,1.259350061416626,-5.772420406341553,-7.113173484802246
1777561209809386500,4.483386474609375,0.9696516990661621,-6.01423454284668,-6.967126846313477
1777561209819457300,4.493457275390625,0.8379706144332886,-6.457161903381348,-6.919242858886719
1777561209829528000,4.503528076171875,0.9888052940368652,-6.962338447570801,-7.1490864753723145
1777561209839598800,4.513598876953125,1.5442601442337036,-7.474697589874268,-7.582436561584473
1777561209869842000,4.543842041015625,3.773261785507202,-9.775525093078613,-7.987056732177734
1777561209879943200,4.553943115234375,3.866635799407959,-9.38048267364502,-7.934384346008301
1777561209889983500,4.5639833984375,3.8953661918640137,-8.29590892791748,-7.759607791900635
1777561209900054300,4.57405419921875,3.869029998779297,-7.204153060913086,-7.407660007476807
1777561209910094600,4.584094482421875,3.976768970489502,-6.5265936851501465,-7.177816867828369
1777561209920195800,4.59419580078125,4.108449935913086,-6.09324312210083,-6.912060260772705
1777561209930236200,4.604236083984375,4.20421838760376,-6.124367713928223,-6.847416877746582
1777561209950347300,4.62434716796875,4.503493309020996,-6.174646377563477,-6.696582317352295
1777561209960448500,4.634448486328125,4.460397720336914,-6.026205539703369,-6.495469093322754
1777561209970519300,4.644519287109375,3.9839515686035156,-5.674258232116699,-6.22731876373291
1777561209980590000,4.654590087890625,3.4811692237854004,-5.489904403686523,-5.868188381195068
1777561209990660900,4.664660888671875,2.9664158821105957,-5.351040840148926,-5.494692802429199
1777561210000731600,4.674731689453125,2.671929121017456,-5.2049946784973145,-5.286397457122803
1777561210010772000,4.68477197265625,2.691082715988159,-5.063736438751221,-5.032611846923828
1777561210020873500,4.69487353515625,2.9664158821105957,-4.833893299102783,-5.092466831207275
1777561210030913500,4.70491357421875,3.251325845718384,-4.58968448638916,-5.173870086669922
1777561210040984300,4.714984375,3.4141316413879395,-4.230554580688477,-5.319916248321533
1777561210061126100,4.735126220703125,3.7038300037384033,-3.976768970489502,-5.585672378540039
1777561210071166200,4.745166259765625,3.732560396194458,-3.885789394378662,-5.70777702331543
1777561210081237200,4.7552373046875,3.6511576175689697,-3.955221176147461,-5.8873419761657715
1777561210091277300,4.76527734375,3.464409828186035,-4.182670593261719,-5.980715751647949
1777561210101317600,4.775317626953125,3.318363666534424,-4.3622355461120605,-5.985504150390625
1777561210111388400,4.785388427734375,3.1675288677215576,-4.572925090789795,-6.04775333404541
1777561210121459200,4.795459228515625,2.9281086921691895,-4.671087741851807,-6.215347766876221
1777561210131499500,4.80549951171875,2.765302896499634,-4.668693542480469,-6.339846134185791
1777561210151610600,4.825610595703125,2.4420857429504395,-4.711789131164551,-6.8043212890625
1777561210171752200,4.845752197265625,2.099714994430542,-4.716577529907227,-7.1921820640563965
1777561210191893800,4.865893798828125,1.867477297782898,-4.750096321105957,-7.41484260559082
1777561210201995300,4.875995361328125,1.802833914756775,-4.967968463897705,-7.47230339050293
1777561210212035600,4.88603564453125,1.7334020137786865,-5.219359874725342,-7.402871608734131
1777561210222106400,4.8961064453125,1.7812861204147339,-5.315127849578857,-7.445967197418213
1777561210232146400,4.906146484375,2.027888774871826,-5.336675643920898,-7.649474620819092
1777561210252288300,4.926288330078125,2.188300371170044,-5.595249176025391,-9.160215377807617
1777561210282500600,4.95650048828125,4.086902141571045,-6.72531270980835,-13.002909660339355
1777561210292571400,4.9665712890625,4.611232280731201,-7.043741226196289,-14.279019355773926
1777561210302642200,4.97664208984375,4.587290287017822,-7.3238630294799805,-15.310919761657715
1777561210312682500,4.9866826171875,4.122815132141113,-7.524975776672363,-16.371551513671875
1777561210322753300,4.996753173828125,3.73016619682312,-7.876923561096191,-17.61174774169922
1777561210332824000,5.006823974609375,3.514688014984131,-8.40843677520752,-19.151220321655273
1777561210342925300,5.01692529296875,3.318363666534424,-8.571242332458496,-20.35310935974121
1777561210363036400,5.037036376953125,3.2345664501190186,-8.489839553833008,-18.71547508239746
1777561210383178000,5.057177978515625,2.5905263423919678,-8.20492935180664,-15.181632995605469
1777561210393187800,5.067187744140625,2.652775526046753,-8.190564155578613,-14.487314224243164
1777561210403289000,5.0772890625,3.1220390796661377,-7.931990146636963,-14.190433502197266
1777561210413329400,5.087329345703125,3.7708675861358643,-7.3454108238220215,-13.929465293884277
1777561210423400200,5.097400146484375,4.252102375030518,-6.691793918609619,-13.582305908203125
1777561210433410000,5.10741015625,4.548983097076416,-6.19379997253418,-12.864046096801758
1777561210443511300,5.11751123046875,4.46518611907959,-5.959167957305908,-11.848904609680176
1777561210483703000,5.157703125,3.0573954582214355,-6.605602264404297,-7.649474620819092
1777561210493743000,5.1677431640625,2.8203697204589844,-6.835445880889893,-6.964732646942139
1777561210503814100,5.177814208984375,2.408566951751709,-6.919242858886719,-6.471527099609375
1777561210513823700,5.18782373046875,2.2409727573394775,-6.777985095977783,-6.203376770019531
1777561210523894500,5.19789453125,2.0374655723571777,-6.584054470062256,-5.899312973022461
1777561210533965300,5.20796533203125,1.6927006244659424,-6.347028732299805,-5.7341132164001465
1777561210544036000,5.2180361328125,1.501164436340332,-6.509834289550781,-5.410895824432373
1777561210584258300,5.25825830078125,1.5179238319396973,-6.708553314208984,-4.683058738708496
1777561210594298600,5.268298583984375,1.403002142906189,-6.519411087036133,-4.809951305389404
1777561210604399900,5.27839990234375,1.3335703611373901,-6.244078159332275,-4.853046894073486
1777561210614470700,5.288470703125,1.2330138683319092,-5.904101371765137,-5.0014872550964355
1777561210624511000,5.298510986328125,1.2713210582733154,-5.643133640289307,-5.078101634979248
1777561210634551300,5.30855126953125,1.2737152576446533,-5.365406036376953,-5.097255229949951
1777561210644622000,5.3186220703125,1.3982137441635132,-5.327098846435547,-5.2049946784973145
1777561210654692900,5.32869287109375,1.359906554222107,-5.224148273468018,-5.372588634490967
1777561210694945500,5.368945556640625,0.7350199222564697,-5.0685248374938965,-6.090848922729492
1777561210705047000,5.379047119140625,0.5482721924781799,-5.011064052581787,-6.145915985107422
1777561210715117800,5.389117919921875,0.31364041566848755,-5.276820659637451,-6.253654956817627
1777561210725188600,5.399188720703125,0.17477671802043915,-5.975927352905273,-6.567295074462891
1777561210735229000,5.40922900390625,0.19871874153614044,-6.375759124755859,-7.094019412994385
1777561210745269000,5.41926904296875,0.18914192914962769,-6.560112476348877,-7.527369976043701
1777561210755309300,5.429309326171875,0.2106897532939911,-6.347028732299805,-7.922413349151611
1777561210775451000,5.449450927734375,0.4668693244457245,-6.9455790519714355,-8.504204750061035
1777561210785552400,5.459552490234375,0.7326257228851318,-7.783549785614014,-8.583212852478027
1777561210795623200,5.469623046875,1.0103530883789062,-7.594407558441162,-8.671798706054688
1777561210805724400,5.479724365234375,1.0103530883789062,-7.594407558441162,-8.671798706054688
1777561210815795200,5.489795166015625,1.158793568611145,-7.668628215789795,-8.62391471862793
1777561210825896400,5.499896484375,1.158793568611145,-7.668628215789795,-8.317456245422363
1777561210835936800,5.509936767578125,1.0773907899856567,-8.212111473083496,-7.817068576812744
1777561210846038300,5.520038330078125,1.3886369466781616,-9.313444137573242,-7.623138427734375
1777561210856109000,5.530109130859375,1.8794482946395874,-10.745177268981934,-7.845798969268799
1777561210876281000,5.550281005859375,3.3063924312591553,-12.354081153869629,-8.506598472595215
1777561210896392200,5.57039208984375,4.230554580688477,-11.654973983764648,-7.960720539093018
1777561210906463000,5.580462890625,4.278438568115234,-10.575188636779785,-7.326257228851318
1777561210916442000,5.590442138671875,4.24970817565918,-9.488221168518066,-6.825869083404541
1777561210926543600,5.600543701171875,4.194641590118408,-8.731653213500977,-6.435614109039307
1777561210936614400,5.610614501953125,4.199429988861084,-8.118738174438477,-5.935225963592529
1777561210946654700,5.62065478515625,4.414907932281494,-7.565677165985107,-5.499481201171875
1777561210956725500,5.6307255859375,4.503493309020996,-6.833051681518555,-5.035006046295166
1777561210976836600,5.650836669921875,4.288015365600586,-5.231330871582031,-4.027047157287598
1777561210986907400,5.660907470703125,4.050989151000977,-4.541800498962402,-3.5649664402008057
1777561210996947500,5.670947509765625,3.7924153804779053,-4.031835556030273,-3.227383852005005
1777561211017089300,5.69108935546875,2.9472622871398926,-3.3494882583618164,-3.1507694721221924
1777561211027160000,5.70116015625,2.6168625354766846,-3.093308687210083,-3.1914708614349365
1777561211037230800,5.71123095703125,2.3582887649536133,-2.7006595134735107,-3.141192674636841
1777561211047301600,5.721301513671875,2.030282974243164,-2.1595699787139893,-3.181894063949585
1777561211057342000,5.731342041015625,1.7357962131500244,-1.7166426181793213,-3.2968156337738037
1777561211067443200,5.741443115234375,1.644816517829895,-1.2665326595306396,-3.5170822143554688
1777561211077483500,5.7514833984375,1.5969325304031372,-1.0342950820922852,-3.7469255924224854
1777561211117766700,5.7917666015625,1.800439715385437,-0.38546648621559143,-4.225766181945801
1777561211127868000,5.801867919921875,1.9033904075622559,-0.8092401623725891,-4.079719543457031
1777561211137938700,5.811938720703125,2.075772762298584,-1.3934253454208374,-4.125209331512451
1777561211148009500,5.822009521484375,2.3511061668395996,-2.145204782485962,-4.271255970001221
1777561211158049800,5.8320498046875,2.5306711196899414,-2.7054479122161865,-4.575319290161133
1777561211168151300,5.8421513671875,2.513911724090576,-3.155557870864868,-4.845864295959473
1777561211178222000,5.85222216796875,2.22660756111145,-3.464409828186035,-5.061342239379883
1777561211198272000,5.87227197265625,0.9193734526634216,-4.108449935913086,-5.3342814445495605
1777561211218444000,5.892444091796875,-0.1364694982767105,-4.884171485900879,-5.9304375648498535
1777561211228545500,5.902545654296875,-0.5291185975074768,-5.008669853210449,-6.234501361846924
1777561211238585900,5.9125859375,-0.6272808313369751,-4.891354084014893,-6.536170482635498
1777561211248656600,5.92265673828125,-0.507570743560791,-4.9368438720703125,-7.184999465942383
1777561211258727400,5.9327275390625,-0.12449848651885986,-5.635950565338135,-8.427590370178223
1777561211268798200,5.942798095703125,0.6248866319656372,-6.428431510925293,-10.11550235748291
1777561211288909300,5.962909423828125,3.361459255218506,-9.184157371520996,-15.320496559143066
1777561211298980000,5.97297998046875,4.95120906829834,-10.283096313476562,-18.327613830566406
1777561211309111800,5.98311181640625,5.657498836517334,-10.690110206604004,-20.436904907226562
1777561211319182600,5.9931826171875,5.013458251953125,-10.953473091125488,-21.74892807006836
1777561211329253400,6.00325341796875,3.641580820083618,-11.57357120513916,-22.90532684326172
1777561211339324200,6.01332421875,2.492363929748535,-12.607866287231445,-24.205379486083984
1777561211349425700,6.02342578125,1.8171991109848022,-13.939042091369629,-24.7775936126709
1777561211359435300,6.033435302734375,1.5969325304031372,-15.085865020751953,-23.439233779907227
1777561211369536800,6.043536865234375,1.6376339197158813,-15.667655944824219,-20.879833221435547
1777561211399718700,6.07371875,2.719813108444214,-15.203181266784668,-14.281413078308105
1777561211409820000,6.08381982421875,2.956839084625244,-13.891158103942871,-13.038822174072266
1777561211419860200,6.093860107421875,3.2297780513763428,-12.078747749328613,-12.138602256774902
1777561211429931000,6.103930908203125,3.6583402156829834,-10.481815338134766,-11.322179794311523
1777561211440001800,6.114001708984375,4.23773717880249,-9.342175483703613,-10.450690269470215
1777561211460143400,6.134143310546875,4.455609321594238,-9.102754592895508,-8.042123794555664
1777561211470214100,6.144214111328125,3.9839515686035156,-9.064447402954102,-6.744466304779053
1777561211490325200,6.1643251953125,2.5546131134033203,-8.5903959274292,-5.073313236236572
1777561211500365600,6.174365478515625,1.7142484188079834,-8.35097599029541,-4.558559894561768
1777561211510436400,6.184436279296875,1.3455413579940796,-8.451532363891602,-4.228160381317139
1777561211520507100,6.194507080078125,0.9552865028381348,-8.705317497253418,-4.230554580688477
1777561211530578000,6.204577880859375,0.7015010714530945,-8.777143478393555,-4.331110954284668
1777561211540618200,6.2146181640625,0.47405192255973816,-8.796297073364258,-4.477157115936279
1777561211550689000,6.22468896484375,0.4429273009300232,-8.908824920654297,-4.584896087646484
1777561211560729300,6.234729248046875,0.22026655077934265,-8.853757858276367,-4.845864295959473
1777561211590941700,6.264941650390625,0.33997663855552673,-7.266402244567871,-5.702988624572754
1777561211631255600,6.305255615234375,0.7613561153411865,-6.248866558074951,-7.0341644287109375
1777561211651427600,6.325427490234375,0.8140285611152649,-5.808333396911621,-7.714118003845215
1777561211661498400,6.335498291015625,0.7398083209991455,-5.8442463874816895,-7.872135162353516
1777561211671569200,6.345569091796875,0.5339069962501526,-5.9088897705078125,-7.8745293617248535
1777561211681609500,6.355609375,0.3256114423274994,-5.669469833374023,-7.812280178070068
1777561211691680300,6.36568017578125,0.29209262132644653,-5.791574001312256,-7.778761386871338
1777561211711821800,6.38582177734375,-0.1149216815829277,-5.612008571624756,-7.51779317855835
1777561211721923000,6.395923095703125,-0.07182604819536209,-5.420472621917725,-7.374141216278076
1777561211732024600,6.406024658203125,-0.08140286058187485,-5.044582843780518,-7.103596210479736
1777561211742095400,6.416095458984375,-0.2082955539226532,-4.627991676330566,-6.919242858886719
1777561211752135700,6.4261357421875,-0.17717093229293823,-4.1874589920043945,-6.710947513580322
1777561211762237000,6.43623681640625,-0.24899697303771973,-4.086902141571045,-6.610390663146973
1777561211772277200,6.44627734375,-0.47165772318840027,-4.3622355461120605,-6.536170482635498
1777561211782348000,6.45634814453125,-0.586579442024231,-4.505887508392334,-6.6846113204956055
1777561211792418800,6.466418701171875,-0.545877993106842,-4.580107688903809,-6.811503887176514
1777561211852813000,6.52681298828125,1.920149803161621,-4.656722068786621,-10.56800651550293
1777561211903075600,6.57707568359375,2.561795711517334,-4.671087741851807,-12.160150527954102
1777561211973540600,6.64754052734375,4.7836151123046875,-4.838681697845459,-12.864046096801758
1777561211993682200,6.66768212890625,4.072536945343018,-4.833893299102783,-11.710040092468262
1777561212003753000,6.6777529296875,3.4141316413879395,-5.082890033721924,-11.061211585998535
1777561212013823700,6.68782373046875,2.7222073078155518,-5.25527286529541,-10.345345497131348
1777561212023833600,6.69783349609375,2.0685901641845703,-5.236119270324707,-9.643844604492188
1777561212033904400,6.707904296875,1.5275006294250488,-5.212177276611328,-8.877699851989746
1777561212044005600,6.718005615234375,1.2761094570159912,-5.1331682205200195,-8.362946510314941
1777561212054076400,6.728076416015625,1.1037269830703735,-5.142745018005371,-7.9176249504089355
1777561212074157000,6.748156982421875,1.2473790645599365,-5.348646640777588,-7.627926826477051
1777561212094298600,6.768298583984375,2.43011474609375,-6.210559368133545,-7.939172744750977
1777561212104400000,6.77839990234375,2.875436305999756,-6.53377628326416,-7.977479934692383
1777561212134643000,6.808642822265625,3.450044631958008,-7.041347026824951,-7.795520782470703
1777561212154723300,6.828723388671875,3.706224203109741,-7.007828235626221,-8.068459510803223
1777561212164794400,6.83879443359375,4.10366153717041,-6.967126846313477,-8.523358345031738
1777561212184905200,6.8589052734375,5.073313236236572,-7.405265808105469,-9.184157371520996
1777561212215148300,6.889148193359375,5.262455463409424,-7.728483200073242,-9.737217903137207
1777561212225219000,6.899218994140625,5.408501625061035,-7.778761386871338,-9.653421401977539
1777561212235320300,6.9093203125,5.3127336502075195,-7.781155586242676,-9.500192642211914
1777561212245360600,6.919360595703125,5.0685248374938965,-7.580042362213135,-9.239224433898926
1777561212255431400,6.929431396484375,4.627991676330566,-7.587224960327148,-9.265560150146484
1777561212275603500,6.949603515625,3.797203779220581,-7.690176010131836,-10.096348762512207
1777561212295775700,6.969775634765625,3.404554843902588,-7.6111674308776855,-10.99656867980957
1777561212305816000,6.979816162109375,3.2968156337738037,-7.771578788757324,-11.386823654174805
1777561212315856400,6.9898564453125,3.272873640060425,-8.090007781982422,-11.856086730957031
1777561212325927200,6.99992724609375,3.134010076522827,-8.360552787780762,-12.33253288269043
1777561212336028400,7.0100283203125,3.134010076522827,-8.360552787780762,-12.33253288269043
1777561212346099200,7.02009912109375,2.6455929279327393,-8.875306129455566,-12.445060729980469
1777561212356170000,7.030169921875,2.6455929279327393,-8.875306129455566,-12.38759994506836
1777561212366210300,7.040210205078125,2.279279947280884,-8.7484130859375,-12.023680686950684
1777561212376220200,7.05022021484375,2.164358377456665,-8.317456245422363,-11.403582572937012
1777561212386291000,7.060291015625,2.1380221843719482,-7.977479934692383,-10.582371711730957
1777561212396361700,7.07036181640625,2.1739351749420166,-7.637503623962402,-9.921571731567383
1777561212416503300,7.09050341796875,2.279279947280884,-7.043741226196289,-9.531316757202148
1777561212426543600,7.100543701171875,2.38462495803833,-6.698976516723633,-9.976638793945312
1777561212436614400,7.110614501953125,2.3750481605529785,-6.301538944244385,-10.582371711730957
1777561212446654700,7.12065478515625,2.3104045391082764,-6.057330131530762,-11.109095573425293
1777561212456725500,7.1307255859375,2.365471363067627,-5.978321552276611,-11.489773750305176
1777561212466796300,7.14079638671875,2.2601263523101807,-6.1052141189575195,-11.743558883666992
1777561212496917000,7.1709169921875,1.845929503440857,-6.57926607131958,-11.88002872467041
1777561212527160000,7.20116015625,0.3998316824436188,-6.4164605140686035,-11.231200218200684
1777561212537230800,7.21123095703125,-0.09576806426048279,-6.469132900238037,-11.037269592285156
1777561212547271200,7.221271240234375,-0.5985504388809204,-6.033388137817383,-10.6925048828125
1777561212557372400,7.231372314453125,-1.1013327836990356,-5.5329999923706055,-10.285490036010742
1777561212567443200,7.241443115234375,-1.482010841369629,-5.123591423034668,-9.938331604003906
1777561212577514000,7.251513916015625,-1.6280571222305298,-5.013458251953125,-9.548076629638672
1777561212627776500,7.301776611328125,-1.766920804977417,-4.505887508392334,-7.759607791900635
1777561212637816800,7.31181689453125,-1.7812861204147339,-4.434061527252197,-7.457938194274902
1777561212647857000,7.32185693359375,-1.8746598958969116,-4.371812343597412,-7.376535415649414
1777561212657927700,7.331927734375,-1.8698714971542358,-4.431667327880859,-7.225700855255127
1777561212667998700,7.341998779296875,-1.7812861204147339,-4.522646903991699,-7.1921820640563965
1777561212678069500,7.352069580078125,-1.7764976024627686,-4.5609540939331055,-7.089231014251709
1777561212688109600,7.362109619140625,-1.843535304069519,-4.458003520965576,-7.038952827453613
1777561212698211000,7.372211181640625,-1.7693150043487549,-4.422090530395508,-7.196970462799072
1777561212708312300,7.382312255859375,-1.7764976024627686,-4.3406877517700195,-7.3238630294799805
1777561212718383000,7.392383056640625,-1.7381904125213623,-4.242525577545166,-7.5417351722717285
1777561212728423400,7.40242333984375,-1.7046716213226318,-4.256890773773193,-7.754819393157959
1777561212738494200,7.412494140625,-1.766920804977417,-4.122815132141113,-7.8098859786987305
1777561212748534500,7.422534423828125,-1.7956513166427612,-4.084507942199707,-7.86734676361084
1777561212758605300,7.432605224609375,-1.8962076902389526,-3.97916316986084,-8.13789176940918
1777561212768645600,7.442645751953125,-1.8124107122421265,-4.0533833503723145,-8.432378768920898
1777561212778686000,7.45268603515625,-1.867477297782898,-4.177882194519043,-9.100360870361328
1777561212798858000,7.47285791015625,-1.8100165128707886,-4.206612586975098,-9.830592155456543
1777561212829070300,7.5030703125,-1.2425906658172607,-4.156333923339844,-9.950302124023438
1777561212839110700,7.513110595703125,-0.8738836050033569,-4.347870349884033,-10.273519515991211
1777561212849181400,7.523181396484375,-0.6105214357376099,-4.484339714050293,-10.81460952758789
1777561212859252200,7.533252197265625,-0.45489832758903503,-4.331110954284668,-11.580753326416016
1777561212869292500,7.54329248046875,-0.4118026793003082,-3.995922565460205,-12.30859088897705
1777561212879363300,7.55336328125,-0.3423708379268646,-3.1028854846954346,-12.811373710632324
1777561212889434000,7.56343408203125,-0.2992752194404602,-2.2002713680267334,-12.69405746459961
1777561212909575700,7.58357568359375,-0.181959331035614,-0.9624691009521484,-10.496180534362793
1777561212919677200,7.59367724609375,0.5267243981361389,-1.5825673341751099,-9.739612579345703
1777561212929748000,7.603748046875,1.7142484188079834,-2.765302896499634,-9.524134635925293
1777561212939849200,7.61384912109375,2.808398485183716,-3.7828385829925537,-9.552865028381348
1777561212949889500,7.6238896484375,3.507505416870117,-4.431667327880859,-9.346963882446289
1777561212959960300,7.633960205078125,4.082113742828369,-4.273650169372559,-9.035717010498047
1777561212970000600,7.644000732421875,4.055777549743652,-3.507505416870117,-8.69334602355957
1777561212980071400,7.654071533203125,3.6511576175689697,-3.0406360626220703,-8.863334655761719
1777561212990111700,7.66411181640625,3.224989652633667,-2.8155810832977295,-9.394847869873047
1777561213000213000,7.674212890625,2.7269957065582275,-2.935291290283203,-10.010157585144043
1777561213010283800,7.68428369140625,2.4229321479797363,-2.913743495941162,-10.60152530670166
1777561213030364400,7.704364501953125,2.389413356781006,-1.9153614044189453,-11.319786071777344
1777561213040435200,7.714435302734375,2.209848165512085,-0.8212111592292786,-11.377246856689453
1777561213050506000,7.724506103515625,2.3032219409942627,-0.6631938815116882,-11.286267280578613
1777561213060576800,7.73457666015625,2.3726539611816406,-1.0342950820922852,-11.334151268005371
1777561213070647600,7.7446474609375,2.9305028915405273,-1.3024457693099976,-11.496956825256348
1777561213080748800,7.754748779296875,3.670311212539673,-1.8267759084701538,-11.48259162902832
1777561213090819600,7.764819580078125,4.304774761199951,-2.0470423698425293,-10.989385604858398
1777561213110961200,7.784961181640625,4.666299343109131,-1.2856862545013428,-10.11789608001709
1777561213131072300,7.805072265625,4.5609540939331055,-1.3431471586227417,-9.737217903137207
1777561213141143000,7.81514306640625,4.685452938079834,-1.7405846118927002,-9.873687744140625
1777561213151183400,7.825183349609375,4.786009311676025,-2.0398597717285156,-10.139444351196289
1777561213161284600,7.83528466796875,5.039794445037842,-2.628833532333374,-10.141838073730469
1777561213171325000,7.845324951171875,5.272032260894775,-3.026270866394043,-9.967061996459961
1777561213181395700,7.855395751953125,5.39174222946167,-3.07415509223938,-9.725247383117676
1777561213191436000,7.86543603515625,5.427655220031738,-2.9975404739379883,-9.437943458557129
1777561213201476400,7.875476318359375,5.477933406829834,-2.9951462745666504,-9.370905876159668
1777561213231627800,7.905627685546875,5.166687488555908,-2.628833532333374,-8.722076416015625
1777561213241729000,7.91572900390625,5.0685248374938965,-2.6360161304473877,-8.24084186553955
1777561213251769300,7.925769287109375,4.900930881500244,-2.875436305999756,-7.924807548522949
1777561213261840100,7.935840087890625,4.932055473327637,-3.2345664501190186,-7.783549785614014
1777561213271941400,7.94594140625,4.867412090301514,-3.3423056602478027,-7.833827972412109
1777561213282012200,7.95601220703125,4.766855716705322,-3.3734302520751953,-7.826645374298096
1777561213292083200,7.966083251953125,4.7405195236206055,-3.0166940689086914,-7.8529815673828125
1777561213302184400,7.976184326171875,4.649539470672607,-2.9544448852539062,-7.728483200073242
1777561213312224800,7.986224853515625,4.383783340454102,-3.162740468978882,-7.6782050132751465
1777561213332396800,8.006396728515625,4.587290287017822,-3.670311212539673,-7.814674377441406
1777561213342437000,8.01643701171875,4.446032524108887,-4.165910720825195,-7.9176249504089355
1777561213352477400,8.0264775390625,4.3622355461120605,-4.534617900848389,-7.972691535949707
1777561213362548200,8.03654833984375,4.323928356170654,-4.062960147857666,-7.960720539093018
1777561213372588500,8.046588623046874,4.436455726623535,-3.576937437057495,-8.14028549194336
1777561213382689800,8.056689697265625,4.479551315307617,-3.1316158771514893,-8.396465301513672
1777561213392699600,8.06669970703125,4.6040496826171875,-3.0142998695373535,-8.78193187713623
1777561213402801000,8.07680078125,4.845864295959473,-2.980781078338623,-9.308655738830566
1777561213422973000,8.096972900390625,5.070919036865234,-3.706224203109741,-10.33098030090332
1777561213433043700,8.107043701171875,5.116408824920654,-3.9839515686035156,-10.773907661437988
1777561213443114500,8.117114501953125,5.078101634979248,-4.290409564971924,-11.173739433288574
1777561213453185300,8.127185302734375,4.9152960777282715,-4.639962673187256,-11.554417610168457
1777561213463195100,8.137195068359375,4.594472885131836,-5.621585369110107,-12.188880920410156
1777561213473266000,8.147265869140625,4.580107688903809,-6.033388137817383,-13.053187370300293
1777561213483367200,8.1573671875,4.5825018882751465,-6.761225700378418,-14.075511932373047
1777561213493377000,8.167376953125,5.03021764755249,-7.453149795532227,-15.131354331970215
1777561213503478300,8.177478271484375,5.257667064666748,-7.661445617675781,-15.691597938537598
1777561213513549000,8.187549072265625,5.22175407409668,-7.931990146636963,-15.535974502563477
1777561213523619800,8.197619873046875,4.537012100219727,-8.185775756835938,-14.844050407409668
1777561213533629700,8.207629638671875,3.667917013168335,-8.075642585754395,-13.778631210327148
1777561213543731000,8.21773095703125,2.7006595134735107,-7.644686222076416,-12.710816383361816
1777561213553832400,8.22783251953125,1.8411411046981812,-7.141903877258301,-11.669339179992676
1777561213563903200,8.2379033203125,1.2737152576446533,-6.550535678863525,-10.984597206115723
1777561213573943600,8.247943603515624,0.8212111592292786,-6.004657745361328,-10.766724586486816
1777561213584014300,8.258014404296874,0.4692635238170624,-5.439626216888428,-11.154585838317871
1777561213594085000,8.268085205078124,0.2968810200691223,-5.303156852722168,-11.726799964904785
1777561213604186400,8.278186279296875,0.31842881441116333,-5.173870086669922,-12.167332649230957
1777561213614287600,8.28828759765625,0.2561795711517334,-5.061342239379883,-12.114660263061523
1777561213624358400,8.2983583984375,0.2513911724090576,-5.154716491699219,-11.731588363647461
1777561213644469500,8.318469482421875,0.4692635238170624,-5.6455278396606445,-10.881647109985352
1777561213654509800,8.328509765625,0.5841852426528931,-6.0405707359313965,-10.532093048095703
1777561213664580600,8.33858056640625,0.5985504388809204,-6.169857978820801,-10.196905136108398
1777561213674651400,8.3486513671875,0.5171475410461426,-6.186617374420166,-9.86650562286377
1777561213684722200,8.35872216796875,0.45250412821769714,-6.064512729644775,-9.583989143371582
1777561213694793000,8.36879296875,0.3878606855869293,-5.7556610107421875,-9.339780807495117
1777561213704802800,8.378802734375,0.33279404044151306,-5.413290023803711,-8.992621421813965
1777561213714873600,8.38887353515625,0.21308395266532898,-5.106832027435303,-8.616731643676758
1777561213724944400,8.3989443359375,0.08140286058187485,-4.896142482757568,-8.281543731689453
1777561213745055500,8.419055419921875,-0.12689268589019775,-4.568136692047119,-7.553706169128418
1777561213755126300,8.429126220703125,-0.2298433631658554,-4.49870491027832,-7.206547260284424
1777561213765197000,8.439197021484375,-0.3878606855869293,-4.441244125366211,-6.9240312576293945
1777561213775237400,8.4492373046875,-0.5650315880775452,-4.491522312164307,-6.655880928039551
1777561213785277700,8.459277587890625,-0.5650315880775452,-4.491522312164307,-6.655880928039551
1777561213795348500,8.469348388671875,-0.6009446382522583,-4.917690277099609,-6.447585105895996
1777561213805419300,8.479419189453125,-0.6009446382522583,-4.917690277099609,-6.428431510925293
1777561213815490000,8.489489990234375,-0.5363011956214905,-5.231330871582031,-6.517016887664795
1777561213825560800,8.499560791015625,-0.45010992884635925,-5.477933406829834,-6.658275127410889
1777561213845763600,8.519763671875,-0.3471592366695404,-5.367800235748291,-6.675034523010254
1777561213855864800,8.52986474609375,-0.26096799969673157,-5.140350818634033,-6.643909931182861
1777561213865905200,8.5399052734375,-0.29209262132644653,-4.987122058868408,-6.538564682006836
1777561213875976000,8.549975830078125,-0.31364041566848755,-4.76924991607666,-6.576871871948242
1777561213886046700,8.560046630859375,-0.38546648621559143,-4.613626480102539,-6.658275127410889
1777561213896087000,8.570087158203124,-0.3734954595565796,-4.448426723480225,-6.658275127410889
1777561213906127400,8.58012744140625,-0.31842881441116333,-4.364629745483398,-6.794744491577148
1777561213916228600,8.590228515625,-0.2944868206977844,-4.426878929138184,-6.861782073974609
1777561213936400600,8.610400634765625,-0.043095629662275314,-4.402936935424805,-7.168240070343018
1777561213946471400,8.620471435546875,-0.1149216815829277,-4.467580318450928,-7.359776020050049
1777561213956542200,8.630542236328125,-0.0933738648891449,-4.436455726623535,-7.632715225219727
1777561213966613000,8.640613037109375,0.038307227194309235,-4.304774761199951,-7.860164165496826
1777561213976684000,8.65068408203125,0.3423708379268646,-4.355052947998047,-8.037335395812988
1777561213986724000,8.66072412109375,0.8403648138046265,-4.4077253341674805,-8.427590370178223
1777561213996764400,8.670764404296875,1.213860273361206,-4.388571739196777,-8.992621421813965
1777561214006835200,8.680835205078125,1.7693150043487549,-4.41969633102417,-9.378087997436523
1777561214016906000,8.690906005859375,2.0422539710998535,-4.323928356170654,-9.737217903137207
1777561214027007500,8.701007568359374,2.5450363159179688,-4.2090067863464355,-10.110713958740234
1777561214067290600,8.74129052734375,2.612074136734009,-2.1116859912872314,-10.828974723815918
1777561214077331000,8.7513310546875,2.4851813316345215,-1.8411411046981812,-11.013327598571777
1777561214087401700,8.761401611328125,2.4013843536376953,-1.7046716213226318,-10.958261489868164
1777561214097472500,8.771472412109375,2.3056161403656006,-1.5825673341751099,-11.202469825744629
1777561214107543300,8.781543212890625,2.142810583114624,-1.1971008777618408,-11.999738693237305
1777561214117583600,8.79158349609375,2.1571757793426514,-0.8020575642585754,-12.890381813049316
1777561214127654400,8.801654296875,2.4851813316345215,-0.6416460275650024,-13.594277381896973
1777561214137694700,8.81169482421875,3.0406360626220703,-0.7206547260284424,-13.649343490600586
1777561214157866800,8.83186669921875,4.079719543457031,-1.1635819673538208,-11.719616889953613
1777561214167937500,8.8419375,4.594472885131836,-1.5729905366897583,-10.773907661437988
1777561214178008300,8.85200830078125,5.188235282897949,-2.1954829692840576,-10.400412559509277
1777561214188079000,8.8620791015625,5.5976433753967285,-2.319981336593628,-10.587160110473633
1777561214198150000,8.87214990234375,5.6670756340026855,-2.2218191623687744,-11.257535934448242
1777561214208220700,8.882220703125,5.698200225830078,-1.9991583824157715,-11.947066307067871
1777561214218291500,8.89229150390625,5.197812080383301,-1.400607943534851,-12.334927558898926
1777561214228393000,8.90239306640625,4.570530891418457,-0.9888052940368652,-12.665327072143555
1777561214248504000,8.922504150390624,3.5434184074401855,-1.2210428714752197,-12.9741792678833
1777561214268645600,8.942645751953124,3.2393548488616943,-2.2601263523101807,-12.892776489257812
1777561214278747000,8.952746826171875,3.3877954483032227,-2.3558945655822754,-12.524068832397461
1777561214288817700,8.962817626953125,3.2848446369171143,-2.3702597618103027,-11.856086730957031
1777561214298888400,8.972888427734375,3.4356794357299805,-2.7509377002716064,-11.42752456665039
1777561214308959200,8.982959228515625,3.2609026432037354,-3.066972494125366,-11.05642318725586
1777561214319030000,8.993030029296875,3.579331636428833,-3.4141316413879395,-10.493785858154297
1777561214329100800,9.003100830078125,3.670311212539673,-3.5242648124694824,-9.835380554199219
1777561214359313400,9.0333134765625,2.8586769104003906,-4.146757125854492,-8.453926086425781
1777561214369384200,9.04338427734375,2.6623523235321045,-4.326322555541992,-8.358158111572266
1777561214379455000,9.053455078125,2.233790159225464,-4.639962673187256,-8.339004516601562
1777561214389525800,9.06352587890625,2.0638017654418945,-5.114014625549316,-8.267178535461426
1777561214399596500,9.073596435546875,2.008735179901123,-5.128379821777344,-8.01339340209961
1777561214409667300,9.083667236328125,2.1092917919158936,-5.250484466552734,-7.546523571014404
1777561214419738000,9.093738037109375,2.365471363067627,-5.154716491699219,-7.206547260284424
1777561214429809000,9.103808837890625,2.4229321479797363,-5.061342239379883,-6.785167694091797
1777561214449950500,9.123950439453125,2.5665841102600098,-4.627991676330566,-6.054935932159424
1777561214460021200,9.134021240234375,2.6886885166168213,-4.455609321594238,-6.112396717071533
1777561214470092000,9.144092041015625,2.7317841053009033,-4.54419469833374,-6.01423454284668
1777561214480193500,9.154193603515624,2.7078421115875244,-4.54419469833374,-5.631162166595459
1777561214490264300,9.164264404296874,2.6384103298187256,-4.54419469833374,-4.982333660125732
1777561214500304400,9.174304443359375,2.676717519760132,-4.764461517333984,-4.290409564971924
1777561214510375400,9.18437548828125,2.7030537128448486,-4.929661273956299,-3.8594532012939453
1777561214520446200,9.1944462890625,2.782062292098999,-5.104437828063965,-3.471592426300049
1777561214530517000,9.20451708984375,2.7988216876983643,-5.185841083526611,-3.2345664501190186
1777561214570769700,9.244769775390624,2.9041666984558105,-4.489128112792969,-3.3279404640197754
1777561214590880800,9.264880859375,2.7485435009002686,-4.359841346740723,-3.818751811981201
1777561214600951600,9.27495166015625,2.7557260990142822,-4.443638324737549,-4.05817174911499
1777561214611052800,9.285052734375,2.7988216876983643,-4.508281707763672,-4.206612586975098
1777561214621123600,9.29512353515625,2.8778305053710938,-4.584896087646484,-4.288015365600586
1777561214631224800,9.305224853515625,3.1962592601776123,-4.819528102874756,-4.388571739196777
1777561214641295600,9.315295654296875,3.469198226928711,-5.015852451324463,-4.752490520477295
1777561214651366400,9.325366455078125,3.2082302570343018,-5.25527286529541,-5.238513469696045
1777561214671508200,9.34550830078125,3.093308687210083,-5.7341132164001465,-6.811503887176514
1777561214681517800,9.355517822265625,2.942473888397217,-5.918466567993164,-7.400477409362793
1777561214691619300,9.365619384765624,2.8347349166870117,-6.1267619132995605,-8.015787124633789
1777561214701690000,9.375690185546874,2.75812029838562,-7.003039836883545,-9.215282440185547
1777561214711730200,9.385730224609375,2.873042106628418,-7.687781810760498,-11.0300874710083
1777561214721770500,9.3957705078125,3.426102638244629,-8.652645111083984,-13.21599292755127
1777561214731841300,9.40584130859375,3.488351821899414,-9.617507934570312,-15.691597938537598
1777561214741881600,9.415881591796875,3.1292216777801514,-10.20887565612793,-18.315643310546875
1777561214772155100,9.446155029296875,0.3974374830722809,-9.986215591430664,-26.034549713134766
1777561214782226000,9.456225830078125,0.3256114423274994,-10.613495826721191,-27.178977966308594
1777561214792235800,9.46623583984375,0.1843535304069519,-10.599130630493164,-26.575639724731445
1777561214802306600,9.476306640625,0.24899697303771973,-10.33098030090332,-24.23650360107422
1777561214812377300,9.48637744140625,0.14604631066322327,-9.287108421325684,-21.39698028564453
1777561214822417700,9.496417724609374,-0.17956513166427612,-7.69735860824585,-19.062633514404297
1777561214832488400,9.506488525390624,-0.7158663272857666,-6.421248912811279,-17.298107147216797
1777561214842559200,9.516559326171874,-0.8571242094039917,-5.322310447692871,-15.82567310333252
1777561214862700800,9.53670068359375,-0.2322375625371933,-3.6296098232269287,-13.646949768066406
1777561214882842400,9.55684228515625,0.22744916379451752,-2.8107926845550537,-12.191274642944336
1777561214892913200,9.5669130859375,0.47644615173339844,-2.7006595134735107,-11.592724800109863
1777561214903014400,9.577014404296875,0.4405331015586853,-2.8443117141723633,-10.812214851379395
1777561214913085200,9.587085205078125,0.3711012601852417,-2.8347349166870117,-9.77791976928711
1777561214923125500,9.59712548828125,0.21308395266532898,-2.9281086921691895,-8.650250434875488
1777561214933196300,9.6071962890625,-0.06224924325942993,-2.9759926795959473,-7.644686222076416
1777561214943267000,9.61726708984375,-0.18914192914962769,-2.9281086921691895,-6.775590896606445
1777561214973449000,9.647448974609375,-1.1659762859344482,-1.9345149993896484,-5.453991413116455
1777561214983519700,9.657519775390625,-1.1300631761550903,-1.3551181554794312,-5.250484466552734
1777561214993590500,9.667590576171875,-1.2210428714752197,-0.7733271718025208,-4.910507678985596
1777561215003661600,9.67766162109375,-1.1276689767837524,-0.5003881454467773,-4.6040496826171875
1777561215013762800,9.6877626953125,-1.1540051698684692,-0.507570743560791,-4.299986362457275
1777561215023833600,9.69783349609375,-1.216254472732544,-0.6057330369949341,-4.213795185089111
1777561215033934800,9.707934814453125,-1.1420341730117798,-0.3878606855869293,-4.299986362457275
1777561215044005600,9.718005615234375,-1.0414776802062988,0,-4.565742492675781
1777561215064147200,9.738147216796875,-0.6224924325942993,0.47884035110473633,-4.73573112487793
1777561215074248700,9.748248779296874,-0.38067805767059326,0.5770025849342346,-4.570530891418457
1777561215084288800,9.758288818359375,-0.05985504388809204,0.7038952708244324,-4.261679172515869
1777561215094390300,9.768390380859374,0.47884035110473633,0.586579442024231,-3.9025487899780273
1777561215104400000,9.77839990234375,0.7565677165985107,0.5267243981361389,-3.778050184249878
1777561215114501400,9.78850146484375,1.0678139925003052,0.4836287498474121,-3.7205893993377686
1777561215124602600,9.7986025390625,1.8818424940109253,0.24899697303771973,-4.015076160430908
1777561215134673400,9.80867333984375,2.33913516998291,-0.6177040338516235,-4.335899353027344
1777561215144683300,9.818683349609374,2.671929121017456,-1.015141487121582,-4.616020679473877
1777561215154754000,9.828754150390624,2.5330653190612793,-1.278503656387329,-4.829104900360107
1777561215174865200,9.848865234375,1.9847931861877441,-1.6065093278884888,-5.188235282897949
1777561215184844300,9.85884423828125,2.33913516998291,-2.296039342880249,-5.442020416259766
1777561215194945500,9.868945556640625,2.4684219360351562,-3.428496837615967,-5.940014362335205
1777561215235198200,9.9091982421875,3.8355112075805664,-5.8873419761657715,-11.78665542602539
1777561215245238500,9.919238525390625,4.400542736053467,-6.0597243309021,-13.15613842010498
1777561215255309300,9.929309326171875,5.003881454467773,-5.884947776794434,-14.27423095703125
1777561215275420400,9.94942041015625,5.6670756340026855,-5.679046630859375,-15.782577514648438
1777561215285522000,9.95952197265625,5.521028995513916,-6.0836663246154785,-16.350004196166992
1777561215345855000,10.01985498046875,5.348646640777588,-9.519346237182617,-18.588581085205078
1777561215355956500,10.02995654296875,6.89530086517334,-10.338163375854492,-17.7937068939209
1777561215365996500,10.03999658203125,8.066065788269043,-10.864887237548828,-16.203956604003906
1777561215396209200,10.070209228515624,4.721365928649902,-10.764330863952637,-9.63187313079834
1777561215416350700,10.090350830078124,1.9512743949890137,-7.836222171783447,-6.689399719238281
1777561215426391000,10.10039111328125,1.4221558570861816,-6.605602264404297,-6.2847795486450195
1777561215436492300,10.1104921875,1.0630255937576294,-5.458779811859131,-6.296750545501709
1777561215446563000,10.12056298828125,0.8858546018600464,-4.711789131164551,-6.433219909667969
1777561215456633900,10.1306337890625,1.1516109704971313,-4.110844135284424,-6.8043212890625
1777561215466704600,10.14070458984375,1.1348515748977661,-3.536235809326172,-7.216124057769775
1777561215486846200,10.16084619140625,1.6687586307525635,-4.402936935424805,-7.050923824310303
1777561215496917000,10.1709169921875,1.9919757843017578,-4.146757125854492,-6.607996463775635
1777561215506987800,10.18098779296875,2.3511061668395996,-3.8163576126098633,-6.370970726013184
1777561215517089300,10.19108935546875,2.676717519760132,-3.6296098232269287,-6.256049156188965
1777561215527129300,10.20112939453125,2.7054479122161865,-3.533841609954834,-6.2392897605896
1777561215537200400,10.211200439453124,2.8562827110290527,-3.667917013168335,-6.246472358703613
1777561215547271200,10.221271240234374,3.2321722507476807,-4.015076160430908,-6.248866558074951
1777561215557372400,10.231372314453125,3.5721490383148193,-4.491522312164307,-6.643909931182861
1777561215567443200,10.241443115234375,4.0749311447143555,-5.078101634979248,-7.534552574157715
1777561215587584800,10.261584716796875,5.729324817657471,-6.636727333068848,-9.674968719482422
1777561215607756800,10.2817568359375,6.66785192489624,-7.805097579956055,-10.733205795288086
1777561215617858300,10.2918583984375,6.133944988250732,-7.8098859786987305,-11.293449401855469
1777561215637999900,10.311999755859375,5.193023681640625,-8.042123794555664,-14.753070831298828
1777561215648070700,10.322070556640625,4.946420669555664,-7.9176249504089355,-16.81926727294922
1777561215658141400,10.332141357421875,4.924872875213623,-8.044517517089844,-18.114530563354492
1777561215668181800,10.342181640625,4.862623691558838,-7.924807548522949,-18.133684158325195
1777561215698394000,10.37239404296875,2.7054479122161865,-7.680599212646484,-14.5806884765625
1777561215718535700,10.39253564453125,2.1356279850006104,-7.759607791900635,-14.211980819702148
1777561215728606500,10.4026064453125,2.4181437492370605,-7.457938194274902,-14.302961349487305
1777561215738677200,10.41267724609375,2.9065608978271484,-6.921637058258057,-14.312538146972656
1777561215748748000,10.422748046875,3.0621838569641113,-6.143521785736084,-13.893552780151367
1777561215758818800,10.43281884765625,3.19865345954895,-5.714959621429443,-13.30457878112793
1777561215768889600,10.4428896484375,3.0095114707946777,-5.406107425689697,-12.583924293518066
1777561215778960600,10.452960693359374,2.7509377002716064,-5.212177276611328,-12.014103889465332
1777561215799102200,10.473102294921874,2.056619167327881,-4.891354084014893,-11.5065336227417
1777561215819274200,10.493274169921875,1.41257905960083,-4.484339714050293,-11.279084205627441
1777561215829314600,10.503314453125,1.0007762908935547,-4.460397720336914,-11.051634788513184
1777561215839385300,10.51338525390625,0.768538773059845,-4.376600742340088,-10.69489860534668
1777561215849395200,10.523395263671874,0.5219359993934631,-4.381389141082764,-10.110713958740234
1777561215859466000,10.533466064453124,0.35434186458587646,-4.264073371887207,-9.485827445983887
1777561215869506000,10.543506103515625,0.2513911724090576,-4.220977783203125,-8.911218643188477
1777561215879607600,10.553607666015624,0.1843535304069519,-4.158728122711182,-8.468291282653809
1777561215929961500,10.60396142578125,0.15322890877723694,-3.134010076522827,-6.904877662658691
1777561215940032300,10.6140322265625,0.2059013396501541,-2.7748796939849854,-6.919242858886719
1777561215950103000,10.62410302734375,0.3495534360408783,-2.736572504043579,-6.782773494720459
1777561215960173800,10.634173828125,0.8403648138046265,-2.983175277709961,-6.878541469573975
1777561215970244600,10.64424462890625,0.9576807022094727,-3.5482068061828613,-7.005434036254883
1777561215980285000,10.654284912109375,1.0534487962722778,-3.5625722408294678,-7.223306655883789
1777561215990325200,10.6643251953125,1.015141487121582,-3.047818660736084,-7.285555839538574
1777561216010497300,10.684497314453125,0.8930372595787048,-1.946485996246338,-6.452373504638672
1777561216020568000,10.694568115234375,1.072602391242981,-1.886630892753601,-6.18182897567749
1777561216040710000,10.7147099609375,1.460463047027588,-1.7142484188079834,-6.7277069091796875
1777561216050780700,10.72478076171875,1.9847931861877441,-1.944091796875,-7.223306655883789
1777561216060851500,10.7348515625,2.5282769203186035,-2.4444799423217773,-7.673416614532471
1777561216070922200,10.744922119140625,2.5689783096313477,-2.315192937850952,-8.185775756835938
1777561216080993000,10.754992919921875,2.5450363159179688,-1.9081788063049316,-8.650250434875488
1777561216091063800,10.765063720703125,2.1499931812286377,-1.7262194156646729,-8.777143478393555
1777561216101134600,10.775134521484375,1.4724340438842773,-1.357512354850769,-8.643068313598633
1777561216121306600,10.795306640625,1.2042834758758545,-1.7717092037200928,-8.628703117370605
1777561216131347000,10.805346923828125,1.7477672100067139,-3.2345664501190186,-9.129091262817383
1777561216141417700,10.815417724609375,2.585737943649292,-4.424484729766846,-9.720458984375
1777561216151458000,10.8254580078125,3.5051112174987793,-4.955997467041016,-9.99339771270752
1777561216161528800,10.83552880859375,4.302380561828613,-5.4444146156311035,-10.180145263671875
1777561216171599600,10.845599609375,4.862623691558838,-5.674258232116699,-10.144232749938965
1777561216181701000,10.855701171875,5.183446884155273,-5.497087001800537,-9.947908401489258
1777561216191772000,10.86577197265625,5.2696380615234375,-5.671864032745361,-9.871294021606445
1777561216201842700,10.8758427734375,5.331887245178223,-5.817910194396973,-10.06043529510498
1777561216232024600,10.906024658203124,4.843470096588135,-5.738901615142822,-11.228805541992188
1777561216242095400,10.916095458984374,4.355052947998047,-5.70777702331543,-11.60708999633789
1777561216252166100,10.926166259765624,3.8977603912353516,-5.592854976654053,-11.750741958618164
1777561216262237000,10.93623681640625,3.335123062133789,-5.669469833374023,-11.487380027770996
1777561216272307700,10.9463076171875,2.942473888397217,-5.681440830230713,-11.185709953308105
1777561216282378500,10.95637841796875,2.693476915359497,-5.971138954162598,-10.836156845092773
1777561216292449300,10.96644921875,2.4636335372924805,-6.033388137817383,-10.663774490356445
1777561216302550500,10.976550537109375,2.365471363067627,-6.536170482635498,-10.467450141906738
1777561216322692000,10.996692138671875,2.7509377002716064,-7.2113356590271,-10.26394271850586
1777561216332732400,11.006732421875,3.0358476638793945,-7.647080421447754,-9.995792388916016
1777561216342803200,11.01680322265625,3.2417490482330322,-7.936778545379639,-9.792284965515137
1777561216352874000,11.0268740234375,3.2154128551483154,-8.128314971923828,-9.428366661071777
1777561216362944800,11.03694482421875,3.0837318897247314,-8.427590370178223,-8.935160636901855
1777561216373015800,11.047015869140624,2.8419175148010254,-8.482656478881836,-8.401253700256348
1777561216383117000,11.057116943359375,2.4396915435791016,-8.274360656738281,-7.836222171783447
1777561216393187800,11.067187744140625,2.0398597717285156,-7.994239330291748,-7.316680431365967
1777561216403258600,11.077258544921875,1.7405846118927002,-7.405265808105469,-6.952761650085449
1777561216433471000,11.107470947265625,1.1899182796478271,-5.485116004943848,-6.703764915466309
1777561216443541800,11.117541748046875,1.161187767982483,-5.202600479125977,-6.9024834632873535
1777561216453612500,11.127612548828125,1.2713210582733154,-5.114014625549316,-7.017405033111572
1777561216463714000,11.137714111328124,1.460463047027588,-5.389348030090332,-7.005434036254883
1777561216473815300,11.147815185546875,1.525106430053711,-5.760449409484863,-6.916848659515381
1777561216483886000,11.157885986328125,1.2042834758758545,-7.01979923248291,-7.084442615509033
1777561216493926400,11.167926513671874,1.6759412288665771,-7.362170219421387,-7.237671852111816
1777561216503936000,11.17793603515625,2.0925323963165283,-7.15387487411499,-7.285555839538574
1777561216534179000,11.208178955078125,5.413290023803711,-7.307103633880615,-7.975085735321045
1777561216544219400,11.218219482421874,6.0190229415893555,-8.312667846679688,-8.540117263793945
1777561216554320600,11.228320556640625,7.010222434997559,-8.31985092163086,-8.904036521911621
1777561216564391400,11.238391357421875,7.465120792388916,-7.706935405731201,-9.409213066101074
1777561216574462200,11.248462158203125,7.331045627593994,-6.957550048828125,-9.832986831665039
1777561216584502500,11.25850244140625,6.557718276977539,-6.291962146759033,-10.522516250610352
1777561216594603800,11.268603759765625,5.489904403686523,-5.580883979797363,-12.306197166442871
1777561216604705000,11.278705078125,4.754884719848633,-5.166687488555908,-14.930241584777832
1777561216634826000,11.308825927734375,5.406107425689697,-4.2951979637146,-21.030668258666992
1777561216654967600,11.328967529296875,5.238513469696045,-4.455609321594238,-16.8216609954834
1777561216665038300,11.339038330078125,4.970362663269043,-4.479551315307617,-14.841656684875488
1777561216675139800,11.349139892578124,4.788403511047363,-4.910507678985596,-14.2431058883667
1777561216685241000,11.359240966796875,4.95120906829834,-5.207388877868652,-14.717158317565918
1777561216695312000,11.369311767578125,5.070919036865234,-5.260061264038086,-15.365986824035645
1777561216705352200,11.379352294921874,4.924872875213623,-5.396530628204346,-15.650896072387695
1777561216725493800,11.39949365234375,4.244919776916504,-6.291962146759033,-14.5591402053833
1777561216745604900,11.41960498046875,2.942473888397217,-6.6391215324401855,-12.662932395935059
1777561216755675600,11.429675537109375,2.3918075561523438,-6.392518520355225,-11.997344970703125
1777561216765746400,11.439746337890625,1.9488801956176758,-5.935225963592529,-11.554417610168457
1777561216775756300,11.44975634765625,1.987187385559082,-5.3797712326049805,-11.374852180480957
1777561216785827000,11.4598271484375,2.075772762298584,-4.8937482833862305,-11.353304862976074
1777561216795897900,11.46989794921875,2.1356279850006104,-4.537012100219727,-11.32457447052002
1777561216805999000,11.4799990234375,2.2888567447662354,-4.335899353027344,-11.310209274291992
1777561216836242000,11.510241943359375,2.0853497982025146,-3.6367924213409424,-10.496180534362793
1777561216846312700,11.520312744140625,1.86508309841156,-3.3710360527038574,-10.146626472473145
1777561216856383500,11.530383544921875,1.6663644313812256,-3.224989652633667,-9.634267807006836
1777561216866423800,11.540423828125,1.2976573705673218,-2.9281086921691895,-9.148244857788086
1777561216876464000,11.550464111328125,1.0606313943862915,-2.628833532333374,-8.683769226074219
1777561216886535000,11.560534912109375,0.8978256583213806,-2.250549554824829,-8.473079681396484
1777561216896605700,11.570605712890625,0.7493851184844971,-1.900996208190918,-8.152256965637207
1777561216906676500,11.580676513671875,0.7493851184844971,-1.900996208190918,-8.152256965637207
1777561216926818300,11.600818359375,0.3902548849582672,-1.278503656387329,-7.438784599304199
1777561216946990300,11.620990234375,0.44771572947502136,-0.6248866319656372,-6.584054470062256
1777561216957061000,11.63106103515625,0.3280056416988373,-1.1563993692398071,-6.2847795486450195
1777561216967162400,11.641162353515625,0.09576806426048279,-1.3670891523361206,-6.007051944732666
1777561216977233200,11.651233154296875,-0.028730420395731926,-1.3718775510787964,-5.628767967224121
1777561216987334700,11.661334716796874,0.16759411990642548,-1.6663644313812256,-5.336675643920898
1777561216997405400,11.671405517578124,0.42856210470199585,-2.5306711196899414,-5.008669853210449
1777561217007506700,11.681506591796875,0.8906430602073669,-2.5019407272338867,-4.888959884643555
1777561217017577500,11.691577392578125,1.0247182846069336,-2.099714994430542,-4.7836151123046875
1777561217037688600,11.7116884765625,1.2066776752471924,-1.4652514457702637,-4.642356872558594
1777561217077910800,11.751910888671874,2.346317768096924,-2.6431987285614014,-3.2800562381744385
1777561217087981600,11.761981689453124,2.0877439975738525,-2.911349296569824,-3.0095114707946777
1777561217098022000,11.77202197265625,1.8483237028121948,-3.045424461364746,-2.7988216876983643
1777561217108123100,11.782123046875,2.164358377456665,-3.6846764087677,-2.762908697128296
1777561217118194000,11.79219384765625,3.397372245788574,-5.003881454467773,-2.96162748336792
1777561217148406300,11.82240625,7.362170219421387,-10.342951774597168,-6.6391215324401855
1777561217158477000,11.83247705078125,7.462726593017578,-8.765172004699707,-7.141903877258301
1777561217168547800,11.8425478515625,7.113173484802246,-7.259219646453857,-6.689399719238281
1777561217178618600,11.85261865234375,6.1770405769348145,-5.841852188110352,-6.035782337188721
1777561217188689400,11.862689453125,5.339069843292236,-5.145139217376709,-5.8873419761657715
1777561217198760400,11.872760498046874,4.912901878356934,-4.912901878356934,-6.576871871948242
1777561217208861700,11.88286181640625,4.946420669555664,-4.467580318450928,-7.754819393157959
1777561217218932500,11.892932373046875,5.372588634490967,-3.9456443786621094,-8.983044624328613
1777561217239043600,11.913043701171874,6.217741966247559,-3.248931646347046,-10.350133895874023
1777561217259154700,11.93315478515625,6.325480937957764,-3.4524388313293457,-10.211270332336426
1777561217269195000,11.943195068359374,5.983109951019287,-4.146757125854492,-9.914389610290527
1777561217279265800,11.953265869140624,5.2911858558654785,-4.93923807144165,-9.749189376831055
1777561217289336600,11.963336669921874,4.671087741851807,-5.585672378540039,-9.390059471130371
1777561217299437800,11.973437744140625,3.976768970489502,-5.920860767364502,-9.2033109664917
1777561217309508600,11.983508544921875,3.469198226928711,-6.251260757446289,-8.944737434387207
1777561217319579400,11.993579345703125,3.1292216777801514,-6.385335922241211,-8.765172004699707
1777561217329650200,12.003650146484375,3.095702886581421,-6.301538944244385,-8.554482460021973
1777561217339690500,12.0136904296875,3.3877954483032227,-6.172252178192139,-8.250418663024902
1777561217349730800,12.023730712890625,3.220201253890991,-6.3063273429870605,-8.04930591583252
1777561217369842000,12.043842041015624,3.181894063949585,-5.679046630859375,-7.479485988616943
1777561217379882200,12.05388232421875,3.0837318897247314,-4.697423934936523,-7.402871608734131
1777561217389953000,12.063953125,2.7700912952423096,-3.663128614425659,-7.50582218170166
1777561217400023800,12.07402392578125,2.470816135406494,-2.8443117141723633,-7.362170219421387
1777561217410125000,12.084125,2.1116859912872314,-2.5929205417633057,-7.122750282287598
1777561217420165400,12.094165283203125,1.599326729774475,-2.516305923461914,-7.117961883544922
1777561217430236200,12.104236083984375,1.213860273361206,-2.9927520751953125,-7.182605266571045
1777561217440307000,12.114306884765625,0.8954314589500427,-3.620033025741577,-7.405265808105469
1777561217460448500,12.134448486328125,1.3623007535934448,-4.745307922363281,-7.647080421447754
1777561217480590000,12.154590087890625,2.650381326675415,-4.683058738708496,-7.3454108238220215
1777561217490660900,12.164660888671875,3.339911460876465,-5.082890033721924,-7.496245384216309
1777561217500701200,12.174701171875,4.14915132522583,-5.635950565338135,-8.224082946777344
1777561217510772000,12.18477197265625,4.917690277099609,-6.236895561218262,-9.124302864074707
1777561217520842800,12.1948427734375,5.413290023803711,-6.988674640655518,-9.959878921508789
1777561217530944300,12.2049443359375,5.746084213256836,-7.393294811248779,-10.690110206604004
1777561217551085800,12.2250859375,5.8203043937683105,-7.196970462799072,-12.497733116149902
1777561217571257900,12.2452578125,5.461174011230469,-7.240066051483154,-16.864757537841797
1777561217581298200,12.255298095703125,5.825092792510986,-7.987056732177734,-19.821596145629883
1777561217591369000,12.265368896484375,6.4164605140686035,-8.710105895996094,-22.318748474121094
1777561217601409300,12.2754091796875,6.7061591148376465,-8.868123054504395,-23.4655704498291
1777561217611480000,12.28547998046875,6.344634532928467,-8.671798706054688,-22.467187881469727
1777561217621550800,12.29555078125,5.717353820800781,-8.556877136230469,-19.835960388183594
1777561217631652000,12.305652099609375,4.927267074584961,-8.216899871826172,-17.417818069458008
1777561217641723000,12.315722900390625,4.331110954284668,-7.94635534286499,-15.67962646484375
1777561217651824400,12.325824462890624,3.885789394378662,-7.3669586181640625,-14.2431058883667
1777561217681975600,12.3559755859375,3.6535518169403076,-5.188235282897949,-11.283872604370117
1777561217692046300,12.36604638671875,3.6798880100250244,-5.403713226318359,-10.60391902923584
1777561217702117400,12.376117431640624,3.5960910320281982,-6.0621185302734375,-10.163386344909668
1777561217712157400,12.386157470703125,3.3063924312591553,-6.797138690948486,-9.682151794433594
1777561217722197800,12.39619775390625,3.0310592651367188,-7.146692276000977,-9.29189682006836
1777561217732268500,12.4062685546875,2.782062292098999,-7.041347026824951,-9.227252960205078
1777561217742308900,12.416308837890625,2.5234885215759277,-6.885724067687988,-9.44991397857666
1777561217762420000,12.436419921875,2.10210919380188,-6.722918510437012,-10.108319282531738
1777561217782561500,12.4565615234375,1.256955862045288,-5.609614372253418,-10.369287490844727
1777561217792632300,12.46663232421875,0.7613561153411865,-5.1595048904418945,-10.314221382141113
1777561217802672600,12.476672607421875,0.5027823448181152,-4.599261283874512,-10.043676376342773
1777561217812713000,12.486712890625,0.4596867263317108,-4.23773717880249,-9.713275909423828
1777561217822783700,12.49678369140625,0.4884171485900879,-3.9264907836914062,-9.512163162231445
1777561217832885000,12.506885009765625,0.4357447028160095,-3.5649664402008057,-9.402029991149902
1777561217842925300,12.51692529296875,0.5410895943641663,-2.985569477081299,-9.198522567749023
1777561217873168400,12.54716845703125,0.5746083855628967,-1.580173134803772,-7.965508937835693
1777561217883239200,12.5572392578125,0.3208230137825012,-1.015141487121582,-7.709329605102539
1777561217893340400,12.56734033203125,0.10055647045373917,-0.6943184733390808,-7.453149795532227
1777561217903411200,12.5774111328125,0.12449848651885986,-0.7493851184844971,-7.180211067199707
1777561217913512400,12.587512451171875,0.033518824726343155,-1.115697979927063,-6.730101108551025
1777561217923583200,12.597583251953125,0.45010992884635925,-1.173158884048462,-6.301538944244385
1777561217933654000,12.607654052734375,0.871489405632019,-1.436521053314209,-5.961562156677246
1777561217943724800,12.617724853515625,1.3934253454208374,-1.8339585065841675,-5.940014362335205
1777561217983886000,12.657885986328125,2.1380221843719482,-2.9448680877685547,-5.750872611999512
1777561217993987300,12.6679873046875,1.9057846069335938,-2.9065608978271484,-5.035006046295166
1777561218004058000,12.67805810546875,2.03507137298584,-2.9759926795959473,-4.043806552886963
1777561218014129000,12.68812890625,2.4157495498657227,-3.5865142345428467,-3.066972494125366
1777561218024138800,12.698138671875,2.741360902786255,-4.6734819412231445,-2.38462495803833
1777561218034240000,12.708239990234375,3.7181951999664307,-5.861005783081055,-2.2361843585968018
1777561218044280300,12.7182802734375,4.501099109649658,-7.493851184844971,-3.112462282180786
1777561218054351000,12.72835107421875,5.825092792510986,-11.12346076965332,-4.922478675842285
1777561218064361000,12.73836083984375,6.294356346130371,-13.917494773864746,-6.7923502922058105
1777561218094603800,12.768603759765625,6.3063273429870605,-8.47547435760498,-7.103596210479736
1777561218104613600,12.778613525390625,5.635950565338135,-7.208941459655762,-5.75326681137085
1777561218114715000,12.78871484375,5.305551052093506,-6.191405773162842,-4.953603267669678
1777561218124785700,12.79878564453125,5.085284233093262,-5.413290023803711,-4.975151062011719
1777561218134826000,12.808825927734375,4.788403511047363,-4.6950297355651855,-5.25527286529541
1777561218144866300,12.8188662109375,4.4292731285095215,-4.244919776916504,-5.779603004455566
1777561218154967600,12.828967529296875,3.907337188720703,-3.77565598487854,-6.191405773162842
1777561218195250700,12.869250732421875,1.8291701078414917,-3.4835634231567383,-6.050147533416748
1777561218205321500,12.879321533203125,1.623268723487854,-3.6727054119110107,-5.760449409484863
1777561218215423000,12.889423095703124,1.5275006294250488,-3.8738183975219727,-5.468356609344482
1777561218225432600,12.8994326171875,1.4245500564575195,-3.756502389907837,-5.336675643920898
1777561218235534000,12.9095341796875,1.4987702369689941,-3.7181951999664307,-5.293580055236816
1777561218245574400,12.919574462890624,1.5514427423477173,-3.7924153804779053,-5.22175407409668
1777561218255675600,12.929675537109375,1.7190368175506592,-4.055777549743652,-5.286397457122803
1777561218275786800,12.949786865234374,2.140416383743286,-4.285621166229248,-5.365406036376953
1777561218316130800,12.990130859375,2.9688100814819336,-5.48272180557251,-5.851428985595703
1777561218326171100,13.000171142578125,2.9448680877685547,-5.609614372253418,-5.959167957305908
1777561218336242000,13.010241943359375,2.8658595085144043,-5.940014362335205,-6.0405707359313965
1777561218346312700,13.020312744140625,2.58813214302063,-5.781997203826904,-6.356605529785156
1777561218356353000,13.03035302734375,2.4396915435791016,-5.6910176277160645,-6.847416877746582
1777561218366393300,13.040393310546875,2.360682964324951,-5.57370138168335,-7.465120792388916
1777561218376464100,13.050464111328125,2.408566951751709,-5.504269599914551,-7.960720539093018
1777561218396636400,13.070636474609374,2.2577321529388428,-5.492298603057861,-9.078812599182129
1777561218406676500,13.080676513671875,2.013523578643799,-5.372588634490967,-9.730035781860352
1777561218416747300,13.090747314453125,2.013523578643799,-5.372588634490967,-9.730035781860352
1777561218426787600,13.10078759765625,2.1787235736846924,-5.506663799285889,-10.623072624206543
1777561218436858400,13.1108583984375,2.604891538619995,-5.6455278396606445,-12.15057373046875
1777561218446929200,13.12092919921875,2.557007312774658,-5.552153587341309,-13.819332122802734
1777561218457030700,13.13103076171875,2.229001760482788,-5.868188381195068,-15.895105361938477
1777561218467040300,13.141040283203125,2.9233202934265137,-7.146692276000977,-19.19910430908203
1777561218477141800,13.151141845703124,4.469974517822266,-8.705317497253418,-23.506271362304688
1777561218497252900,13.1712529296875,7.189787864685059,-12.763489723205566,-26.6043701171875
1777561218507323600,13.18132373046875,6.0597243309021,-13.433865547180176,-22.55337905883789
1777561218517394400,13.19139453125,3.442862033843994,-13.443442344665527,-18.440141677856445
1777561218527465200,13.20146533203125,1.0869675874710083,-13.534421920776367,-16.007633209228516
1777561218537566500,13.21156640625,1.094150185585022,-13.146561622619629,-14.877569198608398
1777561218547606800,13.221606689453125,2.4660277366638184,-11.832144737243652,-14.602235794067383
1777561218557708000,13.2317080078125,4.513070106506348,-9.986215591430664,-14.623784065246582
1777561218567778800,13.24177880859375,6.232107162475586,-8.154650688171387,-14.784195899963379
1777561218577880300,13.25188037109375,7.7763671875,-6.701370716094971,-14.52562141418457
1777561218608031500,13.282031494140625,6.54574728012085,-5.499481201171875,-9.591172218322754
1777561218618102300,13.292102294921875,5.293580055236816,-5.992686748504639,-7.936778545379639
1777561218628142600,13.302142578125,4.63517427444458,-6.6846113204956055,-6.715735912322998
1777561218638213400,13.31221337890625,3.576937437057495,-7.527369976043701,-6.011840343475342
1777561218648253700,13.322253662109375,2.9903578758239746,-8.35097599029541,-5.846640586853027
1777561218658324500,13.332324462890625,2.451662540435791,-8.875306129455566,-5.913678169250488
1777561218668364800,13.34236474609375,2.049436569213867,-9.009381294250488,-6.244078159332275
1777561218688506400,13.36250634765625,1.479616641998291,-8.003816604614258,-6.777985095977783
1777561218698577200,13.3725771484375,1.3958195447921753,-7.405265808105469,-6.94079065322876
1777561218708587000,13.3825869140625,1.094150185585022,-6.864176273345947,-6.847416877746582
1777561218718688300,13.392688232421875,1.1324573755264282,-6.356605529785156,-6.897695064544678
1777561218728759000,13.402759033203125,1.01753568649292,-6.236895561218262,-7.015010833740234
1777561218738829800,13.412829833984375,1.0462661981582642,-6.026205539703369,-7.074865818023682
1777561218748870100,13.4228701171875,1.137245774269104,-5.983109951019287,-7.2137298583984375
1777561218758941000,13.43294091796875,1.2234370708465576,-5.904101371765137,-7.448361396789551
1777561218769011700,13.44301171875,1.2449848651885986,-5.305551052093506,-7.735665798187256
1777561218789153300,13.4631533203125,1.3503297567367554,-4.486733913421631,-7.967903137207031
1777561218799224000,13.47322412109375,1.3263877630233765,-4.046200752258301,-7.99184513092041
1777561218809295000,13.483295166015624,1.4772224426269531,-3.509899616241455,-8.037335395812988
1777561218819366000,13.493365966796874,1.3431471586227417,-3.0837318897247314,-7.762001991271973
1777561218829436700,13.503436767578124,1.2976573705673218,-2.911349296569824,-7.2113356590271
1777561218839507500,13.513507568359374,1.1899182796478271,-3.1507694721221924,-6.53377628326416
1777561218849578200,13.523578125,0.9672574996948242,-3.246537446975708,-5.889736175537109
1777561218859649000,13.53364892578125,1.0558429956436157,-2.9472622871398926,-5.413290023803711
1777561218869719800,13.5437197265625,1.1755530834197998,-2.875436305999756,-4.963180065155029
1777561218879821000,13.553821044921875,1.3551181554794312,-2.4420857429504395,-4.611232280731201
1777561218909942000,13.58394189453125,1.8698714971542358,-3.7229835987091064,-4.525041103363037
1777561218920012800,13.5940126953125,1.5753847360610962,-4.005499362945557,-4.742913722991943
1777561218930114000,13.604114013671875,1.256955862045288,-4.0749311447143555,-4.929661273956299
1777561218940184800,13.614184814453125,1.3000515699386597,-3.84269380569458,-4.776432514190674
1777561218950255600,13.624255615234375,1.4844050407409668,-3.890577793121338,-4.759673118591309
1777561218960326400,13.634326416015625,1.3072341680526733,-3.952826976776123,-4.774038314819336
1777561218970366700,13.64436669921875,1.2114660739898682,-4.2329487800598145,-5.2696380615234375
1777561218980407000,13.654406982421875,1.3766659498214722,-4.383783340454102,-5.978321552276611
1777561218990447400,13.664447265625,1.8818424940109253,-5.413290023803711,-6.730101108551025
1777561219020629200,13.694629150390625,2.298433542251587,-6.62236213684082,-8.89445972442627
1777561219030700000,13.704699951171875,2.717418909072876,-6.1530985832214355,-9.311050415039062
1777561219040770800,13.714770751953125,2.9903578758239746,-5.851428985595703,-9.41639518737793
1777561219050841600,13.724841552734375,3.2992098331451416,-5.585672378540039,-9.311050415039062
1777561219060912400,13.734912353515625,3.687070608139038,-5.65031623840332,-9.5408935546875
1777561219070983200,13.744983154296875,3.974374771118164,-5.722142219543457,-10.093954086303711
1777561219081084400,13.75508447265625,4.261679172515869,-5.571307182312012,-10.723628997802734
1777561219091155500,13.765155517578124,4.620809078216553,-5.413290023803711,-11.166556358337402
1777561219111235800,13.78523583984375,5.149928092956543,-5.288791656494141,-11.829751014709473
1777561219121306600,13.795306640625,5.039794445037842,-5.262455463409424,-12.081141471862793
1777561219131347000,13.805346923828125,4.654327869415283,-5.705382823944092,-12.12902545928955
1777561219141387300,13.81538720703125,4.1395745277404785,-6.406883716583252,-11.975796699523926
1777561219151458000,13.8254580078125,3.4356794357299805,-7.187393665313721,-11.774683952331543
1777561219161528800,13.83552880859375,2.832340717315674,-7.706935405731201,-11.338939666748047
1777561219171599600,13.845599609375,2.4205379486083984,-8.034940719604492,-10.919954299926758
1777561219181670400,13.85567041015625,2.142810583114624,-8.149862289428711,-10.448296546936035
1777561219191741200,13.8657412109375,2.1811177730560303,-8.286332130432129,-9.986215591430664
1777561219211913500,13.88591357421875,2.853888511657715,-8.343792915344238,-9.339780807495117
1777561219221984300,13.895984375,3.600879430770874,-8.197746276855469,-9.100360870361328
1777561219232024600,13.906024658203124,3.9240965843200684,-7.927201747894287,-8.884882926940918
1777561219242064600,13.916064697265625,3.928884983062744,-7.378929615020752,-8.540117263793945
1777561219252135700,13.9261357421875,3.6966474056243896,-6.919242858886719,-8.245630264282227
1777561219262237000,13.93623681640625,3.287238836288452,-6.303933143615723,-8.133103370666504
1777561219272338200,13.946338134765625,3.1028854846954346,-5.719748020172119,-8.180987358093262
1777561219282409000,13.956408935546875,3.07415509223938,-5.477933406829834,-8.300697326660156
1777561219292449300,13.96644921875,3.222595453262329,-5.34625244140625,-8.339004516601562
1777561219312590800,13.9865908203125,4.180276393890381,-5.669469833374023,-8.621520042419434
1777561219332702000,14.006701904296875,5.16429328918457,-6.244078159332275,-8.932766914367676
1777561219342772700,14.016772705078125,5.394136428833008,-6.4834980964660645,-9.105149269104004
1777561219352843500,14.026843505859375,5.485116004943848,-6.574477672576904,-9.339780807495117
1777561219362944800,14.03694482421875,5.293580055236816,-6.588842868804932,-9.445125579833984
1777561219373015800,14.047015869140624,5.190629482269287,-6.718130111694336,-9.476250648498535
1777561219383086600,14.057086669921874,4.886565685272217,-6.864176273345947,-9.548076629638672
1777561219393157400,14.067157470703124,4.630385875701904,-7.024587631225586,-9.605537414550781
1777561219403197700,14.07719775390625,4.20421838760376,-7.048529624938965,-9.907206535339355
1777561219423278000,14.097278076171875,3.205836057662964,-6.9910688400268555,-11.034875869750977
1777561219433348900,14.107348876953125,3.023876667022705,-7.026981830596924,-11.944672584533691
1777561219443450400,14.117450439453124,3.1244332790374756,-7.163451671600342,-12.90953540802002
1777561219453521200,14.127521240234374,3.5482068061828613,-7.328651428222656,-13.682862281799316
1777561219463592000,14.137592041015624,3.641580820083618,-7.4555439949035645,-14.049175262451172
1777561219473693200,14.147693115234375,3.557783842086792,-7.326257228851318,-13.82412052154541
1777561219483733500,14.1577333984375,2.9688100814819336,-7.089231014251709,-12.990938186645508
1777561219493773800,14.16777392578125,2.185906171798706,-7.015010833740234,-11.918335914611816
1777561219503814100,14.177814208984374,1.3766659498214722,-7.249642848968506,-11.034875869750977
1777561219523986200,14.197986083984375,0.4141969084739685,-8.044517517089844,-11.176133155822754
1777561219534057000,14.208056884765625,0.3734954595565796,-8.439560890197754,-11.951854705810547
1777561219544097300,14.21809716796875,0.004788403399288654,-8.358158111572266,-12.797008514404297
1777561219554198500,14.228198486328125,-0.44532153010368347,-8.248024940490723,-13.503297805786133
1777561219564299800,14.2382998046875,-0.8475474119186401,-8.286332130432129,-13.7882080078125
1777561219574370600,14.24837060546875,-1.3000515699386597,-8.269572257995605,-13.524845123291016
1777561219584411000,14.258410888671875,-1.6831238269805908,-8.367734909057617,-12.69405746459961
1777561219594481700,14.268481689453125,-2.2816741466522217,-8.60236644744873,-11.805809020996094
1777561219604552400,14.278552490234375,-2.851494312286377,-8.611943244934082,-11.101913452148438
1777561219634765000,14.30876513671875,-3.801992416381836,-7.053318023681641,-9.77791976928711
1777561219644866300,14.3188662109375,-3.823540210723877,-6.313509941101074,-9.5408935546875
1777561219654937000,14.32893701171875,-3.667917013168335,-5.8657941818237305,-9.265560150146484
1777561219664977400,14.338977294921875,-3.138798475265503,-5.916072368621826,-8.920795440673828
1777561219675048200,14.349048095703125,-3.399766445159912,-5.96874475479126,-8.38688850402832
1777561219685088500,14.359088623046874,-3.375824451446533,-5.456385612487793,-7.812280178070068
1777561219695128800,14.36912890625,-3.3925838470458984,-5.51624059677124,-7.295132637023926
1777561219705169000,14.3791689453125,-3.3470940589904785,-5.647922039031982,-6.957550048828125
1777561219735381500,14.409381591796874,-3.512293815612793,-6.698976516723633,-6.732495307922363
1777561219745452300,14.419452392578124,-3.5482068061828613,-6.919242858886719,-7.096413612365723
1777561219755492600,14.42949267578125,-3.471592426300049,-6.782773494720459,-7.479485988616943
1777561219765563400,14.4395634765625,-3.3877954483032227,-6.531382083892822,-7.68538761138916
1777561219775634200,14.44963427734375,-3.246537446975708,-5.985504150390625,-7.479485988616943
1777561219785735400,14.4597353515625,-3.0119056701660156,-5.657498836517334,-7.007828235626221
1777561219795806200,14.46980615234375,-2.7533318996429443,-5.410895824432373,-6.698976516723633
1777561219805907500,14.479907470703125,-2.5282769203186035,-5.183446884155273,-6.603208065032959
1777561219815947800,14.48994775390625,-2.300827741622925,-5.329493045806885,-6.574477672576904
1777561219835998000,14.509998046875,-1.9488801956176758,-5.355829238891602,-6.878541469573975
1777561219846099200,14.52009912109375,-1.8052281141281128,-5.035006046295166,-6.916848659515381
1777561219856139500,14.530139404296875,-1.7357962131500244,-4.879383087158203,-6.751648902893066
1777561219866240800,14.54024072265625,-1.5107412338256836,-4.683058738708496,-6.646304130554199
1777561219876311600,14.5503115234375,-1.158793568611145,-4.824316501617432,-6.672640323638916
1777561219886382300,14.56038232421875,-0.7733271718025208,-5.051765441894531,-6.967126846313477
1777561219896392200,14.57039208984375,-0.7733271718025208,-5.051765441894531,-6.967126846313477
1777561219906493400,14.580493408203125,-0.4884171485900879,-5.200206279754639,-7.443572998046875
1777561219916564200,14.590564208984375,-0.10055647045373917,-5.200206279754639,-7.795520782470703
1777561219926635000,14.600635009765625,0.1364694982767105,-5.214571475982666,-8.051700592041016
1777561219936675300,14.61067529296875,0.45010992884635925,-5.195417881011963,-8.226476669311523
1777561219946715600,14.620715576171875,0.768538773059845,-5.264849662780762,-8.631096839904785
1777561219956786400,14.630786376953125,0.9074024558067322,-5.430049419403076,-9.188945770263672
1777561219966857200,14.640857177734375,0.9768342971801758,-5.286397457122803,-9.81143856048584
1777561219976928000,14.650927978515625,0.7398083209991455,-4.671087741851807,-10.283096313476562
1777561219987029200,14.661029296875,0.43335050344467163,-3.8810009956359863,-10.390835762023926
1777561219997069600,14.671069580078125,0.47165772318840027,-3.24414324760437,-10.036493301391602
1777561220007140400,14.681140380859375,0.6703764796257019,-2.894589900970459,-9.394847869873047
1777561220017211100,14.691211181640625,1.0821791887283325,-3.093308687210083,-8.89445972442627
1777561220027282000,14.701281982421875,1.7812861204147339,-3.4356794357299805,-8.858546257019043
1777561220057463800,14.7314638671875,3.6822822093963623,-3.3518824577331543,-9.129091262817383
1777561220067534800,14.741534912109374,3.641580820083618,-3.4189200401306152,-9.196128845214844
1777561220077575000,14.751574951171875,3.3470940589904785,-3.3734302520751953,-9.53849983215332
1777561220087676400,14.761676513671874,3.047818660736084,-3.3686418533325195,-10.237606048583984
1777561220097716700,14.771716796875,2.7030537128448486,-3.428496837615967,-10.99656867980957
1777561220107818000,14.78181787109375,2.6001031398773193,-3.620033025741577,-11.707646369934082
1777561220117858300,14.7918583984375,2.3918075561523438,-3.754108190536499,-12.114660263061523
1777561220127929000,14.80192919921875,2.315192937850952,-3.8379054069519043,-12.294225692749023
1777561220137969400,14.811969482421874,2.319981336593628,-3.8594532012939453,-12.320562362670898
1777561220158080500,14.83208056640625,2.4157495498657227,-4.259284973144531,-11.91354751586914
1777561220168181800,14.842181640625,2.760514497756958,-4.587290287017822,-11.647790908813477
1777561220178222000,14.85222216796875,3.313575267791748,-4.994304656982422,-11.525687217712402
1777561220188292900,14.86229296875,3.687070608139038,-5.1595048904418945,-11.137825965881348
1777561220198333200,14.872333251953124,4.019864559173584,-5.363011837005615,-10.757147789001465
1777561220208373200,14.882373291015625,4.199429988861084,-5.521028995513916,-10.218452453613281
1777561220218444000,14.892444091796875,4.127603530883789,-5.585672378540039,-9.514557838439941
1777561220228515000,14.90251513671875,3.8714241981506348,-5.408501625061035,-8.992621421813965
1777561220248656600,14.92265673828125,3.2776620388031006,-5.212177276611328,-7.82185697555542
1777561220258727400,14.9327275390625,3.2561142444610596,-5.279214859008789,-7.390900611877441
1777561220268798200,14.942798095703125,3.6080620288848877,-5.363011837005615,-7.319074630737305
1777561220278838500,14.952838623046874,3.6104562282562256,-5.152322292327881,-7.287950038909912
1777561220288909300,14.962909423828124,3.4620156288146973,-5.284003257751465,-7.2137298583984375
1777561220298949600,14.97294970703125,3.380612850189209,-5.485116004943848,-7.094019412994385
1777561220309020400,14.9830205078125,3.3279404640197754,-5.664681434631348,-6.847416877746582
1777561220319121700,14.99312158203125,3.2345664501190186,-5.595249176025391,-6.619967937469482
1777561220329192400,15.0031923828125,3.265691041946411,-5.530605792999268,-6.303933143615723
1777561220359435300,15.033435302734375,3.423708438873291,-5.442020416259766,-6.212953567504883
1777561220369506000,15.043506103515625,3.5458126068115234,-5.463568210601807,-6.327875137329102
1777561220379577000,15.0535771484375,3.7205893993377686,-5.363011837005615,-6.485892295837402
1777561220389648000,15.06364794921875,3.840299606323242,-5.351040840148926,-6.737283706665039
1777561220399688000,15.07368798828125,4.017470359802246,-5.418078422546387,-6.909666061401367
1777561220409789400,15.08378955078125,4.015076160430908,-5.4252610206604,-6.909666061401367
1777561220419829800,15.093829833984374,4.067748546600342,-5.549759387969971,-6.833051681518555
1777561220450103000,15.12410302734375,3.804386615753174,-5.518634796142578,-6.464344501495361
1777561220460173800,15.134173828125,3.687070608139038,-5.485116004943848,-6.469132900238037
1777561220470275300,15.144275390625,3.579331636428833,-5.540182590484619,-6.5481414794921875
1777561220480346000,15.15434619140625,3.485957622528076,-5.600037574768066,-6.734889507293701
1777561220490417000,15.1644169921875,3.332728862762451,-5.664681434631348,-7.1490864753723145
1777561220500457200,15.174457275390624,3.251325845718384,-5.767632007598877,-7.467514991760254
1777561220510528000,15.184528076171874,3.1435868740081787,-5.829881191253662,-7.817068576812744
1777561220520598800,15.194598876953124,3.0119056701660156,-5.937620162963867,-8.030152320861816
1777561220530669600,15.204669677734374,3.0334534645080566,-6.138733386993408,-8.358158111572266
1777561220540740400,15.214740234375,2.940079689025879,-6.296750545501709,-8.858546257019043
1777561220581054000,15.255053955078125,2.2840683460235596,-6.2201361656188965,-10.869675636291504
1777561220591155500,15.265155517578124,2.0877439975738525,-6.236895561218262,-11.133037567138672
1777561220601226200,15.275226318359374,1.7764976024627686,-6.447585105895996,-11.319786071777344
1777561220611297000,15.285297119140624,1.1324573755264282,-6.509834289550781,-11.54244613647461
1777561220621367800,15.295367919921874,0.6991068720817566,-6.775590896606445,-12.140996932983398
1777561220631469000,15.305468994140625,0.9026140570640564,-7.252037048339844,-13.184868812561035
1777561220641539800,15.315539794921875,1.6639702320098877,-8.202534675598145,-14.420276641845703
1777561220671813400,15.3458134765625,0.8020575642585754,-8.061277389526367,-12.600683212280273
1777561220681884200,15.35588427734375,-0.6057330369949341,-7.307103633880615,-11.42752456665039
1777561220691985400,15.3659853515625,-1.889025092124939,-6.8162922859191895,-11.042057991027832
1777561220702025700,15.376025634765625,-2.7772738933563232,-6.581660270690918,-11.532869338989258
1777561220712127000,15.386126953125,-3.00711727142334,-6.291962146759033,-12.346898078918457
1777561220722167300,15.396167236328125,-2.8778305053710938,-5.947196960449219,-13.029245376586914
1777561220732238000,15.406238037109375,-2.5091233253479004,-5.535394191741943,-13.347674369812012
1777561220762450400,15.436450439453125,-1.139639973640442,-5.765237808227539,-12.844892501831055
1777561220772521200,15.446521240234375,-0.8212111592292786,-5.971138954162598,-12.210428237915039
1777561220782561500,15.4565615234375,-0.7565677165985107,-6.035782337188721,-11.563994407653809
1777561220792662800,15.466662841796875,-0.7852981686592102,-5.827486991882324,-10.881647109985352
1777561220802703000,15.476703125,-1.0199298858642578,-5.410895824432373,-10.393229484558105
1777561220812743400,15.486743408203125,-1.036689281463623,-5.020640850067139,-9.926360130310059
1777561220822753300,15.496753173828125,-1.292868971824646,-4.489128112792969,-9.576807022094727
1777561220832854500,15.5068544921875,-1.6950948238372803,-4.036623954772949,-9.275136947631836
1777561220842925300,15.51692529296875,-2.054224967956543,-3.6750996112823486,-9.20091724395752
1777561220862975500,15.5369755859375,-2.473210334777832,-3.450044631958008,-8.621520042419434
1777561220873076700,15.54707666015625,-2.5450363159179688,-3.361459255218506,-8.327033042907715
1777561220883147500,15.5571474609375,-2.631227731704712,-3.31118106842041,-8.14028549194336
1777561220893248800,15.567248779296875,-2.691082715988159,-3.220201253890991,-8.17380428314209
1777561220903258600,15.577258544921875,-2.674323320388794,-2.8874073028564453,-8.159439086914062
1777561220913360000,15.58735986328125,-2.6024973392486572,-2.6575639247894287,-8.01339340209961
1777561220923430700,15.5974306640625,-2.609679937362671,-2.5067291259765625,-7.55131196975708
1777561220933532200,15.6075322265625,-2.585737943649292,-2.276885747909546,-7.204153060913086
1777561220943572200,15.617572265625,-2.470816135406494,-2.0901381969451904,-6.8593878746032715
1777561220963744500,15.63774462890625,-2.0470423698425293,-1.8387469053268433,-6.418854713439941
1777561220983855600,15.657855712890624,-1.2521674633026123,-1.6615760326385498,-5.638344764709473
1777561220993956900,15.667956787109375,-1.015141487121582,-1.5083470344543457,-5.2049946784973145
1777561221004027600,15.678027587890625,-0.8858546018600464,-1.2856862545013428,-4.788403511047363
1777561221014098400,15.688098388671875,-0.7182605266571045,-0.9528923034667969,-4.350264549255371
1777561221024108300,15.6981083984375,-0.5386953949928284,-0.6248866319656372,-3.998316764831543
1777561221034179000,15.708178955078125,-0.043095629662275314,-0.5339069962501526,-3.751713991165161
1777561221044249900,15.718249755859375,0.31364041566848755,-0.5506663918495178,-3.600879430770874
1777561221054290200,15.728290283203124,0.9648633003234863,-0.8427590131759644,-3.756502389907837
1777561221074431700,15.748431640625,2.0231003761291504,-1.4532804489135742,-4.874594688415527
1777561221084472000,15.75847216796875,2.1715409755706787,-1.5729905366897583,-5.535394191741943
1777561221094542800,15.76854296875,2.3918075561523438,-1.7549498081207275,-5.995080947875977
1777561221104552400,15.778552490234375,2.3535003662109375,-1.9057846069335938,-6.2392897605896
1777561221114654000,15.788654052734374,2.1308395862579346,-1.9704279899597168,-6.538564682006836
1777561221124724700,15.798724853515624,2.1523873805999756,-2.188300371170044,-6.868964672088623
1777561221134826000,15.808825927734375,2.0374655723571777,-2.403778553009033,-7.2352776527404785
1777561221144835800,15.8188359375,1.802833914756775,-2.248155355453491,-7.553706169128418
1777561221154937000,15.82893701171875,1.4724340438842773,-2.2433669567108154,-7.795520782470703
1777561221175078700,15.84907861328125,2.1164743900299072,-2.535459518432617,-8.614337921142578
1777561221185149400,15.8591494140625,2.4588451385498047,-3.1938650608062744,-8.96149730682373
1777561221195189800,15.869189697265625,2.8203697204589844,-3.514688014984131,-8.975862503051758
1777561221205260500,15.879260498046875,3.0095114707946777,-3.5458126068115234,-8.767566680908203
1777561221215331300,15.889331298828125,2.82515811920166,-3.112462282180786,-8.729259490966797
1777561221225371600,15.89937158203125,2.126051187515259,-2.4612393379211426,-9.251194953918457
1777561221235442400,15.9094423828125,1.867477297782898,-2.3080103397369385,-10.690110206604004
1777561221245482800,15.919482666015625,2.0159177780151367,-3.155557870864868,-12.983756065368652
1777561221255553500,15.929553466796875,2.6839001178741455,-4.405331134796143,-15.425841331481934
1777561221265624300,15.939624267578125,3.40216064453125,-5.5329999923706055,-16.936582565307617
1777561221285827000,15.9598271484375,3.9217023849487305,-5.702988624572754,-16.065093994140625
1777561221295928300,15.96992822265625,3.9695863723754883,-6.016628742218018,-14.626177787780762
1777561221305999000,15.9799990234375,3.706224203109741,-6.8043212890625,-13.675680160522461
1777561221316070000,15.99006982421875,3.4380736351013184,-7.769184589385986,-13.603854179382324
1777561221326140700,16.000140625,3.3518824577331543,-9.023746490478516,-14.089877128601074
1777561221336242000,16.010241943359375,2.765302896499634,-7.546523571014404,-15.442601203918457
1777561221346312700,16.020312744140625,0.9624691009521484,-6.88332986831665,-15.885528564453125
1777561221356414200,16.030414306640626,2.4396915435791016,-8.987833023071289,-16.479290008544922
1777561221386626600,16.06062646484375,3.5051112174987793,-8.9064302444458,-13.084312438964844
1777561221396727800,16.070727783203125,3.1699230670928955,-9.617507934570312,-11.461043357849121
1777561221406798600,16.080798583984375,2.363077163696289,-9.397241592407227,-10.005369186401367
1777561221416869400,16.090869384765625,1.482010841369629,-8.358158111572266,-8.951920509338379
1777561221426940200,16.100940185546875,0.9983820915222168,-6.818686485290527,-8.315062522888184
1777561221447081700,16.121081787109375,1.6639702320098877,-4.575319290161133,-8.164227485656738
1777561221457152800,16.13115283203125,1.6639702320098877,-4.575319290161133,-8.164227485656738
1777561221467192800,16.14119287109375,2.2457611560821533,-4.1874589920043945,-8.118738174438477
1777561221477294300,16.15129443359375,2.5665841102600098,-4.369418144226074,-7.718906402587891
1777561221497436000,16.171435791015625,3.2800562381744385,-4.51067590713501,-5.896918773651123
1777561221507506700,16.181506591796875,3.5194764137268066,-3.9863457679748535,-4.9799394607543945
1777561221517608000,16.19160791015625,3.663128614425659,-2.875436305999756,-4.197035789489746
1777561221527678700,16.2016787109375,3.663128614425659,-1.6208745241165161,-3.512293815612793
1777561221537749500,16.21174951171875,3.4620156288146973,-0.7852981686592102,-2.8395233154296875
1777561221547789800,16.221789794921875,3.4380736351013184,-0.42616790533065796,-2.3127987384796143
1777561221557860600,16.231860595703125,3.2585084438323975,-0.6033388376235962,-1.9560627937316895
1777561221578002200,16.252002197265625,3.141192674636841,-2.276885747909546,-1.6711528301239014
1777561221588042500,16.26204248046875,3.2609026432037354,-3.555389642715454,-2.343923568725586
1777561221598143700,16.272143798828125,3.6320040225982666,-4.991910457611084,-3.3734302520751953
1777561221608214800,16.28221484375,4.000710964202881,-6.418854713439941,-4.426878929138184
1777561221618316000,16.29231591796875,5.063736438751221,-8.214506149291992,-5.765237808227539
1777561221628356400,16.3023564453125,6.3302693367004395,-10.60391902923584,-7.362170219421387
1777561221638396700,16.312396728515626,7.376535415649414,-12.866439819335938,-9.806650161743164
1777561221648467500,16.322467529296876,8.226476669311523,-14.065935134887695,-13.141773223876953
1777561221658538200,16.332538330078126,6.813898086547852,-13.527239799499512,-16.393098831176758
1777561221668578600,16.34257861328125,5.0014872550964355,-12.569559097290039,-20.092140197753906
1777561221708861700,16.38286181640625,-3.7229835987091064,-7.309497833251953,-15.808914184570312
1777561221728942000,16.402942138671875,-2.231395959854126,-7.891288757324219,-14.85123348236084
1777561221738982400,16.412982421875,-1.4508862495422363,-8.125920295715332,-15.351621627807617
1777561221749053200,16.42305322265625,-0.7948749661445618,-8.437167167663574,-15.387534141540527
1777561221759154700,16.43315478515625,0.06224924325942993,-8.576030731201172,-14.748282432556152
1777561221769225500,16.4432255859375,0.524330198764801,-8.389283180236816,-13.64455509185791
1777561221789367000,16.463366943359375,1.1037269830703735,-7.673416614532471,-11.580753326416016
1777561221799437800,16.473437744140625,1.3503297567367554,-7.417236804962158,-10.843339920043945
1777561221809478100,16.48347802734375,1.4508862495422363,-7.19936466217041,-10.254365921020508
1777561221819579400,16.493579345703125,1.501164436340332,-6.847416877746582,-10.053253173828125
1777561221829619700,16.50361962890625,1.7190368175506592,-6.117185115814209,-10.316615104675293
1777561221839721000,16.513720947265625,1.6831238269805908,-5.207388877868652,-10.8720703125
1777561221849761300,16.52376123046875,1.2832920551300049,-4.256890773773193,-11.626243591308594
1777561221859832000,16.53383203125,0.8547300100326538,-3.5960910320281982,-12.461819648742676
1777561221869933300,16.543933349609375,0.3902548849582672,-3.2345664501190186,-12.938265800476074
1777561221900146000,16.57414599609375,-3.1220390796661377,-2.647987127304077,-12.837709426879883
1777561221910216700,16.584216796875,-3.643975019454956,-2.7317841053009033,-12.155362129211426
1777561221920287500,16.59428759765625,-3.6152446269989014,-3.337517261505127,-11.173739433288574
1777561221930358300,16.604358154296875,-2.940079689025879,-4.125209331512451,-9.895236015319824
1777561221950469400,16.624469482421876,-0.8690952062606812,-6.63433313369751,-8.556877136230469
1777561221960540200,16.6345400390625,0.10773907601833344,-7.60637903213501,-8.628703117370605
1777561221970611000,16.64461083984375,0.849941611289978,-7.934384346008301,-8.552088737487793
1777561221980681700,16.654681640625,1.3527239561080933,-7.738059997558594,-8.1139497756958
1777561221990783000,16.664782958984375,1.6639702320098877,-7.249642848968506,-7.362170219421387
1777561222000823300,16.6748232421875,1.8076223134994507,-6.507440090179443,-6.7061591148376465
1777561222010894000,16.68489404296875,1.8100165128707886,-5.513846397399902,-6.100425720214844
1777561222020995300,16.694995361328125,1.7717092037200928,-4.8602294921875,-5.604825973510742
1777561222031066000,16.705066162109375,2.0661959648132324,-4.307168960571289,-5.092466831207275
1777561222041137200,16.71513720703125,2.2625205516815186,-3.9600095748901367,-4.527435302734375
1777561222051208000,16.7252080078125,2.33913516998291,-3.689464807510376,-3.8355112075805664
1777561222061309200,16.73530908203125,2.322375535964966,-3.670311212539673,-3.224989652633667
1777561222071349500,16.745349609375,2.3918075561523438,-3.847482204437256,-2.8107926845550537
1777561222081420300,16.755420166015625,2.4588451385498047,-4.043806552886963,-2.6647465229034424
1777561222101561900,16.775561767578125,2.5258827209472656,-4.553771495819092,-3.2178070545196533
1777561222111602200,16.785602294921876,2.9448680877685547,-4.953603267669678,-3.7900211811065674
1777561222121703400,16.795703369140625,3.00711727142334,-5.066130638122559,-4.19224739074707
1777561222131713300,16.80571337890625,2.940079689025879,-4.898536682128906,-4.28322696685791
1777561222141814500,16.815814453125,2.964021682739258,-4.613626480102539,-4.048594951629639
1777561222151915800,16.825915771484375,2.5689783096313477,-4.015076160430908,-3.7612907886505127
1777561222161986600,16.835986572265625,1.9800047874450684,-2.964021682739258,-3.485957622528076
1777561222172057300,16.846057373046875,1.6927006244659424,-2.250549554824829,-3.3423056602478027
1777561222182128000,16.856128173828125,1.601720929145813,-1.4724340438842773,-3.428496837615967
1777561222202300400,16.876300537109376,1.6950948238372803,-0.4572925269603729,-4.259284973144531
1777561222212371200,16.88637109375,1.2449848651885986,-0.2561795711517334,-4.994304656982422
1777561222222442000,16.89644189453125,0.751779317855835,0.1364694982767105,-5.793968200683594
1777561222232512800,16.9065126953125,0.19393034279346466,0.14604631066322327,-6.687005519866943
1777561222242614000,16.916614013671875,-0.2849099934101105,0.038307227194309235,-7.568071365356445
1777561222252684800,16.926684814453125,-0.6607996821403503,-0.38067805767059326,-8.820239067077637
1777561222262725000,16.93672509765625,-0.6727706789970398,-1.0989385843276978,-10.33098030090332
1777561222272796000,16.9467958984375,-1.0462661981582642,-2.1092917919158936,-12.210428237915039
1777561222323150000,16.997150146484376,-1.723825216293335,-6.797138690948486,-19.412187576293945
1777561222333220900,17.007220947265626,-1.5394717454910278,-7.556100368499756,-19.337966918945312
1777561222343291600,17.017291748046876,-1.3000515699386597,-8.068459510803223,-19.129671096801758
1777561222353393000,17.027392822265625,-1.1875240802764893,-8.281543731689453,-19.09375762939453
1777561222363494100,17.037494140625,-0.45250412821769714,-7.948749542236328,-19.170373916625977
1777561222373565000,17.04756494140625,0.9552865028381348,-7.862558364868164,-19.61808967590332
1777561222383635700,17.0576357421875,2.868253707885742,-8.53293514251709,-20.35550308227539
1777561222413848300,17.087848388671876,5.051765441894531,-12.746729850769043,-16.972496032714844
1777561222423919000,17.097919189453126,3.7229835987091064,-13.311761856079102,-13.967772483825684
1777561222434020400,17.108020263671875,1.4269442558288574,-13.342885971069336,-10.898406028747559
1777561222444091100,17.118091064453125,-1.0031704902648926,-12.440272331237793,-8.38449478149414
1777561222454162000,17.128161865234375,-1.6543933153152466,-10.041281700134277,-6.694188117980957
1777561222464202200,17.1382021484375,-1.7573440074920654,-7.220912456512451,-6.521805286407471
1777561222474242600,17.14824267578125,-1.946485996246338,-4.721365928649902,-6.627150535583496
1777561222484343800,17.15834375,-1.4748282432556152,-3.1938650608062744,-6.919242858886719
1777561222514586600,17.188586669921875,-0.4405331015586853,-1.821987509727478,-6.404489517211914
1777561222534728400,17.208728515625,1.9033904075622559,-2.363077163696289,-7.668628215789795
1777561222544768500,17.2187685546875,2.5115175247192383,-3.0885202884674072,-8.35336971282959
1777561222554808800,17.228808837890625,2.5713725090026855,-4.153939723968506,-8.908824920654297
1777561222564879600,17.238879638671875,3.1699230670928955,-5.602431774139404,-9.50498104095459
1777561222574920000,17.248919921875,3.995922565460205,-7.881711959838867,-9.955090522766113
1777561222584990700,17.25899072265625,5.137956619262695,-10.644620895385742,-10.20648193359375
1777561222615172600,17.289172607421875,4.165910720825195,-18.734628677368164,-9.006986618041992
1777561222635314200,17.309314208984375,1.3455413579940796,-18.641254425048828,-10.077195167541504
1777561222645385000,17.319385009765625,0.4836287498474121,-16.548721313476562,-11.659762382507324
1777561222655456000,17.3294560546875,0.019153613597154617,-14.346056938171387,-13.005303382873535
1777561222665526800,17.33952685546875,0.014365210197865963,-11.772290229797363,-14.075511932373047
1777561222675536400,17.349536376953125,0.21787235140800476,-9.057265281677246,-14.61660099029541
1777561222685638000,17.359637939453126,0.9289502501487732,-7.0126166343688965,-14.870387077331543
1777561222695708700,17.369708740234376,1.3407529592514038,-5.791574001312256,-14.745888710021973
1777561222725951500,17.399951416015625,3.531447410583496,-5.17626428604126,-12.69405746459961
1777561222736022300,17.410022216796875,3.84269380569458,-5.65031623840332,-12.20803451538086
1777561222746123500,17.42012353515625,3.974374771118164,-6.167463779449463,-12.009315490722656
1777561222756194300,17.4301943359375,3.6966474056243896,-6.5050458908081055,-11.870451927185059
1777561222766265000,17.44026513671875,3.095702886581421,-6.490680694580078,-11.678915977478027
1777561222776336100,17.450336181640626,2.3535003662109375,-6.4164605140686035,-11.35809326171875
1777561222786407000,17.460406982421876,1.3742717504501343,-6.234501361846924,-11.006145477294922
1777561222796447000,17.470447021484375,0.7948749661445618,-6.208165168762207,-10.967838287353516
1777561222816588800,17.4905888671875,-0.8882488012313843,-7.481880187988281,-11.33654499053955
1777561222826659600,17.50065966796875,-1.50355863571167,-7.534552574157715,-11.69806957244873
1777561222836699600,17.51069970703125,-1.5873557329177856,-7.1490864753723145,-12.030863761901855
1777561222846740000,17.520739990234375,-1.6639702320098877,-6.926425457000732,-12.401965141296387
1777561222856780300,17.5307802734375,-1.45806884765625,-6.5912370681762695,-12.880805015563965
1777561222866851000,17.54085107421875,-1.1994950771331787,-6.212953567504883,-13.388376235961914
1777561222876921900,17.550921875,-1.0055646896362305,-5.904101371765137,-13.75468921661377
1777561222887023400,17.5610234375,-0.8667010068893433,-5.700594425201416,-13.874399185180664
1777561222897094100,17.57109423828125,-0.7445967197418213,-5.374982833862305,-13.843274116516113
1777561222927276000,17.601276123046876,-0.181959331035614,-3.641580820083618,-14.101847648620605
1777561222937316400,17.61131640625,-0.12210428714752197,-3.4189200401306152,-14.099453926086426
1777561222947356400,17.6213564453125,-0.14365209639072418,-3.0334534645080566,-14.176068305969238
1777561222957396700,17.631396728515625,-0.2992752194404602,-2.6671407222747803,-13.97016716003418
1777561222967467500,17.641467529296875,-0.6344634294509888,-2.655169725418091,-13.48653793334961
1777561222977507800,17.6515078125,-0.8427590131759644,-2.9520506858825684,-12.662932395935059
1777561222987609000,17.661609130859375,-0.5841852426528931,-3.5410242080688477,-11.832144737243652
1777561222997679900,17.671679931640625,-0.5482721924781799,-4.32871675491333,-11.176133155822754
1777561223007751000,17.6817509765625,-0.5482721924781799,-4.32871675491333,-11.176133155822754
1777561223027861800,17.70186181640625,-0.7972691655158997,-5.324704647064209,-10.067618370056152
1777561223048003600,17.722003662109376,-0.950498104095459,-4.3861775398254395,-8.576030731201172
1777561223058043600,17.732043701171875,-0.6153098344802856,-3.8307228088378906,-7.924807548522949
1777561223068114700,17.74211474609375,-0.13168109953403473,-3.4787750244140625,-7.38132381439209
1777561223078185500,17.752185546875,0.45010992884635925,-3.026270866394043,-6.938396453857422
