time,seconds_elapsed,z,y,x
1777561205210551800,-0.1154482421875,9.616748809814453,1.8718897104263306,-0.4296134412288666
1777561205220522500,-0.1054775390625,9.605340003967285,1.922021746635437,-0.46224167943000793
1777561205240233700,-0.085766357421875,9.59005355834961,1.972244143486023,-0.5581388473510742
1777561205270446000,-0.055553955078125,9.607239723205566,1.894085168838501,-0.532702624797821
1777561205280486400,-0.045513671875,9.607029914855957,1.893809199333191,-0.5374513864517212
1777561205300628000,-0.0253720703125,9.606491088867188,1.8943127393722534,-0.5452483892440796
1777561205310668300,-0.015331787109375,9.606681823730469,1.8919174671173096,-0.5501821637153625
1777561205330749000,0.0047490234375,9.608248710632324,1.880908727645874,-0.5604724287986755
1777561205350921000,0.0249208984375,9.609996795654297,1.866225004196167,-0.5792796611785889
1777561205371062500,0.0450625,9.611104965209961,1.8544645309448242,-0.5983384847640991
1777561205391204000,0.0652041015625,9.612765312194824,1.8394367694854736,-0.6177347302436829
1777561205411315200,0.085315185546875,9.613319396972656,1.8232405185699463,-0.6559475660324097
1777561205421386000,0.095385986328125,9.611886024475098,1.819044828414917,-0.6878355741500854
1777561205461608200,0.135608154296875,9.616189956665039,1.773378610610962,-0.7445858120918274
1777561205471679000,0.145678955078125,9.620585441589355,1.7452692985534668,-0.7541584968566895
1777561205481688800,0.155688720703125,9.625566482543945,1.713771104812622,-0.762785017490387
1777561205491790000,0.1657900390625,9.630373001098633,1.6786688566207886,-0.7799838185310364
1777561205501830400,0.175830322265625,9.630683898925781,1.6660385131835938,-0.8028829097747803
1777561205511870700,0.18587060546875,9.628114700317383,1.6629589796066284,-0.8392632603645325
1777561205521941500,0.19594140625,9.626044273376465,1.664587140083313,-0.8595470786094666
1777561205552153900,0.22615380859375,9.602570533752441,1.7349003553390503,-0.9752613306045532
1777561205602477300,0.276477294921875,9.610807418823242,1.593833088874817,-1.1235915422439575
1777561205622649600,0.296649658203125,9.615345001220703,1.5347061157226562,-1.1662819385528564
1777561205683074300,0.35707421875,9.629449844360352,1.294607400894165,-1.3296890258789062
1777561205743468500,0.417468505859375,9.640231132507324,0.9454359412193298,-1.5305160284042358
1777561205763610000,0.437610107421875,9.636228561401367,0.8030664324760437,-1.6335783004760742
1777561205773681000,0.447680908203125,9.632072448730469,0.7268247604370117,-1.692716360092163
1777561205793761500,0.467761474609375,9.619025230407715,0.5416920185089111,-1.8306571245193481
1777561205813933600,0.48793359375,9.59217357635498,0.15540069341659546,-2.033823013305664
1777561205834044700,0.508044677734375,9.560673713684082,-0.1642312854528427,-2.17645001411438
1777561205884398800,0.55839892578125,9.15886402130127,-2.126828908920288,-2.7860708236694336
1777561205894500000,0.5685,9.083003044128418,-2.3492448329925537,-2.854905605316162
1777561205914611200,0.588611083984375,8.702000617980957,-3.2263565063476562,-3.1679959297180176
1777561205934722300,0.608722412109375,8.199410438537598,-4.008872032165527,-3.5873405933380127
1777561205995086000,0.669086181640625,6.463339328765869,-4.840090274810791,-5.5649943351745605
1777561206015227600,0.6892275390625,6.093536853790283,-4.732317924499512,-6.053459167480469
1777561206025298400,0.69929833984375,5.753561496734619,-4.5084733963012695,-6.537627696990967
1777561206035338800,0.7093388671875,5.646737575531006,-4.408627033233643,-6.6969218254089355
1777561206045409500,0.719409423828125,5.4467315673828125,-4.147034168243408,-7.021795749664307
1777561206055449900,0.729449951171875,5.246840476989746,-3.8305649757385254,-7.346280574798584
1777561206075591400,0.74959130859375,4.6702046394348145,-2.9585633277893066,-8.099783897399902
1777561206085692700,0.759692626953125,4.539883136749268,-2.783514976501465,-8.234798431396484
1777561206105773300,0.779773193359375,3.9336698055267334,-1.9817640781402588,-8.761805534362793
1777561206156096800,0.8300966796875,3.1195337772369385,-0.4957466125488281,-9.284025192260742
1777561206176177400,0.850177490234375,2.9247190952301025,-0.18834121525287628,-9.358468055725098
1777561206196319000,0.870319091796875,2.694997787475586,0.04082227870821953,-9.428982734680176
1777561206236724200,0.91072412109375,2.44214129447937,0.10303185135126114,-9.49714183807373
1777561206266906000,0.940906005859375,2.452561616897583,-0.06435462087392807,-9.494797706604004
1777561206307158800,0.98115869140625,2.5705666542053223,-0.4833788573741913,-9.451398849487305
1777561206367583500,1.04158349609375,2.771052360534668,-1.72750985622406,-9.247018814086914
1777561206438079200,1.112079345703125,3.037135362625122,-3.2110705375671387,-8.754154205322266
1777561206498504000,1.17250390625,3.4562878608703613,-4.505244731903076,-7.995449542999268
1777561206579039700,1.253039794921875,3.7523787021636963,-5.552790641784668,-7.159367561340332
1777561206619231500,1.2932314453125,3.8133385181427,-5.993495941162109,-6.760682582855225
1777561206649443800,1.32344384765625,3.8485875129699707,-6.337569236755371,-6.4182538986206055
1777561206689696500,1.363696533203125,3.865490198135376,-6.625098705291748,-6.110354423522949
1777561206729949200,1.40394921875,3.850370168685913,-6.8640289306640625,-5.850653171539307
1777561206780273000,1.45427294921875,3.7753398418426514,-6.927319049835205,-5.824898719787598
1777561206810454500,1.48445458984375,3.73629093170166,-6.886867046356201,-5.897592067718506
1777561206820556000,1.49455615234375,3.686819314956665,-6.8608527183532715,-5.958727836608887
1777561206830626800,1.504626708984375,3.6083478927612305,-6.820372581481934,-6.052498817443848
1777561206840758500,1.514758544921875,3.4950716495513916,-6.71941614151001,-6.229310035705566
1777561206850829300,1.524829345703125,3.3945226669311523,-6.6313090324401855,-6.377565860748291
1777561206871001600,1.545001708984375,3.255190134048462,-6.392942905426025,-6.686134338378906
1777561206881102800,1.555102783203125,3.1996548175811768,-6.1626296043396,-6.924925804138184
1777561206901275000,1.57527490234375,3.1375889778137207,-5.883187770843506,-7.191246032714844
1777561206921355500,1.59535546875,3.0478737354278564,-5.475888729095459,-7.542909622192383
1777561206951598300,1.625598388671875,2.86929988861084,-4.79512882232666,-8.05880069732666
1777561206971740200,1.645740234375,2.7240052223205566,-4.30069637298584,-8.3817777633667
1777561207052276000,1.72627587890625,2.2316882610321045,-1.927638053894043,-9.352762222290039
1777561207082457900,1.756457763671875,2.1506447792053223,-1.4025839567184448,-9.464558601379395
1777561207142852000,1.81685205078125,1.8638380765914917,-0.5790978074073792,-9.61047077178955
1777561207163024100,1.837024169921875,1.7672044038772583,-0.46783584356307983,-9.634757041931152
1777561207183135200,1.85713525390625,1.6839029788970947,-0.3981779217720032,-9.652789115905762
1777561207203276800,1.87727685546875,1.606210708618164,-0.3182840049266815,-9.668978691101074
1777561207223449000,1.897448974609375,1.5633213520050049,-0.27003538608551025,-9.677471160888672
1777561207263762700,1.9377626953125,1.5055296421051025,-0.2925238311290741,-9.685978889465332
1777561207293883600,1.967883544921875,1.4856196641921997,-0.5267470479011536,-9.679146766662598
1777561207334136300,2.00813623046875,1.3215665817260742,-0.6674410104751587,-9.694244384765625
1777561207404601300,2.078601318359375,1.4425772428512573,-1.0399342775344849,-9.644061088562012
1777561207474944500,2.148944580078125,2.477825164794922,-2.4253809452056885,-9.173238754272461
1777561207565490200,2.239490234375,2.3963286876678467,-5.624309539794922,-7.667797088623047
1777561207645934300,2.319934326171875,2.187739849090576,-7.528139591217041,-5.89163064956665
1777561207676085800,2.350085693359375,2.3533501625061035,-8.080060958862305,-5.034358978271484
1777561207686156500,2.360156494140625,2.412444591522217,-8.235184669494629,-4.746814727783203
1777561207696196900,2.37019677734375,2.4675872325897217,-8.375630378723145,-4.464329719543457
1777561207716277500,2.390277587890625,2.5489187240600586,-8.622321128845215,-3.9152228832244873
1777561207726348300,2.400348388671875,2.5735599994659424,-8.730816841125488,-3.649657726287842
1777561207736419000,2.410419189453125,2.592292070388794,-8.828060150146484,-3.393493413925171
1777561207746459400,2.42045947265625,2.607192039489746,-8.913894653320312,-3.1488754749298096
1777561207776641300,2.450641357421875,2.677717685699463,-9.12150764465332,-2.407972574234009
1777561207826964700,2.50096484375,2.9095559120178223,-9.194260597229004,-1.7805793285369873
1777561207847106300,2.521106201171875,2.9709768295288086,-9.178159713745117,-1.762122631072998
1777561207887420000,2.561419921875,2.925968647003174,-9.069676399230957,-2.313020706176758
1777561207897490700,2.57149072265625,2.896526336669922,-9.023283958435059,-2.5220773220062256
1777561207907592200,2.58159228515625,2.862948417663574,-8.965432167053223,-2.7558939456939697
1777561207917632500,2.591632568359375,2.827561616897583,-8.895845413208008,-3.00652813911438
1777561207927703300,2.601703369140625,2.7958431243896484,-8.810669898986816,-3.2750165462493896
1777561207937774000,2.611774169921875,2.7838597297668457,-8.700093269348145,-3.567758560180664
1777561207947814400,2.621814453125,2.795823812484741,-8.566025733947754,-3.870006799697876
1777561207957885200,2.63188525390625,2.851166248321533,-8.388275146484375,-4.204530715942383
1777561207978026800,2.65202685546875,2.9454193115234375,-8.01091480255127,-4.829093933105469
1777561208008239000,2.682239013671875,3.0793793201446533,-7.328607082366943,-5.742763996124268
1777561208018279400,2.692279541015625,3.0796518325805664,-7.07703971862793,-6.049930095672607
1777561208038329300,2.712329345703125,3.0217952728271484,-6.557431221008301,-6.636205673217773
1777561208048430800,2.722430908203125,2.9780964851379395,-6.289521217346191,-6.909649848937988
1777561208068572400,2.742572509765625,2.855604648590088,-5.7383623123168945,-7.422069549560547
1777561208078582000,2.75258203125,2.773017406463623,-5.469779968261719,-7.652599334716797
1777561208088652800,2.76265283203125,2.6893343925476074,-5.191786766052246,-7.872941970825195
1777561208108764000,2.782763916015625,2.5461480617523193,-4.624831676483154,-8.264286994934082
1777561208149047300,2.82304736328125,2.3542304039001465,-3.3259544372558594,-8.919979095458984
1777561208189269200,2.863269287109375,2.201573610305786,-2.360433578491211,-9.26022720336914
1777561208199340000,2.873340087890625,2.1897995471954346,-2.2633132934570312,-9.28722858428955
1777561208209441500,2.883441650390625,2.1275439262390137,-2.0372157096862793,-9.35380744934082
1777561208229583000,2.9035830078125,1.9049171209335327,-1.6426302194595337,-9.4785795211792
1777561208269835800,2.943835693359375,1.1446183919906616,-1.0269312858581543,-9.685330390930176
1777561208279876000,2.9538759765625,1.0619605779647827,-0.9704852104187012,-9.700554847717285
1777561208289977300,2.963977294921875,0.8942205905914307,-0.8585177063941956,-9.727985382080078
1777561208300048100,2.974048095703125,0.6258081197738647,-0.6875663995742798,-9.762479782104492
1777561208320128800,2.994128662109375,0.36721858382225037,-0.49471157789230347,-9.78727912902832
1777561208350371600,3.02437158203125,0.14846009016036987,0.02319704368710518,-9.805500030517578
1777561208380553500,3.054553466796875,0.24778643250465393,0.3301490843296051,-9.797959327697754
1777561208390655000,3.064655029296875,0.2952411472797394,0.4140884578227997,-9.793455123901367
1777561208420836900,3.0948369140625,0.5208730101585388,0.46268999576568604,-9.781871795654297
1777561208471160300,3.145160400390625,1.2210019826889038,-0.46727409958839417,-9.719115257263184
1777561208531524000,3.205524169921875,1.6683183908462524,-2.6202611923217773,-9.301684379577637
1777561208591918300,3.26591845703125,1.6939005851745605,-5.077215671539307,-8.217236518859863
1777561208652343000,3.326343017578125,2.1238584518432617,-6.751040935516357,-6.788451671600342
1777561208672515300,3.346515380859375,2.3653643131256104,-7.068295001983643,-6.37296199798584
1777561208712768000,3.38676806640625,2.830803394317627,-7.682358264923096,-5.397992134094238
1777561208763091500,3.437091552734375,3.0700457096099854,-8.181741714477539,-4.450203895568848
1777561208793181700,3.467181640625,3.2618556022644043,-8.424447059631348,-3.8156752586364746
1777561208843505200,3.517505126953125,3.8099119663238525,-8.316417694091797,-3.5344252586364746
1777561208913939700,3.587939697265625,4.052364826202393,-7.7911529541015625,-4.364249229431152
1777561208934112000,3.608112060546875,3.985889434814453,-7.595918655395508,-4.752376556396484
1777561208944152000,3.618152099609375,3.920050621032715,-7.422142028808594,-5.071036338806152
1777561208954192400,3.6281923828125,3.8669700622558594,-7.293432712554932,-5.293652534484863
1777561208964263200,3.63826318359375,3.8038463592529297,-7.155765533447266,-5.522333145141602
1777561208974303500,3.648303466796875,3.769336700439453,-7.083219051361084,-5.638308048248291
1777561208984374300,3.658374267578125,3.6954147815704346,-6.931917190551758,-5.870504379272461
1777561209034697700,3.70869775390625,3.2490644454956055,-5.931214809417725,-7.1017374992370605
1777561209044768500,3.7187685546875,3.201873540878296,-5.831868648529053,-7.2047014236450195
1777561209064910300,3.738910400390625,2.9509384632110596,-5.327114105224609,-7.686625957489014
1777561209074950400,3.748950439453125,2.8993923664093018,-5.223804473876953,-7.776618003845215
1777561209085021200,3.759021240234375,2.750638961791992,-4.910212516784668,-8.030828475952148
1777561209095122700,3.769122802734375,2.700970411300659,-4.803954601287842,-8.11154556274414
1777561209105193500,3.779193359375,2.5670127868652344,-4.480123519897461,-8.337226867675781
1777561209135436300,3.809436279296875,2.3518757820129395,-3.9509835243225098,-8.661917686462402
1777561209145476600,3.8194765625,2.262382745742798,-3.7499661445617676,-8.774382591247559
1777561209155547400,3.82954736328125,2.1843459606170654,-3.5329225063323975,-8.883550643920898
1777561209165618200,3.8396181640625,2.1165573596954346,-3.310680866241455,-8.9849853515625
1777561209175689000,3.84968896484375,2.057875633239746,-3.0844802856445312,-9.078630447387695
1777561209185729300,3.859729248046875,2.000253200531006,-2.8618340492248535,-9.164022445678711
1777561209226012400,3.900012451171875,1.7575523853302002,-1.9965322017669678,-9.439027786254883
1777561209236083200,3.910083251953125,1.6853350400924683,-1.7703272104263306,-9.497157096862793
1777561209256225000,3.93022509765625,1.4503320455551147,-1.1893857717514038,-9.62560749053955
1777561209266265000,3.94026513671875,1.3423644304275513,-0.9587029814720154,-9.66692066192627
1777561209276305400,3.950305419921875,1.236588478088379,-0.7294695973396301,-9.7009859085083
1777561209286376200,3.960376220703125,1.1848498582839966,-0.6160743832588196,-9.71529769897461
1777561209296477700,3.970477783203125,1.0855568647384644,-0.3922267556190491,-9.738486289978027
1777561209316619300,3.990619384765625,0.8004059791564941,0.15098200738430023,-9.772767066955566
1777561209346770700,4.020770751953125,0.6185311079025269,0.6398506760597229,-9.766185760498047
1777561209356841500,4.030841552734375,0.5976873636245728,0.8022037148475647,-9.755491256713867
1777561209366912300,4.040912353515625,0.576352059841156,0.9337155818939209,-9.745070457458496
1777561209376983000,4.050983154296875,0.5462181568145752,1.023787498474121,-9.73775577545166
1777561209387023400,4.0610234375,0.512032687664032,1.065388798713684,-9.735151290893555
1777561209397063400,4.0710634765625,0.47592300176620483,1.0310842990875244,-9.74067497253418
1777561209417144000,4.09114404296875,0.4596589505672455,0.8982038497924805,-9.754606246948242
1777561209437255200,4.111255126953125,0.4989902675151825,0.7017831206321716,-9.76877212524414
1777561209447295500,4.12129541015625,0.5503411293029785,0.5150172710418701,-9.777642250061035
1777561209457335800,4.131335693359375,0.6122355461120605,0.27852877974510193,-9.78355598449707
1777561209467376000,4.141376220703125,0.6930229067802429,-0.13215339183807373,-9.781241416931152
1777561209477416400,4.15141650390625,0.7395087480545044,-0.46102380752563477,-9.767853736877441
1777561209487456500,4.16145654296875,0.7676870822906494,-0.8144786357879639,-9.742571830749512
1777561209497496800,4.171496826171875,0.7818343043327332,-1.1785156726837158,-9.70413589477539
1777561209507537200,4.181537109375,0.7898007035255432,-1.378501057624817,-9.677104949951172
1777561209517608000,4.19160791015625,0.7924401164054871,-1.7513164281845093,-9.616408348083496
1777561209557860600,4.231860595703125,0.912032425403595,-3.348489761352539,-9.17203426361084
1777561209567931400,4.241931396484375,0.9900187849998474,-3.7050037384033203,-9.025696754455566
1777561209577971700,4.2519716796875,1.1393460035324097,-4.224428176879883,-8.776473999023438
1777561209588042500,4.26204248046875,1.1945003271102905,-4.394693851470947,-8.68505859375
1777561209598113300,4.27211328125,1.308740496635437,-4.726933479309082,-8.491979598999023
1777561209608153600,4.282153564453125,1.4268009662628174,-5.052227973937988,-8.283093452453613
1777561209628295200,4.302295166015625,1.6648545265197754,-5.664224624633789,-7.830403804779053
1777561209648436700,4.322436767578125,1.894985556602478,-6.219950199127197,-7.341094493865967
1777561209658507500,4.332507568359375,2.006608247756958,-6.473952770233154,-7.087443828582764
1777561209668578600,4.34257861328125,2.1182215213775635,-6.716796875,-6.824087619781494
1777561209678649300,4.3526494140625,2.2254865169525146,-6.94960355758667,-6.551382064819336
1777561209688689400,4.362689453125,2.325267791748047,-7.17352294921875,-6.269297122955322
1777561209698760200,4.37276025390625,2.412381410598755,-7.387411117553711,-5.981385231018066
1777561209708800500,4.382800537109375,2.4852066040039062,-7.590923309326172,-5.689642429351807
1777561209728942000,4.402942138671875,2.5979321002960205,-7.9579877853393555,-5.107993125915527
1777561209749053200,4.42305322265625,2.66862416267395,-8.251949310302734,-4.577571392059326
1777561209759093500,4.433093505859375,2.6948983669281006,-8.373382568359375,-4.335249423980713
1777561209769164300,4.443164306640625,2.713458776473999,-8.476229667663574,-4.118380546569824
1777561209779235000,4.453235107421875,2.7512755393981934,-8.612980842590332,-3.7970335483551025
1777561209789275400,4.463275390625,2.755152702331543,-8.638290405273438,-3.7362377643585205
1777561209799346200,4.47334619140625,2.77474308013916,-8.740837097167969,-3.4740447998046875
1777561209809386500,4.483386474609375,2.769670009613037,-8.76089859008789,-3.427241563796997
1777561209819457300,4.493457275390625,2.7627456188201904,-8.799034118652344,-3.3338615894317627
1777561209829528000,4.503528076171875,2.7521259784698486,-8.834030151367188,-3.2490179538726807
1777561209859771100,4.533771240234375,2.7357449531555176,-8.849296569824219,-3.2211883068084717
1777561209869842000,4.543842041015625,2.7246904373168945,-8.837158203125,-3.2635984420776367
1777561209879943200,4.553943115234375,2.7102346420288086,-8.815145492553711,-3.3344039916992188
1777561209889983500,4.5639833984375,2.692678928375244,-8.782654762268066,-3.432905673980713
1777561209900054300,4.57405419921875,2.6705145835876465,-8.736939430236816,-3.564358949661255
1777561209910094600,4.584094482421875,2.6152164936065674,-8.652292251586914,-3.803797960281372
1777561209920195800,4.59419580078125,2.6108851432800293,-8.592432022094727,-3.9400253295898438
1777561209950347300,4.62434716796875,2.4930548667907715,-8.292478561401367,-4.60324764251709
1777561209960448500,4.634448486328125,2.496713876724243,-8.147059440612793,-4.854097366333008
1777561209970519300,4.644519287109375,2.4926352500915527,-8.011709213256836,-5.076384544372559
1777561209980590000,4.654590087890625,2.4968502521514893,-7.796474456787109,-5.399176120758057
1777561209990660900,4.664660888671875,2.5032711029052734,-7.637267112731934,-5.619268894195557
1777561210000731600,4.674731689453125,2.506181478500366,-7.552860736846924,-5.730946063995361
1777561210010772000,4.68477197265625,2.508012294769287,-7.377971649169922,-5.953638553619385
1777561210020873500,4.69487353515625,2.505322217941284,-7.1911115646362305,-6.179133415222168
1777561210040984300,4.714984375,2.4779601097106934,-6.6791253089904785,-6.739394187927246
1777561210061126100,4.735126220703125,2.4527108669281006,-6.345245838165283,-7.063459873199463
1777561210071166200,4.745166259765625,2.4299306869506836,-6.115701198577881,-7.270766258239746
1777561210081237200,4.7552373046875,2.3832805156707764,-5.7629570960998535,-7.5682692527771
1777561210091277300,4.76527734375,2.3674674034118652,-5.643153190612793,-7.662916660308838
1777561210101317600,4.775317626953125,2.302870750427246,-5.28613805770874,-7.932460784912109
1777561210111388400,4.785388427734375,2.2556846141815186,-5.046317100524902,-8.100428581237793
1777561210121459200,4.795459228515625,2.205463171005249,-4.806677341461182,-8.25846004486084
1777561210151610600,4.825610595703125,2.049858331680298,-4.09730863571167,-8.670672416687012
1777561210171752200,4.845752197265625,1.9531863927841187,-3.633540153503418,-8.89678955078125
1777561210191893800,4.865893798828125,1.889936089515686,-3.3025763034820557,-9.038336753845215
1777561210201995300,4.875995361328125,1.8510897159576416,-3.091020107269287,-9.120824813842773
1777561210212035600,4.88603564453125,1.794302225112915,-2.780195951461792,-9.231541633605957
1777561210222106400,4.8961064453125,1.7600717544555664,-2.5966250896453857,-9.291399002075195
1777561210232146400,4.906146484375,1.731653094291687,-2.4395639896392822,-9.339180946350098
1777561210252288300,4.926288330078125,1.6538935899734497,-2.1018831729888916,-9.434886932373047
1777561210282500600,4.95650048828125,1.5058952569961548,-1.6369596719741821,-9.55107593536377
1777561210292571400,4.9665712890625,1.3988631963729858,-1.3570035696029663,-9.611042022705078
1777561210302642200,4.97664208984375,1.332852840423584,-1.1755746603012085,-9.644268989562988
1777561210312682500,4.9866826171875,1.274702548980713,-0.9985910654067993,-9.672040939331055
1777561210322753300,4.996753173828125,1.2224119901657104,-0.8254156708717346,-9.69509220123291
1777561210332824000,5.006823974609375,1.1723977327346802,-0.6577174663543701,-9.714076042175293
1777561210363036400,5.037036376953125,1.0726239681243896,-0.2702399492263794,-9.744068145751953
1777561210383178000,5.057177978515625,1.0921567678451538,-0.012633856385946274,-9.745636940002441
1777561210393187800,5.067187744140625,1.1292866468429565,0.08154723793268204,-9.741071701049805
1777561210403289000,5.0772890625,1.1656485795974731,0.14673224091529846,-9.736021995544434
1777561210413329400,5.087329345703125,1.2083663940429688,0.18047961592674255,-9.730246543884277
1777561210423400200,5.097400146484375,1.2337850332260132,0.16211043298244476,-9.72737979888916
1777561210433410000,5.10741015625,1.2598495483398438,0.1127370297908783,-9.72473430633545
1777561210483703000,5.157703125,1.450060248374939,-0.6530053615570068,-9.676844596862793
1777561210493743000,5.1677431640625,1.4924381971359253,-0.8624606132507324,-9.653973579406738
1777561210503814100,5.177814208984375,1.5524448156356812,-1.4136340618133545,-9.579245567321777
1777561210513823700,5.18782373046875,1.5689005851745605,-1.617326259613037,-9.544276237487793
1777561210523894500,5.19789453125,1.5595123767852783,-1.900685429573059,-9.493456840515137
1777561210533965300,5.20796533203125,1.5353119373321533,-2.1790225505828857,-9.43742847442627
1777561210544036000,5.2180361328125,1.5021567344665527,-2.4660964012145996,-9.371888160705566
1777561210584258300,5.25825830078125,1.326003074645996,-3.8099231719970703,-8.93848991394043
1777561210594298600,5.268298583984375,1.3107757568359375,-3.9655709266662598,-8.872794151306152
1777561210604399900,5.27839990234375,1.2761989831924438,-4.399688243865967,-8.670894622802734
1777561210614470700,5.288470703125,1.2684412002563477,-4.547472953796387,-8.59546184539795
1777561210624511000,5.298510986328125,1.2604057788848877,-4.835958957672119,-8.437728881835938
1777561210634551300,5.30855126953125,1.2612842321395874,-5.120926856994629,-8.26774787902832
1777561210644622000,5.3186220703125,1.2736129760742188,-5.403308868408203,-8.08409309387207
1777561210654692900,5.32869287109375,1.298727035522461,-5.679747104644775,-7.888229846954346
1777561210694945500,5.368945556640625,1.5075112581253052,-6.718142986297607,-6.983148574829102
1777561210705047000,5.379047119140625,1.5823200941085815,-6.9552788734436035,-6.7298407554626465
1777561210715117800,5.389117919921875,1.7076035737991333,-7.2904253005981445,-6.332788467407227
1777561210725188600,5.399188720703125,1.7441811561584473,-7.391594409942627,-6.204235076904297
1777561210735229000,5.40922900390625,1.812386155128479,-7.576489448547363,-5.956714630126953
1777561210745269000,5.41926904296875,1.8733832836151123,-7.740715026855469,-5.722077369689941
1777561210775451000,5.449450927734375,2.128175735473633,-8.193868637084961,-4.949929237365723
1777561210785552400,5.459552490234375,2.2181355953216553,-8.330464363098145,-4.674785614013672
1777561210795623200,5.469623046875,2.327592611312866,-8.51662826538086,-4.26846170425415
1777561210805724400,5.479724365234375,2.3738958835601807,-8.626962661743164,-4.013795375823975
1777561210815795200,5.489795166015625,2.402827501296997,-8.7254056930542,-3.776784896850586
1777561210825896400,5.499896484375,2.409332036972046,-8.765998840332031,-3.6773316860198975
1777561210835936800,5.509936767578125,2.4353291988372803,-8.892383575439453,-3.3414156436920166
1777561210846038300,5.520038330078125,2.4371612071990967,-8.927725791931152,-3.2444331645965576
1777561210876281000,5.550281005859375,2.3729000091552734,-9.082594871520996,-2.8365859985351562
1777561210896392200,5.57039208984375,2.2991385459899902,-9.121993064880371,-2.7701261043548584
1777561210906463000,5.580462890625,2.2937633991241455,-9.117350578308105,-2.789796829223633
1777561210916442000,5.590442138671875,2.2770721912384033,-9.103636741638184,-2.84765362739563
1777561210926543600,5.600543701171875,2.274949789047241,-9.092676162719727,-2.8841357231140137
1777561210936614400,5.610614501953125,2.2672436237335205,-9.069551467895508,-2.961966037750244
1777561210946654700,5.62065478515625,2.2656612396240234,-9.024084091186523,-3.098881959915161
1777561210976836600,5.650836669921875,2.3448288440704346,-8.908263206481934,-3.3637771606445312
1777561210986907400,5.660907470703125,2.381868839263916,-8.862711906433105,-3.456793785095215
1777561210996947500,5.670947509765625,2.4180092811584473,-8.814119338989258,-3.5545654296875
1777561211017089300,5.69108935546875,2.4605438709259033,-8.712297439575195,-3.769876003265381
1777561211027160000,5.70116015625,2.462637424468994,-8.658211708068848,-3.8911678791046143
1777561211037230800,5.71123095703125,2.4433014392852783,-8.571122169494629,-4.0910325050354
1777561211047301600,5.721301513671875,2.433712959289551,-8.540346145629883,-4.16051721572876
1777561211067443200,5.741443115234375,2.3786697387695312,-8.40059757232666,-4.465680122375488
1777561211107726300,5.781726318359375,2.1869828701019287,-8.035264015197754,-5.17900276184082
1777561211127868000,5.801867919921875,2.0301451683044434,-7.813809394836426,-5.567160129547119
1777561211137938700,5.811938720703125,1.9378578662872314,-7.692960739135742,-5.76484489440918
1777561211148009500,5.822009521484375,1.8378912210464478,-7.565108776092529,-5.963361740112305
1777561211158049800,5.8320498046875,1.6831127405166626,-7.361854553222656,-6.256249904632568
1777561211178222000,5.85222216796875,1.5115491151809692,-7.063990592956543,-6.632167816162109
1777561211218444000,5.892444091796875,1.4163141250610352,-6.456604480743408,-7.244081497192383
1777561211228545500,5.902545654296875,1.4468191862106323,-6.254440784454346,-7.41343879699707
1777561211238585900,5.9125859375,1.5044848918914795,-6.036876678466797,-7.580437660217285
1777561211248656600,5.92265673828125,1.5799083709716797,-5.796089172363281,-7.751105785369873
1777561211258727400,5.9327275390625,1.6465569734573364,-5.526269435882568,-7.932188987731934
1777561211268798200,5.942798095703125,1.7310394048690796,-5.234823703765869,-8.109903335571289
1777561211288909300,5.962909423828125,1.8283716440200806,-4.575215816497803,-8.479083061218262
1777561211298980000,5.97297998046875,1.820326328277588,-4.2155375480651855,-8.665221214294434
1777561211309111800,5.98311181640625,1.7777280807495117,-3.84029221534729,-8.84659481048584
1777561211319182600,5.9931826171875,1.6924068927764893,-3.27827525138855,-9.086202621459961
1777561211329253400,6.00325341796875,1.6644822359085083,-3.0896949768066406,-9.15716552734375
1777561211339324200,6.01332421875,1.6168034076690674,-2.703929901123047,-9.286825180053711
1777561211349425700,6.02342578125,1.5718806982040405,-2.3141205310821533,-9.39917278289795
1777561211359435300,6.033435302734375,1.5236060619354248,-1.7621841430664062,-9.525951385498047
1777561211369536800,6.043536865234375,1.5139716863632202,-1.5836814641952515,-9.558778762817383
1777561211399718700,6.07371875,1.5866957902908325,-0.7174421548843384,-9.650806427001953
1777561211409820000,6.08381982421875,1.6212632656097412,-0.5231140851974487,-9.657548904418945
1777561211419860200,6.093860107421875,1.6504353284835815,-0.39351972937583923,-9.658758163452148
1777561211429931000,6.103930908203125,1.675467848777771,-0.322642058134079,-9.657073974609375
1777561211440001800,6.114001708984375,1.6838345527648926,-0.34601008892059326,-9.654809951782227
1777561211460143400,6.134143310546875,1.6950576305389404,-0.4836658537387848,-9.646929740905762
1777561211490325200,6.1643251953125,1.7402154207229614,-1.169891119003296,-9.579843521118164
1777561211500365600,6.174365478515625,1.7670848369598389,-1.5953859090805054,-9.51328182220459
1777561211510436400,6.184436279296875,1.762518286705017,-1.9696879386901855,-9.443741798400879
1777561211520507100,6.194507080078125,1.7504746913909912,-2.445380210876465,-9.334149360656738
1777561211530578000,6.204577880859375,1.7268922328948975,-3.0492630004882812,-9.159160614013672
1777561211540618200,6.2146181640625,1.6737103462219238,-3.5047295093536377,-9.004775047302246
1777561211550689000,6.22468896484375,1.6175389289855957,-3.8816633224487305,-8.859269142150879
1777561211560729300,6.234729248046875,1.565081000328064,-4.228320121765137,-8.708744049072266
1777561211590941700,6.264941650390625,1.485546350479126,-5.164870738983154,-8.20290756225586
1777561211631255600,6.305255615234375,1.6057085990905762,-6.28923225402832,-7.351030349731445
1777561211651427600,6.325427490234375,1.6545021533966064,-6.613609790802002,-7.049340724945068
1777561211661498400,6.335498291015625,1.674765706062317,-6.80654239654541,-6.8583197593688965
1777561211671569200,6.345569091796875,1.6932796239852905,-6.997344017028809,-6.658857822418213
1777561211691680300,6.36568017578125,1.729222059249878,-7.374567985534668,-6.228636741638184
1777561211711821800,6.38582177734375,1.7592791318893433,-7.744528770446777,-5.753053188323975
1777561211721923000,6.395923095703125,1.7804592847824097,-7.925387382507324,-5.494416236877441
1777561211732024600,6.406024658203125,1.8085116147994995,-8.100881576538086,-5.222585201263428
1777561211742095400,6.416095458984375,1.8428493738174438,-8.264442443847656,-4.947045803070068
1777561211752135700,6.4261357421875,1.8851251602172852,-8.414227485656738,-4.67091703414917
1777561211762237000,6.43623681640625,1.9309645891189575,-8.549500465393066,-4.398613929748535
1777561211772277200,6.44627734375,1.9983155727386475,-8.725373268127441,-4.005620002746582
1777561211782348000,6.45634814453125,2.01483416557312,-8.775131225585938,-3.8868911266326904
1777561211792418800,6.466418701171875,2.069371223449707,-8.90762710571289,-3.54150652885437
1777561211842711800,6.5167119140625,2.334397554397583,-9.00780200958252,-3.0952391624450684
1777561211893035300,6.56703515625,2.873873233795166,-8.73023509979248,-3.4196813106536865
1777561211903075600,6.57707568359375,2.9734947681427,-8.616915702819824,-3.616281509399414
1777561211973540600,6.64754052734375,3.2709898948669434,-7.289303779602051,-5.686568260192871
1777561211993682200,6.66768212890625,3.275142192840576,-6.768268585205078,-6.295583248138428
1777561212013823700,6.68782373046875,3.2207446098327637,-6.239865303039551,-6.845529079437256
1777561212023833600,6.69783349609375,3.172346591949463,-5.977792263031006,-7.097365856170654
1777561212033904400,6.707904296875,3.107938528060913,-5.7145304679870605,-7.3386149406433105
1777561212044005600,6.718005615234375,3.0116922855377197,-5.449184894561768,-7.57670783996582
1777561212074157000,6.748156982421875,2.759686231613159,-4.595712661743164,-8.211820602416992
1777561212094298600,6.768298583984375,2.6310014724731445,-4.289428234100342,-8.41718578338623
1777561212134643000,6.808642822265625,2.3683888912200928,-3.47117280960083,-8.86070442199707
1777561212154723300,6.828723388671875,2.2774746417999268,-3.089890718460083,-9.024194717407227
1777561212184905200,6.8589052734375,2.154778242111206,-2.537264108657837,-9.224403381347656
1777561212215148300,6.889148193359375,2.0685925483703613,-2.0269200801849365,-9.369253158569336
1777561212225219000,6.899218994140625,2.0534346103668213,-1.8714542388916016,-9.404864311218262
1777561212235320300,6.9093203125,2.04392147064209,-1.724267601966858,-9.43502426147461
1777561212245360600,6.919360595703125,2.0351994037628174,-1.528815507888794,-9.470538139343262
1777561212255431400,6.929431396484375,2.0375659465789795,-1.4762632846832275,-9.478363990783691
1777561212275603500,6.949603515625,2.0390031337738037,-1.2987793684005737,-9.504000663757324
1777561212295775700,6.969775634765625,2.0400748252868652,-1.1927508115768433,-9.517659187316895
1777561212305816000,6.979816162109375,2.0470833778381348,-1.1534907817840576,-9.520994186401367
1777561212315856400,6.9898564453125,2.0506632328033447,-1.1483877897262573,-9.520841598510742
1777561212325927200,6.99992724609375,2.0576388835906982,-1.148303508758545,-9.519344329833984
1777561212336028400,7.0100283203125,2.0665838718414307,-1.1631383895874023,-9.515604972839355
1777561212346099200,7.02009912109375,2.0795114040374756,-1.1922160387039185,-9.509186744689941
1777561212356170000,7.030169921875,2.0970332622528076,-1.237101435661316,-9.499602317810059
1777561212376220200,7.05022021484375,2.1353347301483154,-1.3448652029037476,-9.476394653320312
1777561212386291000,7.060291015625,2.1706655025482178,-1.4713430404663086,-9.449536323547363
1777561212406402000,7.080402099609375,2.2109570503234863,-1.6460398435592651,-9.411303520202637
1777561212416503300,7.09050341796875,2.233637571334839,-1.7964168787002563,-9.378387451171875
1777561212426543600,7.100543701171875,2.2578258514404297,-1.9424043893814087,-9.343429565429688
1777561212436614400,7.110614501953125,2.277418851852417,-2.0975682735443115,-9.305049896240234
1777561212446654700,7.12065478515625,2.2965195178985596,-2.2581050395965576,-9.262686729431152
1777561212456725500,7.1307255859375,2.3212785720825195,-2.4221296310424805,-9.214951515197754
1777561212466796300,7.14079638671875,2.354778528213501,-2.5872902870178223,-9.161404609680176
1777561212496917000,7.1709169921875,2.562523365020752,-3.144810438156128,-8.92827033996582
1777561212527160000,7.20116015625,2.7908871173858643,-3.5058650970458984,-8.72297191619873
1777561212537230800,7.21123095703125,2.8905537128448486,-3.6492629051208496,-8.631220817565918
1777561212547271200,7.221271240234375,3.0414693355560303,-3.8672122955322266,-8.483190536499023
1777561212557372400,7.231372314453125,3.0758583545684814,-3.945030450820923,-8.434822082519531
1777561212567443200,7.241443115234375,3.153052568435669,-4.097384929656982,-8.333072662353516
1777561212577514000,7.251513916015625,3.216740846633911,-4.25459098815918,-8.229302406311035
1777561212627776500,7.301776611328125,3.280134677886963,-5.10173225402832,-7.706064701080322
1777561212637816800,7.31181689453125,3.34377384185791,-5.253572940826416,-7.575588703155518
1777561212647857000,7.32185693359375,3.457486867904663,-5.465518474578857,-7.3718581199646
1777561212657927700,7.331927734375,3.478590726852417,-5.536522388458252,-7.308674335479736
1777561212667998700,7.341998779296875,3.5453155040740967,-5.667403221130371,-7.175073146820068
1777561212688109600,7.362109619140625,3.6779327392578125,-5.90816593170166,-6.909180164337158
1777561212698211000,7.372211181640625,3.7397000789642334,-6.01649284362793,-6.781360626220703
1777561212708312300,7.382312255859375,3.7966957092285156,-6.115546703338623,-6.65999698638916
1777561212718383000,7.392383056640625,3.846641778945923,-6.205580234527588,-6.547100067138672
1777561212728423400,7.40242333984375,3.88502836227417,-6.28690767288208,-6.44606351852417
1777561212738494200,7.412494140625,3.95483660697937,-6.3911051750183105,-6.2994794845581055
1777561212748534500,7.422534423828125,3.949599027633667,-6.423627853393555,-6.2696146965026855
1777561212758605300,7.432605224609375,3.961272954940796,-6.4791178703308105,-6.204814910888672
1777561212768645600,7.442645751953125,3.9622764587402344,-6.54838228225708,-6.131021976470947
1777561212798858000,7.47285791015625,3.8990771770477295,-6.627971649169922,-6.085852146148682
1777561212829070300,7.5030703125,3.8591349124908447,-6.671750545501709,-6.063432693481445
1777561212839110700,7.513110595703125,3.8434667587280273,-6.677460670471191,-6.067099571228027
1777561212849181400,7.523181396484375,3.8289260864257812,-6.680459499359131,-6.072986602783203
1777561212859252200,7.533252197265625,3.814626693725586,-6.678198337554932,-6.0844645500183105
1777561212869292500,7.54329248046875,3.800118923187256,-6.668849468231201,-6.103763103485107
1777561212879363300,7.55336328125,3.7864341735839844,-6.6504716873168945,-6.132254123687744
1777561212889434000,7.56343408203125,3.770413398742676,-6.621001243591309,-6.173875331878662
1777561212909575700,7.58357568359375,3.7044920921325684,-6.496278285980225,-6.343933582305908
1777561212919677200,7.59367724609375,3.619561195373535,-6.351897239685059,-6.536250114440918
1777561212929748000,7.603748046875,3.555835485458374,-6.241790294647217,-6.675814151763916
1777561212939849200,7.61384912109375,3.459831953048706,-6.107395172119141,-6.848335266113281
1777561212949889500,7.6238896484375,3.426258087158203,-6.051748752593994,-6.9142961502075195
1777561212959960300,7.633960205078125,3.364436388015747,-5.938466548919678,-7.041703224182129
1777561212970000600,7.644000732421875,3.321211099624634,-5.79360818862915,-7.181507587432861
1777561212980071400,7.654071533203125,3.28422212600708,-5.624897003173828,-7.331084251403809
1777561212990111700,7.66411181640625,3.2373549938201904,-5.46329927444458,-7.472769737243652
1777561213010283800,7.68428369140625,3.0704822540283203,-5.090950965881348,-7.799023151397705
1777561213030364400,7.704364501953125,2.9607136249542236,-4.852804660797119,-7.9909234046936035
1777561213050506000,7.724506103515625,2.8303146362304688,-4.498348712921143,-8.241636276245117
1777561213060576800,7.73457666015625,2.764995813369751,-4.312057971954346,-8.362497329711914
1777561213070647600,7.7446474609375,2.6865463256835938,-4.124591827392578,-8.481780052185059
1777561213080748800,7.754748779296875,2.5838370323181152,-3.9429917335510254,-8.599245071411133
1777561213110961200,7.784961181640625,2.2366135120391846,-3.388293981552124,-8.926780700683594
1777561213141143000,7.81514306640625,1.8786346912384033,-2.725583791732788,-9.231051445007324
1777561213151183400,7.825183349609375,1.8294812440872192,-2.640322208404541,-9.265640258789062
1777561213161284600,7.83528466796875,1.7110886573791504,-2.49210262298584,-9.329094886779785
1777561213171325000,7.845324951171875,1.5914347171783447,-2.360623359680176,-9.384305953979492
1777561213181395700,7.855395751953125,1.4755749702453613,-2.2421698570251465,-9.43216609954834
1777561213191436000,7.86543603515625,1.3093209266662598,-2.089796543121338,-9.4915132522583
1777561213201476400,7.875476318359375,1.269991159439087,-2.0462100505828857,-9.506342887878418
1777561213231627800,7.905627685546875,1.0395324230194092,-1.8572735786437988,-9.572896003723145
1777561213241729000,7.91572900390625,1.0278551578521729,-1.8320831060409546,-9.57900619506836
1777561213251769300,7.925769287109375,1.0602370500564575,-1.834588885307312,-9.574997901916504
1777561213261840100,7.935840087890625,1.1052587032318115,-1.8607178926467896,-9.564858436584473
1777561213271941400,7.94594140625,1.2017641067504883,-1.9225965738296509,-9.540952682495117
1777561213282012200,7.95601220703125,1.2431600093841553,-1.9657810926437378,-9.526839256286621
1777561213292083200,7.966083251953125,1.2585574388504028,-1.990087866783142,-9.519766807556152
1777561213312224800,7.986224853515625,1.265454888343811,-2.014881134033203,-9.513635635375977
1777561213332396800,8.006396728515625,1.3781214952468872,-2.064460515975952,-9.487316131591797
1777561213342437000,8.01643701171875,1.4338830709457397,-2.0811350345611572,-9.47540283203125
1777561213352477400,8.0264775390625,1.4856317043304443,-2.0851168632507324,-9.466550827026367
1777561213362548200,8.03654833984375,1.5766963958740234,-2.0913126468658447,-9.450441360473633
1777561213372588500,8.046588623046874,1.6843156814575195,-2.0736494064331055,-9.43575382232666
1777561213382689800,8.056689697265625,1.8301348686218262,-1.992936134338379,-9.425987243652344
1777561213392699600,8.06669970703125,1.9284166097640991,-1.9308830499649048,-9.419302940368652
1777561213422973000,8.096972900390625,2.140022039413452,-1.7779223918914795,-9.403706550598145
1777561213433043700,8.107043701171875,2.216830253601074,-1.7290476560592651,-9.395023345947266
1777561213443114500,8.117114501953125,2.29308819770813,-1.6893647909164429,-9.383932113647461
1777561213453185300,8.127185302734375,2.3698127269744873,-1.6598247289657593,-9.370132446289062
1777561213463195100,8.137195068359375,2.486798048019409,-1.6355469226837158,-9.344048500061035
1777561213473266000,8.147265869140625,2.5270822048187256,-1.6321686506271362,-9.333823204040527
1777561213483367200,8.1573671875,2.6486494541168213,-1.6397820711135864,-9.29871940612793
1777561213493377000,8.167376953125,2.7308969497680664,-1.6499334573745728,-9.273097038269043
1777561213503478300,8.177478271484375,2.773439884185791,-1.6554127931594849,-9.25948429107666
1777561213523619800,8.197619873046875,3.0445592403411865,-1.6748955249786377,-9.17037582397461
1777561213533629700,8.207629638671875,3.1101796627044678,-1.6794193983078003,-9.14749813079834
1777561213543731000,8.21773095703125,3.258700132369995,-1.690382957458496,-9.09361743927002
1777561213553832400,8.22783251953125,3.4188575744628906,-1.7066251039505005,-9.03156852722168
1777561213563903200,8.2379033203125,3.5815036296844482,-1.730948805809021,-8.963652610778809
1777561213573943600,8.247943603515624,3.8293540477752686,-1.7900474071502686,-8.848851203918457
1777561213584014300,8.258014404296874,3.9054346084594727,-1.8187956809997559,-8.809651374816895
1777561213594085000,8.268085205078124,4.0601487159729,-1.8818188905715942,-8.726072311401367
1777561213604186400,8.278186279296875,4.20695686340332,-1.9507495164871216,-8.640976905822754
1777561213624358400,8.2983583984375,4.48367166519165,-2.0818252563476562,-8.469537734985352
1777561213644469500,8.318469482421875,4.757549285888672,-2.1910505294799805,-8.290681838989258
1777561213654509800,8.328509765625,4.890966415405273,-2.2399511337280273,-8.199479103088379
1777561213664580600,8.33858056640625,5.093742847442627,-2.309485912322998,-8.055460929870605
1777561213674651400,8.3486513671875,5.2190775871276855,-2.3651440143585205,-7.958499431610107
1777561213684722200,8.35872216796875,5.268435001373291,-2.4035489559173584,-7.9143500328063965
1777561213694793000,8.36879296875,5.378578186035156,-2.4761972427368164,-7.817270755767822
1777561213704802800,8.378802734375,5.468798637390137,-2.568934679031372,-7.724196910858154
1777561213714873600,8.38887353515625,5.510415554046631,-2.6980390548706055,-7.6502485275268555
1777561213724944400,8.3989443359375,5.549678325653076,-2.836758613586426,-7.571278095245361
1777561213745055500,8.419055419921875,5.712968349456787,-3.0894670486450195,-7.347623825073242
1777561213755126300,8.429126220703125,5.797455310821533,-3.219043254852295,-7.224795818328857
1777561213765197000,8.439197021484375,5.877540588378906,-3.351503849029541,-7.098755359649658
1777561213775237400,8.4492373046875,5.950725555419922,-3.4838695526123047,-6.972941875457764
1777561213785277700,8.459277587890625,6.01533842086792,-3.615952968597412,-6.849158763885498
1777561213795348500,8.469348388671875,6.069308757781982,-3.748682737350464,-6.729134559631348
1777561213805419300,8.479419189453125,6.114203929901123,-3.880065679550171,-6.613016605377197
1777561213825560800,8.499560791015625,6.2042341232299805,-4.183496475219727,-6.338472366333008
1777561213845763600,8.519763671875,6.230296611785889,-4.350210189819336,-6.199150562286377
1777561213855864800,8.52986474609375,6.262045860290527,-4.432760238647461,-6.108011722564697
1777561213865905200,8.5399052734375,6.296896457672119,-4.501029968261719,-6.0216450691223145
1777561213875976000,8.549975830078125,6.331035614013672,-4.559799671173096,-5.941095352172852
1777561213886046700,8.560046630859375,6.361328601837158,-4.613590240478516,-5.866744041442871
1777561213896087000,8.570087158203124,6.401984214782715,-4.687246799468994,-5.763219833374023
1777561213906127400,8.58012744140625,6.404274940490723,-4.714292049407959,-5.738563537597656
1777561213916228600,8.590228515625,6.411961078643799,-4.766944885253906,-5.686245918273926
1777561213936400600,8.610400634765625,6.380855083465576,-4.893400192260742,-5.6133503913879395
1777561213946471400,8.620471435546875,6.348363876342773,-4.963382720947266,-5.588693141937256
1777561213956542200,8.630542236328125,6.29841947555542,-5.03850793838501,-5.577968120574951
1777561213966613000,8.640613037109375,6.233484268188477,-5.116390705108643,-5.580018997192383
1777561213976684000,8.65068408203125,6.1516242027282715,-5.195291519165039,-5.597933292388916
1777561213986724000,8.66072412109375,6.027688503265381,-5.272154331207275,-5.660542964935303
1777561213996764400,8.670764404296875,5.894960403442383,-5.340638637542725,-5.735626220703125
1777561214006835200,8.680835205078125,5.758450031280518,-5.439931392669678,-5.7808122634887695
1777561214016906000,8.690906005859375,5.6980438232421875,-5.4658894538879395,-5.816076278686523
1777561214027007500,8.701007568359374,5.613882541656494,-5.516376972198486,-5.850153923034668
1777561214057219800,8.7312197265625,5.392282962799072,-5.595229148864746,-5.982231616973877
1777561214077331000,8.7513310546875,5.2508111000061035,-5.604291915893555,-6.098465442657471
1777561214087401700,8.761401611328125,5.175297260284424,-5.598344802856445,-6.1680803298950195
1777561214097472500,8.771472412109375,5.104007720947266,-5.582028865814209,-6.2418317794799805
1777561214107543300,8.781543212890625,5.038029193878174,-5.555236339569092,-6.318862438201904
1777561214117583600,8.79158349609375,4.928722381591797,-5.50267219543457,-6.449704170227051
1777561214137694700,8.81169482421875,4.738874435424805,-5.400594711303711,-6.674356937408447
1777561214157866800,8.83186669921875,4.5745320320129395,-5.288984298706055,-6.875368118286133
1777561214167937500,8.8419375,4.472896099090576,-5.195803642272949,-7.011934280395508
1777561214178008300,8.85200830078125,4.380936622619629,-5.08898401260376,-7.147027969360352
1777561214188079000,8.8620791015625,4.29371452331543,-4.969894886016846,-7.282482147216797
1777561214198150000,8.87214990234375,4.208861351013184,-4.842937469482422,-7.416321277618408
1777561214208220700,8.882220703125,4.1283183097839355,-4.706136703491211,-7.548486232757568
1777561214218291500,8.89229150390625,4.053070545196533,-4.5577616691589355,-7.679181098937988
1777561214228393000,8.90239306640625,3.9849581718444824,-4.402693271636963,-7.804280757904053
1777561214248504000,8.922504150390624,3.8592417240142822,-4.093271255493164,-8.032544136047363
1777561214268645600,8.942645751953124,3.7142832279205322,-3.8011491298675537,-8.241708755493164
1777561214278747000,8.952746826171875,3.632638454437256,-3.6597740650177,-8.341485977172852
1777561214288817700,8.962817626953125,3.5030391216278076,-3.4554615020751953,-8.482858657836914
1777561214298888400,8.972888427734375,3.4077889919281006,-3.3204734325408936,-8.57507038116455
1777561214308959200,8.982959228515625,3.302138328552246,-3.1925902366638184,-8.664505004882812
1777561214319030000,8.993030029296875,3.187635898590088,-3.077479839324951,-8.748629570007324
1777561214329100800,9.003100830078125,3.06797194480896,-2.9733359813690186,-8.827073097229004
1777561214359313400,9.0333134765625,2.7784910202026367,-2.8011417388916016,-8.977973937988281
1777561214369384200,9.04338427734375,2.671706438064575,-2.7601258754730225,-9.022974014282227
1777561214379455000,9.053455078125,2.563978910446167,-2.7322988510131836,-9.062613487243652
1777561214389525800,9.06352587890625,2.4319114685058594,-2.6017186641693115,-9.13713550567627
1777561214399596500,9.073596435546875,2.3899102210998535,-2.608668565750122,-9.146233558654785
1777561214409667300,9.083667236328125,2.332244634628296,-2.5087709426879883,-9.188965797424316
1777561214419738000,9.093738037109375,2.29140305519104,-2.393794536590576,-9.22982120513916
1777561214429809000,9.103808837890625,2.25889253616333,-2.273566961288452,-9.268155097961426
1777561214449950500,9.123950439453125,2.19183087348938,-1.988484501838684,-9.34945011138916
1777561214460021200,9.134021240234375,2.181713342666626,-1.94316565990448,-9.361335754394531
1777561214470092000,9.144092041015625,2.156480073928833,-1.859110713005066,-9.384224891662598
1777561214480193500,9.154193603515624,2.1269571781158447,-1.786684513092041,-9.405010223388672
1777561214490264300,9.164264404296874,2.098052978515625,-1.7267892360687256,-9.422672271728516
1777561214500304400,9.174304443359375,2.072765588760376,-1.6787068843841553,-9.4369478225708
1777561214510375400,9.18437548828125,2.037937879562378,-1.628993034362793,-9.453231811523438
1777561214520446200,9.1944462890625,2.016334056854248,-1.6131891012191772,-9.4605712890625
1777561214530517000,9.20451708984375,1.994959831237793,-1.6091474294662476,-9.465790748596191
1777561214570769700,9.244769775390624,1.9253233671188354,-1.6648253202438354,-9.470580101013184
1777561214590880800,9.264880859375,1.8977450132369995,-1.7470450401306152,-9.461332321166992
1777561214600951600,9.27495166015625,1.8830478191375732,-1.8312972784042358,-9.448326110839844
1777561214611052800,9.285052734375,1.8808155059814453,-1.8645296096801758,-9.442268371582031
1777561214621123600,9.29512353515625,1.8791742324829102,-1.9642102718353271,-9.422365188598633
1777561214631224800,9.305224853515625,1.8838491439819336,-2.003526449203491,-9.4131498336792
1777561214651366400,9.325366455078125,1.9248194694519043,-2.2038347721099854,-9.359944343566895
1777561214671508200,9.34550830078125,1.9932622909545898,-2.3961098194122314,-9.29817008972168
1777561214681517800,9.355517822265625,2.056725025177002,-2.5716097354888916,-9.237266540527344
1777561214691619300,9.365619384765624,2.1010868549346924,-2.6828765869140625,-9.19554328918457
1777561214701690000,9.375690185546874,2.14125394821167,-2.771118640899658,-9.160038948059082
1777561214711730200,9.385730224609375,2.1796839237213135,-2.850787878036499,-9.126465797424316
1777561214721770500,9.3957705078125,2.2137930393218994,-2.930417060852051,-9.092973709106445
1777561214731841300,9.40584130859375,2.243894338607788,-3.0161428451538086,-9.0574951171875
1777561214772155100,9.446155029296875,2.420823812484741,-3.362210988998413,-8.888506889343262
1777561214782226000,9.456225830078125,2.4751667976379395,-3.4541590213775635,-8.838140487670898
1777561214792235800,9.46623583984375,2.540630340576172,-3.551412343978882,-8.780835151672363
1777561214802306600,9.476306640625,2.6298155784606934,-3.663437843322754,-8.708255767822266
1777561214812377300,9.48637744140625,2.7427737712860107,-3.793462038040161,-8.617262840270996
1777561214822417700,9.496417724609374,2.8684775829315186,-3.9417243003845215,-8.509115219116211
1777561214832488400,9.506488525390624,2.9893951416015625,-4.114966869354248,-8.384567260742188
1777561214862700800,9.53670068359375,3.1973769664764404,-4.837330341339111,-7.908691883087158
1777561214882842400,9.55684228515625,3.169494390487671,-5.4728522300720215,-7.494838714599609
1777561214892913200,9.5669130859375,3.0753774642944336,-5.984560012817383,-7.13424825668335
1777561214903014400,9.577014404296875,3.020634889602661,-6.137307643890381,-7.027064323425293
1777561214913085200,9.587085205078125,2.8916122913360596,-6.425230503082275,-6.820950508117676
1777561214923125500,9.59712548828125,2.781459331512451,-6.728859901428223,-6.569345951080322
1777561214933196300,9.6071962890625,2.6893560886383057,-7.033261299133301,-6.282593727111816
1777561214943267000,9.61726708984375,2.582592725753784,-7.457681179046631,-5.820959568023682
1777561214973449000,9.647448974609375,2.5308053493499756,-8.028962135314941,-5.030028343200684
1777561214983519700,9.657519775390625,2.5892417430877686,-8.199880599975586,-4.714677333831787
1777561214993590500,9.667590576171875,2.690250873565674,-8.339763641357422,-4.402419090270996
1777561215003661600,9.67766162109375,2.822416067123413,-8.45234203338623,-4.094174385070801
1777561215013762800,9.6877626953125,3.0541017055511475,-8.578826904296875,-3.639585256576538
1777561215023833600,9.69783349609375,3.1340858936309814,-8.611793518066406,-3.490685224533081
1777561215033934800,9.707934814453125,3.3824820518493652,-8.680808067321777,-3.061502695083618
1777561215044005600,9.718005615234375,3.4654901027679443,-8.695801734924316,-2.92297625541687
1777561215064147200,9.738147216796875,3.8440322875976562,-8.725296020507812,-2.2941315174102783
1777561215074248700,9.748248779296874,3.9089441299438477,-8.726091384887695,-2.178502082824707
1777561215084288800,9.758288818359375,4.048911094665527,-8.734481811523438,-1.8669588565826416
1777561215094390300,9.768390380859374,4.086284160614014,-8.737549781799316,-1.7685770988464355
1777561215104400000,9.77839990234375,4.134800434112549,-8.748952865600586,-1.590481162071228
1777561215114501400,9.78850146484375,4.16546630859375,-8.772923469543457,-1.36202073097229
1777561215124602600,9.7986025390625,4.166049480438232,-8.791475296020508,-1.2346625328063965
1777561215134673400,9.80867333984375,4.153165817260742,-8.811392784118652,-1.1317957639694214
1777561215144683300,9.818683349609374,4.13079833984375,-8.831451416015625,-1.0546908378601074
1777561215164794400,9.83879443359375,4.0889573097229,-8.859067916870117,-0.9837243556976318
1777561215174865200,9.848865234375,4.063289165496826,-8.87213134765625,-0.9722919464111328
1777561215184844300,9.85884423828125,4.044198989868164,-8.877915382385254,-0.9987339973449707
1777561215194945500,9.868945556640625,4.033414363861084,-8.87377643585205,-1.076127052307129
1777561215235198200,9.9091982421875,4.113438129425049,-8.640640258789062,-2.142277240753174
1777561215245238500,9.919238525390625,4.167051792144775,-8.44178581237793,-2.746325969696045
1777561215255309300,9.929309326171875,4.18112325668335,-8.358382225036621,-2.9708666801452637
1777561215265349600,9.939349609375,4.171815872192383,-8.062134742736816,-3.7105712890625
1777561215275420400,9.94942041015625,4.119962215423584,-7.83044958114624,-4.228517532348633
1777561215305632800,9.9796328125,3.7638230323791504,-6.968392372131348,-5.783214569091797
1777561215345855000,10.01985498046875,3.1536004543304443,-5.409669399261475,-7.5472283363342285
1777561215355956500,10.02995654296875,3.013871431350708,-4.963101863861084,-7.902821063995361
1777561215386107600,10.060107666015625,2.7977538108825684,-3.590823173522949,-8.686135292053223
1777561215406280000,10.080280029296874,2.7951836585998535,-2.9435534477233887,-8.927083969116211
1777561215416350700,10.090350830078124,2.8013246059417725,-2.600904941558838,-9.030961036682129
1777561215426391000,10.10039111328125,2.7899720668792725,-2.275522470474243,-9.121867179870605
1777561215436492300,10.1104921875,2.741839647293091,-1.9972147941589355,-9.201294898986816
1777561215446563000,10.12056298828125,2.6798453330993652,-1.7116763591766357,-9.276798248291016
1777561215456633900,10.1306337890625,2.5952346324920654,-1.47866952419281,-9.340700149536133
1777561215476775400,10.150775390625,2.3707022666931152,-1.1647759675979614,-9.444228172302246
1777561215496917000,10.1709169921875,2.1352858543395996,-1.002486228942871,-9.518717765808105
1777561215506987800,10.18098779296875,2.026318311691284,-0.9526313543319702,-9.547613143920898
1777561215517089300,10.19108935546875,1.9234908819198608,-0.9149823188781738,-9.572532653808594
1777561215527129300,10.20112939453125,1.8267899751663208,-0.887489378452301,-9.594038963317871
1777561215537200400,10.211200439453124,1.7352842092514038,-0.8745812177658081,-9.612194061279297
1777561215547271200,10.221271240234374,1.65204656124115,-0.8792511224746704,-9.626423835754395
1777561215557372400,10.231372314453125,1.5864930152893066,-0.9092991948127747,-9.634655952453613
1777561215567443200,10.241443115234375,1.6045844554901123,-1.0507670640945435,-9.617256164550781
1777561215587584800,10.261584716796875,1.4786252975463867,-1.1096152067184448,-9.63082504272461
1777561215607756800,10.2817568359375,1.3698668479919434,-1.120919942855835,-9.645588874816895
1777561215617858300,10.2918583984375,1.3467460870742798,-1.1195908784866333,-9.648999214172363
1777561215637999900,10.311999755859375,1.349805474281311,-1.112761378288269,-9.649361610412598
1777561215648070700,10.322070556640625,1.3542156219482422,-1.1054853200912476,-9.649580001831055
1777561215658141400,10.332141357421875,1.3745535612106323,-1.0961209535598755,-9.647773742675781
1777561215668181800,10.342181640625,1.3877975940704346,-1.0938533544540405,-9.646133422851562
1777561215698394000,10.37239404296875,1.693901777267456,-1.1293672323226929,-9.592996597290039
1777561215718535700,10.39253564453125,1.8664228916168213,-1.224502682685852,-9.549212455749512
1777561215728606500,10.4026064453125,1.9692407846450806,-1.329334020614624,-9.514482498168945
1777561215738677200,10.41267724609375,2.0599164962768555,-1.4729321002960205,-9.474047660827637
1777561215748748000,10.422748046875,2.175870418548584,-1.7660658359527588,-9.397710800170898
1777561215758818800,10.43281884765625,2.2442128658294678,-2.0041937828063965,-9.33365535736084
1777561215768889600,10.4428896484375,2.3038878440856934,-2.274907350540161,-9.256742477416992
1777561215778960600,10.452960693359374,2.3512585163116455,-2.5775771141052246,-9.165045738220215
1777561215799102200,10.473102294921874,2.3893485069274902,-3.083699941635132,-8.997344970703125
1777561215819274200,10.493274169921875,2.370236873626709,-3.839069128036499,-8.707118034362793
1777561215829314600,10.503314453125,2.333822250366211,-4.234292507171631,-8.531966209411621
1777561215839385300,10.51338525390625,2.258662700653076,-4.844728469848633,-8.22176742553711
1777561215849395200,10.523395263671874,2.1894233226776123,-5.24152946472168,-7.9939446449279785
1777561215859466000,10.533466064453124,2.1279819011688232,-5.422755718231201,-7.888967514038086
1777561215869506000,10.543506103515625,1.9896435737609863,-5.7536139488220215,-7.6881489753723145
1777561215889708800,10.563708740234375,1.8577426671981812,-6.470442295074463,-7.131097793579102
1777561215940032300,10.6140322265625,1.9064737558364868,-7.932711601257324,-5.44130802154541
1777561215950103000,10.62410302734375,2.030294179916382,-8.240686416625977,-4.913187026977539
1777561215960173800,10.634173828125,2.1384854316711426,-8.406185150146484,-4.575295448303223
1777561215970244600,10.64424462890625,2.2671420574188232,-8.540453910827637,-4.253365516662598
1777561215980285000,10.654284912109375,2.335116147994995,-8.593449592590332,-4.107341289520264
1777561215990325200,10.6643251953125,2.5756635665893555,-8.727511405944824,-3.6560769081115723
1777561216020568000,10.694568115234375,3.018965005874634,-8.850858688354492,-2.952719211578369
1777561216040710000,10.7147099609375,3.423344850540161,-8.884727478027344,-2.347913980484009
1777561216050780700,10.72478076171875,3.5649187564849854,-8.87768268585205,-2.156040668487549
1777561216060851500,10.7348515625,3.636343479156494,-8.863065719604492,-2.0960566997528076
1777561216070922200,10.744922119140625,3.7750985622406006,-8.829333305358887,-1.9904537200927734
1777561216080993000,10.754992919921875,3.919982433319092,-8.775138854980469,-1.9496275186538696
1777561216101134600,10.775134521484375,4.197012424468994,-8.652178764343262,-1.922316551208496
1777561216121306600,10.795306640625,4.4479660987854,-8.50186824798584,-2.0258877277374268
1777561216131347000,10.805346923828125,4.425203800201416,-8.40668773651123,-2.432192325592041
1777561216141417700,10.815417724609375,4.422743320465088,-8.327545166015625,-2.694758176803589
1777561216151458000,10.8254580078125,4.407632827758789,-8.295026779174805,-2.8170340061187744
1777561216161528800,10.83552880859375,4.350977420806885,-8.238292694091797,-3.061033248901367
1777561216171599600,10.845599609375,4.273972034454346,-8.167953491210938,-3.3448615074157715
1777561216181701000,10.855701171875,4.1766276359558105,-8.078774452209473,-3.6687281131744385
1777561216201842700,10.8758427734375,3.912250280380249,-7.851556301116943,-4.383805751800537
1777561216232024600,10.906024658203124,3.4316046237945557,-7.323150634765625,-5.546706676483154
1777561216242095400,10.916095458984374,3.2554452419281006,-6.928226470947266,-6.129612922668457
1777561216252166100,10.926166259765624,3.1712417602539062,-6.615663051605225,-6.507426738739014
1777561216262237000,10.93623681640625,3.1096184253692627,-6.270629405975342,-6.868760585784912
1777561216272307700,10.9463076171875,3.0811336040496826,-6.086127281188965,-7.045285224914551
1777561216282378500,10.95637841796875,3.020941972732544,-5.509926795959473,-7.528944492340088
1777561216302550500,10.976550537109375,2.9322822093963623,-4.704643249511719,-8.08940315246582
1777561216322692000,10.996692138671875,2.8554086685180664,-4.107684135437012,-8.434687614440918
1777561216332732400,11.006732421875,2.8077147006988525,-3.721648693084717,-8.627655982971191
1777561216342803200,11.01680322265625,2.765963554382324,-3.3452303409576416,-8.793706893920898
1777561216352874000,11.0268740234375,2.732379198074341,-2.982149600982666,-8.9337158203125
1777561216362944800,11.03694482421875,2.707667827606201,-2.6351304054260254,-9.04958724975586
1777561216373015800,11.047015869140624,2.690356731414795,-2.308401584625244,-9.143503189086914
1777561216383117000,11.057116943359375,2.6773154735565186,-2.0080997943878174,-9.217911720275879
1777561216403258600,11.077258544921875,2.6470232009887695,-1.571215271949768,-9.31101131439209
1777561216433471000,11.107470947265625,2.5582172870635986,-1.1733877658843994,-9.394098281860352
1777561216443541800,11.117541748046875,2.5159220695495605,-1.034632682800293,-9.42178726196289
1777561216453612500,11.127612548828125,2.465322256088257,-0.9272390604019165,-9.446311950683594
1777561216463714000,11.137714111328124,2.409228563308716,-0.8588156700134277,-9.467229843139648
1777561216473815300,11.147815185546875,2.350797414779663,-0.8325828313827515,-9.484248161315918
1777561216483886000,11.157885986328125,2.2810423374176025,-0.9260144233703613,-9.49261474609375
1777561216493926400,11.167926513671874,2.2221429347991943,-0.9695051908493042,-9.502237319946289
1777561216503936000,11.17793603515625,2.1730384826660156,-1.020123839378357,-9.508294105529785
1777561216534179000,11.208178955078125,2.0782570838928223,-1.038159728050232,-9.527509689331055
1777561216544219400,11.218219482421874,2.0418734550476074,-1.0119963884353638,-9.538187026977539
1777561216554320600,11.228320556640625,1.9951316118240356,-0.9677478075027466,-9.55265998840332
1777561216564391400,11.238391357421875,1.9866338968276978,-0.9582640528678894,-9.555387496948242
1777561216574462200,11.248462158203125,1.9662615060806274,-0.9269977807998657,-9.562681198120117
1777561216584502500,11.25850244140625,1.9569196701049805,-0.8947117328643799,-9.567671775817871
1777561216594603800,11.268603759765625,1.956664800643921,-0.862277090549469,-9.57070255279541
1777561216604705000,11.278705078125,1.9572681188583374,-0.8328781127929688,-9.573182106018066
1777561216634826000,11.308825927734375,1.9279730319976807,-0.7219189405441284,-9.588126182556152
1777561216665038300,11.339038330078125,2.0797195434570312,-0.7424379587173462,-9.554786682128906
1777561216675139800,11.349139892578124,2.1703829765319824,-0.8204701542854309,-9.528203964233398
1777561216685241000,11.359240966796875,2.24994158744812,-0.9423379302024841,-9.498428344726562
1777561216695312000,11.369311767578125,2.2853431701660156,-1.0150458812713623,-9.482471466064453
1777561216705352200,11.379352294921874,2.3652865886688232,-1.3118693828582764,-9.426281929016113
1777561216715392500,11.389392578125,2.4120991230010986,-1.552237629890442,-9.377778053283691
1777561216745604900,11.41960498046875,2.5235085487365723,-2.286691665649414,-9.196375846862793
1777561216755675600,11.429675537109375,2.5652410984039307,-2.6198108196258545,-9.09541130065918
1777561216765746400,11.439746337890625,2.602602481842041,-2.9689419269561768,-8.976761817932129
1777561216775756300,11.44975634765625,2.6355502605438232,-3.32812762260437,-8.840126037597656
1777561216785827000,11.4598271484375,2.6654226779937744,-3.6963796615600586,-8.6834716796875
1777561216795897900,11.46989794921875,2.693310260772705,-4.069549083709717,-8.506189346313477
1777561216805999000,11.4799990234375,2.7211833000183105,-4.448911190032959,-8.30498218536377
1777561216836242000,11.510241943359375,2.8147780895233154,-5.5576324462890625,-7.573646545410156
1777561216846312700,11.520312744140625,2.870802640914917,-6.084789752960205,-7.13471794128418
1777561216856383500,11.530383544921875,2.8706116676330566,-6.215853691101074,-7.020907402038574
1777561216866423800,11.540423828125,2.8654685020446777,-6.477883815765381,-6.782072067260742
1777561216876464000,11.550464111328125,2.8838727474212646,-6.788659572601318,-6.4628005027771
1777561216886535000,11.560534912109375,2.896646738052368,-7.095257759094238,-6.11859130859375
1777561216896605700,11.570605712890625,2.899268865585327,-7.394806385040283,-5.751651287078857
1777561216926818300,11.600818359375,2.8069746494293213,-8.314693450927734,-4.376887321472168
1777561216946990300,11.620990234375,2.7342872619628906,-8.625207901000977,-3.78151273727417
1777561216957061000,11.63106103515625,2.6784660816192627,-8.808120727539062,-3.378347396850586
1777561216967162400,11.641162353515625,2.624619245529175,-8.966376304626465,-2.9809160232543945
1777561216977233200,11.651233154296875,2.591463804244995,-9.093828201293945,-2.59942626953125
1777561216987334700,11.661334716796874,2.6141409873962402,-9.226030349731445,-2.053544282913208
1777561216997405400,11.671405517578124,2.632575273513794,-9.257792472839355,-1.8796886205673218
1777561217007506700,11.681506591796875,2.6973984241485596,-9.299991607666016,-1.550676941871643
1777561217037688600,11.7116884765625,3.1018972396850586,-9.276474952697754,-0.7040180563926697
1777561217077910800,11.751910888671874,4.0638580322265625,-8.924871444702148,-0.04615151137113571
1777561217087981600,11.761981689453124,4.359418869018555,-8.784085273742676,0.07557517290115356
1777561217098022000,11.77202197265625,4.520021915435791,-8.702112197875977,0.11421791464090347
1777561217108123100,11.782123046875,4.593437671661377,-8.663474082946777,0.12220891565084457
1777561217118194000,11.79219384765625,4.7443156242370605,-8.582606315612793,0.02692950889468193
1777561217148406300,11.82240625,4.86488151550293,-8.499730110168457,-0.5078504681587219
1777561217158477000,11.83247705078125,4.886322021484375,-8.46525764465332,-0.7960308790206909
1777561217168547800,11.8425478515625,4.952850341796875,-8.36215877532959,-1.3091840744018555
1777561217178618600,11.85261865234375,5.027365207672119,-8.236367225646973,-1.7487887144088745
1777561217188689400,11.862689453125,5.085870265960693,-8.08482551574707,-2.222587823867798
1777561217198760400,11.872760498046874,5.112030982971191,-7.976748466491699,-2.5316052436828613
1777561217208861700,11.88286181640625,5.119327545166016,-7.7949419021606445,-3.033440351486206
1777561217218932500,11.892932373046875,5.0976643562316895,-7.616831302642822,-3.488279342651367
1777561217239043600,11.913043701171874,4.987044811248779,-7.216067790985107,-4.3849921226501465
1777561217259154700,11.93315478515625,4.7732038497924805,-6.775005340576172,-5.242730140686035
1777561217269195000,11.943195068359374,4.624914169311523,-6.554190158843994,-5.641201019287109
1777561217279265800,11.953265869140624,4.3558807373046875,-6.225277423858643,-6.200211524963379
1777561217289336600,11.963336669921874,4.165764331817627,-5.993549823760986,-6.549363136291504
1777561217299437800,11.973437744140625,4.066429615020752,-5.870315074920654,-6.721156120300293
1777561217309508600,11.983508544921875,3.7960903644561768,-5.497776985168457,-7.1787567138671875
1777561217319579400,11.993579345703125,3.7045133113861084,-5.369184494018555,-7.322487831115723
1777561217329650200,12.003650146484375,3.47713303565979,-4.974263668060303,-7.703027248382568
1777561217349730800,12.023730712890625,3.277672529220581,-4.595129013061523,-8.019478797912598
1777561217369842000,12.043842041015624,3.08146333694458,-4.144948959350586,-8.336329460144043
1777561217379882200,12.05388232421875,3.0175440311431885,-3.899219512939453,-8.477081298828125
1777561217389953000,12.063953125,2.9651200771331787,-3.650393009185791,-8.605408668518066
1777561217400023800,12.07402392578125,2.896360397338867,-3.2950916290283203,-8.770625114440918
1777561217410125000,12.084125,2.8467772006988525,-3.0775604248046875,-8.865374565124512
1777561217420165400,12.094165283203125,2.8184828758239746,-2.9748871326446533,-8.909354209899902
1777561217430236200,12.104236083984375,2.7166988849639893,-2.7104005813598633,-9.024613380432129
1777561217440307000,12.114306884765625,2.6260762214660645,-2.562474489212036,-9.094386100769043
1777561217450377700,12.124377685546875,2.5136055946350098,-2.4401228427886963,-9.159584045410156
1777561217480590000,12.154590087890625,2.213979482650757,-2.197153329849243,-9.297375679016113
1777561217490660900,12.164660888671875,2.1280689239501953,-2.1516551971435547,-9.328027725219727
1777561217500701200,12.174701171875,1.944856882095337,-1.984259009361267,-9.404820442199707
1777561217510772000,12.18477197265625,1.8852006196975708,-1.9322949647903442,-9.42776107788086
1777561217520842800,12.1948427734375,1.6750777959823608,-1.7286732196807861,-9.50663948059082
1777561217551085800,12.2250859375,1.3718161582946777,-1.3433502912521362,-9.61685562133789
1777561217571257900,12.2452578125,1.1669857501983643,-0.995871901512146,-9.685906410217285
1777561217581298200,12.255298095703125,1.0651496648788452,-0.813818633556366,-9.714604377746582
1777561217591369000,12.265368896484375,0.9635533690452576,-0.6315062642097473,-9.738744735717773
1777561217601409300,12.2754091796875,0.8493471741676331,-0.37433475255966187,-9.762627601623535
1777561217611480000,12.28547998046875,0.8226093649864197,-0.29302361607551575,-9.767694473266602
1777561217621550800,12.29555078125,0.8468793034553528,-0.08781352639198303,-9.769619941711426
1777561217631652000,12.305652099609375,0.8745125532150269,-0.02850537933409214,-9.767539024353027
1777561217641723000,12.315722900390625,1.0372300148010254,0.07268025726079941,-9.751371383666992
1777561217681975600,12.3559755859375,1.524119257926941,-0.23131321370601654,-9.68472671508789
1777561217692046300,12.36604638671875,1.6529098749160767,-0.48644280433654785,-9.654101371765137
1777561217702117400,12.376117431640624,1.7909984588623047,-0.995124101638794,-9.590225219726562
1777561217712157400,12.386157470703125,1.825609803199768,-1.1985775232315063,-9.560384750366211
1777561217722197800,12.39619775390625,1.8487416505813599,-1.850601315498352,-9.451340675354004
1777561217732268500,12.4062685546875,1.8415228128433228,-2.091141939163208,-9.402462005615234
1777561217742308900,12.416308837890625,1.794097661972046,-2.5635693073272705,-9.294069290161133
1777561217762420000,12.436419921875,1.6285820007324219,-3.5081026554107666,-9.011733055114746
1777561217782561500,12.4565615234375,1.4432190656661987,-4.430071830749512,-8.629135131835938
1777561217792632300,12.46663232421875,1.3721376657485962,-4.871225357055664,-8.399930000305176
1777561217802672600,12.476672607421875,1.3204302787780762,-5.498425483703613,-8.012127876281738
1777561217812713000,12.486712890625,1.3031967878341675,-5.682876110076904,-7.885239124298096
1777561217822783700,12.49678369140625,1.3036785125732422,-6.045228958129883,-7.610915660858154
1777561217832885000,12.506885009765625,1.3205764293670654,-6.36785888671875,-7.340084552764893
1777561217842925300,12.51692529296875,1.3564403057098389,-6.641165733337402,-7.0869879722595215
1777561217873168400,12.54716845703125,1.6288374662399292,-7.538852691650391,-6.056648254394531
1777561217883239200,12.5572392578125,1.7366729974746704,-7.8043317794799805,-5.678623199462891
1777561217893340400,12.56734033203125,1.835364818572998,-8.051711082458496,-5.288836479187012
1777561217903411200,12.5774111328125,1.917019009590149,-8.279899597167969,-4.892718315124512
1777561217913512400,12.587512451171875,1.9992479085922241,-8.58861255645752,-4.290585041046143
1777561217923583200,12.597583251953125,2.0316054821014404,-8.767746925354004,-3.8948187828063965
1777561217933654000,12.607654052734375,2.0430636405944824,-8.849398612976074,-3.699246883392334
1777561217943724800,12.617724853515625,2.062584638595581,-9.064023971557617,-3.1240310668945312
1777561217983886000,12.657885986328125,2.1893677711486816,-9.365942001342773,-1.9121222496032715
1777561217993987300,12.6679873046875,2.3263602256774902,-9.41230583190918,-1.4720476865768433
1777561218004058000,12.67805810546875,2.44384503364563,-9.419137954711914,-1.2156827449798584
1777561218024138800,12.698138671875,2.7351181507110596,-9.37997817993164,-0.8399515151977539
1777561218034240000,12.708239990234375,2.9158554077148438,-9.333206176757812,-0.7479696869850159
1777561218044280300,12.7182802734375,3.138153076171875,-9.259159088134766,-0.7683596014976501
1777561218064361000,12.73836083984375,3.4485714435577393,-9.135786056518555,-0.9028726816177368
1777561218094603800,12.768603759765625,3.9172768592834473,-8.84729290008545,-1.5971044301986694
1777561218104613600,12.778613525390625,4.003575325012207,-8.746918678283691,-1.9060966968536377
1777561218114715000,12.78871484375,4.071037292480469,-8.593558311462402,-2.397465944290161
1777561218124785700,12.79878564453125,4.087826251983643,-8.536067962646484,-2.5681934356689453
1777561218134826000,12.808825927734375,4.085327625274658,-8.378579139709473,-3.0462911128997803
1777561218144866300,12.8188662109375,4.092057228088379,-8.309481620788574,-3.2214863300323486
1777561218154967600,12.828967529296875,4.116138935089111,-8.158329010009766,-3.559420347213745
1777561218195250700,12.869250732421875,4.215782165527344,-7.398724555969238,-4.863791465759277
1777561218205321500,12.879321533203125,4.181506633758545,-7.2067437171936035,-5.17186975479126
1777561218215423000,12.889423095703124,4.069841384887695,-6.930189609527588,-5.619543075561523
1777561218225432600,12.8994326171875,4.022729396820068,-6.837752342224121,-5.764824867248535
1777561218235534000,12.9095341796875,3.9093990325927734,-6.655923843383789,-6.048609256744385
1777561218245574400,12.919574462890624,3.711669683456421,-6.379368782043457,-6.457365989685059
1777561218265685200,12.939685302734375,3.421294927597046,-5.991614818572998,-6.968907833099365
1777561218275786800,12.949786865234374,3.2729251384735107,-5.790409564971924,-7.206214904785156
1777561218316130800,12.990130859375,2.7518198490142822,-4.939877986907959,-8.01220703125
1777561218326171100,13.000171142578125,2.6527373790740967,-4.721383094787598,-8.175690650939941
1777561218336242000,13.010241943359375,2.5719759464263916,-4.505882263183594,-8.321799278259277
1777561218346312700,13.020312744140625,2.5368103981018066,-4.406303405761719,-8.385671615600586
1777561218356353000,13.03035302734375,2.4782156944274902,-4.196406841278076,-8.509936332702637
1777561218376464100,13.050464111328125,2.378814220428467,-3.686185598373413,-8.770613670349121
1777561218396636400,13.070636474609374,2.331545114517212,-3.3552517890930176,-8.914961814880371
1777561218406676500,13.080676513671875,2.3018875122070312,-3.1223340034484863,-9.006816864013672
1777561218416747300,13.090747314453125,2.270071506500244,-2.8943028450012207,-9.090664863586426
1777561218426787600,13.10078759765625,2.2345120906829834,-2.665058135986328,-9.169232368469238
1777561218436858400,13.1108583984375,2.196232795715332,-2.429809093475342,-9.243537902832031
1777561218446929200,13.12092919921875,2.1472809314727783,-2.1936914920806885,-9.313823699951172
1777561218457030700,13.13103076171875,2.048550605773926,-1.848383903503418,-9.410489082336426
1777561218477141800,13.151141845703124,1.8791619539260864,-1.3671413660049438,-9.527332305908203
1777561218497252900,13.1712529296875,1.725967526435852,-0.9864388704299927,-9.603039741516113
1777561218507323600,13.18132373046875,1.6699843406677246,-0.7370216846466064,-9.635266304016113
1777561218517394400,13.19139453125,1.7085908651351929,-0.38188832998275757,-9.649106979370117
1777561218527465200,13.20146533203125,1.737190842628479,-0.268254816532135,-9.647829055786133
1777561218537566500,13.21156640625,1.8233377933502197,0.007874131202697754,-9.635650634765625
1777561218547606800,13.221606689453125,1.846549153327942,0.07836981117725372,-9.630914688110352
1777561218557708000,13.2317080078125,1.885664701461792,0.14055150747299194,-9.622624397277832
1777561218577880300,13.25188037109375,1.9064369201660156,0.05690474063158035,-9.619389533996582
1777561218608031500,13.282031494140625,1.9433366060256958,-0.42405039072036743,-9.602814674377441
1777561218618102300,13.292102294921875,1.9988503456115723,-0.8028205037117004,-9.567153930664062
1777561218628142600,13.302142578125,2.0541512966156006,-1.1344075202941895,-9.521761894226074
1777561218638213400,13.31221337890625,2.092926263809204,-1.5292028188705444,-9.4578857421875
1777561218648253700,13.322253662109375,2.0933938026428223,-1.9158011674880981,-9.387106895446777
1777561218658324500,13.332324462890625,2.068613052368164,-2.303224802017212,-9.305181503295898
1777561218668364800,13.34236474609375,2.0297136306762695,-2.689011573791504,-9.209772109985352
1777561218688506400,13.36250634765625,1.9639140367507935,-3.305448293685913,-9.021498680114746
1777561218698577200,13.3725771484375,1.9290310144424438,-3.711080551147461,-8.870012283325195
1777561218708587000,13.3825869140625,1.8948253393173218,-4.151727676391602,-8.680047035217285
1777561218718688300,13.392688232421875,1.8989070653915405,-4.516830921173096,-8.494866371154785
1777561218728759000,13.402759033203125,1.9236165285110474,-4.8673248291015625,-8.293325424194336
1777561218738829800,13.412829833984375,1.9733635187149048,-5.201717853546143,-8.075788497924805
1777561218748870100,13.4228701171875,2.097743272781372,-5.677680492401123,-7.715813159942627
1777561218758941000,13.43294091796875,2.131016731262207,-5.832756042480469,-7.59000301361084
1777561218769011700,13.44301171875,2.245412826538086,-6.116032600402832,-7.329575061798096
1777561218789153300,13.4631533203125,2.5475001335144043,-6.621829986572266,-6.769933223724365
1777561218799224000,13.47322412109375,2.7284021377563477,-6.8433308601379395,-6.472637176513672
1777561218809295000,13.483295166015624,2.9214797019958496,-7.0392022132873535,-6.171302795410156
1777561218819366000,13.493365966796874,3.1198055744171143,-7.220019340515137,-5.857346534729004
1777561218829436700,13.503436767578124,3.3173422813415527,-7.383495807647705,-5.536210536956787
1777561218839507500,13.513507568359374,3.5091660022735596,-7.529778480529785,-5.211389064788818
1777561218849578200,13.523578125,3.7665460109710693,-7.721176624298096,-4.729373931884766
1777561218859649000,13.53364892578125,3.8448429107666016,-7.778159141540527,-4.570318698883057
1777561218869719800,13.5437197265625,4.042026042938232,-7.936100482940674,-4.104961395263672
1777561218909942000,13.58394189453125,4.357769012451172,-8.254833221435547,-3.0063183307647705
1777561218920012800,13.5940126953125,4.375942707061768,-8.288004875183105,-2.886258363723755
1777561218930114000,13.604114013671875,4.4125447273254395,-8.375676155090332,-2.5588860511779785
1777561218940184800,13.614184814453125,4.421635627746582,-8.400798797607422,-2.4588842391967773
1777561218950255600,13.624255615234375,4.4418439865112305,-8.440515518188477,-2.279933214187622
1777561218960326400,13.634326416015625,4.477757453918457,-8.477964401245117,-2.0601449012756348
1777561218970366700,13.64436669921875,4.5043840408325195,-8.488452911376953,-1.9562898874282837
1777561218990447400,13.664447265625,4.544918060302734,-8.474711418151855,-1.9218168258666992
1777561219020629200,13.694629150390625,4.700474739074707,-8.301844596862793,-2.270533800125122
1777561219030700000,13.704699951171875,4.768263816833496,-8.200608253479004,-2.4867842197418213
1777561219040770800,13.714770751953125,4.827910900115967,-8.07632064819336,-2.763101100921631
1777561219050841600,13.724841552734375,4.858858108520508,-7.871971607208252,-3.2548367977142334
1777561219060912400,13.734912353515625,4.82356595993042,-7.73155403137207,-3.623075485229492
1777561219070983200,13.744983154296875,4.791180610656738,-7.657098293304443,-3.8188791275024414
1777561219081084400,13.75508447265625,4.684691429138184,-7.515721797943115,-4.211649417877197
1777561219091155500,13.765155517578124,4.540306091308594,-7.3654985427856445,-4.615781307220459
1777561219111235800,13.78523583984375,4.185091018676758,-7.010995388031006,-5.43151330947876
1777561219121306600,13.795306640625,3.98598313331604,-6.801638126373291,-5.832669258117676
1777561219131347000,13.805346923828125,3.7766222953796387,-6.573515892028809,-6.220645904541016
1777561219141387300,13.81538720703125,3.562464952468872,-6.328413009643555,-6.590175628662109
1777561219151458000,13.8254580078125,3.3495945930480957,-6.06503438949585,-6.940169811248779
1777561219161528800,13.83552880859375,3.1464731693267822,-5.7803544998168945,-7.270323276519775
1777561219171599600,13.845599609375,2.963365316390991,-5.47451114654541,-7.577507019042969
1777561219181670400,13.85567041015625,2.8061065673828125,-5.149075031280518,-7.860228061676025
1777561219191741200,13.8657412109375,2.6767711639404297,-4.8079609870910645,-8.117192268371582
1777561219211913500,13.88591357421875,2.4878151416778564,-4.099451065063477,-8.554277420043945
1777561219221984300,13.895984375,2.4204916954040527,-3.7440900802612305,-8.73460865020752
1777561219232024600,13.906024658203124,2.3414034843444824,-3.2259371280670166,-8.95999813079834
1777561219242064600,13.916064697265625,2.3197078704833984,-3.0668013095855713,-9.021312713623047
1777561219252135700,13.9261357421875,2.280547857284546,-2.762411117553711,-9.128996849060059
1777561219262237000,13.93623681640625,2.2424073219299316,-2.489337205886841,-9.216572761535645
1777561219272338200,13.946338134765625,2.20129132270813,-2.2509677410125732,-9.28750991821289
1777561219282409000,13.956408935546875,2.1521570682525635,-2.0417304039001465,-9.347189903259277
1777561219312590800,13.9865908203125,1.9626216888427734,-1.5528615713119507,-9.481937408447266
1777561219332702000,14.006701904296875,1.8143525123596191,-1.3187389373779297,-9.546697616577148
1777561219342772700,14.016772705078125,1.7435569763183594,-1.2288888692855835,-9.571845054626465
1777561219352843500,14.026843505859375,1.6779805421829224,-1.1553462743759155,-9.59270191192627
1777561219362944800,14.03694482421875,1.6182751655578613,-1.0996496677398682,-9.609492301940918
1777561219373015800,14.047015869140624,1.5670254230499268,-1.0629301071166992,-9.622109413146973
1777561219383086600,14.057086669921874,1.5246944427490234,-1.044600248336792,-9.630912780761719
1777561219393157400,14.067157470703124,1.491591215133667,-1.043204665184021,-9.636247634887695
1777561219423278000,14.097278076171875,1.4334558248519897,-1.1248468160629272,-9.635887145996094
1777561219433348900,14.107348876953125,1.4213322401046753,-1.1731374263763428,-9.631924629211426
1777561219443450400,14.117450439453124,1.4096447229385376,-1.2289665937423706,-9.626678466796875
1777561219453521200,14.127521240234374,1.399327278137207,-1.3186333179473877,-9.616313934326172
1777561219463592000,14.137592041015624,1.3983347415924072,-1.351601243019104,-9.6118803024292
1777561219473693200,14.147693115234375,1.4077941179275513,-1.4166598320007324,-9.60112476348877
1777561219483733500,14.1577333984375,1.4335925579071045,-1.4869872331619263,-9.586662292480469
1777561219493773800,14.16777392578125,1.4763953685760498,-1.5648070573806763,-9.567760467529297
1777561219523986200,14.197986083984375,1.651902675628662,-1.8682763576507568,-9.484258651733398
1777561219534057000,14.208056884765625,1.7050954103469849,-1.9915425777435303,-9.449697494506836
1777561219544097300,14.21809716796875,1.7542296648025513,-2.1252710819244385,-9.411498069763184
1777561219554198500,14.228198486328125,1.8338532447814941,-2.3361008167266846,-9.346122741699219
1777561219564299800,14.2382998046875,1.8605320453643799,-2.4093222618103027,-9.32223129272461
1777561219574370600,14.24837060546875,1.926723837852478,-2.549838066101074,-9.271269798278809
1777561219584411000,14.258410888671875,2.0063486099243164,-2.688735246658325,-9.214969635009766
1777561219594481700,14.268481689453125,2.0987966060638428,-2.8268024921417236,-9.152849197387695
1777561219604552400,14.278552490234375,2.2541964054107666,-3.038208246231079,-9.04755687713623
1777561219634765000,14.30876513671875,2.4572184085845947,-3.470767021179199,-8.836642265319824
1777561219644866300,14.3188662109375,2.5109968185424805,-3.6724634170532227,-8.73946762084961
1777561219654937000,14.32893701171875,2.544008731842041,-3.8883585929870605,-8.635918617248535
1777561219664977400,14.338977294921875,2.556577682495117,-4.121795177459717,-8.523210525512695
1777561219675048200,14.349048095703125,2.543748140335083,-4.372961044311523,-8.401008605957031
1777561219685088500,14.359088623046874,2.471264600753784,-4.7736005783081055,-8.202194213867188
1777561219695128800,14.36912890625,2.2743799686431885,-4.9732208251953125,-8.140311241149902
1777561219735381500,14.409381591796874,1.9419828653335571,-6.051219940185547,-7.468724250793457
1777561219745452300,14.419452392578124,1.8950942754745483,-6.287751197814941,-7.283077239990234
1777561219755492600,14.42949267578125,1.8591187000274658,-6.507824897766113,-7.096637725830078
1777561219765563400,14.4395634765625,1.82496976852417,-6.7168073654174805,-6.908283710479736
1777561219775634200,14.44963427734375,1.7565503120422363,-6.9140849113464355,-6.729068279266357
1777561219785735400,14.4597353515625,1.7105910778045654,-7.09798526763916,-6.546974182128906
1777561219795806200,14.46980615234375,1.7114163637161255,-7.26889181137085,-6.356466293334961
1777561219805907500,14.479907470703125,1.72673499584198,-7.4290056228637695,-6.164304733276367
1777561219835998000,14.509998046875,1.7972698211669922,-7.899846076965332,-5.525635242462158
1777561219846099200,14.52009912109375,1.8044787645339966,-7.953728199005127,-5.445410251617432
1777561219856139500,14.530139404296875,1.8475831747055054,-8.055538177490234,-5.278744220733643
1777561219866240800,14.54024072265625,1.903993010520935,-8.144487380981445,-5.119819641113281
1777561219876311600,14.5503115234375,1.96962308883667,-8.21782112121582,-4.975781440734863
1777561219886382300,14.56038232421875,2.04312801361084,-8.272701263427734,-4.853704452514648
1777561219896392200,14.57039208984375,2.180138111114502,-8.324637413024902,-4.702955722808838
1777561219906493400,14.580493408203125,2.2183659076690674,-8.324597358703613,-4.685120105743408
1777561219926635000,14.600635009765625,2.397696018218994,-8.29796028137207,-4.6438469886779785
1777561219936675300,14.61067529296875,2.4868905544281006,-8.232007026672363,-4.7137908935546875
1777561219946715600,14.620715576171875,2.5914924144744873,-8.176618576049805,-4.753678798675537
1777561219956786400,14.630786376953125,2.6970436573028564,-8.12601089477539,-4.781663417816162
1777561219966857200,14.640857177734375,2.789576292037964,-8.060651779174805,-4.838859558105469
1777561219976928000,14.650927978515625,2.8805041313171387,-7.993448257446289,-4.896719932556152
1777561219987029200,14.661029296875,2.959841728210449,-7.912747383117676,-4.979774475097656
1777561219997069600,14.671069580078125,3.024726629257202,-7.809100151062012,-5.102880477905273
1777561220007140400,14.681140380859375,3.0565969944000244,-7.621718883514404,-5.360691070556641
1777561220027282000,14.701281982421875,3.0921788215637207,-7.332321643829346,-5.731133937835693
1777561220047393000,14.72139306640625,3.0749008655548096,-7.034199237823486,-6.102083206176758
1777561220057463800,14.7314638671875,3.047785997390747,-6.81903076171875,-6.354700565338135
1777561220067534800,14.741534912109374,3.0469472408294678,-6.721375942230225,-6.4582977294921875
1777561220077575000,14.751574951171875,3.0373294353485107,-6.557760715484619,-6.628785610198975
1777561220087676400,14.761676513671874,3.0270185470581055,-6.396615028381348,-6.789027214050293
1777561220097716700,14.771716796875,3.000697612762451,-6.167855262756348,-7.008835315704346
1777561220107818000,14.78181787109375,2.988945245742798,-6.085760116577148,-7.085205554962158
1777561220117858300,14.7918583984375,2.9615578651428223,-5.930675983428955,-7.226800918579102
1777561220137969400,14.811969482421874,2.8790884017944336,-5.533134937286377,-7.567407131195068
1777561220158080500,14.83208056640625,2.8188743591308594,-5.282567501068115,-7.7665181159973145
1777561220168181800,14.842181640625,2.7727890014648438,-5.114456653594971,-7.89457893371582
1777561220178222000,14.85222216796875,2.719749927520752,-4.947831630706787,-8.01824951171875
1777561220188292900,14.86229296875,2.658965587615967,-4.78506326675415,-8.136549949645996
1777561220198333200,14.872333251953124,2.5933704376220703,-4.626749038696289,-8.248515129089355
1777561220208373200,14.882373291015625,2.5284218788146973,-4.473186492919922,-8.352729797363281
1777561220218444000,14.892444091796875,2.4662744998931885,-4.323373794555664,-8.44963550567627
1777561220228515000,14.90251513671875,2.4085400104522705,-4.180727481842041,-8.537612915039062
1777561220248656600,14.92265673828125,2.285658359527588,-3.8876054286956787,-8.708195686340332
1777561220258727400,14.9327275390625,2.27298641204834,-3.8612570762634277,-8.723224639892578
1777561220268798200,14.942798095703125,2.249182939529419,-3.801872968673706,-8.755416870117188
1777561220278838500,14.952838623046874,2.2135050296783447,-3.7285451889038086,-8.795950889587402
1777561220288909300,14.962909423828124,2.1730659008026123,-3.6681947708129883,-8.831336975097656
1777561220298949600,14.97294970703125,2.1306424140930176,-3.6236319541931152,-8.860025405883789
1777561220309020400,14.9830205078125,2.057368040084839,-3.5534770488739014,-8.905640602111816
1777561220319121700,14.99312158203125,2.0121142864227295,-3.5152981281280518,-8.931095123291016
1777561220349364500,15.023364501953125,1.9192694425582886,-3.4253692626953125,-8.98630428314209
1777561220359435300,15.033435302734375,1.8724966049194336,-3.368515729904175,-9.017607688903809
1777561220369506000,15.043506103515625,1.8659453392028809,-3.365452527999878,-9.020108222961426
1777561220379577000,15.0535771484375,1.8496716022491455,-3.3429300785064697,-9.031829833984375
1777561220389648000,15.06364794921875,1.8447166681289673,-3.330239772796631,-9.037528991699219
1777561220399688000,15.07368798828125,1.851875901222229,-3.3187153339385986,-9.040303230285645
1777561220409789400,15.08378955078125,1.8744693994522095,-3.3297221660614014,-9.031595230102539
1777561220419829800,15.093829833984374,1.907791256904602,-3.3506226539611816,-9.016875267028809
1777561220450103000,15.12410302734375,1.9779824018478394,-3.365934371948242,-8.996023178100586
1777561220460173800,15.134173828125,2.008716583251953,-3.35577130317688,-8.993010520935059
1777561220470275300,15.144275390625,2.0278117656707764,-3.372708559036255,-8.982382774353027
1777561220480346000,15.15434619140625,2.0628957748413086,-3.387573480606079,-8.968791007995605
1777561220490417000,15.1644169921875,2.100139856338501,-3.4410605430603027,-8.939737319946289
1777561220500457200,15.174457275390624,2.1323726177215576,-3.4872472286224365,-8.914175033569336
1777561220510528000,15.184528076171874,2.159118175506592,-3.516022205352783,-8.896413803100586
1777561220520598800,15.194598876953124,2.1864147186279297,-3.539578437805176,-8.880392074584961
1777561220530669600,15.204669677734374,2.2014503479003906,-3.5559611320495605,-8.870126724243164
1777561220540740400,15.214740234375,2.231485366821289,-3.5668911933898926,-8.85822582244873
1777561220581054000,15.255053955078125,2.4077391624450684,-3.5744402408599854,-8.808890342712402
1777561220591155500,15.265155517578124,2.4295945167541504,-3.5760116577148438,-8.802249908447266
1777561220601226200,15.275226318359374,2.474273681640625,-3.578789710998535,-8.788664817810059
1777561220611297000,15.285297119140624,2.5391368865966797,-3.589263677597046,-8.765863418579102
1777561220621367800,15.295367919921874,2.558151960372925,-3.596137523651123,-8.757513999938965
1777561220631469000,15.305468994140625,2.590498208999634,-3.617105007171631,-8.739352226257324
1777561220671813400,15.3458134765625,2.7113285064697266,-3.770697832107544,-8.637182235717773
1777561220681884200,15.35588427734375,2.7411134243011475,-3.790428876876831,-8.619125366210938
1777561220691985400,15.3659853515625,2.8170723915100098,-3.8298404216766357,-8.577112197875977
1777561220702025700,15.376025634765625,2.9271481037139893,-3.9057672023773193,-8.50571346282959
1777561220712127000,15.386126953125,2.9856784343719482,-3.97097110748291,-8.455028533935547
1777561220722167300,15.396167236328125,3.0106167793273926,-4.005881309509277,-8.429678916931152
1777561220732238000,15.406238037109375,3.0887277126312256,-4.122870445251465,-8.344584465026855
1777561220762450400,15.436450439453125,3.2563705444335938,-4.361634254455566,-8.157363891601562
1777561220772521200,15.446521240234375,3.2823190689086914,-4.4020915031433105,-8.125168800354004
1777561220782561500,15.4565615234375,3.3369569778442383,-4.48957633972168,-8.054739952087402
1777561220792662800,15.466662841796875,3.3859970569610596,-4.587035179138184,-7.979004383087158
1777561220802703000,15.476703125,3.444960117340088,-4.76137113571167,-7.8506035804748535
1777561220812743400,15.486743408203125,3.4591753482818604,-4.896510601043701,-7.760714054107666
1777561220822753300,15.496753173828125,3.43928861618042,-4.962768077850342,-7.727396011352539
1777561220832854500,15.5068544921875,3.395577907562256,-5.114729881286621,-7.647219181060791
1777561220842925300,15.51692529296875,3.318570375442505,-5.276589870452881,-7.57067346572876
1777561220862975500,15.5369755859375,3.0290606021881104,-5.614622592926025,-7.447899341583252
1777561220873076700,15.54707666015625,2.926717519760132,-5.817718505859375,-7.3320441246032715
1777561220883147500,15.5571474609375,2.824352741241455,-6.027491569519043,-7.201580047607422
1777561220893248800,15.567248779296875,2.712278127670288,-6.235999584197998,-7.065850734710693
1777561220903258600,15.577258544921875,2.5601978302001953,-6.549036502838135,-6.835635185241699
1777561220913360000,15.58735986328125,2.4952194690704346,-6.643396854400635,-6.768274307250977
1777561220923430700,15.5974306640625,2.36335825920105,-6.941173076629639,-6.5119147300720215
1777561220933532200,15.6075322265625,2.2819056510925293,-7.126525402069092,-6.3384480476379395
1777561220953673700,15.627673828125,2.172764301300049,-7.384659767150879,-6.0758771896362305
1777561220983855600,15.657855712890624,2.0127923488616943,-7.881155490875244,-5.477813720703125
1777561220993956900,15.667956787109375,2.0011136531829834,-7.9397358894348145,-5.396903038024902
1777561221004027600,15.678027587890625,1.9941531419754028,-8.043705940246582,-5.243331432342529
1777561221014098400,15.688098388671875,2.0019466876983643,-8.13453197479248,-5.098232746124268
1777561221024108300,15.6981083984375,2.0199246406555176,-8.213418006896973,-4.962869644165039
1777561221034179000,15.708178955078125,2.047508955001831,-8.314183235168457,-4.78042459487915
1777561221044249900,15.718249755859375,2.0549306869506836,-8.344882011413574,-4.723410129547119
1777561221074431700,15.748431640625,2.0316660404205322,-8.506383895874023,-4.436685085296631
1777561221084472000,15.75847216796875,2.026315927505493,-8.520798683166504,-4.411398410797119
1777561221094542800,15.76854296875,2.0234317779541016,-8.539969444274902,-4.375504016876221
1777561221104552400,15.778552490234375,2.0301754474639893,-8.548850059509277,-4.354992389678955
1777561221114654000,15.788654052734374,2.0427584648132324,-8.548690795898438,-4.349416255950928
1777561221124724700,15.798724853515624,2.0576257705688477,-8.540177345275879,-4.359122276306152
1777561221134826000,15.808825927734375,2.0744717121124268,-8.52234935760498,-4.385944366455078
1777561221144835800,15.8188359375,2.0939595699310303,-8.494817733764648,-4.429877758026123
1777561221175078700,15.84907861328125,2.1781928539276123,-8.320100784301758,-4.711877346038818
1777561221185149400,15.8591494140625,2.2165462970733643,-8.127293586730957,-5.020400047302246
1777561221195189800,15.869189697265625,2.281870126724243,-7.955569744110107,-5.2604522705078125
1777561221205260500,15.879260498046875,2.31589674949646,-7.834532737731934,-5.424675464630127
1777561221215331300,15.889331298828125,2.370595693588257,-7.670431137084961,-5.63162088394165
1777561221225371600,15.89937158203125,2.407672643661499,-7.418457984924316,-5.944746017456055
1777561221235442400,15.9094423828125,2.4534976482391357,-7.286064147949219,-6.088021278381348
1777561221245482800,15.919482666015625,2.4913344383239746,-7.154370307922363,-6.227250099182129
1777561221265624300,15.939624267578125,2.5071403980255127,-6.725585460662842,-6.682152271270752
1777561221285827000,15.9598271484375,2.51334810256958,-6.375257968902588,-7.014953136444092
1777561221295928300,15.96992822265625,2.5339739322662354,-6.094486236572266,-7.2530436515808105
1777561221305999000,15.9799990234375,2.549612045288086,-5.781091213226318,-7.49992561340332
1777561221316070000,15.99006982421875,2.543881893157959,-5.442559242248535,-7.750975131988525
1777561221326140700,16.000140625,2.512918710708618,-5.089260101318359,-7.9971923828125
1777561221336242000,16.010241943359375,2.4633052349090576,-4.725660800933838,-8.232294082641602
1777561221346312700,16.020312744140625,2.3900985717773438,-4.368777751922607,-8.44817066192627
1777561221356414200,16.030414306640626,2.3048083782196045,-4.014542102813721,-8.645329475402832
1777561221386626600,16.06062646484375,2.1694653034210205,-2.750385284423828,-9.159650802612305
1777561221396727800,16.070727783203125,2.1354176998138428,-2.326749801635742,-9.28421401977539
1777561221406798600,16.080798583984375,2.0975100994110107,-1.9223078489303589,-9.384860038757324
1777561221416869400,16.090869384765625,2.04953670501709,-1.5569865703582764,-9.46285343170166
1777561221426940200,16.100940185546875,1.9849075078964233,-1.2620635032653809,-9.520384788513184
1777561221447081700,16.121081787109375,1.739223837852478,-0.8684811592102051,-9.61203670501709
1777561221457152800,16.13115283203125,1.621025800704956,-0.7494727969169617,-9.642663955688477
1777561221477294300,16.15129443359375,1.3814408779144287,-0.5814031958580017,-9.69144058227539
1777561221497436000,16.171435791015625,1.132812261581421,-0.4504249691963196,-9.730582237243652
1777561221507506700,16.181506591796875,1.0114415884017944,-0.41826486587524414,-9.745381355285645
1777561221517608000,16.19160791015625,0.8935282826423645,-0.4118817448616028,-9.757170677185059
1777561221527678700,16.2016787109375,0.836301863193512,-0.4158966839313507,-9.762070655822754
1777561221537749500,16.21174951171875,0.670556902885437,-0.4666045308113098,-9.772564888000488
1777561221547789800,16.221789794921875,0.5653090476989746,-0.5142262578010559,-9.77682876586914
1777561221557860600,16.231860595703125,0.46493107080459595,-0.5689705610275269,-9.779086112976074
1777561221578002200,16.252002197265625,0.27784350514411926,-0.6900812983512878,-9.77839469909668
1777561221588042500,16.26204248046875,0.23329000174999237,-0.7217809557914734,-9.777270317077637
1777561221598143700,16.272143798828125,0.14289718866348267,-0.7888005971908569,-9.773832321166992
1777561221608214800,16.28221484375,0.07354322820901871,-0.8835619688034058,-9.766489028930664
1777561221618316000,16.29231591796875,0.010321415029466152,-0.9772953391075134,-9.75782585144043
1777561221628356400,16.3023564453125,-0.06948781758546829,-1.028206706047058,-9.752350807189941
1777561221638396700,16.312396728515626,-0.16742724180221558,-1.0742753744125366,-9.746193885803223
1777561221648467500,16.322467529296876,-0.1929035484790802,-1.0877885818481445,-9.744224548339844
1777561221658538200,16.332538330078126,-0.21886684000492096,-1.1272621154785156,-9.73918628692627
1777561221708861700,16.38286181640625,0.24702568352222443,-1.2879586219787598,-9.718567848205566
1777561221728942000,16.402942138671875,0.8394736051559448,-1.6219156980514526,-9.635095596313477
1777561221738982400,16.412982421875,1.0288480520248413,-1.8706691265106201,-9.571438789367676
1777561221749053200,16.42305322265625,1.1826101541519165,-2.1800951957702637,-9.487834930419922
1777561221759154700,16.43315478515625,1.2490612268447876,-2.350105047225952,-9.438604354858398
1777561221769225500,16.4432255859375,1.3594459295272827,-2.727787733078003,-9.321023941040039
1777561221789367000,16.463366943359375,1.4916287660598755,-3.8005642890930176,-8.916341781616211
1777561221799437800,16.473437744140625,1.4902163743972778,-4.03013277053833,-8.815195083618164
1777561221809478100,16.48347802734375,1.4493895769119263,-4.498173236846924,-8.592792510986328
1777561221819579400,16.493579345703125,1.3704575300216675,-4.971086502075195,-8.3414945602417
1777561221829619700,16.50361962890625,1.2671788930892944,-5.433760166168213,-8.064672470092773
1777561221839721000,16.513720947265625,1.1506729125976562,-5.887407302856445,-7.757884979248047
1777561221849761300,16.52376123046875,1.0333622694015503,-6.320995330810547,-7.426142692565918
1777561221859832000,16.53383203125,0.9207391738891602,-6.742061614990234,-7.061675071716309
1777561221869933300,16.543933349609375,0.8196686506271362,-7.142247200012207,-6.669846534729004
1777561221900146000,16.57414599609375,0.5948346257209778,-8.29944133758545,-5.189979076385498
1777561221920287500,16.59428759765625,0.5047095417976379,-8.660932540893555,-4.572077751159668
1777561221930358300,16.604358154296875,0.42968788743019104,-8.849835395812988,-4.203115940093994
1777561221950469400,16.624469482421876,0.273836225271225,-9.11980152130127,-3.595083236694336
1777561221960540200,16.6345400390625,0.21920856833457947,-9.220487594604492,-3.332409143447876
1777561221970611000,16.64461083984375,0.1803290992975235,-9.294742584228516,-3.1218016147613525
1777561221990783000,16.664782958984375,0.17832301557064056,-9.371343612670898,-2.883841037750244
1777561222000823300,16.6748232421875,0.21058863401412964,-9.375532150268555,-2.868004083633423
1777561222010894000,16.68489404296875,0.21517595648765564,-9.391018867492676,-2.816535234451294
1777561222020995300,16.694995361328125,0.17130231857299805,-9.408768653869629,-2.7597365379333496
1777561222031066000,16.705066162109375,0.12132862955331802,-9.415375709533691,-2.739778995513916
1777561222041137200,16.71513720703125,0.09393559396266937,-9.417450904846191,-2.7337114810943604
1777561222051208000,16.7252080078125,0.04105038940906525,-9.419498443603516,-2.7279608249664307
1777561222061309200,16.73530908203125,0.0010725976899266243,-9.42000675201416,-2.7265093326568604
1777561222071349500,16.745349609375,-0.022753683850169182,-9.419587135314941,-2.7278635501861572
1777561222101561900,16.775561767578125,-0.057779405266046524,-9.406134605407715,-2.7733893394470215
1777561222111602200,16.785602294921876,-0.07387421280145645,-9.395539283752441,-2.808699369430542
1777561222121703400,16.795703369140625,-0.1032102033495903,-9.37233829498291,-2.8842709064483643
1777561222131713300,16.80571337890625,-0.10919629037380219,-9.36253833770752,-2.915703773498535
1777561222141814500,16.815814453125,-0.11726795136928558,-9.329788208007812,-3.018563747406006
1777561222151915800,16.825915771484375,-0.10421733558177948,-9.305647850036621,-3.092637538909912
1777561222161986600,16.835986572265625,-0.07297054678201675,-9.280940055847168,-3.1668922901153564
1777561222172057300,16.846057373046875,-0.020534254610538483,-9.255578994750977,-3.241022825241089
1777561222182128000,16.856128173828125,0.054132573306560516,-9.228639602661133,-3.3165786266326904
1777561222202300400,16.876300537109376,0.20131051540374756,-9.18280029296875,-3.4359936714172363
1777561222212371200,16.88637109375,0.3169850707054138,-9.14645004272461,-3.52311635017395
1777561222222442000,16.89644189453125,0.4333569407463074,-9.103137969970703,-3.6215291023254395
1777561222232512800,16.9065126953125,0.5348871946334839,-9.05078125,-3.7373318672180176
1777561222242614000,16.916614013671875,0.6143372058868408,-8.983901023864746,-3.8836214542388916
1777561222252684800,16.926684814453125,0.6618027091026306,-8.882548332214355,-4.102772235870361
1777561222262725000,16.93672509765625,0.6782426834106445,-8.730417251586914,-4.414770126342773
1777561222272796000,16.9467958984375,0.720454216003418,-8.515639305114746,-4.809910774230957
1777561222282866700,16.95686669921875,0.7360799312591553,-8.429452896118164,-4.9571075439453125
1777561222323150000,16.997150146484376,1.1204545497894287,-7.248228073120117,-6.509851455688477
1777561222333220900,17.007220947265626,1.2347394227981567,-6.812420845031738,-6.945268154144287
1777561222343291600,17.017291748046876,1.3286352157592773,-6.335512638092041,-7.366575241088867
1777561222353393000,17.027392822265625,1.3977057933807373,-5.8238139152526855,-7.765305995941162
1777561222363494100,17.037494140625,1.469689965248108,-5.007326126098633,-8.302836418151855
1777561222373565000,17.04756494140625,1.5131239891052246,-4.435432434082031,-8.614395141601562
1777561222403777500,17.077777587890626,1.6289294958114624,-2.6599905490875244,-9.29738998413086
1777561222413848300,17.087848388671876,1.6491408348083496,-2.3682591915130615,-9.372410774230957
1777561222423919000,17.097919189453126,1.704603910446167,-1.8108201026916504,-9.486078262329102
1777561222434020400,17.108020263671875,1.8070509433746338,-1.0504082441329956,-9.581315994262695
1777561222444091100,17.118091064453125,1.8677430152893066,-0.6122012138366699,-9.607661247253418
1777561222454162000,17.128161865234375,1.8851374387741089,-0.4420118033885956,-9.613598823547363
1777561222464202200,17.1382021484375,1.8077526092529297,-0.38570713996887207,-9.630868911743164
1777561222474242600,17.14824267578125,1.7965809106826782,-0.14929243922233582,-9.639521598815918
1777561222484343800,17.15834375,1.7676467895507812,0.03999035805463791,-9.645943641662598
1777561222514586600,17.188586669921875,1.6085838079452515,0.3729465901851654,-9.666630744934082
1777561222534728400,17.208728515625,1.4966846704483032,0.360172301530838,-9.685070991516113
1777561222544768500,17.2187685546875,1.433918833732605,0.20414836704730988,-9.699103355407715
1777561222554808800,17.228808837890625,1.4151514768600464,0.013640256598591805,-9.703996658325195
1777561222564879600,17.238879638671875,1.3753308057785034,-0.1118178740143776,-9.709086418151855
1777561222574920000,17.248919921875,1.3282063007354736,-0.19759397208690643,-9.714280128479004
1777561222615172600,17.289172607421875,1.2314399480819702,-0.21111468970775604,-9.72673511505127
1777561222625243400,17.299243408203125,1.256459355354309,-0.1545896828174591,-9.724599838256836
1777561222635314200,17.309314208984375,1.2980899810791016,-0.09846709668636322,-9.719860076904297
1777561222645385000,17.319385009765625,1.3518773317337036,-0.03387508913874626,-9.712964057922363
1777561222655456000,17.3294560546875,1.3711209297180176,-0.0014244798803701997,-9.71032428741455
1777561222665526800,17.33952685546875,1.3797768354415894,0.01827332377433777,-9.70908260345459
1777561222675536400,17.349536376953125,1.3858002424240112,0.013809914700686932,-9.708232879638672
1777561222685638000,17.359637939453126,1.3894128799438477,0.0019666238222271204,-9.707724571228027
1777561222715880700,17.389880615234375,1.4425427913665771,-0.31837475299835205,-9.694746017456055
1777561222725951500,17.399951416015625,1.4708139896392822,-0.5303966403007507,-9.681207656860352
1777561222736022300,17.410022216796875,1.4988336563110352,-0.7951251268386841,-9.65876293182373
1777561222746123500,17.42012353515625,1.5158790349960327,-1.1108235120773315,-9.624895095825195
1777561222756194300,17.4301943359375,1.5034259557724,-1.6537444591522217,-9.548572540283203
1777561222766265000,17.44026513671875,1.4734187126159668,-2.049947500228882,-9.476136207580566
1777561222776336100,17.450336181640626,1.4533518552780151,-2.258479595184326,-9.43172550201416
1777561222786407000,17.460406982421876,1.392393708229065,-2.6877753734588623,-9.32778263092041
1777561222796447000,17.470447021484375,1.3102142810821533,-3.1304681301116943,-9.200756072998047
1777561222816588800,17.4905888671875,1.068880558013916,-4.037856578826904,-8.872633934020996
1777561222826659600,17.50065966796875,0.9227519631385803,-4.498464584350586,-8.665031433105469
1777561222836699600,17.51069970703125,0.7768102884292603,-4.952139854431152,-8.428716659545898
1777561222846740000,17.520739990234375,0.6467746496200562,-5.394593715667725,-8.163971900939941
1777561222856780300,17.5307802734375,0.5172057151794434,-6.032980442047119,-7.714015960693359
1777561222866851000,17.54085107421875,0.4868783950805664,-6.235645771026611,-7.553149223327637
1777561222876921900,17.550921875,0.468033105134964,-6.632688522338867,-7.208245277404785
1777561222887023400,17.5610234375,0.4916948676109314,-7.011417388916016,-6.838761329650879
1777561222897094100,17.57109423828125,0.5578732490539551,-7.365185737609863,-6.450830459594727
1777561222927276000,17.601276123046876,0.966427743434906,-8.251005172729492,-5.2112717628479
1777561222937316400,17.61131640625,1.1473162174224854,-8.478062629699707,-4.793383598327637
1777561222947356400,17.6213564453125,1.3392784595489502,-8.670308113098145,-4.3820648193359375
1777561222957396700,17.631396728515625,1.5336267948150635,-8.827306747436523,-3.987107992172241
1777561222967467500,17.641467529296875,1.7223347425460815,-8.95138168334961,-3.6161751747131348
1777561222977507800,17.6515078125,1.895467758178711,-9.044036865234375,-3.2837460041046143
1777561222987609000,17.661609130859375,2.0466578006744385,-9.108393669128418,-3.003124952316284
1777561222997679900,17.671679931640625,2.1731183528900146,-9.15137767791748,-2.7749288082122803
1777561223027861800,17.70186181640625,2.3860878944396973,-9.212848663330078,-2.3665173053741455
1777561223048003600,17.722003662109376,2.291170120239258,-9.2024564743042,-2.4971415996551514
1777561223058043600,17.732043701171875,2.259704351425171,-9.209628105163574,-2.4993784427642822
1777561223068114700,17.74211474609375,2.22178316116333,-9.217287063598633,-2.505133628845215
1777561223078185500,17.752185546875,2.168793201446533,-9.222469329833984,-2.5323452949523926
1777561223088256300,17.76225634765625,2.046874761581421,-9.218110084533691,-2.6470978260040283
1777561223098327000,17.7723271484375,1.965762972831726,-9.209607124328613,-2.736666440963745
1777561223118499000,17.7924990234375,1.819198489189148,-9.16411018371582,-2.9799320697784424
1777561223138640600,17.812640625,1.742024302482605,-9.103821754455566,-3.2025253772735596
1777561223148711400,17.82271142578125,1.7088085412979126,-9.051433563232422,-3.3648037910461426
1777561223158782200,17.8327822265625,1.68740713596344,-8.99024486541748,-3.5353312492370605
1777561223168883700,17.8428837890625,1.675886869430542,-8.9208345413208,-3.712214469909668
1777561223178923800,17.852923828125,1.6731141805648804,-8.844230651855469,-3.8923888206481934
1777561223188994800,17.862994873046876,1.6840382814407349,-8.716612815856934,-4.165942668914795
1777561223199035000,17.873034912109375,1.6904151439666748,-8.67105770111084,-4.257423400878906
1777561223209105700,17.883105712890625,1.7221205234527588,-8.521502494812012,-4.5374755859375
1777561223239226600,17.9132265625,1.7818275690078735,-8.233918190002441,-5.019771099090576
1777561223249267000,17.923266845703125,1.7962422370910645,-8.104710578918457,-5.220880508422852
1777561223259337700,17.933337646484375,1.8089430332183838,-7.896237373352051,-5.526985168457031
1777561223269439000,17.94343896484375,1.8120795488357544,-7.821675777435303,-5.631000995635986
1777561223279509800,17.953509765625,1.8343420028686523,-7.58760404586792,-5.935810565948486
1777561223289611300,17.963611328125,1.859657645225525,-7.419217109680176,-6.137368679046631
1777561223299651300,17.9736513671875,1.8943898677825928,-7.242140769958496,-6.3350677490234375
1777561223309722000,17.98372216796875,1.9403091669082642,-7.053321838378906,-6.531176567077637
1777561223350036000,18.024035888671875,2.148771047592163,-6.261783123016357,-7.234862327575684
1777561223360076300,18.034076171875,2.1483287811279297,-5.829664707183838,-7.58749532699585
1777561223370147000,18.04414697265625,2.149338722229004,-5.550947189331055,-7.793442249298096
1777561223380217900,18.0542177734375,2.148380756378174,-5.27282190322876,-7.984496593475342
1777561223390319000,18.064319091796875,2.1178247928619385,-4.964398384094238,-8.187793731689453
1777561223400390000,18.074389892578125,2.03609561920166,-4.6589460372924805,-8.385638236999512
1777561223410491400,18.084491455078126,1.9162331819534302,-4.34040641784668,-8.582501411437988
1777561223440673300,18.11467333984375,1.607817530632019,-3.3966052532196045,-9.058055877685547
1777561223460814800,18.13481494140625,1.4227200746536255,-2.1243221759796143,-9.467497825622559
1777561223470855200,18.144855224609376,1.3521500825881958,-1.6085309982299805,-9.578868865966797
1777561223480895200,18.154895263671875,1.2986152172088623,-1.1216758489608765,-9.655354499816895
1777561223490966000,18.164966064453125,1.2580103874206543,-0.6495755910873413,-9.703909873962402
1777561223501006300,18.17500634765625,1.2132649421691895,-0.1971137970685959,-9.729312896728516
1777561223511077000,18.1850771484375,1.1469684839248657,0.21575872600078583,-9.736956596374512
1777561223541289700,18.215289794921876,0.84141606092453,0.9731782078742981,-9.721899032592773
1777561223551360500,18.225360595703126,0.7464843392372131,1.0540344715118408,-9.721222877502441
1777561223561400600,18.235400634765625,0.7625919580459595,1.0271351337432861,-9.722851753234863
1777561223571502000,18.245502197265626,0.745297372341156,0.9159572124481201,-9.735294342041016
1777561223581572900,18.25557275390625,0.75316321849823,0.7749115228652954,-9.746929168701172
1777561223591674000,18.265674072265625,0.6620945334434509,0.6501234769821167,-9.762652397155762
1777561223601714400,18.27571435546875,0.6877094507217407,0.4135914742946625,-9.773759841918945
1777561223611785200,18.28578515625,0.7398222088813782,0.26713261008262634,-9.775055885314941
1777561223652068400,18.326068359375,1.465114951133728,-1.0838682651519775,-9.635822296142578
1777561223662078200,18.336078125,1.5779913663864136,-1.4322654008865356,-9.572301864624023
1777561223672179500,18.346179443359375,1.6506153345108032,-1.5770347118377686,-9.537233352661133
1777561223682219800,18.3562197265625,1.7375986576080322,-1.8637992143630981,-9.469815254211426
1777561223692321000,18.366321044921875,1.8107699155807495,-2.052659749984741,-9.416905403137207
1777561223702300400,18.376300537109376,1.8871060609817505,-2.2218189239501953,-9.363371849060059
1777561223712401700,18.386401611328125,1.9751547574996948,-2.378572940826416,-9.306532859802246
1777561223722472400,18.396472412109375,2.0270817279815674,-2.4617137908935547,-9.273689270019531
1777561223752623900,18.426623779296875,2.35886812210083,-2.8384227752685547,-9.085674285888672
1777561223762694700,18.436694580078125,2.4724035263061523,-2.967536449432373,-9.013952255249023
1777561223772796000,18.4467958984375,2.5712814331054688,-3.19433856010437,-8.908147811889648
1777561223782836200,18.456836181640625,2.6859097480773926,-3.28792405128479,-8.840014457702637
1777561223792937500,18.4669375,2.7964999675750732,-3.3579719066619873,-8.779179573059082
1777561223802977800,18.476977783203125,2.9022958278656006,-3.413926124572754,-8.723082542419434
1777561223813018000,18.48701806640625,3.018733263015747,-3.457646369934082,-8.666158676147461
1777561223823058400,18.497058349609375,3.153391122817993,-3.486055374145508,-8.606622695922852
1777561223833159700,18.50715966796875,3.342618227005005,-3.53977632522583,-8.512772560119629
1777561223863311000,18.53731103515625,3.572861433029175,-3.768108367919922,-8.319038391113281
1777561223873412400,18.547412353515625,3.682793617248535,-4.029466152191162,-8.146830558776855
1777561223883422200,18.557422119140625,3.7191948890686035,-4.127326011657715,-8.081036567687988
1777561223893523500,18.5675234375,3.797041177749634,-4.346244812011719,-7.9286208152771
1777561223903563800,18.577563720703125,3.8675155639648438,-4.585707664489746,-7.7578349113464355
1777561223913634600,18.587634521484375,3.9203996658325195,-4.84433126449585,-7.571877956390381
1777561223923735800,18.59773583984375,3.951044797897339,-5.124392509460449,-7.368869304656982
1777561223943847000,18.617846923828125,3.9456253051757812,-5.729287147521973,-6.912140846252441
1777561223953917700,18.627917724609375,3.912494659423828,-6.042661666870117,-6.6595048904418945
1777561223963958000,18.6379580078125,3.8644027709960938,-6.350193500518799,-6.396235466003418
1777561223974028800,18.64802880859375,3.80667781829834,-6.64674186706543,-6.123757839202881
1777561223984099600,18.658099609375,3.745514154434204,-6.923868656158447,-5.848208427429199
1777561223994170400,18.66817041015625,3.682655096054077,-7.17734432220459,-5.576215744018555
1777561224004180200,18.67818017578125,3.6055049896240234,-7.3969831466674805,-5.334356307983398
1777561224014281500,18.688281494140625,3.5062177181243896,-7.5720415115356445,-5.151798248291016
1777561224024352300,18.698352294921875,3.4733266830444336,-7.769473075866699,-4.872542381286621
1777561224064635600,18.7386357421875,3.4908180236816406,-8.416459083557129,-3.6259913444519043
1777561224074706400,18.74870654296875,3.5165529251098633,-8.532166481018066,-3.3175888061523438
1777561224084716000,18.758716064453125,3.5446529388427734,-8.631620407104492,-3.016782522201538
1777561224094817500,18.768817626953126,3.5691707134246826,-8.72000503540039,-2.718996286392212
1777561224104827100,18.7788271484375,3.58656907081604,-8.79788589477539,-2.4298393726348877
1777561224114898000,18.78889794921875,3.595700263977051,-8.866976737976074,-2.148970127105713
1777561224124938200,18.798938232421875,3.6007306575775146,-8.926071166992188,-1.878929615020752
1777561224134978600,18.808978515625,3.618555784225464,-8.991302490234375,-1.4942951202392578
1777561224165160400,18.839160400390625,3.712231159210205,-9.032095909118652,-0.9005486369132996
1777561224175261700,18.84926171875,3.774566888809204,-9.02517032623291,-0.6850777864456177
1777561224185332500,18.85933251953125,3.84342885017395,-9.008930206298828,-0.48746994137763977
1777561224195403300,18.8694033203125,3.9458086490631104,-8.974824905395508,-0.23132629692554474
1777561224205474300,18.879474365234376,4.0095319747924805,-8.949115753173828,-0.0858338251709938
1777561224225616000,18.899615966796876,4.098199367523193,-8.90874195098877,0.09737170487642288
