time,seconds_elapsed,z,y,x
1777561205200481000,-0.12551904296875,-0.14604631066322327,-0.38067805767059326,0.023942016065120697
1777561205220522500,-0.1054775390625,0.17956513166427612,-0.15801730751991272,0.016759412363171577
1777561205240233700,-0.085766357421875,0.35673606395721436,-0.011971008032560349,-0.05985504388809204
1777561205260344800,-0.0656552734375,0.5530605912208557,-0.1149216815829277,-0.16759411990642548
1777561205270446000,-0.055553955078125,0.4812345504760742,-0.08619125932455063,-0.19871874153614044
1777561205280486400,-0.045513671875,0.35673606395721436,0.047884032130241394,-0.24181437492370605
1777561205300628000,-0.0253720703125,0.45250412821769714,0.15801730751991272,-0.23702596127986908
1777561205310668300,-0.015331787109375,0.40940847992897034,0.18914192914962769,-0.2346317619085312
1777561205330749000,0.0047490234375,0.5363011956214905,0.07661445438861847,-0.26815059781074524
1777561205350921000,0.0249208984375,0.507570743560791,-0.031124621629714966,-0.40701428055763245
1777561205371062500,0.0450625,0.395043283700943,-0.038307227194309235,-0.42377370595932007
1777561205391204000,0.0652041015625,0.21547815203666687,-0.40222588181495667,-0.5363011956214905
1777561205411315200,0.085315185546875,0.05267243832349777,-0.730231523513794,-0.6200982332229614
1777561205431426300,0.10542626953125,-0.05506663769483566,-0.3519476354122162,-0.8738836050033569
1777561205461608200,0.135608154296875,-1.2473790645599365,-0.2106897532939911,-0.9169792532920837
1777561205471679000,0.145678955078125,-1.1204863786697388,-0.7182605266571045,-0.524330198764801
1777561205481688800,0.155688720703125,-0.9409212470054626,-1.3718775510787964,-0.26336219906806946
1777561205491790000,0.1657900390625,-0.7972691655158997,-1.4700398445129395,-0.22026655077934265
1777561205501830400,0.175830322265625,-0.6727706789970398,-1.3096283674240112,0.0071826050989329815
1777561205511870700,0.18587060546875,-0.19632454216480255,-0.9648633003234863,0.05027823522686958
1777561205521941500,0.19594140625,-0.002394201699644327,-0.7398083209991455,-0.0071826050989329815
1777561205552153900,0.22615380859375,0.6655880808830261,-0.3256114423274994,0.0071826050989329815
1777561205602477300,0.276477294921875,0.11252748221158981,-0.8571242094039917,0.14365209639072418
1777561205622649600,0.296649658203125,-0.1628057211637497,-0.4644751250743866,0.2322375625371933
1777561205683074300,0.35707421875,-2.4660277366638184,0.5219359993934631,0.8738836050033569
1777561205733428200,0.40742822265625,-2.8658595085144043,0.4572925269603729,0.7996633648872375
1777561205743468500,0.417468505859375,-2.868253707885742,0.7493851184844971,0.6057330369949341
1777561205753508900,0.4275087890625,-2.9664158821105957,0.871489405632019,0.5817909836769104
1777561205763610000,0.437610107421875,-3.0095114707946777,1.2042834758758545,0.47165772318840027
1777561205773681000,0.447680908203125,-3.1699230670928955,1.6184803247451782,0.2513911724090576
1777561205803862800,0.47786279296875,-4.127603530883789,2.2026655673980713,-0.5793967843055725
1777561205834044700,0.508044677734375,-3.7445313930511475,3.9911341667175293,-0.7924807667732239
1777561205884398800,0.55839892578125,-4.888959884643555,2.499546527862549,-1.647210717201233
1777561205894500000,0.5685,-5.125985622406006,1.7956513166427612,-1.745373010635376
1777561205914611200,0.588611083984375,-5.87776517868042,0.6607996821403503,-1.778891921043396
1777561205934722300,0.608722412109375,-5.975927352905273,-0.730231523513794,-2.31758713722229
1777561205995086000,0.669086181640625,-2.940079689025879,-1.644816517829895,-3.3207578659057617
1777561206015227600,0.6892275390625,-1.6376339197158813,-3.691859006881714,-5.063736438751221
1777561206025298400,0.69929833984375,-1.8698714971542358,-5.013458251953125,-5.535394191741943
1777561206035338800,0.7093388671875,-1.4197616577148438,-5.348646640777588,-5.612008571624756
1777561206045409500,0.719409423828125,-0.09816227108240128,-5.363011837005615,-5.944802761077881
1777561206055449900,0.729449951171875,0.8643068075180054,-5.473145008087158,-6.502651691436768
1777561206075591400,0.74959130859375,3.4189200401306152,-5.837063789367676,-8.214506149291992
1777561206105773300,0.779773193359375,5.475539207458496,-7.5201873779296875,-8.645462036132812
1777561206156096800,0.8300966796875,1.9776105880737305,-12.524068832397461,-1.8602946996688843
1777561206176177400,0.850177490234375,2.070984363555908,-11.578359603881836,-0.363918662071228
1777561206196319000,0.870319091796875,1.7525556087493896,-9.938331604003906,-0.7589619159698486
1777561206236724200,0.91072412109375,3.2800562381744385,-8.53532886505127,1.1037269830703735
1777561206266906000,0.940906005859375,3.531447410583496,-9.916783332824707,1.9393033981323242
1777561206307158800,0.98115869140625,1.5514427423477173,-9.706093788146973,2.0590133666992188
1777561206367583500,1.04158349609375,-0.17477671802043915,-7.175422668457031,0.4644751250743866
1777561206438079200,1.112079345703125,-1.8626888990402222,-3.912125587463379,-1.1228805780410767
1777561206498504000,1.17250390625,-2.123656988143921,-1.7717092037200928,-1.7046716213226318
1777561206579039700,1.253039794921875,-3.069366693496704,0.6320692300796509,-1.1324573755264282
1777561206619231500,1.2932314453125,-3.0334534645080566,1.2832920551300049,-2.169146776199341
1777561206649443800,1.32344384765625,-2.542642116546631,1.4077905416488647,-3.0190882682800293
1777561206689696500,1.363696533203125,-1.8531121015548706,1.965639591217041,-4.565742492675781
1777561206719878400,1.39387841796875,-2.6839001178741455,3.1076738834381104,-5.530605792999268
1777561206729949200,1.40394921875,-2.6024973392486572,3.2345664501190186,-5.446808815002441
1777561206770201900,1.444201904296875,-0.768538773059845,4.039018154144287,-3.0310592651367188
1777561206780273000,1.45427294921875,-0.8834604024887085,5.114014625549316,-1.8746598958969116
1777561206810454500,1.48445458984375,-2.0207061767578125,7.3693528175354,0.038307227194309235
1777561206820556000,1.49455615234375,-2.229001760482788,6.845022678375244,-0.272938996553421
1777561206840758500,1.514758544921875,-1.9321208000183105,5.279214859008789,-1.8555063009262085
1777561206850829300,1.524829345703125,-1.7597382068634033,4.687847137451172,-2.535459518432617
1777561206871001600,1.545001708984375,-1.5155296325683594,4.005499362945557,-2.9903578758239746
1777561206881102800,1.555102783203125,-1.5921441316604614,3.7876269817352295,-3.0334534645080566
1777561206901275000,1.57527490234375,-2.075772762298584,2.849100112915039,-3.0190882682800293
1777561206921355500,1.59535546875,-2.4588451385498047,1.8483237028121948,-2.8203697204589844
1777561206941527600,1.615527587890625,-2.4588451385498047,0.5123591423034668,-2.406172752380371
1777561206971740200,1.645740234375,-2.0254945755004883,-1.5442601442337036,-2.121262788772583
1777561207042205200,1.716205078125,-0.9983820915222168,-4.896142482757568,0.21547815203666687
1777561207082457900,1.756457763671875,2.075772762298584,-5.463568210601807,2.542642116546631
1777561207132750800,1.806750732421875,0.6129156351089478,-4.2329487800598145,5.051765441894531
1777561207142852000,1.81685205078125,0.5147533416748047,-4.206612586975098,5.157110691070557
1777561207152923000,1.8269228515625,0.49799394607543945,-4.599261283874512,5.154716491699219
1777561207163024100,1.837024169921875,0.7038952708244324,-5.188235282897949,4.881777286529541
1777561207183135200,1.85713525390625,1.2976573705673218,-6.196194171905518,4.613626480102539
1777561207203276800,1.87727685546875,1.4413094520568848,-6.366182327270508,4.876988887786865
1777561207223449000,1.897448974609375,1.091755986213684,-6.402095317840576,5.1810526847839355
1777561207263762700,1.9377626953125,1.3287819623947144,-6.868964672088623,4.235342979431152
1777561207303954400,1.977954345703125,1.778891921043396,-7.010222434997559,1.4652514457702637
1777561207344207000,2.01820703125,2.7246015071868896,-7.843404769897461,-5.95677375793457
1777561207414641700,2.0886416015625,-1.3766659498214722,-7.6111674308776855,-9.801861763000488
1777561207485015300,2.159015380859375,-1.194706678390503,-3.4739866256713867,-3.141192674636841
1777561207575499800,2.249499755859375,-2.449268341064453,-0.35434186458587646,-0.49559974670410156
1777561207666045400,2.34004541015625,-2.9712042808532715,4.546588897705078,-2.094926595687866
1777561207676085800,2.350085693359375,-3.00711727142334,4.927267074584961,-2.1164743900299072
1777561207686156500,2.360156494140625,-2.8395233154296875,5.207388877868652,-2.030282974243164
1777561207696196900,2.37019677734375,-3.0597896575927734,5.011064052581787,-2.0183119773864746
1777561207716277500,2.390277587890625,-2.7222073078155518,5.324704647064209,-2.2146365642547607
1777561207726348300,2.400348388671875,-2.6192567348480225,5.664681434631348,-2.2457611560821533
1777561207736419000,2.410419189453125,-2.456450939178467,5.779603004455566,-2.1739351749420166
1777561207746459400,2.42045947265625,-2.1284453868865967,5.832275390625,-2.0039467811584473
1777561207776641300,2.450641357421875,-0.7805097699165344,4.9368438720703125,-2.0039467811584473
1777561207816894000,2.49089404296875,-1.7357962131500244,5.377377033233643,-2.6168625354766846
1777561207826964700,2.50096484375,-2.2912509441375732,5.971138954162598,-2.6671407222747803
1777561207847106300,2.521106201171875,-1.8555063009262085,4.683058738708496,-3.8498764038085938
1777561207887420000,2.561419921875,0.7110779285430908,0.7326257228851318,-4.398148536682129
1777561207897490700,2.57149072265625,0.9576807022094727,-0.2561795711517334,-4.290409564971924
1777561207907592200,2.58159228515625,1.3910311460494995,-0.7781155705451965,-4.094084739685059
1777561207917632500,2.591632568359375,1.647210717201233,-0.40701428055763245,-3.845088005065918
1777561207927703300,2.601703369140625,1.7884687185287476,0.23942017555236816,-3.687070608139038
1777561207937774000,2.611774169921875,1.7717092037200928,0.706289529800415,-3.423708438873291
1777561207957885200,2.63188525390625,1.4652514457702637,1.237802267074585,-2.676717519760132
1777561207978026800,2.65202685546875,0.22505496442317963,2.5282769203186035,-2.03507137298584
1777561208008239000,2.682239013671875,-1.235408067703247,2.473210334777832,-1.3407529592514038
1777561208018279400,2.692279541015625,-1.522712230682373,1.9823989868164062,-1.194706678390503
1777561208028319700,2.70231982421875,-1.4700398445129395,1.3335703611373901,-1.115697979927063
1777561208038329300,2.712329345703125,-1.4915876388549805,0.993593692779541,-0.8355764150619507
1777561208058501600,2.732501708984375,-1.5849615335464478,0.871489405632019,0.10534487664699554
1777561208078582000,2.75258203125,-1.170764684677124,0.016759412363171577,0.48602294921875
1777561208088652800,2.76265283203125,-0.6536170840263367,-0.751779317855835,0.40462008118629456
1777561208108764000,2.782763916015625,-0.5793967843055725,-2.030282974243164,-0.3495534360408783
1777561208159057000,2.833056884765625,-0.1628057211637497,-3.552995204925537,0.35913026332855225
1777561208179198500,2.853198486328125,-0.44771572947502136,-3.272873640060425,0.7398083209991455
1777561208189269200,2.863269287109375,-0.21308395266532898,-2.427720546722412,0.6847416758537292
1777561208199340000,2.873340087890625,0.07661445438861847,-2.1978771686553955,0.569819986820221
1777561208209441500,2.883441650390625,0.8475474119186401,-1.5658079385757446,0.5746083855628967
1777561208219512300,2.89351220703125,1.580173134803772,-1.2641384601593018,0.3663128614425659
1777561208269835800,2.943835693359375,6.222530364990234,-2.9257144927978516,-2.829946517944336
1777561208279876000,2.9538759765625,5.944802761077881,-3.9049429893493652,-3.050212860107422
1777561208289977300,2.963977294921875,5.231330871582031,-4.129997730255127,-3.3231520652770996
1777561208310088400,2.98408837890625,4.955997467041016,-5.006275653839111,-6.117185115814209
1777561208350371600,3.02437158203125,6.021417140960693,-10.498574256896973,-5.736507415771484
1777561208380553500,3.054553466796875,4.534617900848389,-10.127472877502441,-2.8347349166870117
1777561208390655000,3.064655029296875,4.63517427444458,-9.727641105651855,-3.2800562381744385
1777561208410796500,3.084796630859375,5.3797712326049805,-8.779537200927734,-3.1316158771514893
1777561208451018500,3.1250185546875,3.397372245788574,-7.208941459655762,0.40701428055763245
1777561208471160300,3.145160400390625,2.4803929328918457,-5.959167957305908,1.7142484188079834
1777561208531524000,3.205524169921875,0.47405192255973816,-4.2329487800598145,2.161964178085327
1777561208581816800,3.25581689453125,-1.1204863786697388,-2.849100112915039,1.3886369466781616
1777561208591918300,3.26591845703125,-1.0534487962722778,-2.4372973442077637,0.9816226959228516
1777561208652343000,3.326343017578125,-0.7852981686592102,1.091755986213684,-1.5682021379470825
1777561208682586000,3.356586181640625,-1.2042834758758545,2.432508945465088,-1.766920804977417
1777561208722869200,3.396869140625,-2.346317768096924,3.155557870864868,-2.80361008644104
1777561208763091500,3.437091552734375,-2.142810583114624,2.1068975925445557,-3.6727054119110107
1777561208803252500,3.47725244140625,-0.629675030708313,2.4899697303771973,-4.671087741851807
1777561208853576000,3.527575927734375,-0.12210428714752197,2.0614075660705566,-3.914519786834717
1777561208924041000,3.598041015625,1.4221558570861816,3.1268274784088135,-1.4939818382263184
1777561208934112000,3.608112060546875,1.1779472827911377,3.627215623855591,-1.2832920551300049
1777561208944152000,3.618152099609375,0.6919242739677429,3.9624037742614746,-0.9648633003234863
1777561208954192400,3.6281923828125,0.23702596127986908,4.082113742828369,-0.6512228846549988
1777561208964263200,3.63826318359375,-0.05027823522686958,3.7924153804779053,-0.40940847992897034
1777561208974303500,3.648303466796875,-0.35673606395721436,3.466804027557373,-0.30885201692581177
1777561208984374300,3.658374267578125,-0.7086837291717529,3.0573954582214355,-0.12689268589019775
1777561209044768500,3.7187685546875,-1.0869675874710083,2.3918075561523438,1.5514427423477173
1777561209064910300,3.738910400390625,-0.7924807667732239,1.7956513166427612,1.5969325304031372
1777561209074950400,3.748950439453125,-0.706289529800415,1.4460978507995605,1.479616641998291
1777561209085021200,3.759021240234375,-0.6943184733390808,1.0223240852355957,1.4389152526855469
1777561209095122700,3.769122802734375,-0.7805097699165344,0.7469909191131592,1.4844050407409668
1777561209105193500,3.779193359375,-0.849941611289978,0.48602294921875,1.5131354331970215
1777561209135436300,3.809436279296875,-1.0965443849563599,-0.4884171485900879,1.0893617868423462
1777561209145476600,3.8194765625,-1.2713210582733154,-0.8810662031173706,0.5937620401382446
1777561209155547400,3.82954736328125,-1.290474772453308,-1.1204863786697388,0.10773907601833344
1777561209165618200,3.8396181640625,-1.400607943534851,-1.4269442558288574,-0.10534487664699554
1777561209175689000,3.84968896484375,-1.41257905960083,-1.6400281190872192,-0.14604631066322327
1777561209185729300,3.859729248046875,-1.3000515699386597,-2.056619167327881,-0.05027823522686958
1777561209226012400,3.900012451171875,-1.460463047027588,-3.2345664501190186,0.4405331015586853
1777561209236083200,3.910083251953125,-1.2330138683319092,-3.246537446975708,0.07661445438861847
1777561209256225000,3.93022509765625,0.17238251864910126,-4.333505153656006,-2.011129379272461
1777561209266265000,3.94026513671875,1.256955862045288,-5.169081687927246,-3.157952070236206
1777561209276305400,3.950305419921875,2.27209734916687,-6.098031520843506,-3.9671921730041504
1777561209286376200,3.960376220703125,2.9520506858825684,-6.995857238769531,-4.553771495819092
1777561209296477700,3.970477783203125,2.7988216876983643,-7.766790390014648,-5.647922039031982
1777561209316619300,3.990619384765625,5.099649429321289,-11.001357078552246,-10.824186325073242
1777561209346770700,4.020770751953125,3.0789434909820557,-10.448296546936035,-7.5201873779296875
1777561209356841500,4.030841552734375,1.8507179021835327,-9.440337181091309,-5.2265424728393555
1777561209366912300,4.040912353515625,1.647210717201233,-9.23682975769043,-4.448426723480225
1777561209376983000,4.050983154296875,2.5929205417633057,-9.294290542602539,-4.67827033996582
1777561209387023400,4.0610234375,3.821146011352539,-9.186552047729492,-5.293580055236816
1777561209397063400,4.0710634765625,4.836287498474121,-8.468291282653809,-5.521028995513916
1777561209417144000,4.09114404296875,5.147533416748047,-7.307103633880615,-4.8937482833862305
1777561209437255200,4.111255126953125,4.548983097076416,-6.342240333557129,-1.9967641830444336
1777561209447295500,4.12129541015625,3.9839515686035156,-6.347028732299805,-0.5770025849342346
1777561209457335800,4.131335693359375,3.270479440689087,-6.50025749206543,0.5650315880775452
1777561209467376000,4.141376220703125,2.6671407222747803,-6.514622688293457,1.316810965538025
1777561209477416400,4.15141650390625,2.3965959548950195,-6.421248912811279,1.8411411046981812
1777561209487456500,4.16145654296875,2.2242133617401123,-6.366182327270508,2.0159177780151367
1777561209497496800,4.171496826171875,2.164358377456665,-6.423643112182617,2.0614075660705566
1777561209507537200,4.181537109375,2.1140801906585693,-6.404489517211914,2.013523578643799
1777561209517608000,4.19160791015625,1.7190368175506592,-6.588842868804932,2.0877439975738525
1777561209557860600,4.231860595703125,0.16998831927776337,-3.670311212539673,2.1595699787139893
1777561209567931400,4.241931396484375,-0.023942016065120697,-2.2816741466522217,2.1092917919158936
1777561209577971700,4.2519716796875,-0.15562310814857483,-1.4197616577148438,2.1356279850006104
1777561209588042500,4.26204248046875,-0.16519992053508759,-0.6799532771110535,2.1356279850006104
1777561209598113300,4.27211328125,-0.22744916379451752,-0.1604115068912506,2.231395959854126
1777561209608153600,4.282153564453125,-0.20350714027881622,0.569819986820221,2.161964178085327
1777561209628295200,4.302295166015625,0.009576806798577309,0.4357447028160095,1.8555063009262085
1777561209648436700,4.322436767578125,-0.15562310814857483,0.21308395266532898,0.730231523513794
1777561209658507500,4.332507568359375,-0.4118026793003082,0.5578489899635315,0.21547815203666687
1777561209668578600,4.34257861328125,-0.7541735172271729,1.3024457693099976,-0.21547815203666687
1777561209678649300,4.3526494140625,-1.170764684677124,2.2361843585968018,-0.363918662071228
1777561209688689400,4.362689453125,-1.6615760326385498,2.741360902786255,-0.3423708379268646
1777561209698760200,4.37276025390625,-2.1284453868865967,3.181894063949585,-0.20350714027881622
1777561209708800500,4.382800537109375,-2.5258827209472656,3.337517261505127,-0.31842881441116333
1777561209728942000,4.402942138671875,-2.9496564865112305,3.421314239501953,-0.9552865028381348
1777561209749053200,4.42305322265625,-3.1244332790374756,2.6360161304473877,-2.0207061767578125
1777561209759093500,4.433093505859375,-2.937685489654541,3.023876667022705,-2.604891538619995
1777561209769164300,4.443164306640625,-2.736572504043579,3.3231520652770996,-3.1028854846954346
1777561209779235000,4.453235107421875,-2.537853717803955,3.136404275894165,-3.3470940589904785
1777561209789275400,4.463275390625,-2.054224967956543,3.2776620388031006,-3.464409828186035
1777561209799346200,4.47334619140625,-1.5466543436050415,3.1220390796661377,-3.552995204925537
1777561209809386500,4.483386474609375,-1.6831238269805908,2.8443117141723633,-3.4787750244140625
1777561209819457300,4.493457275390625,-1.9847931861877441,2.6575639247894287,-3.4811692237854004
1777561209829528000,4.503528076171875,-2.1332337856292725,2.276885747909546,-3.6080620288848877
1777561209859771100,4.533771240234375,-0.31124621629714966,0.4836287498474121,-4.824316501617432
1777561209869842000,4.543842041015625,0.42856210470199585,-0.3687070608139038,-5.015852451324463
1777561209879943200,4.553943115234375,0.8140285611152649,-0.9624691009521484,-4.876988887786865
1777561209889983500,4.5639833984375,0.9241618514060974,-0.5841852426528931,-4.754884719848633
1777561209900054300,4.57405419921875,0.9696516990661621,0.47644615173339844,-4.505887508392334
1777561209910094600,4.584094482421875,0.9744400978088379,1.534683346748352,-4.036623954772949
1777561209920195800,4.59419580078125,1.115697979927063,2.1787235736846924,-3.6942532062530518
1777561209950347300,4.62434716796875,1.867477297782898,2.31758713722229,-2.8179752826690674
1777561209960448500,4.634448486328125,1.8794482946395874,2.3032219409942627,-2.5306711196899414
1777561209970519300,4.644519287109375,1.8746598958969116,2.3511061668395996,-2.1068975925445557
1777561209980590000,4.654590087890625,1.41257905960083,2.5953147411346436,-1.6328455209732056
1777561209990660900,4.664660888671875,0.9097966551780701,2.6575639247894287,-1.0606313943862915
1777561210000731600,4.674731689453125,0.38546648621559143,2.6599581241607666,-0.4668693244457245
1777561210010772000,4.68477197265625,0.040701430290937424,2.5929205417633057,0.038307227194309235
1777561210020873500,4.69487353515625,0.026336219161748886,2.5546131134033203,0.5291185975074768
1777561210040984300,4.714984375,0.5913678407669067,2.669534921646118,0.8523358106613159
1777561210061126100,4.735126220703125,0.8738836050033569,2.8371291160583496,0.9792284965515137
1777561210071166200,4.745166259765625,1.0821791887283325,2.650381326675415,1.1444283723831177
1777561210081237200,4.7552373046875,1.1300631761550903,2.5450363159179688,1.216254472732544
1777561210091277300,4.76527734375,1.0773907899856567,2.231395959854126,1.2689268589019775
1777561210101317600,4.775317626953125,0.9193734526634216,1.7980455160140991,1.357512354850769
1777561210111388400,4.785388427734375,0.8212111592292786,1.3431471586227417,1.5849615335464478
1777561210121459200,4.795459228515625,0.706289529800415,0.9481038451194763,1.6687586307525635
1777561210151610600,4.825610595703125,0.3519476354122162,0.011971008032560349,1.6950948238372803
1777561210171752200,4.845752197265625,0.1364694982767105,-0.3495534360408783,1.4939818382263184
1777561210201995300,4.875995361328125,-0.1867477297782898,-1.113303780555725,1.4532804489135742
1777561210212035600,4.88603564453125,-0.20111294090747833,-1.6065093278884888,1.5155296325683594
1777561210222106400,4.8961064453125,-0.23942017555236816,-2.0374655723571777,1.656787633895874
1777561210232146400,4.906146484375,-0.15083470940589905,-2.3726539611816406,1.702277421951294
1777561210252288300,4.926288330078125,0.2298433631658554,-3.004723072052002,0.9792284965515137
1777561210282500600,4.95650048828125,1.6160861253738403,-4.206612586975098,-2.1308395862579346
1777561210302642200,4.97664208984375,3.0310592651367188,-5.410895824432373,-4.742913722991943
1777561210312682500,4.9866826171875,3.0837318897247314,-5.892130374908447,-5.731719017028809
1777561210322753300,4.996753173828125,2.674323320388794,-6.256049156188965,-6.761225700378418
1777561210332824000,5.006823974609375,2.33913516998291,-6.801927089691162,-7.970297336578369
1777561210363036400,5.037036376953125,2.0015525817871094,-7.931990146636963,-10.60152530670166
1777561210383178000,5.057177978515625,1.6519991159439087,-7.955932140350342,-7.048529624938965
1777561210393187800,5.067187744140625,1.3527239561080933,-8.022970199584961,-5.458779811859131
1777561210403289000,5.0772890625,1.381454348564148,-8.094796180725098,-4.766855716705322
1777561210413329400,5.087329345703125,1.8124107122421265,-7.9176249504089355,-4.474762916564941
1777561210423400200,5.097400146484375,2.4396915435791016,-7.359776020050049,-4.218583583831787
1777561210433410000,5.10741015625,2.896984100341797,-6.7061591148376465,-3.8738183975219727
1777561210443511300,5.11751123046875,3.1747114658355713,-6.1770405769348145,-3.157952070236206
1777561210483703000,5.157703125,1.9273324012756348,-5.932831764221191,1.1899182796478271
1777561210493743000,5.1677431640625,1.556231141090393,-6.026205539703369,2.0207061767578125
1777561210503814100,5.177814208984375,1.3024457693099976,-6.09324312210083,2.691082715988159
1777561210513823700,5.18782373046875,0.8810662031173706,-5.961562156677246,3.1651346683502197
1777561210523894500,5.19789453125,0.7134721279144287,-5.626373767852783,3.4117374420166016
1777561210533965300,5.20796533203125,0.524330198764801,-5.173870086669922,3.6822822093963623
1777561210544036000,5.2180361328125,0.19871874153614044,-4.714183330535889,3.8163576126098633
1777561210584258300,5.25825830078125,0.2561795711517334,-4.134786128997803,4.6255974769592285
1777561210594298600,5.268298583984375,0.20350714027881622,-3.663128614425659,4.541800498962402
1777561210604399900,5.27839990234375,0.11971008777618408,-3.2154128551483154,4.331110954284668
1777561210614470700,5.288470703125,0.07182604819536209,-2.557007312774658,4.141968727111816
1777561210624511000,5.298510986328125,-0.014365210197865963,-1.9369091987609863,3.8762125968933105
1777561210634551300,5.30855126953125,0.028730420395731926,-1.37906014919281,3.663128614425659
1777561210644622000,5.3186220703125,0.033518824726343155,-0.8092401623725891,3.4955344200134277
1777561210654692900,5.32869287109375,0.14844051003456116,-0.45489832758903503,3.2106244564056396
1777561210694945500,5.368945556640625,-0.47884035110473633,0.667982280254364,1.721431016921997
1777561210705047000,5.379047119140625,-0.727837324142456,1.1516109704971313,1.3431471586227417
1777561210715117800,5.389117919921875,-0.9959878921508789,1.4867992401123047,1.0271124839782715
1777561210725188600,5.399188720703125,-1.3048399686813354,1.4413094520568848,0.6967126727104187
1777561210735229000,5.40922900390625,-1.5418659448623657,0.9983820915222168,0.10295066982507706
1777561210745269000,5.41926904296875,-1.601720929145813,0.7972691655158997,-0.6584054827690125
1777561210775451000,5.449450927734375,-1.8722656965255737,1.2449848651885986,-2.7557260990142822
1777561210785552400,5.459552490234375,-1.7477672100067139,1.0079588890075684,-3.220201253890991
1777561210795623200,5.469623046875,-1.577778935432434,0.3232172429561615,-3.579331636428833
1777561210805724400,5.479724365234375,-1.3838485479354858,0.6536170840263367,-3.9456443786621094
1777561210815795200,5.489795166015625,-1.4532804489135742,0.7972691655158997,-4.244919776916504
1777561210825896400,5.499896484375,-1.3455413579940796,0.8331822156906128,-4.434061527252197
1777561210835936800,5.509936767578125,-1.3742717504501343,0.9385270476341248,-4.369418144226074
1777561210846038300,5.520038330078125,-1.479616641998291,0.4908113479614258,-4.10366153717041
1777561210876281000,5.550281005859375,-0.10295066982507706,-2.7485435009002686,-5.006275653839111
1777561210886321400,5.5603212890625,0.790086567401886,-3.3925838470458984,-5.430049419403076
1777561210896392200,5.57039208984375,1.5849615335464478,-3.2848446369171143,-5.473145008087158
1777561210906463000,5.580462890625,1.7836803197860718,-2.6455929279327393,-4.970362663269043
1777561210916442000,5.590442138671875,1.8483237028121948,-1.5705963373184204,-4.304774761199951
1777561210926543600,5.600543701171875,1.8315643072128296,-0.4884171485900879,-3.780444383621216
1777561210936614400,5.610614501953125,1.7908629179000854,0.2537853717803955,-3.3470940589904785
1777561210946654700,5.62065478515625,1.8124107122421265,0.8547300100326538,-2.7916390895843506
1777561210976836600,5.650836669921875,2.1380221843719482,2.9448680877685547,-1.1252747774124146
1777561210986907400,5.660907470703125,1.900996208190918,3.6296098232269287,-0.5770025849342346
1777561210996947500,5.670947509765625,1.6304513216018677,4.273650169372559,-0.023942016065120697
1777561211017089300,5.69108935546875,0.9097966551780701,5.2265424728393555,0.5889736413955688
1777561211027160000,5.70116015625,0.45010992884635925,5.315127849578857,0.6943184733390808
1777561211037230800,5.71123095703125,0.1173158809542656,5.5114521980285645,0.7852981686592102
1777561211047301600,5.721301513671875,-0.12928688526153564,5.853823184967041,0.950498104095459
1777561211057342000,5.731342041015625,-0.4357447028160095,6.327875137329102,1.0606313943862915
1777561211067443200,5.741443115234375,-0.706289529800415,6.710947513580322,1.0773907899856567
1777561211107726300,5.781726318359375,-0.6248866319656372,7.668628215789795,0.9050082564353943
1777561211127868000,5.801867919921875,-0.3471592366695404,7.486668586730957,1.2090718746185303
1777561211137938700,5.811938720703125,-0.15322890877723694,6.936002254486084,1.5658079385757446
1777561211148009500,5.822009521484375,0.09816227108240128,6.244078159332275,1.6950948238372803
1777561211158049800,5.8320498046875,0.47165772318840027,5.363011837005615,1.745373010635376
1777561211178222000,5.85222216796875,0.849941611289978,4.065354347229004,1.5705963373184204
1777561211218444000,5.892444091796875,-1.0893617868423462,1.9847931861877441,1.3982137441635132
1777561211228545500,5.902545654296875,-1.5921441316604614,1.5059528350830078,1.357512354850769
1777561211238585900,5.9125859375,-2.0183119773864746,1.1803414821624756,1.2186486721038818
1777561211248656600,5.92265673828125,-2.1811177730560303,1.0821791887283325,1.0797849893569946
1777561211258727400,5.9327275390625,-2.1547815799713135,0.7733271718025208,0.6105214357376099
1777561211268798200,5.942798095703125,-1.8555063009262085,-0.1604115068912506,-0.4812345504760742
1777561211288909300,5.962909423828125,-0.19632454216480255,-2.8419175148010254,-4.122815132141113
1777561211298980000,5.97297998046875,1.4437036514282227,-4.697423934936523,-6.818686485290527
1777561211309111800,5.98311181640625,3.043030261993408,-6.119579315185547,-9.66299819946289
1777561211319182600,5.9931826171875,3.797203779220581,-6.936002254486084,-11.578359603881836
1777561211329253400,6.00325341796875,3.2106244564056396,-7.575253963470459,-12.72757625579834
1777561211339324200,6.01332421875,1.8938134908676147,-8.56884765625,-13.742717742919922
1777561211349425700,6.02342578125,0.7876923680305481,-9.947908401489258,-14.930241584777832
1777561211359435300,6.033435302734375,0.1604115068912506,-11.705251693725586,-15.382745742797852
1777561211369536800,6.043536865234375,-0.019153613597154617,-13.227964401245117,-13.955801963806152
1777561211399718700,6.07371875,0.4596867263317108,-14.731523513793945,-6.275202751159668
1777561211409820000,6.08381982421875,1.05105459690094,-14.566323280334473,-4.642356872558594
1777561211419860200,6.093860107421875,1.2521674633026123,-13.467384338378906,-3.3949780464172363
1777561211429931000,6.103930908203125,1.4987702369689941,-11.774683952331543,-2.494758129119873
1777561211440001800,6.114001708984375,1.9081788063049316,-10.247182846069336,-1.678335428237915
1777561211460143400,6.134143310546875,2.8586769104003906,-8.83939266204834,0.30885201692581177
1777561211490325200,6.1643251953125,1.5083470344543457,-8.22887134552002,3.847482204437256
1777561211500365600,6.174365478515625,0.8307880163192749,-7.812280178070068,4.546588897705078
1777561211510436400,6.184436279296875,0.014365210197865963,-7.38132381439209,5.0469770431518555
1777561211520507100,6.194507080078125,-0.3208230137825012,-7.275979042053223,5.360617637634277
1777561211530578000,6.204577880859375,-0.6703764796257019,-7.309497833251953,5.336675643920898
1777561211540618200,6.2146181640625,-0.8690952062606812,-7.146692276000977,5.207388877868652
1777561211550689000,6.22468896484375,-1.036689281463623,-6.916848659515381,5.0254292488098145
1777561211580901400,6.2549013671875,-1.094150185585022,-5.580883979797363,4.23773717880249
1777561211631255600,6.305255615234375,-0.6392518281936646,-2.4588451385498047,2.250549554824829
1777561211651427600,6.325427490234375,-0.3998316824436188,-1.338358759880066,1.072602391242981
1777561211661498400,6.335498291015625,-0.5027823448181152,-0.8259995579719543,0.6248866319656372
1777561211671569200,6.345569091796875,-0.6105214357376099,-0.5817909836769104,0.28730419278144836
1777561211691680300,6.36568017578125,-1.1013327836990356,0.1364694982767105,-0.043095629662275314
1777561211711821800,6.38582177734375,-1.4628572463989258,0.5267243981361389,-0.3232172429561615
1777561211721923000,6.395923095703125,-1.6089035272598267,0.9888052940368652,-0.42616790533065796
1777561211732024600,6.406024658203125,-1.5490485429763794,1.381454348564148,-0.47165772318840027
1777561211742095400,6.416095458984375,-1.5514427423477173,1.98958158493042,-0.4357447028160095
1777561211752135700,6.4261357421875,-1.680729627609253,2.580949544906616,-0.4405331015586853
1777561211762237000,6.43623681640625,-1.6759412288665771,3.2321722507476807,-0.4812345504760742
1777561211772277200,6.44627734375,-1.7836803197860718,3.5170822143554688,-0.6153098344802856
1777561211782348000,6.45634814453125,-2.049436569213867,3.4189200401306152,-0.7852981686592102
1777561211832641000,6.50664111328125,-0.7589619159698486,3.31118106842041,-3.2082302570343018
1777561211842711800,6.5167119140625,-0.4596867263317108,3.7421371936798096,-4.089296340942383
1777561211893035300,6.56703515625,-0.07900865375995636,3.2632968425750732,-7.331045627593994
1777561211903075600,6.57707568359375,-0.06224924325942993,3.272873640060425,-7.412448406219482
1777561211973540600,6.64754052734375,2.078166961669922,1.8387469053268433,-6.825869083404541
1777561211993682200,6.66768212890625,1.7405846118927002,1.4508862495422363,-5.327098846435547
1777561212013823700,6.68782373046875,0.6751648783683777,0.5913678407669067,-3.550601005554199
1777561212023833600,6.69783349609375,0.023942016065120697,0.10055647045373917,-2.5905263423919678
1777561212033904400,6.707904296875,-0.586579442024231,-0.1364694982767105,-1.702277421951294
1777561212044005600,6.718005615234375,-1.0821791887283325,-0.3926490843296051,-0.7469909191131592
1777561212074157000,6.748156982421875,-1.316810965538025,-1.1468225717544556,0.8786720037460327
1777561212094298600,6.768298583984375,-0.5219359993934631,-2.3367409706115723,1.0797849893569946
1777561212124572200,6.798572265625,1.0678139925003052,-4.127603530883789,1.3120225667953491
1777561212144683300,6.818683349609375,1.5610195398330688,-4.738125324249268,1.5442601442337036
1777561212154723300,6.828723388671875,1.659181833267212,-4.8722004890441895,1.5203180313110352
1777561212174865200,6.848865234375,2.4444799423217773,-5.272032260894775,0.9864110946655273
1777561212215148300,6.889148193359375,3.952826976776123,-6.842628479003906,-0.11252748221158981
1777561212225219000,6.899218994140625,3.955221176147461,-6.926425457000732,-0.05267243832349777
1777561212235320300,6.9093203125,4.141968727111816,-7.096413612365723,0.043095629662275314
1777561212245360600,6.919360595703125,4.091690540313721,-7.252037048339844,0.2106897532939911
1777561212255431400,6.929431396484375,3.8810009956359863,-7.180211067199707,0.4836287498474121
1777561212275603500,6.949603515625,3.021482467651367,-7.522581577301025,0.011971008032560349
1777561212305816000,6.979816162109375,2.2840683460235596,-7.623138427734375,-1.256955862045288
1777561212315856400,6.9898564453125,2.1787235736846924,-7.814674377441406,-1.647210717201233
1777561212325927200,6.99992724609375,2.1523873805999756,-8.149862289428711,-2.1164743900299072
1777561212336028400,7.0100283203125,2.011129379272461,-8.42040729522705,-2.5929205417633057
1777561212346099200,7.02009912109375,2.008735179901123,-8.403648376464844,-2.5929205417633057
1777561212356170000,7.030169921875,1.5155296325683594,-8.892065048217773,-2.7078421115875244
1777561212376220200,7.05022021484375,1.1276689767837524,-8.669404029846191,-2.2888567447662354
1777561212386291000,7.060291015625,0.9983820915222168,-8.166622161865234,-1.6711528301239014
1777561212406402000,7.080402099609375,0.9768342971801758,-7.299921035766602,-0.19632454216480255
1777561212416503300,7.09050341796875,0.9552865028381348,-6.799532890319824,0.2346317619085312
1777561212426543600,7.100543701171875,1.0558429956436157,-6.418854713439941,0.17477671802043915
1777561212436614400,7.110614501953125,1.1516109704971313,-5.937620162963867,-0.2801215946674347
1777561212456725500,7.1307255859375,1.0749965906143188,-4.944026470184326,-1.4460978507995605
1777561212496917000,7.1709169921875,0.8068459630012512,-4.711789131164551,-2.389413356781006
1777561212527160000,7.20116015625,-0.5482721924781799,-4.010287761688232,-2.183511972427368
1777561212537230800,7.21123095703125,-1.1492167711257935,-3.7708675861358643,-1.920149803161621
1777561212547271200,7.221271240234375,-1.745373010635376,-3.624821424484253,-1.802833914756775
1777561212557372400,7.231372314453125,-2.3367409706115723,-3.028665065765381,-1.525106430053711
1777561212567443200,7.241443115234375,-2.9496564865112305,-2.3319525718688965,-1.2042834758758545
1777561212577514000,7.251513916015625,-3.428496837615967,-1.745373010635376,-0.9433154463768005
1777561212627776500,7.301776611328125,-4.14915132522583,-0.3878606855869293,0.5027823448181152
1777561212637816800,7.31181689453125,-4.290409564971924,-0.07422025501728058,0.6129156351089478
1777561212647857000,7.32185693359375,-4.395754337310791,0.16519992053508759,0.7948749661445618
1777561212657927700,7.331927734375,-4.5825018882751465,0.3878606855869293,0.751779317855835
1777561212667998700,7.341998779296875,-4.680664539337158,0.49799394607543945,0.7661445140838623
1777561212688109600,7.362109619140625,-4.754884719848633,0.6440402865409851,0.6631938815116882
1777561212698211000,7.372211181640625,-4.850652694702148,0.8834604024887085,0.6105214357376099
1777561212708312300,7.382312255859375,-4.824316501617432,1.0582371950149536,0.33279404044151306
1777561212718383000,7.392383056640625,-4.879383087158203,1.256955862045288,0.10055647045373917
1777561212728423400,7.40242333984375,-4.891354084014893,1.4628572463989258,-0.22026655077934265
1777561212738494200,7.412494140625,-4.910507678985596,1.5490485429763794,-0.5339069962501526
1777561212748534500,7.422534423828125,-5.020640850067139,1.7717092037200928,-0.6847416758537292
1777561212758605300,7.432605224609375,-5.097255229949951,1.8914192914962769,-0.8307880163192749
1777561212768645600,7.442645751953125,-5.243301868438721,2.0661959648132324,-1.1827356815338135
1777561212798858000,7.47285791015625,-5.276820659637451,2.0422539710998535,-2.7461493015289307
1777561212829070300,7.5030703125,-5.020640850067139,2.233790159225464,-3.1938650608062744
1777561212839110700,7.513110595703125,-4.7405195236206055,2.1787235736846924,-3.337517261505127
1777561212849181400,7.523181396484375,-4.376600742340088,2.0039467811584473,-3.6798880100250244
1777561212859252200,7.533252197265625,-4.110844135284424,1.8794482946395874,-4.230554580688477
1777561212869292500,7.54329248046875,-3.9456443786621094,2.0398597717285156,-4.999093055725098
1777561212889434000,7.56343408203125,-3.8091750144958496,3.2537200450897217,-6.203376770019531
1777561212909575700,7.58357568359375,-3.6535518169403076,5.032611846923828,-5.145139217376709
1777561212919677200,7.59367724609375,-3.5913026332855225,5.303156852722168,-3.7708675861358643
1777561212929748000,7.603748046875,-2.846705913543701,4.627991676330566,-2.9448680877685547
1777561212939849200,7.61384912109375,-1.6184803247451782,3.3901896476745605,-2.6623523235321045
1777561212949889500,7.6238896484375,-0.4644751250743866,2.300827741622925,-2.5977089405059814
1777561212959960300,7.633960205078125,0.3016694188117981,1.5682021379470825,-2.2864625453948975
1777561212970000600,7.644000732421875,0.9481038451194763,1.6280571222305298,-1.8626888990402222
1777561212980071400,7.654071533203125,0.9816226959228516,2.2840683460235596,-1.4053963422775269
1777561212990111700,7.66411181640625,0.629675030708313,2.63362193107605,-1.460463047027588
1777561213000213000,7.674212890625,0.2537853717803955,2.7317841053009033,-1.8770540952682495
1777561213030364400,7.704364501953125,-0.4572925269603729,2.5977089405059814,-3.2130186557769775
1777561213050506000,7.724506103515625,-0.43335050344467163,4.031835556030273,-3.2800562381744385
1777561213060576800,7.73457666015625,-0.2825157940387726,4.031835556030273,-3.0789434909820557
1777561213070647600,7.7446474609375,-0.15562310814857483,3.4979286193847656,-3.0166940689086914
1777561213080748800,7.754748779296875,0.47405192255973816,3.0597896575927734,-3.069366693496704
1777561213110961200,7.784961181640625,2.451662540435791,2.2002713680267334,-1.7501614093780518
1777561213141143000,7.81514306640625,2.7700912952423096,1.9991583824157715,-0.6967126727104187
1777561213151183400,7.825183349609375,3.004723072052002,1.434126853942871,-0.751779317855835
1777561213161284600,7.83528466796875,3.220201253890991,0.9792284965515137,-0.9433154463768005
1777561213171325000,7.845324951171875,3.6080620288848877,0.23702596127986908,-0.8762778043746948
1777561213181395700,7.855395751953125,3.950432777404785,-0.272938996553421,-0.6512228846549988
1777561213191436000,7.86543603515625,4.206612586975098,-0.44771572947502136,-0.35434186458587646
1777561213201476400,7.875476318359375,4.3622355461120605,-0.47405192255973816,-0.023942016065120697
1777561213231627800,7.905627685546875,4.67827033996582,-0.608127236366272,0.3447650372982025
1777561213241729000,7.91572900390625,4.508281707763672,-0.38546648621559143,0.7972691655158997
1777561213251769300,7.925769287109375,4.4939165115356445,-0.42856210470199585,1.292868971824646
1777561213261840100,7.935840087890625,4.400542736053467,-0.6943184733390808,1.6184803247451782
1777561213271941400,7.94594140625,4.4939165115356445,-1.070208191871643,1.766920804977417
1777561213282012200,7.95601220703125,4.491522312164307,-1.1851298809051514,1.721431016921997
1777561213292083200,7.966083251953125,4.448426723480225,-1.2114660739898682,1.7286136150360107
1777561213312224800,7.986224853515625,4.343081951141357,-0.7565677165985107,1.8195933103561401
1777561213332396800,8.006396728515625,3.952826976776123,-1.381454348564148,1.824381709098816
1777561213342437000,8.01643701171875,4.137180328369141,-1.4389152526855469,1.7190368175506592
1777561213352477400,8.0264775390625,3.9169139862060547,-1.9273324012756348,1.6112977266311646
1777561213362548200,8.03654833984375,3.7445313930511475,-2.293645143508911,1.5490485429763794
1777561213372588500,8.046588623046874,3.600879430770874,-1.821987509727478,1.5538369417190552
1777561213382689800,8.056689697265625,3.5913026332855225,-1.3407529592514038,1.3670891523361206
1777561213392699600,8.06669970703125,3.4979286193847656,-0.9074024558067322,1.0989385843276978
1777561213412871700,8.08687158203125,3.5745432376861572,-0.8020575642585754,0.1628057211637497
1777561213422973000,8.096972900390625,3.5027170181274414,-1.1444283723831177,-0.3734954595565796
1777561213443114500,8.117114501953125,3.5194764137268066,-1.8986018896102905,-1.3287819623947144
1777561213453185300,8.127185302734375,3.399766445159912,-2.233790159225464,-1.7357962131500244
1777561213463195100,8.137195068359375,3.155557870864868,-2.6024973392486572,-2.1284453868865967
1777561213473266000,8.147265869140625,2.741360902786255,-3.5960910320281982,-2.7772738933563232
1777561213483367200,8.1573671875,2.650381326675415,-4.010287761688232,-3.6559460163116455
1777561213493377000,8.167376953125,2.559401512145996,-4.728548526763916,-4.702212333679199
1777561213503478300,8.177478271484375,2.920926094055176,-5.403713226318359,-5.781997203826904
1777561213523619800,8.197619873046875,2.920926094055176,-5.846640586853027,-6.2392897605896
1777561213533629700,8.207629638671875,2.1068975925445557,-6.0836663246154785,-5.583278179168701
1777561213543731000,8.21773095703125,1.1109095811843872,-5.959167957305908,-4.55616569519043
1777561213553832400,8.22783251953125,-0.014365210197865963,-5.509057998657227,-3.536235809326172
1777561213563903200,8.2379033203125,-1.0462661981582642,-4.982333660125732,-2.5546131134033203
1777561213573943600,8.247943603515624,-1.7932571172714233,-4.3622355461120605,-1.9345149993896484
1777561213584014300,8.258014404296874,-2.427720546722412,-3.77565598487854,-1.7908629179000854
1777561213594085000,8.268085205078124,-2.959233283996582,-3.155557870864868,-2.2577321529388428
1777561213604186400,8.278186279296875,-3.3063924312591553,-2.9520506858825684,-2.918531894683838
1777561213624358400,8.2983583984375,-3.6846764087677,-2.5546131134033203,-3.4955344200134277
1777561213644469500,8.318469482421875,-3.9384617805480957,-2.6192567348480225,-2.849100112915039
1777561213654509800,8.328509765625,-3.9456443786621094,-2.959233283996582,-2.5498247146606445
1777561213664580600,8.33858056640625,-3.9863457679748535,-3.308786630630493,-2.300827741622925
1777561213674651400,8.3486513671875,-4.125209331512451,-3.3925838470458984,-2.0685901641845703
1777561213684722200,8.35872216796875,-4.359841346740723,-3.3662476539611816,-1.843535304069519
1777561213694793000,8.36879296875,-4.572925090789795,-3.1962592601776123,-1.6687586307525635
1777561213704802800,8.378802734375,-4.78122091293335,-2.832340717315674,-1.5394717454910278
1777561213724944400,8.3989443359375,-5.224148273468018,-2.0398597717285156,-1.0582371950149536
1777561213745055500,8.419055419921875,-5.669469833374023,-1.4628572463989258,-0.6272808313369751
1777561213755126300,8.429126220703125,-5.928043365478516,-1.192312479019165,-0.40701428055763245
1777561213765197000,8.439197021484375,-6.119579315185547,-1.01753568649292,-0.1843535304069519
1777561213775237400,8.4492373046875,-6.378153324127197,-0.8259995579719543,-0.05506663769483566
1777561213785277700,8.459277587890625,-6.629544734954834,-0.768538773059845,0.08619125932455063
1777561213795348500,8.469348388671875,-6.710947513580322,-0.6344634294509888,-0.05985504388809204
1777561213805419300,8.479419189453125,-6.8043212890625,-0.9528923034667969,0.026336219161748886
1777561213825560800,8.499560791015625,-6.854599475860596,-1.0199298858642578,-0.31364041566848755
1777561213845763600,8.519763671875,-6.847416877746582,-1.1037269830703735,-0.7661445140838623
1777561213855864800,8.52986474609375,-6.794744491577148,-0.8738836050033569,-0.8140285611152649
1777561213865905200,8.5399052734375,-6.756437301635742,-0.5793967843055725,-0.8882488012313843
1777561213875976000,8.549975830078125,-6.835445880889893,-0.3711012601852417,-0.8810662031173706
1777561213886046700,8.560046630859375,-6.904877662658691,-0.10773907601833344,-1.0127472877502441
1777561213896087000,8.570087158203124,-7.01979923248291,0.08858546614646912,-1.1803414821624756
1777561213906127400,8.58012744140625,-7.043741226196289,0.29209262132644653,-1.259350061416626
1777561213916228600,8.590228515625,-7.022193431854248,0.4189853072166443,-1.4748282432556152
1777561213936400600,8.610400634765625,-6.907271862030029,0.5027823448181152,-1.800439715385437
1777561213946471400,8.620471435546875,-6.7708024978637695,0.5219359993934631,-2.008735179901123
1777561213956542200,8.630542236328125,-6.833051681518555,0.5195417404174805,-2.250549554824829
1777561213966613000,8.640613037109375,-6.7923502922058105,0.6153098344802856,-2.559401512145996
1777561213976684000,8.65068408203125,-6.629544734954834,0.8140285611152649,-2.8179752826690674
1777561213986724000,8.66072412109375,-6.289567947387695,0.8331822156906128,-3.0142998695373535
1777561213996764400,8.670764404296875,-5.743690013885498,0.849941611289978,-3.4189200401306152
1777561214006835200,8.680835205078125,-5.317522048950195,0.9409212470054626,-3.9887399673461914
1777561214016906000,8.690906005859375,-4.697423934936523,0.9792284965515137,-4.3622355461120605
1777561214027007500,8.701007568359374,-4.3622355461120605,1.137245774269104,-4.711789131164551
1777561214067290600,8.74129052734375,-3.5410242080688477,3.3470940589904785,-5.66228723526001
1777561214077331000,8.7513310546875,-3.5194764137268066,3.533841609954834,-5.669469833374023
1777561214087401700,8.761401611328125,-3.60566782951355,3.818751811981201,-5.8203043937683105
1777561214097472500,8.771472412109375,-3.6320040225982666,3.9671921730041504,-5.7125654220581055
1777561214107543300,8.781543212890625,-3.6774938106536865,4.091690540313721,-5.899312973022461
1777561214117583600,8.79158349609375,-3.7900211811065674,4.46518611907959,-6.631938934326172
1777561214137694700,8.81169482421875,-3.318363666534424,4.970362663269043,-8.034940719604492
1777561214157866800,8.83186669921875,-2.0829553604125977,4.395754337310791,-7.1251444816589355
1777561214167937500,8.8419375,-1.460463047027588,4.338293552398682,-5.793968200683594
1777561214178008300,8.85200830078125,-0.8523358106613159,3.8738183975219727,-4.711789131164551
1777561214188079000,8.8620791015625,-0.17477671802043915,3.179499864578247,-4.201824188232422
1777561214198150000,8.87214990234375,0.3208230137825012,2.959233283996582,-4.2329487800598145
1777561214208220700,8.882220703125,0.4596867263317108,2.9688100814819336,-4.774038314819336
1777561214218291500,8.89229150390625,0.5674257874488831,3.064578056335449,-5.303156852722168
1777561214248504000,8.922504150390624,-0.9888052940368652,3.706224203109741,-5.7987565994262695
1777561214268645600,8.942645751953124,-1.5418659448623657,2.6671407222747803,-5.839457988739014
1777561214278747000,8.952746826171875,-1.5658079385757446,1.9847931861877441,-5.477933406829834
1777561214288817700,8.962817626953125,-1.3479355573654175,1.764526605606079,-4.99669885635376
1777561214298888400,8.972888427734375,-1.37906014919281,1.6280571222305298,-4.218583583831787
1777561214308959200,8.982959228515625,-1.1468225717544556,1.1324573755264282,-3.6798880100250244
1777561214319030000,8.993030029296875,-1.2282254695892334,0.7086837291717529,-3.203441858291626
1777561214329100800,9.003100830078125,-0.8044517636299133,0.26815059781074524,-2.535459518432617
1777561214339171600,9.013171630859375,-0.5817909836769104,0.07182604819536209,-1.766920804977417
1777561214359313400,9.0333134765625,-0.7876923680305481,-0.7110779285430908,-0.5889736413955688
1777561214369384200,9.04338427734375,-1.0223240852355957,-0.7398083209991455,-0.11971008777618408
1777561214379455000,9.053455078125,-1.0893617868423462,-1.0007762908935547,0.06464344263076782
1777561214389525800,9.06352587890625,-1.41257905960083,-1.400607943534851,0.1628057211637497
1777561214399596500,9.073596435546875,-1.4939818382263184,-1.9800047874450684,0.31364041566848755
1777561214409667300,9.083667236328125,-1.4748282432556152,-2.1140801906585693,0.6392518281936646
1777561214419738000,9.093738037109375,-1.316810965538025,-2.367865562438965,1.173158884048462
1777561214429809000,9.103808837890625,-1.0199298858642578,-2.410961151123047,1.5729905366897583
1777561214449950500,9.123950439453125,-0.7661445140838623,-2.5067291259765625,2.5330653190612793
1777561214460021200,9.134021240234375,-0.7350199222564697,-2.2816741466522217,2.873042106628418
1777561214470092000,9.144092041015625,-0.5889736413955688,-2.2218191623687744,2.851494312286377
1777561214480193500,9.154193603515624,-0.5195417404174805,-2.4181437492370605,2.985569477081299
1777561214490264300,9.164264404296874,-0.5171475410461426,-2.492363929748535,3.3949780464172363
1777561214500304400,9.174304443359375,-0.5554547905921936,-2.5665841102600098,4.072536945343018
1777561214510375400,9.18437548828125,-0.49559974670410156,-2.8371291160583496,4.7836151123046875
1777561214520446200,9.1944462890625,-0.4429273009300232,-3.047818660736084,5.233725070953369
1777561214530517000,9.20451708984375,-0.33997663855552673,-3.251325845718384,5.633556365966797
1777561214570769700,9.244769775390624,-0.12449848651885986,-2.8107926845550537,5.920860767364502
1777561214590880800,9.264880859375,-0.19632454216480255,-2.5474305152893066,5.623979568481445
1777561214600951600,9.27495166015625,-0.24420857429504395,-2.454056739807129,5.319916248321533
1777561214611052800,9.285052734375,-0.2298433631658554,-2.499546527862549,5.07570743560791
1777561214621123600,9.29512353515625,-0.17956513166427612,-2.52109432220459,4.920084476470947
1777561214631224800,9.305224853515625,-0.09816227108240128,-2.5522189140319824,4.829104900360107
1777561214651366400,9.325366455078125,0.4812345504760742,-2.8850131034851074,4.338293552398682
1777561214671508200,9.34550830078125,0.15322890877723694,-3.220201253890991,3.201047658920288
1777561214681517800,9.355517822265625,0.047884032130241394,-3.428496837615967,2.2170307636260986
1777561214691619300,9.365619384765624,-0.12689268589019775,-3.56017804145813,1.6041151285171509
1777561214701690000,9.375690185546874,-0.26575639843940735,-3.711012601852417,0.9624691009521484
1777561214711730200,9.385730224609375,-0.37828385829925537,-4.527435302734375,-0.26336219906806946
1777561214721770500,9.3957705078125,-0.2992752194404602,-5.149928092956543,-2.1092917919158936
1777561214731841300,9.40584130859375,0.22026655077934265,-6.045359134674072,-4.326322555541992
1777561214772155100,9.446155029296875,-2.4588451385498047,-6.605602264404297,-14.88714599609375
1777561214782226000,9.456225830078125,-2.9951462745666504,-7.003039836883545,-17.338808059692383
1777561214792235800,9.46623583984375,-3.117250680923462,-7.55131196975708,-18.53351593017578
1777561214802306600,9.476306640625,-3.3255462646484375,-7.438784599304199,-17.9924259185791
1777561214812377300,9.48637744140625,-3.339911460876465,-7.074865818023682,-15.717934608459473
1777561214822417700,9.496417724609374,-3.5625722408294678,-5.896918773651123,-12.983756065368652
1777561214832488400,9.506488525390624,-4.010287761688232,-4.163516521453857,-10.76193618774414
1777561214862700800,9.53670068359375,-4.838681697845459,-0.16998831927776337,-6.720524311065674
1777561214882842400,9.55684228515625,-4.220977783203125,1.522712230682373,-5.30076265335083
1777561214892913200,9.5669130859375,-3.9432501792907715,2.276885747909546,-4.924872875213623
1777561214903014400,9.577014404296875,-3.6535518169403076,2.7437551021575928,-4.563348293304443
1777561214913085200,9.587085205078125,-3.624821424484253,2.9544448852539062,-4.034229755401611
1777561214923125500,9.59712548828125,-3.60566782951355,3.3446998596191406,-3.292027235031128
1777561214933196300,9.6071962890625,-3.691859006881714,3.550601005554199,-2.4133553504943848
1777561214943267000,9.61726708984375,-3.8786067962646484,3.845088005065918,-1.7262194156646729
1777561214973449000,9.647448974609375,-4.532223701477051,4.991910457611084,-0.7134721279144287
1777561214983519700,9.657519775390625,-4.843470096588135,5.839457988739014,-0.7469909191131592
1777561214993590500,9.667590576171875,-4.865017890930176,6.5696892738342285,-0.8451532125473022
1777561215003661600,9.67766162109375,-5.054159641265869,7.264008045196533,-0.8044517636299133
1777561215013762800,9.6877626953125,-5.0876784324646,7.618350028991699,-0.790086567401886
1777561215023833600,9.69783349609375,-5.257667064666748,7.671022415161133,-0.7781155705451965
1777561215033934800,9.707934814453125,-5.473145008087158,7.613561630249023,-0.9768342971801758
1777561215044005600,9.718005615234375,-5.568912982940674,7.8529815673828125,-1.3670891523361206
1777561215064147200,9.738147216796875,-5.669469833374023,8.518569946289062,-2.389413356781006
1777561215074248700,9.748248779296874,-5.4875102043151855,8.702922821044922,-2.537853717803955
1777561215084288800,9.758288818359375,-5.377377033233643,8.78432559967041,-2.6192567348480225
1777561215094390300,9.768390380859374,-5.142745018005371,8.901641845703125,-2.497152328491211
1777561215104400000,9.77839990234375,-4.680664539337158,8.779537200927734,-2.3511061668395996
1777561215114501400,9.78850146484375,-4.446032524108887,8.722076416015625,-2.4013843536376953
1777561215124602600,9.7986025390625,-4.158728122711182,8.69095230102539,-2.5043349266052246
1777561215134673400,9.80867333984375,-3.3494882583618164,8.470685958862305,-2.940079689025879
1777561215144683300,9.818683349609374,-2.8826189041137695,7.625532627105713,-3.3925838470458984
1777561215164794400,9.83879443359375,-2.6455929279327393,7.010222434997559,-4.046200752258301
1777561215174865200,9.848865234375,-3.093308687210083,6.866570472717285,-4.271255970001221
1777561215184844300,9.85884423828125,-3.138798475265503,6.722918510437012,-4.479551315307617
1777561215215117800,9.889117919921874,-2.03507137298584,3.8522706031799316,-6.102819919586182
1777561215235198200,9.9091982421875,-1.6543933153152466,2.8131868839263916,-8.949525833129883
1777561215245238500,9.919238525390625,-1.3263877630233765,2.2912509441375732,-10.189722061157227
1777561215255309300,9.929309326171875,-0.7924807667732239,2.0374655723571777,-11.27190113067627
1777561215265349600,9.939349609375,-0.22266076505184174,2.0685901641845703,-11.930307388305664
1777561215275420400,9.94942041015625,0.2322375625371933,2.1954829692840576,-12.30859088897705
1777561215305632800,9.9796328125,-0.08140286058187485,0.5889736413955688,-12.60307788848877
1777561215345855000,10.01985498046875,0.8690952062606812,-3.5003228187561035,-12.270283699035645
1777561215355956500,10.02995654296875,0.9959878921508789,-3.825934410095215,-11.90157699584961
1777561215386107600,10.060107666015625,3.821146011352539,-7.0126166343688965,-6.426037311553955
1777561215396209200,10.070209228515624,2.559401512145996,-7.747636795043945,-3.8570590019226074
1777561215416350700,10.090350830078124,-0.933738648891449,-6.110002517700195,0.6153098344802856
1777561215426391000,10.10039111328125,-2.0398597717285156,-5.202600479125977,1.867477297782898
1777561215436492300,10.1104921875,-2.5737667083740234,-4.4077253341674805,2.3918075561523438
1777561215446563000,10.12056298828125,-2.8874073028564453,-3.643975019454956,2.4899697303771973
1777561215456633900,10.1306337890625,-3.0095114707946777,-3.2106244564056396,2.434903144836426
1777561215476775400,10.150775390625,-2.5713725090026855,-2.561795711517334,1.8076223134994507
1777561215496917000,10.1709169921875,-1.7932571172714233,-3.7493197917938232,2.097320795059204
1777561215506987800,10.18098779296875,-1.3503297567367554,-3.598485231399536,2.5905263423919678
1777561215517089300,10.19108935546875,-0.8738836050033569,-3.3470940589904785,2.873042106628418
1777561215527129300,10.20112939453125,-0.42856210470199585,-3.2297780513763428,3.0334534645080566
1777561215537200400,10.211200439453124,-0.3064578175544739,-3.179499864578247,3.0837318897247314
1777561215547271200,10.221271240234374,-0.0454898327589035,-3.3470940589904785,3.1100680828094482
1777561215557372400,10.231372314453125,0.40940847992897034,-3.6966474056243896,3.134010076522827
1777561215567443200,10.241443115234375,0.8427590131759644,-4.175487995147705,2.7676970958709717
1777561215577514000,10.251513916015625,1.4245500564575195,-4.752490520477295,1.8986018896102905
1777561215597686000,10.27168603515625,3.227383852005005,-6.282385349273682,-0.20350714027881622
1777561215617858300,10.2918583984375,4.278438568115234,-7.441178798675537,-1.2330138683319092
1777561215637999900,10.311999755859375,3.1531636714935303,-7.671022415161133,-3.07415509223938
1777561215648070700,10.322070556640625,2.8203697204589844,-7.68538761138916,-5.2480902671813965
1777561215658141400,10.332141357421875,2.5665841102600098,-7.5632829666137695,-7.316680431365967
1777561215668181800,10.342181640625,2.5330653190612793,-7.690176010131836,-8.616731643676758
1777561215698394000,10.37239404296875,1.015141487121582,-7.189787864685059,-6.052541732788086
1777561215708434400,10.382434326171875,0.016759412363171577,-7.285555839538574,-5.161899089813232
1777561215718535700,10.39253564453125,-0.6607996821403503,-7.354987621307373,-4.843470096588135
1777561215728606500,10.4026064453125,-0.7948749661445618,-7.228095054626465,-4.874594688415527
1777561215738677200,10.41267724609375,-0.6248866319656372,-6.809109687805176,-5.008669853210449
1777561215748748000,10.422748046875,-0.24660277366638184,-6.100425720214844,-5.0685248374938965
1777561215758818800,10.43281884765625,-0.16998831927776337,-5.147533416748047,-4.692635536193848
1777561215768889600,10.4428896484375,-0.1149216815829277,-4.484339714050293,-4.1611223220825195
1777561215778960600,10.452960693359374,-0.3758896589279175,-3.912125587463379,-3.507505416870117
1777561215799102200,10.473102294921874,-1.039083480834961,-2.9305028915405273,-2.7461493015289307
1777561215819274200,10.493274169921875,-1.766920804977417,-1.8555063009262085,-2.6599581241607666
1777561215829314600,10.503314453125,-2.1332337856292725,-1.2018892765045166,-2.7485435009002686
1777561215839385300,10.51338525390625,-2.5282769203186035,-0.8068459630012512,-2.6671407222747803
1777561215849395200,10.523395263671874,-2.7222073078155518,-0.22266076505184174,-2.5306711196899414
1777561215859466000,10.533466064453124,-2.9328970909118652,0.14844051003456116,-2.1332337856292725
1777561215869506000,10.543506103515625,-3.0550012588500977,0.6799532771110535,-1.7381904125213623
1777561215889708800,10.563708740234375,-3.138798475265503,1.577778935432434,-1.2449848651885986
1777561215940032300,10.6140322265625,-3.1531636714935303,4.168305397033691,-1.2617442607879639
1777561215950103000,10.62410302734375,-3.157952070236206,4.776432514190674,-1.6496049165725708
1777561215960173800,10.634173828125,-3.0789434909820557,4.989516258239746,-1.8171991109848022
1777561215970244600,10.64424462890625,-2.691082715988159,4.920084476470947,-2.276885747909546
1777561215980285000,10.654284912109375,-2.676717519760132,4.469974517822266,-2.691082715988159
1777561215990325200,10.6643251953125,-2.7269957065582275,4.563348293304443,-3.251325845718384
1777561216010497300,10.684497314453125,-3.1723172664642334,5.738901615142822,-3.6391866207122803
1777561216020568000,10.694568115234375,-3.3638534545898438,6.323086738586426,-3.3518824577331543
1777561216040710000,10.7147099609375,-3.3423056602478027,6.469132900238037,-3.7181951999664307
1777561216050780700,10.72478076171875,-3.28963303565979,6.54574728012085,-4.417302131652832
1777561216060851500,10.7348515625,-2.8850131034851074,6.299144744873047,-5.1116204261779785
1777561216070922200,10.744922119140625,-2.4660277366638184,5.772420406341553,-5.760449409484863
1777561216080993000,10.754992919921875,-2.5474305152893066,5.8657941818237305,-6.452373504638672
1777561216101134600,10.775134521484375,-3.2154128551483154,6.3518171310424805,-7.338228225708008
1777561216121306600,10.795306640625,-4.537012100219727,6.8043212890625,-7.230489253997803
1777561216131347000,10.805346923828125,-4.4939165115356445,6.107608318328857,-7.376535415649414
1777561216141417700,10.815417724609375,-3.998316764831543,4.6040496826171875,-7.848193168640137
1777561216151458000,10.8254580078125,-3.1723172664642334,3.3854012489318848,-8.329427719116211
1777561216161528800,10.83552880859375,-2.229001760482788,2.846705913543701,-8.470685958862305
1777561216171599600,10.845599609375,-1.3766659498214722,2.3582887649536133,-8.458714485168457
1777561216181701000,10.855701171875,-0.7398083209991455,2.123656988143921,-8.17380428314209
1777561216201842700,10.8758427734375,-0.12449848651885986,2.094926595687866,-7.292738437652588
1777561216232024600,10.906024658203124,0.12449848651885986,1.8339585065841675,-7.161057472229004
1777561216242095400,10.916095458984374,0.05267243832349777,1.7860745191574097,-7.163451671600342
1777561216252166100,10.926166259765624,-0.2968810200691223,1.6519991159439087,-7.103596210479736
1777561216262237000,10.93623681640625,-0.667982280254364,1.5897499322891235,-6.888118267059326
1777561216272307700,10.9463076171875,-1.158793568611145,1.2497732639312744,-6.196194171905518
1777561216282378500,10.95637841796875,-1.5107412338256836,0.993593692779541,-5.556941986083984
1777561216302550500,10.976550537109375,-1.922544002532959,-0.0071826050989329815,-4.2975921630859375
1777561216322692000,10.996692138671875,-1.802833914756775,-1.4915876388549805,-3.4117374420166016
1777561216332732400,11.006732421875,-1.525106430053711,-2.1954829692840576,-3.00711727142334
1777561216342803200,11.01680322265625,-1.1994950771331787,-2.9688100814819336,-2.494758129119873
1777561216352874000,11.0268740234375,-0.9552865028381348,-3.627215623855591,-2.051830768585205
1777561216362944800,11.03694482421875,-0.9576807022094727,-4.1180267333984375,-1.5155296325683594
1777561216373015800,11.047015869140624,-1.0749965906143188,-4.745307922363281,-0.8571242094039917
1777561216383117000,11.057116943359375,-1.3096283674240112,-5.123591423034668,-0.17956513166427612
1777561216393187800,11.067187744140625,-1.7142484188079834,-5.262455463409424,0.5147533416748047
1777561216433471000,11.107470947265625,-2.760514497756958,-4.292803764343262,2.075772762298584
1777561216443541800,11.117541748046875,-2.964021682739258,-3.7828385829925537,2.011129379272461
1777561216453612500,11.127612548828125,-2.9664158821105957,-3.706224203109741,1.8626888990402222
1777561216463714000,11.137714111328124,-2.82515811920166,-3.758896589279175,1.7860745191574097
1777561216473815300,11.147815185546875,-2.5929205417633057,-4.1611223220825195,1.8363527059555054
1777561216483886000,11.157885986328125,-2.4803929328918457,-4.630385875701904,1.9584569931030273
1777561216493926400,11.167926513671874,-2.7509377002716064,-5.961562156677246,1.821987509727478
1777561216503936000,11.17793603515625,-2.22660756111145,-6.356605529785156,1.6974890232086182
1777561216534179000,11.208178955078125,0.524330198764801,-5.904101371765137,1.4724340438842773
1777561216544219400,11.218219482421874,1.7070658206939697,-6.584054470062256,1.070208191871643
1777561216554320600,11.228320556640625,2.367865562438965,-7.687781810760498,0.5363011956214905
1777561216564391400,11.238391357421875,3.404554843902588,-7.773972988128662,0.19393034279346466
1777561216574462200,11.248462158203125,3.907337188720703,-7.261613845825195,-0.2849099934101105
1777561216584502500,11.25850244140625,3.818751811981201,-6.607996463775635,-0.6871358752250671
1777561216594603800,11.268603759765625,3.0789434909820557,-6.033388137817383,-1.359906554222107
1777561216634826000,11.308825927734375,1.4628572463989258,-4.683058738708496,-10.65898609161377
1777561216665038300,11.339038330078125,1.845929503440857,-4.575319290161133,-7.625532627105713
1777561216675139800,11.349139892578124,1.5059528350830078,-4.577713489532471,-5.671864032745361
1777561216685241000,11.359240966796875,1.2258312702178955,-4.941632270812988,-5.109226226806641
1777561216695312000,11.369311767578125,1.2856862545013428,-5.106832027435303,-5.626373767852783
1777561216715392500,11.389392578125,1.1085153818130493,-4.910507678985596,-6.63433313369751
1777561216745604900,11.41960498046875,-0.33758243918418884,-5.298368453979492,-4.651933670043945
1777561216755675600,11.429675537109375,-1.1085153818130493,-4.944026470184326,-3.8977603912353516
1777561216765746400,11.439746337890625,-1.7046716213226318,-4.3861775398254395,-3.3207578659057617
1777561216775756300,11.44975634765625,-2.1954829692840576,-3.5745432376861572,-2.9903578758239746
1777561216785827000,11.4598271484375,-2.1978771686553955,-2.6599581241607666,-2.937685489654541
1777561216795897900,11.46989794921875,-2.1475989818573,-1.8076223134994507,-3.0621838569641113
1777561216836242000,11.510241943359375,-2.0661959648132324,0.6320692300796509,-3.3734302520751953
1777561216846312700,11.520312744140625,-2.315192937850952,1.292868971824646,-3.2561142444610596
1777561216856383500,11.530383544921875,-2.583343744277954,1.9488801956176758,-3.2178070545196533
1777561216866423800,11.540423828125,-2.82515811920166,2.4396915435791016,-3.0142998695373535
1777561216876464000,11.550464111328125,-3.2345664501190186,3.07415509223938,-2.8610711097717285
1777561216886535000,11.560534912109375,-3.5027170181274414,3.6990416049957275,-2.7485435009002686
1777561216896605700,11.570605712890625,-3.687070608139038,4.388571739196777,-2.9065608978271484
1777561216926818300,11.600818359375,-4.039018154144287,6.09324312210083,-3.404554843902588
1777561216946990300,11.620990234375,-4.027047157287598,7.089231014251709,-3.488351821899414
1777561216957061000,11.63106103515625,-3.9839515686035156,7.539340972900391,-3.44765043258667
1777561216967162400,11.641162353515625,-4.050989151000977,7.16584587097168,-3.512293815612793
1777561216977233200,11.651233154296875,-4.223371982574463,7.117961883544922,-3.667917013168335
1777561216987334700,11.661334716796874,-4.311957359313965,7.228095054626465,-3.6727054119110107
1777561216997405400,11.671405517578124,-4.113238334655762,7.010222434997559,-3.751713991165161
1777561217007506700,11.681506591796875,-3.8786067962646484,6.184223175048828,-3.7421371936798096
1777561217037688600,11.7116884765625,-3.5003228187561035,6.8809356689453125,-4.376600742340088
1777561217077910800,11.751910888671874,-3.2632968425750732,6.119579315185547,-4.02465295791626
1777561217098022000,11.77202197265625,-3.6798880100250244,4.975151062011719,-3.797203779220581
1777561217108123100,11.782123046875,-4.039018154144287,4.747702121734619,-3.646369218826294
1777561217118194000,11.79219384765625,-3.8594532012939453,4.000710964202881,-3.643975019454956
1777561217148406300,11.82240625,0.3998316824436188,-3.44765043258667,-5.75326681137085
1777561217158477000,11.83247705078125,1.113303780555725,-2.7988216876983643,-7.026981830596924
1777561217168547800,11.8425478515625,1.1899182796478271,-1.2306196689605713,-7.268796443939209
1777561217178618600,11.85261865234375,0.8020575642585754,0.23942017555236816,-6.519411087036133
1777561217188689400,11.862689453125,-0.1867477297782898,1.5945383310317993,-5.52821159362793
1777561217198760400,11.872760498046874,-1.0797849893569946,2.212242364883423,-5.018246650695801
1777561217208861700,11.88286181640625,-1.5394717454910278,2.360682964324951,-5.3342814445495605
1777561217218932500,11.892932373046875,-1.5203180313110352,2.715024709701538,-6.124367713928223
1777561217239043600,11.913043701171874,-0.5051765441894531,3.557783842086792,-7.331045627593994
1777561217259154700,11.93315478515625,0.14604631066322327,3.533841609954834,-6.998251438140869
1777561217269195000,11.943195068359374,0.07661445438861847,3.1028854846954346,-6.457161903381348
1777561217279265800,11.953265869140624,-0.12928688526153564,2.2625205516815186,-5.7125654220581055
1777561217289336600,11.963336669921874,-0.6871358752250671,1.3551181554794312,-5.197812080383301
1777561217299437800,11.973437744140625,-1.1276689767837524,0.5650315880775452,-4.4292731285095215
1777561217309508600,11.983508544921875,-1.6543933153152466,0.08858546614646912,-3.885789394378662
1777561217319579400,11.993579345703125,-1.9991583824157715,-0.3998316824436188,-3.292027235031128
1777561217329650200,12.003650146484375,-2.188300371170044,-0.7134721279144287,-2.7964274883270264
1777561217349730800,12.023730712890625,-1.6759412288665771,-0.9026140570640564,-1.7142484188079834
1777561217369842000,12.043842041015624,-1.7190368175506592,-1.4891934394836426,-0.6847416758537292
1777561217379882200,12.05388232421875,-1.6136919260025024,-1.0989385843276978,-0.2585737705230713
1777561217389953000,12.063953125,-1.6663644313812256,-0.3711012601852417,0
1777561217400023800,12.07402392578125,-1.9369091987609863,0.4118026793003082,0.06464344263076782
1777561217410125000,12.084125,-2.2146365642547607,0.9672574996948242,0.35673606395721436
1777561217420165400,12.094165283203125,-2.5522189140319824,0.9385270476341248,0.7422025203704834
1777561217430236200,12.104236083984375,-3.0382418632507324,0.7996633648872375,0.8547300100326538
1777561217450377700,12.124377685546875,-3.6511576175689697,-0.7158663272857666,0.7805097699165344
1777561217480590000,12.154590087890625,-2.248155355453491,-2.315192937850952,0.9840168952941895
1777561217490660900,12.164660888671875,-1.5083470344543457,-2.408566951751709,1.235408067703247
1777561217500701200,12.174701171875,-0.7015010714530945,-2.942473888397217,1.173158884048462
1777561217510772000,12.18477197265625,0.22744916379451752,-3.624821424484253,0.5315127968788147
1777561217520842800,12.1948427734375,1.1300631761550903,-4.350264549255371,-0.2801215946674347
1777561217551085800,12.2250859375,2.367865562438965,-5.944802761077881,-2.2673089504241943
1777561217571257900,12.2452578125,2.4827871322631836,-5.963956356048584,-5.161899089813232
1777561217581298200,12.255298095703125,2.382230758666992,-6.332663536071777,-7.603984832763672
1777561217591369000,12.265368896484375,2.8347349166870117,-7.2568254470825195,-10.517727851867676
1777561217601409300,12.2754091796875,3.533841609954834,-8.197746276855469,-12.966996192932129
1777561217611480000,12.28547998046875,3.907337188720703,-8.544905662536621,-14.080300331115723
1777561217621550800,12.29555078125,3.598485231399536,-8.520963668823242,-13.060370445251465
1777561217631652000,12.305652099609375,2.9759926795959473,-8.552088737487793,-10.426748275756836
1777561217641723000,12.315722900390625,2.1332337856292725,-8.324639320373535,-8.022970199584961
1777561217681975600,12.3559755859375,0.18914192914962769,-5.523423194885254,-2.849100112915039
1777561217692046300,12.36604638671875,0.2513911724090576,-4.929661273956299,-2.0925323963165283
1777561217702117400,12.376117431640624,0.15562310814857483,-4.807557106018066,-1.4748282432556152
1777561217712157400,12.386157470703125,-0.002394201699644327,-5.12119722366333,-1.091755986213684
1777561217722197800,12.39619775390625,-0.3447650372982025,-5.367800235748291,-0.6967126727104187
1777561217732268500,12.4062685546875,-0.6224924325942993,-5.279214859008789,-0.3878606855869293
1777561217762420000,12.436419921875,-1.0031704902648926,-3.3303346633911133,-1.2186486721038818
1777561217782561500,12.4565615234375,-1.6089035272598267,-1.8962076902389526,-2.2194249629974365
1777561217792632300,12.46663232421875,-1.8938134908676147,-0.7781155705451965,-2.4420857429504395
1777561217802672600,12.476672607421875,-2.322375535964966,0.0933738648891449,-2.63362193107605
1777561217812713000,12.486712890625,-2.5450363159179688,1.048660397529602,-2.63362193107605
1777561217822783700,12.49678369140625,-2.580949544906616,1.7836803197860718,-2.6001031398773193
1777561217832885000,12.506885009765625,-2.5713725090026855,2.4420857429504395,-2.717418909072876
1777561217842925300,12.51692529296875,-2.6671407222747803,3.1268274784088135,-2.9472622871398926
1777561217873168400,12.54716845703125,-2.6408045291900635,5.604825973510742,-2.9759926795959473
1777561217883239200,12.5572392578125,-2.8874073028564453,6.172252178192139,-3.0621838569641113
1777561217893340400,12.56734033203125,-3.2369606494903564,6.914454460144043,-3.1699230670928955
1777561217903411200,12.5774111328125,-3.557783842086792,7.433996200561523,-3.3686418533325195
1777561217913512400,12.587512451171875,-3.6080620288848877,7.5417351722717285,-3.512293815612793
1777561217923583200,12.597583251953125,-3.751713991165161,7.3238630294799805,-3.4811692237854004
1777561217933654000,12.607654052734375,-3.3638534545898438,7.400477409362793,-3.464409828186035
1777561217943724800,12.617724853515625,-2.9544448852539062,7.2568254470825195,-3.529053211212158
1777561217983886000,12.657885986328125,-1.2761094570159912,6.124367713928223,-5.276820659637451
1777561217993987300,12.6679873046875,-1.7621324062347412,6.030993938446045,-5.16429328918457
1777561218004058000,12.67805810546875,-2.0614075660705566,6.054935932159424,-4.757278919219971
1777561218024138800,12.698138671875,-1.7549498081207275,5.281609058380127,-3.335123062133789
1777561218034240000,12.708239990234375,-1.5394717454910278,4.134786128997803,-2.829946517944336
1777561218044280300,12.7182802734375,-0.7158663272857666,2.8610711097717285,-2.8347349166870117
1777561218064361000,12.73836083984375,1.0223240852355957,-2.6001031398773193,-5.556941986083984
1777561218094603800,12.768603759765625,1.41257905960083,-2.4157495498657227,-8.149862289428711
1777561218104613600,12.778613525390625,0.8906430602073669,-0.304063618183136,-7.007828235626221
1777561218114715000,12.78871484375,0.14844051003456116,0.9074024558067322,-5.398924827575684
1777561218124785700,12.79878564453125,-0.2082955539226532,1.889025092124939,-4.333505153656006
1777561218134826000,12.808825927734375,-0.43335050344467163,2.6384103298187256,-4.079719543457031
1777561218144866300,12.8188662109375,-0.7254431247711182,3.318363666534424,-4.039018154144287
1777561218195250700,12.869250732421875,-3.421314239501953,4.14915132522583,-3.56017804145813
1777561218205321500,12.879321533203125,-3.8953661918640137,3.8283286094665527,-2.9065608978271484
1777561218225432600,12.8994326171875,-4.1395745277404785,3.177105665206909,-1.6879122257232666
1777561218235534000,12.9095341796875,-4.175487995147705,3.1747114658355713,-1.2473790645599365
1777561218245574400,12.919574462890624,-4.010287761688232,3.095702886581421,-0.8978256583213806
1777561218265685200,12.939685302734375,-3.555389642715454,2.5067291259765625,-0.26336219906806946
1777561218275786800,12.949786865234374,-3.1028854846954346,2.2409727573394775,-0.043095629662275314
1777561218316130800,12.990130859375,-1.8411411046981812,0.5841852426528931,0.5817909836769104
1777561218326171100,13.000171142578125,-1.5753847360610962,0.1867477297782898,0.727837324142456
1777561218336242000,13.010241943359375,-1.5155296325683594,-0.10534487664699554,0.8164227604866028
1777561218346312700,13.020312744140625,-1.5059528350830078,-0.6512228846549988,0.9600749015808105
1777561218356353000,13.03035302734375,-1.7286136150360107,-0.6799532771110535,0.8140285611152649
1777561218376464100,13.050464111328125,-1.8770540952682495,-0.9361328482627869,0.05985504388809204
1777561218396636400,13.070636474609374,-1.8938134908676147,-1.3215993642807007,-0.6799532771110535
1777561218406676500,13.080676513671875,-1.9393033981323242,-1.599326729774475,-1.1204863786697388
1777561218416747300,13.090747314453125,-2.1763293743133545,-1.7334020137786865,-1.647210717201233
1777561218426787600,13.10078759765625,-2.161964178085327,-1.9823989868164062,-1.534683346748352
1777561218436858400,13.1108583984375,-1.9776105880737305,-2.360682964324951,-2.319981336593628
1777561218446929200,13.12092919921875,-1.5275006294250488,-2.7461493015289307,-3.7469255924224854
1777561218457030700,13.13103076171875,-1.5418659448623657,-2.896984100341797,-5.319916248321533
1777561218477141800,13.151141845703124,-1.0654197931289673,-4.95120906829834,-10.520122528076172
1777561218497252900,13.1712529296875,2.674323320388794,-9.32302188873291,-18.033126831054688
1777561218507323600,13.18132373046875,3.466804027557373,-11.322179794311523,-17.657238006591797
1777561218517394400,13.19139453125,2.387019157409668,-12.229581832885742,-13.548787117004395
1777561218527465200,13.20146533203125,-0.23942017555236816,-12.466608047485352,-9.411606788635254
1777561218537566500,13.21156640625,-2.647987127304077,-12.773066520690918,-6.979097843170166
1777561218547606800,13.221606689453125,-2.698265314102173,-12.569559097290039,-5.858611583709717
1777561218557708000,13.2317080078125,-1.3670891523361206,-11.382035255432129,-5.592854976654053
1777561218577880300,13.25188037109375,2.365471363067627,-7.723694801330566,-5.78678560256958
1777561218608031500,13.282031494140625,3.713406801223755,-4.496310710906982,-2.5019407272338867
1777561218618102300,13.292102294921875,2.693476915359497,-4.469974517822266,-0.6344634294509888
1777561218628142600,13.302142578125,1.4317326545715332,-4.707000732421875,0.9816226959228516
1777561218638213400,13.31221337890625,0.768538773059845,-5.161899089813232,2.164358377456665
1777561218648253700,13.322253662109375,-0.2801215946674347,-5.693411827087402,2.8107926845550537
1777561218658324500,13.332324462890625,-0.849941611289978,-6.2416839599609375,2.920926094055176
1777561218688506400,13.36250634765625,-1.922544002532959,-5.509057998657227,1.968033790588379
1777561218698577200,13.3725771484375,-2.1930887699127197,-4.532223701477051,1.6208745241165161
1777561218708587000,13.3825869140625,-2.250549554824829,-3.6152446269989014,1.3311761617660522
1777561218718688300,13.392688232421875,-2.5450363159179688,-2.7724854946136475,1.2832920551300049
1777561218728759000,13.402759033203125,-2.5234885215759277,-1.9752163887023926,1.072602391242981
1777561218738829800,13.412829833984375,-2.676717519760132,-1.5753847360610962,0.7781155705451965
1777561218748870100,13.4228701171875,-2.7078421115875244,-1.0965443849563599,0.5195417404174805
1777561218758941000,13.43294091796875,-2.698265314102173,-0.7924807667732239,0.16519992053508759
1777561218769011700,13.44301171875,-2.7246015071868896,-0.4429273009300232,-0.3256114423274994
1777561218789153300,13.4631533203125,-2.9041666984558105,1.3766659498214722,-1.3048399686813354
1777561218799224000,13.47322412109375,-3.0095114707946777,1.5897499322891235,-1.6304513216018677
1777561218809295000,13.483295166015624,-3.224989652633667,2.2170307636260986,-1.9776105880737305
1777561218819366000,13.493365966796874,-3.2393548488616943,2.8850131034851074,-2.296039342880249
1777561218829436700,13.503436767578124,-3.576937437057495,3.4548330307006836,-2.360682964324951
1777561218839507500,13.513507568359374,-3.804386615753174,3.737348794937134,-2.123656988143921
1777561218849578200,13.523578125,-4.086902141571045,3.5936968326568604,-1.7597382068634033
1777561218859649000,13.53364892578125,-4.467580318450928,3.581725835800171,-1.4269442558288574
1777561218869719800,13.5437197265625,-4.537012100219727,3.9695863723754883,-1.290474772453308
1777561218899932200,13.57393212890625,-4.1874589920043945,4.513070106506348,-1.0462661981582642
1777561218920012800,13.5940126953125,-4.14915132522583,3.512293815612793,-1.7836803197860718
1777561218930114000,13.604114013671875,-4.479551315307617,3.28963303565979,-2.2433669567108154
1777561218940184800,13.614184814453125,-4.819528102874756,3.272873640060425,-2.655169725418091
1777561218950255600,13.624255615234375,-4.797980308532715,3.555389642715454,-2.7269957065582275
1777561218960326400,13.634326416015625,-4.627991676330566,3.5386300086975098,-2.875436305999756
1777561218970366700,13.64436669921875,-4.829104900360107,3.5003228187561035,-3.064578056335449
1777561218980407000,13.654406982421875,-4.946420669555664,3.2321722507476807,-3.6942532062530518
1777561219020629200,13.694629150390625,-4.189853191375732,-0.1843535304069519,-6.818686485290527
1777561219030700000,13.704699951171875,-4.106055736541748,0.6200982332229614,-7.273584842681885
1777561219040770800,13.714770751953125,-3.756502389907837,0.9864110946655273,-7.522581577301025
1777561219050841600,13.724841552734375,-3.5482068061828613,1.1683704853057861,-7.398083209991455
1777561219060912400,13.734912353515625,-3.2776620388031006,1.3096283674240112,-7.0126166343688965
1777561219070983200,13.744983154296875,-2.892195701599121,1.115697979927063,-6.89530086517334
1777561219091155500,13.765155517578124,-2.1978771686553955,1.0055646896362305,-7.393294811248779
1777561219101226200,13.775226318359374,-1.723825216293335,1.0630255937576294,-7.441178798675537
1777561219121306600,13.795306640625,-0.8978256583213806,0.9433154463768005,-7.285555839538574
1777561219131347000,13.805346923828125,-0.8212111592292786,0.8020575642585754,-7.086836814880371
1777561219141387300,13.81538720703125,-1.0438719987869263,0.20350714027881622,-6.775590896606445
1777561219151458000,13.8254580078125,-1.3551181554794312,-0.7038952708244324,-6.1985883712768555
1777561219161528800,13.83552880859375,-1.8722656965255737,-1.6950948238372803,-5.631162166595459
1777561219171599600,13.845599609375,-2.279279947280884,-2.47560453414917,-4.812345504760742
1777561219181670400,13.85567041015625,-2.5474305152893066,-3.043030261993408,-4.101267337799072
1777561219191741200,13.8657412109375,-2.6862943172454834,-3.4548330307006836,-3.3255462646484375
1777561219211913500,13.88591357421875,-2.2457611560821533,-4.299986362457275,-1.987187385559082
1777561219221984300,13.895984375,-1.6903064250946045,-4.6950297355651855,-1.45806884765625
1777561219232024600,13.906024658203124,-0.8690952062606812,-4.972756862640381,-0.993593692779541
1777561219242064600,13.916064697265625,-0.4908113479614258,-5.054159641265869,-0.6153098344802856
1777561219252135700,13.9261357421875,-0.42616790533065796,-4.898536682128906,-0.1149216815829277
1777561219262237000,13.93623681640625,-0.5985504388809204,-4.819528102874756,0.31124621629714966
1777561219272338200,13.946338134765625,-0.9361328482627869,-4.606443881988525,0.5482721924781799
1777561219282409000,13.956408935546875,-1.0534487962722778,-4.32871675491333,0.586579442024231
1777561219312590800,13.9865908203125,-0.17238251864910126,-4.853046894073486,0.4812345504760742
1777561219332702000,14.006701904296875,1.1468225717544556,-5.937620162963867,0.2513911724090576
1777561219342772700,14.016772705078125,1.6400281190872192,-6.270414352416992,0.21308395266532898
1777561219352843500,14.026843505859375,1.9704279899597168,-6.641515731811523,0.07900865375995636
1777561219362944800,14.03694482421875,2.1571757793426514,-6.842628479003906,-0.12210428714752197
1777561219373015800,14.047015869140624,2.0590133666992188,-6.957550048828125,-0.19632454216480255
1777561219383086600,14.057086669921874,2.027888774871826,-7.1490864753723145,-0.2059013396501541
1777561219393157400,14.067157470703124,1.7980455160140991,-7.352593421936035,-0.2561795711517334
1777561219423278000,14.097278076171875,0.7110779285430908,-7.5968017578125,-0.9911994934082031
1777561219433348900,14.107348876953125,0.2992752194404602,-7.524975776672363,-1.6879122257232666
1777561219443450400,14.117450439453124,0.14604631066322327,-7.5417351722717285,-2.585737943649292
1777561219453521200,14.127521240234374,0.28730419278144836,-7.647080421447754,-3.5386300086975098
1777561219463592000,14.137592041015624,0.7445967197418213,-7.781155586242676,-4.299986362457275
1777561219473693200,14.147693115234375,0.871489405632019,-7.869740962982178,-4.654327869415283
1777561219483733500,14.1577333984375,0.8068459630012512,-7.706935405731201,-4.422090530395508
1777561219493773800,14.16777392578125,0.22266076505184174,-7.429207801818848,-3.5865142345428467
1777561219523986200,14.197986083984375,-2.0925323963165283,-7.728483200073242,-1.3934253454208374
1777561219534057000,14.208056884765625,-2.434903144836426,-8.130708694458008,-1.7956513166427612
1777561219544097300,14.21809716796875,-2.5043349266052246,-8.427590370178223,-2.580949544906616
1777561219554198500,14.228198486328125,-2.8993782997131348,-8.226476669311523,-3.4356794357299805
1777561219564299800,14.2382998046875,-3.3662476539611816,-8.010998725891113,-4.14915132522583
1777561219574370600,14.24837060546875,-3.7900211811065674,-7.920019149780273,-4.443638324737549
1777561219584411000,14.258410888671875,-4.264073371887207,-7.800309181213379,-4.19224739074707
1777561219594481700,14.268481689453125,-4.687847137451172,-7.7763671875,-3.380612850189209
1777561219634765000,14.30876513671875,-6.900089263916016,-6.550535678863525,-0.8906430602073669
1777561219644866300,14.3188662109375,-7.113173484802246,-5.7987565994262695,-0.6344634294509888
1777561219654937000,14.32893701171875,-7.182605266571045,-4.876988887786865,-0.4429273009300232
1777561219664977400,14.338977294921875,-7.067683219909668,-4.230554580688477,-0.21547815203666687
1777561219675048200,14.349048095703125,-6.572083473205566,-4.046200752258301,0.06703764945268631
1777561219685088500,14.359088623046874,-6.854599475860596,-3.890577793121338,0.5482721924781799
1777561219695128800,14.36912890625,-6.852205276489258,-3.112462282180786,1.048660397529602
1777561219735381500,14.409381591796874,-6.94079065322876,-2.5929205417633057,1.8507179021835327
1777561219745452300,14.419452392578124,-7.005434036254883,-3.1483752727508545,1.7118542194366455
1777561219755492600,14.42949267578125,-7.0317702293396,-3.1100680828094482,1.237802267074585
1777561219765563400,14.4395634765625,-6.94079065322876,-2.7461493015289307,0.751779317855835
1777561219775634200,14.44963427734375,-6.842628479003906,-2.250549554824829,0.42856210470199585
1777561219785735400,14.4597353515625,-6.682217121124268,-1.5083470344543457,0.5363011956214905
1777561219795806200,14.46980615234375,-6.428431510925293,-0.9696516990661621,0.8954314589500427
1777561219805907500,14.479907470703125,-6.141127586364746,-0.5171475410461426,1.091755986213684
1777561219835998000,14.509998046875,-5.367800235748291,0.019153613597154617,0.6392518281936646
1777561219846099200,14.52009912109375,-5.102043628692627,0.3016694188117981,0.47884035110473633
1777561219856139500,14.530139404296875,-4.910507678985596,0.7829039692878723,0.33518823981285095
1777561219866240800,14.54024072265625,-4.812345504760742,1.0821791887283325,0.395043283700943
1777561219876311600,14.5503115234375,-4.5825018882751465,1.414973258972168,0.38546648621559143
1777561219886382300,14.56038232421875,-4.240131378173828,1.3694833517074585,0.272938996553421
1777561219896392200,14.57039208984375,-3.890577793121338,1.2330138683319092,-0.11971008777618408
1777561219906493400,14.580493408203125,-3.936067581176758,1.292868971824646,-0.19632454216480255
1777561219926635000,14.600635009765625,-3.378218650817871,1.2210428714752197,-1.1516109704971313
1777561219936675300,14.61067529296875,-3.203441858291626,1.2210428714752197,-1.4532804489135742
1777561219946715600,14.620715576171875,-2.9472622871398926,1.235408067703247,-1.6543933153152466
1777561219956786400,14.630786376953125,-2.7054479122161865,1.1420341730117798,-2.075772762298584
1777561219976928000,14.650927978515625,-2.6360161304473877,1.0079588890075684,-3.222595453262329
1777561219987029200,14.661029296875,-2.9233202934265137,1.5634137392044067,-3.665522813796997
1777561219997069600,14.671069580078125,-3.2848446369171143,2.2673089504241943,-3.7229835987091064
1777561220007140400,14.681140380859375,-3.2824504375457764,2.8227639198303223,-3.313575267791748
1777561220027282000,14.701281982421875,-2.7126305103302,2.765302896499634,-2.011129379272461
1777561220047393000,14.72139306640625,-1.1204863786697388,2.013523578643799,-1.8722656965255737
1777561220057463800,14.7314638671875,-0.31603461503982544,1.9249382019042969,-1.9321208000183105
1777561220067534800,14.741534912109374,0.011971008032560349,2.0159177780151367,-1.7932571172714233
1777561220077575000,14.751574951171875,0.016759412363171577,1.7884687185287476,-1.721431016921997
1777561220087676400,14.761676513671874,-0.24181437492370605,1.6927006244659424,-1.9512743949890137
1777561220097716700,14.771716796875,-0.507570743560791,1.534683346748352,-2.5306711196899414
1777561220107818000,14.78181787109375,-0.8140285611152649,1.3120225667953491,-3.1699230670928955
1777561220117858300,14.7918583984375,-0.8643068075180054,0.9241618514060974,-3.7421371936798096
1777561220137969400,14.811969482421874,-1.0582371950149536,0.40462008118629456,-4.125209331512451
1777561220158080500,14.83208056640625,-0.912190854549408,-0.12449848651885986,-3.7924153804779053
1777561220168181800,14.842181640625,-0.790086567401886,-0.5386953949928284,-3.4308910369873047
1777561220178222000,14.85222216796875,-0.3758896589279175,-1.0606313943862915,-3.0550012588500977
1777561220188292900,14.86229296875,0.23702596127986908,-1.6280571222305298,-2.846705913543701
1777561220198333200,14.872333251953124,0.6967126727104187,-1.9847931861877441,-2.3582887649536133
1777561220208373200,14.882373291015625,1.1013327836990356,-2.33913516998291,-1.8986018896102905
1777561220218444000,14.892444091796875,1.3694833517074585,-2.676717519760132,-1.2713210582733154
1777561220228515000,14.90251513671875,1.3766659498214722,-2.9041666984558105,-0.49320554733276367
1777561220248656600,14.92265673828125,0.9145850539207458,-2.964021682739258,0.768538773059845
1777561220258727400,14.9327275390625,0.7493851184844971,-2.9735984802246094,1.381454348564148
1777561220268798200,14.942798095703125,0.7972691655158997,-3.1723172664642334,1.8626888990402222
1777561220278838500,14.952838623046874,1.2258312702178955,-3.3901896476745605,1.9823989868164062
1777561220288909300,14.962909423828124,1.290474772453308,-3.2800562381744385,2.051830768585205
1777561220298949600,14.97294970703125,1.213860273361206,-3.512293815612793,2.161964178085327
1777561220309020400,14.9830205078125,1.2018892765045166,-3.799597978591919,2.3127987384796143
1777561220319121700,14.99312158203125,1.2234370708465576,-4.065354347229004,2.5929205417633057
1777561220359435300,15.033435302734375,1.455674648284912,-3.840299606323242,3.3662476539611816
1777561220369506000,15.043506103515625,1.4867992401123047,-3.883395195007324,3.270479440689087
1777561220379577000,15.0535771484375,1.6352397203445435,-3.907337188720703,3.160346269607544
1777561220389648000,15.06364794921875,1.8267759084701538,-3.804386615753174,3.004723072052002
1777561220399688000,15.07368798828125,1.965639591217041,-3.794809579849243,2.75812029838562
1777561220409789400,15.08378955078125,2.1547815799713135,-3.861847400665283,2.58813214302063
1777561220419829800,15.093829833984374,2.161964178085327,-3.864241600036621,2.58813214302063
1777561220429931000,15.103930908203125,2.212242364883423,-3.9815573692321777,2.6647465229034424
1777561220450103000,15.12410302734375,2.0638017654418945,-3.9217023849487305,3.0166940689086914
1777561220460173800,15.134173828125,1.9081788063049316,-3.9001545906066895,3.0166940689086914
1777561220470275300,15.144275390625,1.7693150043487549,-3.845088005065918,3.004723072052002
1777561220480346000,15.15434619140625,1.6424223184585571,-3.8762125968933105,2.9161376953125
1777561220490417000,15.1644169921875,1.5275006294250488,-3.9025487899780273,2.719813108444214
1777561220500457200,15.174457275390624,1.3551181554794312,-3.931279182434082,2.293645143508911
1777561220510528000,15.184528076171874,1.2521674633026123,-3.9911341667175293,1.9632453918457031
1777561220520598800,15.194598876953124,1.1204863786697388,-3.995922565460205,1.5969325304031372
1777561220530669600,15.204669677734374,0.9624691009521484,-4.039018154144287,1.3646949529647827
1777561220540740400,15.214740234375,0.950498104095459,-4.163516521453857,1.015141487121582
1777561220591155500,15.265155517578124,0.1149216815829277,-4.168305397033691,-1.5322890281677246
1777561220601226200,15.275226318359374,-0.10055647045373917,-4.180276393890381,-1.800439715385437
1777561220611297000,15.285297119140624,-0.42856210470199585,-4.383783340454102,-1.9943699836730957
1777561220621367800,15.295367919921874,-1.0965443849563599,-4.436455726623535,-2.2242133617401123
1777561220631469000,15.305468994140625,-1.5466543436050415,-4.685452938079834,-2.829946517944336
1777561220671813400,15.3458134765625,-0.35913026332855225,-6.617573261260986,-4.766855716705322
1777561220681884200,15.35588427734375,-1.4700398445129395,-5.770026206970215,-3.3446998596191406
1777561220691985400,15.3659853515625,-2.913743495941162,-4.975151062011719,-2.190694570541382
1777561220702025700,15.376025634765625,-4.252102375030518,-4.434061527252197,-1.8315643072128296
1777561220712127000,15.386126953125,-5.193023681640625,-4.137180328369141,-2.3511061668395996
1777561220722167300,15.396167236328125,-5.468356609344482,-3.7636849880218506,-3.201047658920288
1777561220732238000,15.406238037109375,-5.367800235748291,-3.3279404640197754,-3.9169139862060547
1777561220742278400,15.4162783203125,-5.020640850067139,-2.8155810832977295,-4.271255970001221
1777561220762450400,15.436450439453125,-4.067748546600342,-2.434903144836426,-4.1156325340271
1777561220772521200,15.446521240234375,-3.734954595565796,-2.7317841053009033,-3.892971992492676
1777561220782561500,15.4565615234375,-3.4548330307006836,-2.8179752826690674,-3.308786630630493
1777561220802703000,15.476703125,-3.490746021270752,-2.449268341064453,-2.0853497982025146
1777561220812743400,15.486743408203125,-3.758896589279175,-1.8986018896102905,-1.659181833267212
1777561220822753300,15.496753173828125,-3.8067808151245117,-1.3551181554794312,-1.2641384601593018
1777561220832854500,15.5068544921875,-4.082113742828369,-0.6536170840263367,-0.9959878921508789
1777561220842925300,15.51692529296875,-4.491522312164307,-0.011971008032560349,-0.7829039692878723
1777561220862975500,15.5369755859375,-5.011064052581787,0.8595184087753296,-0.6009446382522583
1777561220883147500,15.5571474609375,-5.216965675354004,1.5849615335464478,-0.2944868206977844
1777561220893248800,15.567248779296875,-5.2480902671813965,1.8531121015548706,-0.22744916379451752
1777561220903258600,15.577258544921875,-5.228936672210693,2.209848165512085,-0.4165911078453064
1777561220913360000,15.58735986328125,-5.142745018005371,2.760514497756958,-0.5339069962501526
1777561220923430700,15.5974306640625,-4.934449672698975,3.2345664501190186,-0.5315127968788147
1777561220933532200,15.6075322265625,-4.802768707275391,3.5889084339141846,-0.19153612852096558
1777561220943572200,15.617572265625,-4.642356872558594,4.0078935623168945,0.031124621629714966
1777561220953673700,15.627673828125,-4.417302131652832,4.381389141082764,0.24181437492370605
1777561220983855600,15.657855712890624,-3.3638534545898438,5.372588634490967,0.5123591423034668
1777561220993956900,15.667956787109375,-2.9448680877685547,5.504269599914551,0.8331822156906128
1777561221004027600,15.678027587890625,-2.674323320388794,5.7987565994262695,1.115697979927063
1777561221014098400,15.688098388671875,-2.5282769203186035,6.145915985107422,1.3910311460494995
1777561221024108300,15.6981083984375,-2.3582887649536133,6.5912370681762695,1.6927006244659424
1777561221034179000,15.708178955078125,-2.183511972427368,7.017405033111572,1.9177556037902832
1777561221044249900,15.718249755859375,-1.6974890232086182,7.206547260284424,2.03507137298584
1777561221074431700,15.748431640625,-0.023942016065120697,6.66785192489624,1.3335703611373901
1777561221084472000,15.75847216796875,0.40940847992897034,6.552929878234863,0.5482721924781799
1777561221094542800,15.76854296875,0.5770025849342346,6.469132900238037,-0.1604115068912506
1777561221104552400,15.778552490234375,0.8068459630012512,6.315904140472412,-0.6584054827690125
1777561221114654000,15.788654052734374,0.768538773059845,6.18182897567749,-0.9289502501487732
1777561221124724700,15.798724853515624,0.5386953949928284,6.124367713928223,-1.2401964664459229
1777561221134826000,15.808825927734375,0.5482721924781799,5.904101371765137,-1.5705963373184204
1777561221144835800,15.8188359375,0.4165911078453064,5.676652431488037,-1.9249382019042969
1777561221165008000,15.8390078125,-0.19393034279346466,5.781997203826904,-2.4157495498657227
1777561221185149400,15.8591494140625,0.37828385829925537,5.394136428833008,-3.114856481552124
1777561221195189800,15.869189697265625,0.6871358752250671,4.675876140594482,-3.3877954483032227
1777561221205260500,15.879260498046875,1.0055646896362305,4.271255970001221,-3.3039982318878174
1777561221215331300,15.889331298828125,1.1540051698684692,4.168305397033691,-3.0095114707946777
1777561221225371600,15.89937158203125,0.9169792532920837,4.505887508392334,-2.8610711097717285
1777561221235442400,15.9094423828125,0.16519992053508759,5.061342239379883,-3.2776620388031006
1777561221245482800,15.919482666015625,-0.1412578970193863,5.106832027435303,-4.599261283874512
1777561221265624300,15.939624267578125,0.6129156351089478,2.738966703414917,-9.040505409240723
1777561221285827000,15.9598271484375,1.6950948238372803,0.8307880163192749,-10.323798179626465
1777561221295928300,15.96992822265625,1.8483237028121948,0.8259995579719543,-9.05487060546875
1777561221305999000,15.9799990234375,1.8746598958969116,0.23942017555236816,-7.376535415649414
1777561221316070000,15.99006982421875,1.5945383310317993,-0.8547300100326538,-6.1770405769348145
1777561221326140700,16.000140625,1.3311761617660522,-2.188300371170044,-5.825092792510986
1777561221336242000,16.010241943359375,1.2713210582733154,-3.758896589279175,-6.086060523986816
1777561221346312700,16.020312744140625,0.7374141216278076,-2.6791117191314697,-7.180211067199707
1777561221386626600,16.06062646484375,1.5921441316604614,-5.073313236236572,-5.473145008087158
1777561221396727800,16.070727783203125,1.764526605606079,-5.990292549133301,-3.88818359375
1777561221406798600,16.080798583984375,1.460463047027588,-7.115567684173584,-2.1380221843719482
1777561221416869400,16.090869384765625,0.6847416758537292,-7.295132637023926,-0.5770025849342346
1777561221426940200,16.100940185546875,-0.15322890877723694,-6.624756336212158,0.5554547905921936
1777561221447081700,16.121081787109375,-0.44532153010368347,-4.347870349884033,1.5203180313110352
1777561221457152800,16.13115283203125,0.2585737705230713,-3.6966474056243896,1.4963760375976562
1777561221477294300,16.15129443359375,1.0989385843276978,-3.6559460163116455,1.601720929145813
1777561221497436000,16.171435791015625,2.0231003761291504,-4.288015365600586,2.8826189041137695
1777561221507506700,16.181506591796875,2.5737667083740234,-4.280832767486572,3.8786067962646484
1777561221517608000,16.19160791015625,2.9472622871398926,-3.801992416381836,4.8051629066467285
1777561221527678700,16.2016787109375,3.2154128551483154,-2.7054479122161865,5.595249176025391
1777561221537749500,16.21174951171875,3.335123062133789,-1.4389152526855469,6.2847795486450195
1777561221547789800,16.221789794921875,3.248931646347046,-0.569819986820221,6.959944248199463
1777561221557860600,16.231860595703125,3.332728862762451,-0.16519992053508759,7.486668586730957
1777561221567901000,16.24190087890625,3.2585084438323975,-0.28969839215278625,7.843404769897461
1777561221578002200,16.252002197265625,3.2776620388031006,-0.9481038451194763,8.209717750549316
1777561221588042500,16.26204248046875,3.337517261505127,-1.843535304069519,8.121131896972656
1777561221598143700,16.272143798828125,3.5410242080688477,-3.071760892868042,7.443572998046875
1777561221608214800,16.28221484375,4.015076160430908,-4.446032524108887,6.40927791595459
1777561221618316000,16.29231591796875,4.469974517822266,-5.827486991882324,5.348646640777588
1777561221628356400,16.3023564453125,5.638344764709473,-7.572859764099121,4.000710964202881
1777561221638396700,16.312396728515626,6.983886241912842,-9.926360130310059,2.3942017555236816
1777561221648467500,16.322467529296876,8.111555099487305,-12.155362129211426,-0.05506663769483566
1777561221658538200,16.332538330078126,9.01895809173584,-13.330915451049805,-3.397372245788574
1777561221668578600,16.34257861328125,7.637503623962402,-12.76109504699707,-6.655880928039551
1777561221708861700,16.38286181640625,-2.33913516998291,-6.311115741729736,-8.939949035644531
1777561221728942000,16.402942138671875,-3.227383852005005,-6.670246124267578,-4.853046894073486
1777561221738982400,16.412982421875,-2.343923568725586,-6.698976516723633,-5.12119722366333
1777561221749053200,16.42305322265625,-1.7836803197860718,-6.737283706665039,-5.655104637145996
1777561221759154700,16.43315478515625,-1.314416766166687,-6.789956092834473,-5.738901615142822
1777561221789367000,16.463366943359375,-0.023942016065120697,-5.377377033233643,-3.1747114658355713
1777561221799437800,16.473437744140625,0.12449848651885986,-4.5609540939331055,-2.3367409706115723
1777561221809478100,16.48347802734375,0.3447650372982025,-3.818751811981201,-1.778891921043396
1777561221819579400,16.493579345703125,0.4644751250743866,-3.1435868740081787,-1.3838485479354858
1777561221829619700,16.50361962890625,0.5746083855628967,-2.3271639347076416,-1.403002142906189
1777561221839721000,16.513720947265625,0.8786720037460327,-1.1300631761550903,-1.9177556037902832
1777561221849761300,16.52376123046875,0.9457096457481384,0.23942017555236816,-2.7557260990142822
1777561221859832000,16.53383203125,0.6536170840263367,1.644816517829895,-3.825934410095215
1777561221869933300,16.543933349609375,0.3280056416988373,2.7509377002716064,-5.008669853210449
1777561221900146000,16.57414599609375,-2.3343467712402344,4.867412090301514,-6.959944248199463
1777561221920287500,16.59428759765625,-3.8498764038085938,5.4444146156311035,-6.7492547035217285
1777561221950469400,16.624469482421876,-2.0398597717285156,3.6391866207122803,-4.8051629066467285
1777561221960540200,16.6345400390625,-0.8643068075180054,2.3965959548950195,-4.742913722991943
1777561221970611000,16.64461083984375,0.1628057211637497,1.5394717454910278,-5.102043628692627
1777561221990783000,16.664782958984375,1.4724340438842773,1.5658079385757446,-5.03021764755249
1777561222000823300,16.6748232421875,1.7860745191574097,2.097320795059204,-4.4077253341674805
1777561222010894000,16.68489404296875,1.9249382019042969,2.875436305999756,-3.866635799407959
1777561222020995300,16.694995361328125,1.9273324012756348,3.88818359375,-3.3279404640197754
1777561222031066000,16.705066162109375,1.9129672050476074,4.558559894561768,-2.8850131034851074
1777561222041137200,16.71513720703125,2.252943754196167,5.12119722366333,-2.408566951751709
1777561222051208000,16.7252080078125,2.5115175247192383,5.473145008087158,-1.86508309841156
1777561222061309200,16.73530908203125,2.6360161304473877,5.743690013885498,-1.1827356815338135
1777561222071349500,16.745349609375,2.6623523235321045,5.762843608856201,-0.5793967843055725
1777561222101561900,16.775561767578125,2.75812029838562,5.0900726318359375,-0.1364694982767105
1777561222111602200,16.785602294921876,2.9257144927978516,4.869806289672852,-0.5434837937355042
1777561222121703400,16.795703369140625,3.3638534545898438,4.460397720336914,-1.0869675874710083
1777561222131713300,16.80571337890625,3.44765043258667,4.335899353027344,-1.4508862495422363
1777561222141814500,16.815814453125,3.40216064453125,4.486733913421631,-1.4891934394836426
1777561222151915800,16.825915771484375,3.4356794357299805,4.752490520477295,-1.192312479019165
1777561222161986600,16.835986572265625,3.0382418632507324,5.331887245178223,-0.8379706144332886
1777561222172057300,16.846057373046875,2.427720546722412,6.361393928527832,-0.4908113479614258
1777561222182128000,16.856128173828125,2.099714994430542,7.053318023681641,-0.2753331959247589
1777561222202300400,16.876300537109376,1.8124107122421265,8.461109161376953,-0.5841852426528931
1777561222212371200,16.88637109375,1.8411411046981812,8.774748802185059,-0.9576807022094727
1777561222222442000,16.89644189453125,1.2856862545013428,8.949525833129883,-1.6160861253738403
1777561222232512800,16.9065126953125,0.6655880808830261,9.301473617553711,-2.3127987384796143
1777561222242614000,16.916614013671875,0.004788403399288654,9.26795482635498,-3.098097085952759
1777561222252684800,16.926684814453125,-0.5530605912208557,9.105149269104004,-3.847482204437256
1777561222262725000,16.93672509765625,-0.9888052940368652,8.619126319885254,-4.941632270812988
1777561222272796000,16.9467958984375,-1.0414776802062988,7.812280178070068,-6.260837554931641
1777561222323150000,16.997150146484376,-2.647987127304077,2.006340980529785,-13.472172737121582
1777561222333220900,17.007220947265626,-2.537853717803955,0.727837324142456,-13.187262535095215
1777561222343291600,17.017291748046876,-2.451662540435791,-0.3998316824436188,-12.703634262084961
1777561222353393000,17.027392822265625,-2.3127987384796143,-1.41257905960083,-12.006921768188477
1777561222363494100,17.037494140625,-2.2649147510528564,-2.118868589401245,-11.549629211425781
1777561222373565000,17.04756494140625,-1.5753847360610962,-2.3056161403656006,-11.23598861694336
1777561222413848300,17.087848388671876,3.9384617805480957,-8.224082946777344,-10.287884712219238
1777561222423919000,17.097919189453126,3.73016619682312,-9.959878921508789,-7.668628215789795
1777561222434020400,17.108020263671875,2.341529369354248,-11.073183059692383,-4.525041103363037
1777561222444091100,17.118091064453125,-0.026336219161748886,-11.619060516357422,-1.357512354850769
1777561222454162000,17.128161865234375,-2.542642116546631,-11.23598861694336,1.2210428714752197
1777561222464202200,17.1382021484375,-3.2537200450897217,-9.208099365234375,2.942473888397217
1777561222474242600,17.14824267578125,-3.399766445159912,-6.756437301635742,3.1316158771514893
1777561222484343800,17.15834375,-3.5960910320281982,-4.486733913421631,3.0334534645080566
1777561222514586600,17.188586669921875,-2.33913516998291,-2.0398597717285156,3.1651346683502197
1777561222534728400,17.208728515625,-0.730231523513794,-2.425326347351074,2.8203697204589844
1777561222544768500,17.2187685546875,0.5315127968788147,-2.6862943172454834,2.032677173614502
1777561222554808800,17.228808837890625,1.1994950771331787,-3.354276657104492,1.357512354850769
1777561222564879600,17.238879638671875,1.3120225667953491,-4.335899353027344,0.811634361743927
1777561222574920000,17.248919921875,1.9608511924743652,-5.693411827087402,0.22266076505184174
1777561222615172600,17.289172607421875,4.28322696685791,-16.45534896850586,0.2082955539226532
1777561222625243400,17.299243408203125,3.1052796840667725,-18.76335906982422,0.7374141216278076
1777561222635314200,17.309314208984375,1.4460978507995605,-19.63245391845703,0.8906430602073669
1777561222645385000,17.319385009765625,0.2059013396501541,-18.799272537231445,-0.33997663855552673
1777561222655456000,17.3294560546875,-0.7038952708244324,-16.76180648803711,-1.9297266006469727
1777561222665526800,17.33952685546875,-1.194706678390503,-14.597447395324707,-3.2800562381744385
1777561222675536400,17.349536376953125,-1.2066776752471924,-12.054805755615234,-4.352658748626709
1777561222685638000,17.359637939453126,-1.0031704902648926,-9.349357604980469,-4.8937482833862305
1777561222725951500,17.399951416015625,1.5897499322891235,-4.953603267669678,-3.840299606323242
1777561222736022300,17.410022216796875,2.2433669567108154,-4.917690277099609,-2.978386878967285
1777561222746123500,17.42012353515625,2.5330653190612793,-5.16429328918457,-2.5043349266052246
1777561222756194300,17.4301943359375,2.647987127304077,-5.377377033233643,-2.3271639347076416
1777561222766265000,17.44026513671875,2.3726539611816406,-5.372588634490967,-2.2242133617401123
1777561222776336100,17.450336181640626,1.7908629179000854,-4.946420669555664,-2.0853497982025146
1777561222786407000,17.460406982421876,1.0821791887283325,-4.513070106506348,-1.824381709098816
1777561222806487300,17.4804873046875,-0.33758243918418884,-3.4117374420166016,-1.6400281190872192
1777561222816588800,17.4905888671875,-1.1324573755264282,-3.485957622528076,-1.8938134908676147
1777561222826659600,17.50065966796875,-1.7956513166427612,-3.7828385829925537,-2.3032219409942627
1777561222836699600,17.51069970703125,-2.27209734916687,-3.3734302520751953,-2.853888511657715
1777561222846740000,17.520739990234375,-2.212242364883423,-2.5282769203186035,-3.406949043273926
1777561222856780300,17.5307802734375,-2.161964178085327,-1.8507179021835327,-4.0294413566589355
1777561222866851000,17.54085107421875,-1.8531121015548706,-1.0749965906143188,-4.786009311676025
1777561222876921900,17.550921875,-1.5298948287963867,-0.26815059781074524,-5.600037574768066
1777561222887023400,17.5610234375,-1.3096283674240112,0.45489832758903503,-6.301538944244385
1777561222897094100,17.57109423828125,-1.1899182796478271,1.094150185585022,-6.8162922859191895
1777561222927276000,17.601276123046876,-0.8930372595787048,3.713406801223755,-8.135497093200684
1777561222937316400,17.61131640625,-0.9576807022094727,4.479551315307617,-8.669404029846191
1777561222947356400,17.6213564453125,-1.0582371950149536,4.929661273956299,-9.050082206726074
1777561222957396700,17.631396728515625,-1.290474772453308,5.5545477867126465,-9.588777542114258
1777561222967467500,17.641467529296875,-1.6400281190872192,6.098031520843506,-9.792284965515137
1777561222977507800,17.6515078125,-2.166752576828003,6.253654956817627,-9.696516990661621
1777561222987609000,17.661609130859375,-2.5546131134033203,6.069301128387451,-9.229647636413574
1777561222997679900,17.671679931640625,-2.47560453414917,5.568912982940674,-8.746018409729004
1777561223027861800,17.70186181640625,-2.8562827110290527,4.180276393890381,-8.183381080627441
1777561223048003600,17.722003662109376,-3.227383852005005,4.230554580688477,-7.228095054626465
1777561223058043600,17.732043701171875,-3.292027235031128,4.90571928024292,-6.509834289550781
1777561223068114700,17.74211474609375,-2.9448680877685547,5.475539207458496,-5.9088897705078125
1777561223078185500,17.752185546875,-2.427720546722412,5.841852188110352,-5.386953830718994
1777561223088256300,17.76225634765625,-1.7932571172714233,6.303933143615723,-4.934449672698975
1777561223098327000,17.7723271484375,-1.1037269830703735,6.418854713439941,-4.235342979431152
1777561223108428300,17.78242822265625,-0.4884171485900879,6.478709697723389,-3.5721490383148193
1777561223118499000,17.7924990234375,0.21787235140800476,6.5050458908081055,-2.868253707885742
1777561223138640600,17.812640625,1.3215993642807007,6.378153324127197,-1.699883222579956
1777561223148711400,17.82271142578125,1.5394717454910278,6.313509941101074,-1.4053963422775269
1777561223158782200,17.8327822265625,1.4987702369689941,6.110002517700195,-0.9888052940368652
1777561223168883700,17.8428837890625,1.3742717504501343,5.904101371765137,-0.7110779285430908
1777561223178923800,17.852923828125,1.0295066833496094,5.686229228973389,-0.31124621629714966
1777561223188994800,17.862994873046876,0.6775590777397156,5.489904403686523,-0.023942016065120697
1777561223199035000,17.873034912109375,0.10773907601833344,5.427655220031738,0.363918662071228
1777561223209105700,17.883105712890625,-0.730231523513794,5.4228668212890625,0.6129156351089478
1777561223219115500,17.893115478515625,-1.5059528350830078,5.609614372253418,0.9600749015808105
1777561223239226600,17.9132265625,-2.1571757793426514,5.635950565338135,1.1037269830703735
1777561223249267000,17.923266845703125,-2.008735179901123,5.592854976654053,0.7613561153411865
1777561223259337700,17.933337646484375,-1.9776105880737305,5.284003257751465,0.4118026793003082
1777561223269439000,17.94343896484375,-1.6400281190872192,4.977545261383057,0.11971008777618408
1777561223279509800,17.953509765625,-1.216254472732544,4.6040496826171875,-0.033518824726343155
1777561223289611300,17.963611328125,-0.751779317855835,4.2951979637146,-0.24899697303771973
1777561223299651300,17.9736513671875,-0.3495534360408783,4.132391929626465,-0.507570743560791
1777561223309722000,17.98372216796875,-0.43095630407333374,3.9839515686035156,-0.9002198576927185
1777561223319762400,17.993762451171875,-0.5961562395095825,3.847482204437256,-1.2306196689605713
1777561223350036000,18.024035888671875,-2.3702597618103027,4.1611223220825195,-1.5634137392044067
1777561223360076300,18.034076171875,-2.892195701599121,4.252102375030518,-2.0446481704711914
1777561223370147000,18.04414697265625,-3.490746021270752,3.9001545906066895,-2.719813108444214
1777561223380217900,18.0542177734375,-4.122815132141113,3.3854012489318848,-3.270479440689087
1777561223390319000,18.064319091796875,-8.034940719604492,2.432508945465088,-3.9169139862060547
1777561223400390000,18.074389892578125,-4.946420669555664,6.404489517211914,-5.442020416259766
1777561223410491400,18.084491455078126,-2.0398597717285156,8.35336971282959,-8.434772491455078
1777561223420531500,18.094531494140625,-4.199429988861084,-4.683058738708496,-12.006921768188477
1777561223440673300,18.11467333984375,1.3192051649093628,-6.777985095977783,-17.68836212158203
1777561223460814800,18.13481494140625,3.2154128551483154,-7.850587368011475,-15.112200736999512
1777561223470855200,18.144855224609376,3.732560396194458,-10.896012306213379,-13.263877868652344
1777561223480895200,18.154895263671875,3.361459255218506,-12.825738906860352,-11.777078628540039
1777561223490966000,18.164966064453125,2.537853717803955,-12.36605167388916,-9.916783332824707
1777561223501006300,18.17500634765625,1.623268723487854,-10.924742698669434,-7.690176010131836
1777561223511077000,18.1850771484375,1.2186486721038818,-9.390059471130371,-5.544970989227295
1777561223521178600,18.1951787109375,1.1683704853057861,-8.722076416015625,-3.8115692138671875
1777561223551360500,18.225360595703126,2.7676970958709717,-5.367800235748291,-0.5267243981361389
1777561223561400600,18.235400634765625,3.3710360527038574,-4.532223701477051,0.3208230137825012
1777561223571502000,18.245502197265626,3.797203779220581,-3.907337188720703,1.192312479019165
1777561223581572900,18.25557275390625,4.2760443687438965,-3.780444383621216,1.9704279899597168
1777561223591674000,18.265674072265625,4.630385875701904,-3.8498764038085938,2.7102363109588623
1777561223601714400,18.27571435546875,3.5458126068115234,-4.381389141082764,3.533841609954834
1777561223611785200,18.28578515625,6.0405707359313965,-5.374982833862305,3.7181951999664307
1777561223652068400,18.326068359375,6.289567947387695,-4.922478675842285,4.649539470672607
1777561223662078200,18.336078125,6.236895561218262,-4.891354084014893,5.0876784324646
1777561223672179500,18.346179443359375,5.7556610107421875,-4.934449672698975,5.631162166595459
1777561223682219800,18.3562197265625,5.439626216888428,-4.975151062011719,6.155492782592773
1777561223692321000,18.366321044921875,4.759673118591309,-5.04218864440918,6.773196697235107
1777561223702300400,18.376300537109376,4.28322696685791,-5.049371242523193,7.343016624450684
1777561223712401700,18.386401611328125,3.751713991165161,-4.797980308532715,7.824251174926758
1777561223722472400,18.396472412109375,3.5865142345428467,-4.565742492675781,8.02536392211914
1777561223752623900,18.426623779296875,2.0254945755004883,-4.817133903503418,6.2201361656188965
1777561223762694700,18.436694580078125,1.4413094520568848,-4.824316501617432,5.123591423034668
1777561223772796000,18.4467958984375,0.8810662031173706,-4.699818134307861,4.084507942199707
1777561223782836200,18.456836181640625,0.6033388376235962,-4.596867084503174,2.9257144927978516
1777561223792937500,18.4669375,1.5394717454910278,-4.975151062011719,1.414973258972168
1777561223802977800,18.476977783203125,2.516305923461914,-5.329493045806885,-0.6631938815116882
1777561223813018000,18.48701806640625,3.222595453262329,-5.343858242034912,-2.6623523235321045
1777561223823058400,18.497058349609375,3.2393548488616943,-5.25527286529541,-4.972756862640381
1777561223843200000,18.517199951171875,2.2673089504241943,-4.587290287017822,-11.307814598083496
1777561223863311000,18.53731103515625,-0.2059013396501541,-6.524199485778809,-16.711528778076172
1777561223873412400,18.547412353515625,-1.0558429956436157,-7.529764175415039,-17.3603572845459
1777561223883422200,18.557422119140625,-1.8124107122421265,-7.817068576812744,-16.27578353881836
1777561223893523500,18.5675234375,-2.3965959548950195,-7.204153060913086,-14.496891021728516
1777561223903563800,18.577563720703125,-2.7246015071868896,-5.899312973022461,-12.880805015563965
1777561223913634600,18.587634521484375,-2.935291290283203,-4.347870349884033,-11.580753326416016
1777561223923735800,18.59773583984375,-2.935291290283203,-3.026270866394043,-10.491392135620117
1777561223943847000,18.617846923828125,-3.1028854846954346,-1.194706678390503,-8.212111473083496
1777561223953917700,18.627917724609375,-3.265691041946411,-0.5339069962501526,-7.285555839538574
1777561223963958000,18.6379580078125,-3.184288263320923,0.07661445438861847,-6.5050458908081055
1777561223974028800,18.64802880859375,-2.9496564865112305,0.7086837291717529,-5.918466567993164
1777561223984099600,18.658099609375,-2.853888511657715,1.5107412338256836,-5.30076265335083
1777561223994170400,18.66817041015625,-2.5450363159179688,2.22660756111145,-4.750096321105957
1777561224004180200,18.67818017578125,-2.2457611560821533,2.868253707885742,-4.2760443687438965
1777561224014281500,18.688281494140625,-1.9393033981323242,3.557783842086792,-3.622427225112915
1777561224024352300,18.698352294921875,-1.625662922859192,4.170699596405029,-3.1747114658355713
1777561224054564900,18.72856494140625,-1.094150185585022,6.308721542358398,-1.778891921043396
1777561224064635600,18.7386357421875,-1.173158884048462,7.175422668457031,-1.2737152576446533
1777561224074706400,18.74870654296875,-1.1085153818130493,7.704541206359863,-0.9624691009521484
1777561224084716000,18.758716064453125,-1.1180921792984009,8.243236541748047,-0.5650315880775452
1777561224094817500,18.768817626953126,-1.278503656387329,8.652645111083984,-0.16998831927776337
1777561224104827100,18.7788271484375,-1.3455413579940796,8.949525833129883,0.14365209639072418
1777561224114898000,18.78889794921875,-1.357512354850769,9.272743225097656,0.24420857429504395
1777561224124938200,18.798938232421875,-1.3862427473068237,9.44991397857666,0.17238251864910126
1777561224134978600,18.808978515625,-1.4173674583435059,9.521739959716797,-0.002394201699644327
1777561224165160400,18.839160400390625,-2.166752576828003,9.174580574035645,-0.1843535304069519
1777561224175261700,18.84926171875,-2.494758129119873,9.667786598205566,-0.2753331959247589
1777561224185332500,18.85933251953125,-2.695871114730835,10.220847129821777,-0.47644615173339844
1777561224195403300,18.8694033203125,-2.7437551021575928,10.488997459411621,-0.5770025849342346
1777561224205474300,18.879474365234376,-2.5546131134033203,10.445901870727539,-0.8475474119186401
