time,seconds_elapsed,z,y,x
1775728221190418700,0.168418701171875,2.115255117416382,-9.068798065185547,-1.9836499691009521
1775728221208947500,0.186947509765625,1.667797327041626,-8.556734085083008,-2.7804598808288574
1775728221227476200,0.205476318359375,2.0961127281188965,-10.066604614257812,-2.4095723628997803
1775728221246005000,0.2240048828125,2.3976082801818848,-9.863214492797852,-1.919043779373169
1775728221264533800,0.24253369140625,2.1056840419769287,-9.114261627197266,-1.8472590446472168
1775728221283062500,0.2610625,2.548356056213379,-8.855836868286133,-2.2636101245880127
1775728221301591000,0.279591064453125,3.074777126312256,-8.951549530029297,-2.6632115840911865
1775728221320119800,0.298119873046875,3.160918712615967,-8.906085968017578,-2.306680917739868
1775728221338648600,0.316648681640625,3.108276605606079,-10.183853149414062,-2.2301106452941895
1775728221357177300,0.33517724609375,2.823530673980713,-9.640682220458984,-1.5433706045150757
1775728221375706000,0.3537060546875,1.9645073413848877,-8.80798053741455,-2.4430718421936035
1775728221394234600,0.372234619140625,1.2945170402526855,-9.58325481414795,-2.775674343109131
1775728221412763400,0.390763427734375,2.562713146209717,-9.008976936340332,-2.03629207611084
1775728221431292200,0.409292236328125,2.445464849472046,-8.95394229888916,-1.8687944412231445
1775728221449821000,0.427821044921875,2.1894326210021973,-9.257830619812012,-2.2468605041503906
1775728221468349700,0.446349609375,2.4885356426239014,-9.291330337524414,-2.392822742462158
1775728221486878500,0.46487841796875,2.313859462738037,-9.198010444641113,-2.620140790939331
1775728221505407000,0.483406982421875,2.170290231704712,-9.399007797241211,-2.368894338607788
1775728221523935700,0.501935791015625,2.2540390491485596,-9.138189315795898,-2.163111686706543
1775728221542464500,0.520464599609375,1.8975083827972412,-9.384650230407715,-2.359323024749756
1775728221560993300,0.5389931640625,2.3186452388763428,-9.219545364379883,-2.234896421432495
1775728221579522000,0.55752197265625,2.062613010406494,-9.269794464111328,-2.2540390491485596
1775728221598050800,0.57605078125,2.400001049041748,-9.257830619812012,-2.194218397140503
1775728221616579300,0.594579345703125,2.579462766647339,-9.353543281555176,-2.172683000564575
1775728221635108000,0.613108154296875,2.1990039348602295,-9.126225471496582,-2.297109842300415
1775728221653636900,0.631636962890625,2.0171494483947754,-9.200403213500977,-2.1822543144226074
1775728221672165600,0.65016552734375,2.366501569747925,-9.403793334960938,-2.2995026111602783
1775728221690694400,0.6686943359375,2.122433662414551,-9.214759826660156,-2.4598217010498047
1775728221709223000,0.687222900390625,1.8640087842941284,-9.238688468933105,-2.012363910675049
1775728221727751700,0.705751708984375,1.950150489807129,-9.250652313232422,-1.7084753513336182
1775728221746280400,0.724280517578125,2.50289249420166,-9.281759262084961,-2.076970100402832
1775728221764809200,0.742809326171875,3.16331148147583,-9.499505996704102,-2.5196423530578613
1775728221783337700,0.761337646484375,2.6608188152313232,-9.221938133239746,-2.273181438446045
1775728221801866500,0.779866455078125,1.9573289155960083,-9.358329772949219,-2.4095723628997803
1775728221820395300,0.798395263671875,2.2061824798583984,-9.317651748657227,-2.366501569747925
1775728221838924000,0.816924072265625,1.8376877307891846,-9.166903495788574,-1.9334007501602173
1775728221857452800,0.835452880859375,1.7467604875564575,-9.028120040893555,-1.9764715433120728
1775728221875981300,0.853981201171875,2.6009981632232666,-9.061619758605957,-1.8065811395645142
1775728221894510000,0.872510009765625,2.7326035499572754,-9.205188751220703,-1.97407865524292
1775728221913038800,0.891038818359375,2.557927370071411,-9.891928672790527,-2.069791555404663
1775728221931567600,0.909567626953125,2.8043880462646484,-9.789037704467773,-2.3952155113220215
1775728221950096400,0.928096435546875,1.5290136337280273,-8.693124771118164,-1.8185452222824097
1775728221968625000,0.946625,1.4931213855743408,-9.104690551757812,-1.7802600860595703
1775728221987153700,0.965153564453125,2.589034080505371,-9.480362892150879,-1.8711873292922974
1775728222005682400,0.983682373046875,3.7232320308685303,-9.403793334960938,-1.825723648071289
1775728222024211000,1.0022109375,4.481756687164307,-9.018548965454102,-1.3184453248977661
1775728222042739700,1.02073974609375,3.1250264644622803,-8.434700012207031,-0.7872386574745178
1775728222061268500,1.0392685546875,0.8901300430297852,-9.343972206115723,-3.390629768371582
1775728222079797200,1.05779736328125,2.060220241546631,-8.85344409942627,-1.2873386144638062
1775728222098325800,1.07632568359375,3.7639100551605225,-9.121439933776855,-1.2562319040298462
1775728222116854500,1.0948544921875,3.249453067779541,-9.28893756866455,-2.172683000564575
1775728222135383300,1.11338330078125,4.371686935424805,-9.243474006652832,-1.2323036193847656
1775728222153912000,1.131912109375,4.371686935424805,-9.69093132019043,-0.3924229145050049
1775728222172440600,1.150440673828125,4.816751956939697,-9.418149948120117,-3.0723843574523926
1775728222190969300,1.16896923828125,1.4811571836471558,-10.671989440917969,-4.359723091125488
1775728222209498000,1.187498046875,0.10767702013254166,-9.628718376159668,-2.9551360607147217
1775728222228027000,1.20602685546875,1.7443677186965942,-8.382058143615723,-0.7585247755050659
1775728222246555400,1.224555419921875,2.3330020904541016,-8.614161491394043,-0.9236295223236084
1775728222265084200,1.243084228515625,3.297309637069702,-8.513663291931152,-2.3401806354522705
1775728222283613000,1.261613037109375,4.429114818572998,-8.57348346710205,-1.8735800981521606
1775728222302141700,1.2801416015625,5.3312087059021,-8.437092781066895,-0.9762716293334961
1775728222320670200,1.298670166015625,4.505684852600098,-9.159725189208984,-0.13160525262355804
1775728222339199000,1.317198974609375,2.792423963546753,-9.501898765563965,-2.273181438446045
1775728222357727700,1.335727783203125,1.3950155973434448,-8.542376518249512,-2.1415762901306152
1775728222376256300,1.35425634765625,2.840280532836914,-8.93958568572998,-2.801995277404785
1775728222394785000,1.372784912109375,4.675575256347656,-9.473184585571289,-2.5938198566436768
1775728222413313800,1.391313720703125,5.340780258178711,-9.023334503173828,-1.892722725868225
1775728222431842300,1.40984228515625,3.90987229347229,-9.475577354431152,-1.9812572002410889
1775728222450371000,1.42837109375,2.0410776138305664,-8.329415321350098,-1.4859428405761719
1775728222468899800,1.44689990234375,2.155933141708374,-7.618747234344482,-2.021935224533081
1775728222487428600,1.4654287109375,3.2997024059295654,-9.028120040893555,-2.644068956375122
1775728222505957000,1.48395703125,4.42193603515625,-9.664610862731934,-1.887937068939209
1775728222524486000,1.50248583984375,4.450650215148926,-9.32722282409668,-1.674975872039795
1775728222543014700,1.5210146484375,2.7421748638153076,-9.020941734313965,-1.789831280708313
1775728222561543200,1.539543212890625,0.8949156403541565,-8.85344409942627,-1.789831280708313
1775728222580072000,1.558072021484375,3.105883836746216,-8.941978454589844,-2.007578134536743
1775728222598600700,1.5766005859375,4.804787635803223,-9.44447135925293,-2.225325107574463
1775728222617129200,1.595129150390625,4.046263217926025,-8.824729919433594,-2.3330020904541016
1775728222635658000,1.613657958984375,3.541377544403076,-8.8438720703125,-2.1894326210021973
1775728222654186800,1.632186767578125,3.218346357345581,-8.908478736877441,-1.8161523342132568
1775728222672715500,1.650715576171875,2.7828526496887207,-9.004191398620605,-2.4358935356140137
1775728222691244000,1.669244140625,2.991028308868408,-8.863015174865723,-2.366501569747925
1775728222709772800,1.687772705078125,3.3379876613616943,-9.068798065185547,-2.218146562576294
1775728222728301600,1.706301513671875,3.5676984786987305,-9.20279598236084,-1.7778671979904175
1775728222746830000,1.724830078125,3.4576287269592285,-9.090332984924316,-1.6869399547576904
1775728222765358800,1.74335888671875,3.3403804302215576,-8.9850492477417,-1.9645073413848877
1775728222783887600,1.7618876953125,2.9599215984344482,-8.874979019165039,-1.9573289155960083
1775728222802416000,1.780416015625,3.273381471633911,-8.874979019165039,-1.7826528549194336
1775728222820945000,1.79894482421875,3.4719855785369873,-9.073583602905273,-1.6247265338897705
1775728222839473700,1.8174736328125,3.0652058124542236,-9.075976371765137,-2.3258235454559326
1775728222858002400,1.83600244140625,3.10109806060791,-8.994620323181152,-1.9692929983139038
1775728222876531000,1.854531005859375,3.1202406883239746,-9.183652877807617,-2.0243279933929443
1775728222895059700,1.873059814453125,3.266202926635742,-9.059226989746094,-2.234896421432495
1775728222913588200,1.891588134765625,3.3332018852233887,-8.963513374328613,-2.187039852142334
1775728222932117000,1.910116943359375,3.2709884643554688,-9.049654960632324,-2.0554347038269043
1775728222950645800,1.928645751953125,3.211168050765991,-9.023334503173828,-1.5864413976669312
1775728222969174300,1.94717431640625,3.366701364517212,-8.896514892578125,-1.6654045581817627
1775728222987703000,1.965703125,3.4911282062530518,-9.377471923828125,-2.218146562576294
1775728223006231800,1.984231689453125,1.3423734903335571,-8.86780071258545,-2.163111686706543
1775728223024760300,2.00276025390625,4.4961137771606445,-9.281759262084961,-1.5194423198699951
1775728223043289000,2.0212890625,5.0703911781311035,-8.841479301452637,-1.7802600860595703
1775728223061817900,2.03981787109375,4.2592244148254395,-9.324830055236816,-2.59621262550354
1775728223080346400,2.058346435546875,3.4432718753814697,-9.250652313232422,-2.266003131866455
1775728223098875100,2.076875244140625,2.438286304473877,-9.140582084655762,-2.117648124694824
1775728223117404000,2.09540380859375,3.1250264644622803,-9.205188751220703,-1.923829436302185
1775728223135932400,2.113932373046875,3.136990547180176,-8.93958568572998,-2.4598217010498047
1775728223154461200,2.132461181640625,3.2350962162017822,-8.819944381713867,-1.950150489807129
1775728223172990000,2.150989990234375,3.390629768371582,-8.408378601074219,-1.4787644147872925
1775728223191518700,2.169518798828125,3.6634113788604736,-8.535198211669922,-1.3519448041915894
1775728223210047200,2.188047119140625,3.562912940979004,-8.583054542541504,-1.6151553392410278
1775728223228576000,2.206575927734375,3.3547372817993164,-9.040083885192871,-1.8305093050003052
1775728223247104800,2.225104736328125,3.208775281906128,-9.123832702636719,-2.311466693878174
1775728223265633300,2.24363330078125,3.1417760848999023,-9.078369140625,-2.289931297302246
1775728223284162000,2.262162109375,3.572484254837036,-8.817551612854004,-2.3258235454559326
1775728223302690800,2.28069091796875,3.7806596755981445,-8.528019905090332,-1.5672988891601562
1775728223321219300,2.29921923828125,3.421736478805542,-8.353343963623047,-1.5601203441619873
1775728223339748000,2.317748046875,3.493520975112915,-8.908478736877441,-1.8807586431503296
1775728223358276900,2.33627685546875,4.122833251953125,-8.717052459716797,-1.8472590446472168
1775728223376805400,2.354805419921875,4.809573650360107,-8.879764556884766,-2.00518536567688
1775728223395334100,2.373334228515625,5.008177757263184,-9.008976936340332,-2.60339093208313
1775728223413862700,2.391862548828125,5.221138954162598,-8.623732566833496,-2.3784656524658203
1775728223432391400,2.410391357421875,5.405386447906494,-8.427521705627441,-2.720639228820801
1775728223450920200,2.428920166015625,5.66620397567749,-8.571090698242188,-2.610569477081299
1775728223469448700,2.44744873046875,5.934200286865234,-9.42054271697998,-2.8666014671325684
1775728223487977500,2.4659775390625,5.656632900238037,-10.045069694519043,-3.3092737197875977
1775728223506506200,2.48450634765625,5.694917678833008,-9.712467193603516,-2.407179594039917
1775728223525034800,2.50303466796875,5.627918720245361,-8.504091262817383,-2.4717857837677
1775728223543563500,2.5215634765625,6.1950178146362305,-7.690532207489014,-3.1178479194641113
1775728223562092300,2.54009228515625,7.372286796569824,-8.147561073303223,-3.022135019302368
1775728223580620800,2.558620849609375,4.986642360687256,-9.06401252746582,-2.1822543144226074
1775728223599149600,2.577149658203125,2.0506489276885986,-8.327022552490234,-2.0817556381225586
1775728223617678300,2.59567822265625,2.699103832244873,-7.913064479827881,-2.825923442840576
1775728223645471200,2.62347119140625,6.022734642028809,-7.6737823486328125,-2.761317253112793
1775728223664000000,2.642,5.458028316497803,-6.922435760498047,-1.2203395366668701
1775728223691793000,2.66979296875,3.981656789779663,-7.101897716522217,-0.9882357716560364
1775728223710321700,2.68832177734375,4.515256404876709,-6.6352972984313965,-1.057627558708191
1775728223728850400,2.706850341796875,5.326423168182373,-6.486942291259766,-1.31365966796875
1775728223747379000,2.72537890625,5.613562107086182,-6.745367050170898,-1.4572290182113647
1775728223765907700,2.74390771484375,5.551348686218262,-6.647261142730713,-1.4476577043533325
1775728223784436500,2.7624365234375,5.749952793121338,-6.608976364135742,-1.5792629718780518
1775728223802965000,2.780965087890625,6.3601226806640625,-6.786045074462891,-1.6079767942428589
1775728223821493800,2.79949365234375,6.673582553863525,-6.867401123046875,-1.4691931009292603
1775728223840022500,2.8180224609375,6.510870456695557,-6.757331371307373,-1.1485549211502075
1775728223858551000,2.836551025390625,6.2189459800720215,-6.5419769287109375,-1.1222338676452637
1775728223877079800,2.855079833984375,5.92223596572876,-6.589833736419678,-1.7252250909805298
1775728223895608600,2.873608642578125,5.876772403717041,-6.8171515464782715,-2.201396942138672
1775728223914137000,2.89213720703125,5.989234924316406,-6.647261142730713,-1.5744773149490356
1775728223932665900,2.910665771484375,6.238088607788086,-6.561119556427002,-0.8087740540504456
1775728223951194600,2.929194580078125,6.695117950439453,-6.8865437507629395,-0.9020941257476807
1775728223969723100,2.94772314453125,6.776473522186279,-6.977470874786377,-1.1174482107162476
1775728223988252000,2.966251953125,6.283552169799805,-7.460821151733398,-2.4095723628997803
1775728224006780400,2.984780517578125,5.979663848876953,-7.427321434020996,-3.548556089401245
1775728224025309200,3.00330908203125,7.381857872009277,-7.3292155265808105,-2.579462766647339
1775728224043838000,3.021837890625,9.42054271697998,-6.790830612182617,-0.5000999569892883
1775728224062366500,3.040366455078125,9.542576789855957,-7.317251682281494,-0.8709874153137207
1775728224080895200,3.058895263671875,8.884550094604492,-8.616554260253906,-1.9573289155960083
1775728224099424000,3.077424072265625,8.733802795410156,-10.427921295166016,-1.5984054803848267
1775728224117952800,3.095952880859375,7.479963779449463,-11.172088623046875,-1.7874385118484497
1775728224136481300,3.114481201171875,2.809173822402954,-11.676974296569824,-2.830709218978882
1775728224155010000,3.133010009765625,-0.4833501875400543,-11.131410598754883,-2.50289249420166
1775728224173538800,3.151538818359375,-2.9072794914245605,-8.563912391662598,1.4069796800613403
1775728224192067300,3.1700673828125,2.3401806354522705,-6.563512325286865,2.6392834186553955
1775728224210596000,3.18859619140625,2.132004976272583,-8.571090698242188,-0.519242525100708
1775728224229124900,3.207124755859375,-1.3663017749786377,-9.592825889587402,-2.9001009464263916
1775728224247653400,3.2256533203125,0.07178468257188797,-10.001998901367188,-4.108476638793945
1775728224266182100,3.24418212890625,2.974278450012207,-10.561919212341309,-3.476771354675293
1775728224284711000,3.2627109375,2.414358139038086,-10.837093353271484,-4.510470867156982
1775728224303239400,3.281239501953125,1.129412293434143,-10.638489723205566,-5.230710506439209
1775728224321768200,3.299768310546875,0.885344386100769,-9.975677490234375,-4.867001056671143
1775728224340297000,3.318296875,1.2418749332427979,-9.131011009216309,-3.775874137878418
1775728224358825500,3.336825439453125,1.0193424224853516,-8.492127418518066,-2.7278177738189697
1775728224377354200,3.355354248046875,1.2610175609588623,-8.468199729919434,-2.4813570976257324
1775728224395883000,3.373883056640625,1.6534404754638672,-8.432307243347168,-3.359523057937622
1775728224414411500,3.39241162109375,1.710868239402771,-8.733802795410156,-4.682754039764404
1775728224432940300,3.410940185546875,0.9858429431915283,-9.308079719543457,-4.675575256347656
1775728224451469000,3.429468994140625,0.39960137009620667,-8.997013092041016,-2.6775684356689453
1775728224469997600,3.44799755859375,0.9762716293334961,-8.599804878234863,-1.6510475873947144
1775728224488526300,3.4665263671875,1.3304094076156616,-9.44447135925293,-2.196611166000366
1775728224507055000,3.48505517578125,1.5553346872329712,-9.757930755615234,-2.3186452388763428
1775728224525583600,3.50358349609375,1.337587833404541,-9.743574142456055,-2.9455647468566895
1775728224544112400,3.5221123046875,1.7539390325546265,-9.803394317626953,-2.6847469806671143
1775728224562641200,3.54064111328125,2.0410776138305664,-9.7938232421875,-2.1439690589904785
1775728224581169700,3.559169677734375,1.5409778356552124,-9.480362892150879,-1.3088740110397339
1775728224599698400,3.577698486328125,1.5744773149490356,-9.401400566101074,-1.1126625537872314
1775728224618227200,3.596227294921875,2.53399920463562,-9.645467758178711,-2.218146562576294
1775728224636755700,3.614755615234375,2.9144580364227295,-10.066604614257812,-3.452843189239502
1775728224655284500,3.633284423828125,1.9597218036651611,-10.693524360656738,-3.201596736907959
1775728224673813200,3.651813232421875,1.2729816436767578,-11.076375961303711,-1.7395820617675781
1775728224701606100,3.679606201171875,2.282752752304077,-13.299307823181152,-3.7256247997283936
1775728224720135000,3.698135009765625,1.0241280794143677,-15.256637573242188,-4.091726779937744
1775728224738663700,3.71666357421875,0.08135596662759781,-16.663616180419922,-3.617947816848755
1775728224757192200,3.735192138671875,4.051048755645752,-17.127824783325195,-4.074976921081543
1775728224775721000,3.753720947265625,10.638489723205566,-15.52224063873291,-4.742574691772461
1775728224794249700,3.772249755859375,12.155538558959961,-13.794622421264648,-5.460421085357666
1775728224812778200,3.7907783203125,9.442078590393066,-13.328022003173828,-5.010570526123047
1775728224831307000,3.80930712890625,4.709074974060059,-14.335400581359863,-4.4721856117248535
1775728224849835500,3.82783544921875,2.3018953800201416,-14.165510177612305,-4.67078971862793
1775728224868364300,3.8463642578125,3.81655216217041,-11.397014617919922,-4.7952165603637695
1775728224886893000,3.86489306640625,4.340580463409424,-11.849257469177246,-6.565905570983887
1775728224905421600,3.883421630859375,0.2392822653055191,-12.543176651000977,-6.120840549468994
1775728224923950300,3.901950439453125,-3.2063822746276855,-11.466405868530273,-2.720639228820801
1775728224942479000,3.92047900390625,-1.6247265338897705,-7.865208148956299,-0.13639089465141296
1775728224961007900,3.9390078125,4.063013076782227,-6.9344000816345215,0.4331009089946747
1775728224979536400,3.957536376953125,4.48414945602417,-5.426921844482422,0.9260223507881165
1775728224998065200,3.976065185546875,3.572484254837036,-4.713860511779785,-0.040677983313798904
1775728225016594000,3.994593994140625,4.185046672821045,-4.991427898406982,-0.5096712112426758
1775728225035122400,4.013122314453125,4.577469825744629,-6.290730953216553,-1.277767300605774
1775728225053651200,4.031651123046875,3.524627685546875,-5.2977094650268555,-1.1365907192230225
1775728225072180000,4.050179931640625,2.445464849472046,-4.039084434509277,-1.550549030303955
1775728225090708500,4.06870849609375,1.7276179790496826,-4.192225456237793,-2.0721843242645264
1775728225109237200,4.0872373046875,1.5122638940811157,-4.314259052276611,-1.6510475873947144
1775728225127766000,4.10576611328125,1.466800332069397,-3.6777684688568115,-0.4618147611618042
1775728225146294500,4.12429443359375,2.2923240661621094,-2.2540390491485596,0.19142581522464752
1775728225164823300,4.1428232421875,3.510270833969116,-0.8398807644844055,0.9786644577980042
1775728225183352000,4.16135205078125,4.6540398597717285,-1.184447169303894,0.8638089895248413
1775728225201880600,4.179880615234375,5.400600910186768,-1.7563318014144897,0.7393822073936462
1775728225220409300,4.198409423828125,5.388636589050293,-3.1034910678863525,0.9619147181510925
1775728225238938000,4.216938232421875,5.536991596221924,-3.036491870880127,0.5383850932121277
1775728225257466600,4.235466552734375,8.34855842590332,-2.122433662414551,0.21774685382843018
1775728225275995400,4.253995361328125,12.873385429382324,-2.770888566970825,-0.33738797903060913
1775728225294524200,4.272524169921875,20.544775009155273,-2.8689942359924316,-0.1866401731967926
1775728225313053000,4.291052978515625,15.926627159118652,-7.022934436798096,2.8666014671325684
1775728225331581400,4.30958154296875,5.469992637634277,-9.446864128112793,2.531606435775757
1775728225350110200,4.328110107421875,1.1318050622940063,-10.542776107788086,-3.1800613403320312
1775728225368639000,4.346638916015625,1.5098711252212524,-13.62473201751709,-3.579662561416626
1775728225387167500,4.36516748046875,9.836894035339355,-10.73420238494873,-1.2251251935958862
1775728225405696300,4.3836962890625,8.425128936767578,-11.23908805847168,-3.603590965270996
1775728225424225000,4.40222509765625,0.34695929288864136,-10.296316146850586,-7.558926582336426
1775728225442753500,4.42075341796875,0.698704183101654,-9.44447135925293,-6.879364967346191
1775728225461282300,4.4392822265625,4.790431022644043,-9.66939640045166,-1.672582983970642
1775728225479811000,4.45781103515625,5.517848968505859,-8.11406135559082,0.09571290761232376
1775728225498339600,4.476339599609375,3.7663028240203857,-8.260024070739746,-2.912065267562866
1775728225516868400,4.494868408203125,1.397408366203308,-9.169296264648438,-5.481956481933594
1775728225535397000,4.513397216796875,3.38105845451355,-7.118647575378418,-3.184846878051758
1775728225553925600,4.531925537109375,5.283352375030518,-6.8482584953308105,-0.7034898400306702
1775728225572454400,4.550454345703125,2.6560330390930176,-7.518248558044434,-0.6029912829399109
1775728225590983200,4.568983154296875,1.275374412536621,-7.566105365753174,-1.0815558433532715
1775728225609511700,4.58751171875,3.1968109607696533,-8.688339233398438,-3.043670415878296
1775728225628040400,4.60604052734375,3.2590243816375732,-8.796015739440918,-5.749952793121338
1775728225646569200,4.6245693359375,2.0195422172546387,-8.903693199157715,-6.580262184143066
1775728225665098000,4.643097900390625,1.4404792785644531,-8.688339233398438,-5.352744102478027
1775728225683626500,4.66162646484375,3.005385160446167,-8.3629150390625,-3.7806596755981445
1775728225702155300,4.6801552734375,3.572484254837036,-8.274380683898926,-3.972085475921631
1775728225720684000,4.69868408203125,2.311466693878174,-8.260024070739746,-4.907679080963135
1775728225739212500,4.717212646484375,1.8687944412231445,-8.886942863464355,-4.656432628631592
1775728225757741300,4.7357412109375,1.7276179790496826,-8.578269004821777,-3.6634113788604736
1775728225776270000,4.75427001953125,1.0480563640594482,-8.886942863464355,-3.5916268825531006
1775728225794798600,4.772798583984375,1.6390835046768188,-9.004191398620605,-3.342773199081421
1775728225813327400,4.791327392578125,2.495713949203491,-8.855836868286133,-2.2372891902923584
1775728225831856000,4.809856201171875,3.4193434715270996,-9.432506561279297,-1.4117653369903564
1775728225850384600,4.828384521484375,4.29033088684082,-11.24626636505127,-2.132004976272583
1775728225868913400,4.846913330078125,3.1561331748962402,-12.708281517028809,-3.775874137878418
1775728225887442200,4.865442138671875,2.342573404312134,-12.418749809265137,-4.491328239440918
1775728225905971000,4.883970947265625,3.445664644241333,-13.038490295410156,-4.742574691772461
1775728225924499500,4.90249951171875,3.7256247997283936,-14.636896133422852,-4.163511276245117
1775728225943028200,4.9210283203125,3.28773832321167,-15.567704200744629,-1.5960127115249634
1775728225961557000,4.939556884765625,3.081955671310425,-14.045868873596191,-0.7369893789291382
1775728225980085500,4.95808544921875,4.960321426391602,-11.789437294006348,-2.493321180343628
1775728225998614300,4.9766142578125,7.475177764892578,-11.3180513381958,-2.6297121047973633
1775728226017143000,4.99514306640625,9.446864128112793,-12.169896125793457,-2.4717857837677
1775728226035671800,5.013671875,10.753344535827637,-12.717852592468262,-3.4815568923950195
1775728226054200300,5.032200439453125,9.643074989318848,-12.263216018676758,-4.95074987411499
1775728226072729000,5.05072900390625,5.029713153839111,-11.440085411071777,-3.9625144004821777
1775728226091257600,5.069257568359375,0.5383850932121277,-14.282758712768555,-4.137190341949463
1775728226109786400,5.087786376953125,-3.014956474304199,-12.382857322692871,-3.0556344985961914
1775728226128315100,5.106315185546875,-2.2995026111602783,-8.410771369934082,-1.6031911373138428
1775728226146844000,5.124843994140625,-0.9044869542121887,-5.953342914581299,-0.13639089465141296
1775728226165372400,5.143372314453125,0.2560320198535919,-5.146961688995361,1.1270195245742798
1775728226183901200,5.161901123046875,2.9240293502807617,-5.190032482147217,0.729810893535614
1775728226211694300,5.1896943359375,7.539783954620361,-6.393621921539307,-2.2540390491485596
1775728226230222800,5.208222900390625,6.104090690612793,-5.855237007141113,-1.6007983684539795
1775728226248751600,5.226751708984375,3.13220477104187,-5.5106706619262695,-2.699103832244873
1775728226267280400,5.2452802734375,1.1629117727279663,-6.159125328063965,-3.9601213932037354
1775728226285809000,5.263808837890625,1.1892328262329102,-5.706881999969482,-3.4337005615234375
1775728226304337700,5.282337646484375,1.0504491329193115,-4.433900356292725,-1.667797327041626
1775728226322866400,5.300866455078125,1.8305093050003052,-4.074976921081543,-0.7657032608985901
1775728226341395000,5.31939501953125,3.081955671310425,-3.9696927070617676,-0.8446664214134216
1775728226359923700,5.337923828125,3.1992039680480957,-3.297309637069702,-1.373480200767517
1775728226378452500,5.356452392578125,3.759124279022217,-2.4095723628997803,-1.3495519161224365
1775728226396981200,5.374981201171875,4.680361270904541,-3.572484254837036,-1.2634103298187256
1775728226415509800,5.393509765625,4.40757942199707,-4.168296813964844,-0.22013968229293823
1775728226434038500,5.41203857421875,5.795416355133057,-3.067598581314087,-0.4331009089946747
1775728226452567300,5.4305673828125,13.25862979888916,-1.2442678213119507,-1.495514154434204
1775728226471095800,5.449095703125,24.567110061645508,-1.8592232465744019,0.4666004180908203
1775728226489624600,5.46762451171875,6.329015731811523,-9.032905578613281,3.768695592880249
1775728226508153300,5.4861533203125,-3.0245277881622314,-7.759923934936523,1.9262222051620483
1775728226526681900,5.504681884765625,10.49252700805664,-10.243673324584961,-4.527220249176025
1775728226545210600,5.523210693359375,9.81535816192627,-12.016755104064941,-3.864408493041992
1775728226563739400,5.541739501953125,1.9669002294540405,-12.839886665344238,-2.964707374572754
1775728226582268200,5.56026806640625,1.6151553392410278,-13.514662742614746,-5.362315654754639
1775728226600796700,5.578796630859375,4.208974838256836,-11.241480827331543,-7.9250288009643555
1775728226619325400,5.597325439453125,5.395814895629883,-10.066604614257812,-7.137789726257324
1775728226637854200,5.615854248046875,2.8211379051208496,-8.846264839172363,-2.864208698272705
1775728226656382700,5.6343828125,0.9906286001205444,-8.922835350036621,-0.4737788736820221
1775728226674911500,5.652911376953125,1.7395820617675781,-8.48734188079834,-0.6819544434547424
1775728226693440300,5.671440185546875,2.902493953704834,-8.571090698242188,-1.6295121908187866
1775728226711968800,5.68996875,3.3068809509277344,-8.305487632751465,-1.7204394340515137
1775728226730497500,5.70849755859375,2.117648124694824,-9.037691116333008,-3.2685956954956055
1775728226749026300,5.7270263671875,1.3615161180496216,-8.82233715057373,-3.8428730964660645
1775728226767554800,5.745554931640625,1.1413763761520386,-8.25523853302002,-3.5581271648406982
1775728226786083600,5.76408349609375,1.856830358505249,-8.087740898132324,-3.5126636028289795
1775728226804612400,5.7826123046875,2.1918256282806396,-8.240880966186523,-4.577469825744629
1775728226823141000,5.80114111328125,2.469393014907837,-7.336394309997559,-4.965106964111328
1775728226841669600,5.819669677734375,2.8522446155548096,-7.027719974517822,-3.94815731048584
1775728226860198400,5.838198486328125,3.294916868209839,-6.441478729248047,-2.053041934967041
1775728226878727200,5.85672705078125,4.0797624588012695,-6.620940208435059,-1.954936146736145
1775728226897255700,5.875255615234375,3.8500516414642334,-7.106683254241943,-3.383451223373413
1775728226915784400,5.893784423828125,2.029113531112671,-8.164310455322266,-3.94815731048584
1775728226934313200,5.912313232421875,0.11724831163883209,-9.291330337524414,-3.266202926635742
1775728226952841700,5.930841796875,-0.4450650215148926,-11.021341323852539,-3.9074792861938477
1775728226971370500,5.94937060546875,0.32303106784820557,-11.576476097106934,-5.149354457855225
1775728226989899300,5.967899169921875,2.5124638080596924,-10.992627143859863,-3.672982692718506
1775728227008428000,5.986427978515625,3.3403804302215576,-11.052447319030762,-3.5198421478271484
1775728227026956500,6.00495654296875,3.0005996227264404,-11.291729927062988,-3.2303106784820557
1775728227045485300,6.0234853515625,2.517249345779419,-12.268001556396484,-3.105883836746216
1775728227064014000,6.04201416015625,2.251646041870117,-12.88774299621582,-3.136990547180176
1775728227082542600,6.06054248046875,2.2444677352905273,-13.62473201751709,-4.3549370765686035
1775728227101071400,6.0790712890625,2.2157537937164307,-14.431113243103027,-4.527220249176025
1775728227119600000,6.09760009765625,1.6366907358169556,-14.254044532775879,-4.07258415222168
1775728227138129000,6.11612890625,2.794816732406616,-13.560126304626465,-3.445664644241333
1775728227156657400,6.134657470703125,5.4556355476379395,-12.21057415008545,-2.4885356426239014
1775728227175186200,6.153186279296875,8.082955360412598,-12.344572067260742,-3.177668571472168
1775728227193714700,6.171714599609375,10.664810180664062,-12.42832088470459,-4.07258415222168
1775728227212243500,6.190243408203125,9.944570541381836,-12.547962188720703,-5.465207099914551
1775728227230772200,6.208772216796875,6.999006271362305,-13.545768737792969,-5.2737812995910645
1775728227249301000,6.227301025390625,1.7730815410614014,-13.162917137145996,-3.627519130706787
1775728227267829500,6.24582958984375,-2.100898265838623,-12.914063453674316,-3.735196113586426
1775728227286358300,6.264358154296875,-1.2993026971817017,-12.531211853027344,-3.6394832134246826
1775728227304887000,6.282886962890625,-1.0336993932724,-9.686145782470703,-0.44027936458587646
1775728227323415600,6.30141552734375,-1.7132610082626343,-7.4464640617370605,2.60339093208313
1775728227341944300,6.3199443359375,0.059820566326379776,-5.529813289642334,1.9716858863830566
1775728227360473000,6.33847314453125,5.690132141113281,-5.036891460418701,-0.5742774605751038
1775728227379001900,6.357001953125,8.324629783630371,-5.79780912399292,-2.148754835128784
1775728227397530400,6.3755302734375,4.230510234832764,-6.199803352355957,-3.830909013748169
1775728227416059100,6.39405908203125,0.3900300860404968,-5.838487148284912,-3.036491870880127
1775728227434588000,6.412587890625,0.45224347710609436,-5.245067119598389,-1.4859428405761719
1775728227453116400,6.431116455078125,1.7084753513336182,-4.713860511779785,-1.9070796966552734
1775728227471645200,6.449645263671875,1.8472590446472168,-3.838087558746338,-2.155933141708374
1775728227490174000,6.468174072265625,1.031306505203247,-3.3020951747894287,-0.6436693072319031
1775728227508702700,6.48670263671875,0.5694918036460876,-3.1561331748962402,0.39481574296951294
1775728227527231200,6.505231201171875,1.545763373374939,-2.612962245941162,-0.33738797903060913
1775728227545760000,6.523760009765625,3.2518460750579834,-2.550748825073242,-1.6079767942428589
1775728227564288800,6.542288818359375,4.847858905792236,-2.885744094848633,-0.794417142868042
1775728227582817300,6.5608173828125,5.084748268127441,-3.4504501819610596,-0.32303106784820557
1775728227601346000,6.579345947265625,5.309673309326172,-4.146761417388916,-1.0528420209884644
1775728227619874800,6.597874755859375,10.009177207946777,-3.682554006576538,0.02632104977965355
1775728227638403600,6.616403564453125,24.557538986206055,-3.3020951747894287,2.56510591506958
1775728227656932000,6.63493212890625,10.736595153808594,-10.205389022827148,2.9072794914245605
1775728227675460900,6.6534609375,-4.163511276245117,-9.736394882202148,-0.36610186100006104
1775728227693989600,6.67198974609375,8.920442581176758,-9.657432556152344,-3.751945972442627
1775728227712518100,6.69051806640625,14.285151481628418,-13.174881935119629,-5.9198431968688965
1775728227731047000,6.709046875,-0.397208571434021,-12.519248008728027,-3.1274192333221436
1775728227749575700,6.72757568359375,2.172683000564575,-12.323036193847656,-4.972285270690918
1775728227768104200,6.746104248046875,5.493920803070068,-9.834501266479492,-7.295716285705566
1775728227786633000,6.764633056640625,3.713660717010498,-8.458627700805664,-5.723631858825684
1775728227805161700,6.78316162109375,2.3784656524658203,-8.453842163085938,-3.972085475921631
1775728227823690500,6.8016904296875,2.2396819591522217,-8.453842163085938,-2.9312076568603516
1775728227842219000,6.820218994140625,2.0267207622528076,-9.056833267211914,-1.7994025945663452
1775728227860747800,6.838747802734375,1.9764715433120728,-8.683553695678711,-2.179861545562744
1775728227879276500,6.857276611328125,3.0412776470184326,-8.61176872253418,-2.943171739578247
1775728227897805300,6.875805419921875,3.1513473987579346,-8.051848411560059,-3.0077781677246094
1775728227916333800,6.894333740234375,2.038684844970703,-8.243273735046387,-3.2039895057678223
1775728227934862600,6.912862548828125,2.0817556381225586,-7.8556365966796875,-2.2851455211639404
1775728227953391000,6.93139111328125,2.273181438446045,-7.475177764892578,-1.399801254272461
1775728227971920000,6.949919921875,1.9692929983139038,-7.968099594116211,-2.060220241546631
1775728227990448600,6.96844873046875,1.4524433612823486,-8.403593063354492,-2.562713146209717
1775728228008977400,6.986977294921875,1.6917256116867065,-8.070990562438965,-2.9001009464263916
1775728228027506200,7.005506103515625,2.651247501373291,-7.585247993469238,-3.5676984786987305
1775728228046034700,7.02403466796875,3.469592809677124,-7.293323516845703,-3.3954153060913086
1775728228064563500,7.0425634765625,3.3020951747894287,-7.594819068908691,-3.78544545173645
1775728228083092200,7.06109228515625,2.139183521270752,-8.482556343078613,-4.847858905792236
1775728228101620700,7.079620849609375,1.3950155973434448,-8.989834785461426,-4.170690059661865
1775728228120149500,7.0981494140625,1.4811571836471558,-8.508877754211426,-3.8739798069000244
1775728228138678300,7.11667822265625,1.8759729862213135,-8.812766075134277,-4.185046672821045
1775728228157207000,7.13520703125,2.3856441974639893,-10.191031455993652,-4.503292083740234
1775728228175735600,7.153735595703125,1.2418749332427979,-11.169695854187012,-5.240281581878662
1775728228194264300,7.172264404296875,0.4043870270252228,-12.478569984436035,-5.927021503448486
1775728228212793000,7.19079296875,0.4378865361213684,-14.380864143371582,-5.481956481933594
1775728228231321900,7.20932177734375,1.1892328262329102,-14.31625747680664,-3.625126361846924
1775728228249850400,7.227850341796875,2.644068956375122,-14.366507530212402,-2.3569302558898926
1775728228268379100,7.246379150390625,3.211168050765991,-14.249258995056152,-0.42352959513664246
1775728228286908000,7.264907958984375,3.014956474304199,-13.969298362731934,-1.1174482107162476
1775728228305436700,7.283436767578125,3.570091485977173,-13.746766090393066,-2.8283164501190186
1775728228323965200,7.301965087890625,4.639683246612549,-13.048062324523926,-4.113262176513672
1775728228342494000,7.320493896484375,5.843272686004639,-11.296515464782715,-4.756931304931641
1775728228361022700,7.339022705078125,7.946564197540283,-10.600204467773438,-3.8213376998901367
1775728228379551500,7.357551513671875,9.872786521911621,-10.918449401855469,-3.0484559535980225
1775728228398080000,7.376080078125,10.916056632995605,-11.992827415466309,-2.8905298709869385
1775728228416608800,7.39460888671875,7.8317084312438965,-12.954741477966309,-4.366901397705078
1775728228435137500,7.413137451171875,1.6103696823120117,-15.019747734069824,-5.623133182525635
1775728228453666000,7.431666015625,-2.6464617252349854,-14.462220191955566,-4.261617183685303
1775728228472194800,7.45019482421875,-3.783052682876587,-11.882757186889648,-2.132004976272583
1775728228490723600,7.4687236328125,-5.082355499267578,-8.71226692199707,0.794417142868042
1775728228509252400,7.48725244140625,-3.6323046684265137,-6.38165807723999,2.9479575157165527
1775728228527781000,7.505781005859375,2.8737800121307373,-5.539384365081787,1.7180466651916504
1775728228546309600,7.5243095703125,9.243474006652832,-5.283352375030518,-0.48095735907554626
1775728228564838400,7.54283837890625,8.037490844726562,-4.7401814460754395,-2.2779672145843506
1775728228583367200,7.5613671875,2.926422119140625,-6.065805435180664,-2.895315408706665
1775728228601896000,7.57989599609375,-0.4211367964744568,-5.123033046722412,-1.5720844268798828
1775728228620424400,7.598424560546875,0.7250252366065979,-4.457828521728516,-1.7850457429885864
1775728228638953200,7.616953125,1.9621145725250244,-3.81655216217041,-1.5314065217971802
1775728228657482000,7.63548193359375,1.4691931009292603,-2.3712873458862305,-0.3732803463935852
1775728228676010800,7.6540107421875,1.2346965074539185,-2.9359934329986572,0.016749758273363113
1775728228694539300,7.672539306640625,1.0336993932724,-3.8835511207580566,0.5910272002220154
1775728228713068000,7.691068115234375,2.620140790939331,-3.1968109607696533,-0.6245267391204834
1775728228731596800,7.7095966796875,3.88594388961792,-3.4480574131011963,-2.1056840419769287
1775728228750125300,7.728125244140625,4.510470867156982,-3.9672999382019043,-1.9070796966552734
1775728228768654000,7.746654052734375,6.754938125610352,-3.8285162448883057,-1.0791629552841187
1775728228787182800,7.765182861328125,18.393627166748047,-2.4430718421936035,1.6031911373138428
1775728228805711600,7.783711669921875,19.144973754882812,-6.271588325500488,3.538984775543213
1775728228824240400,7.802240478515625,-3.675375461578369,-9.619147300720215,2.007578134536743
1775728228842769000,7.820768798828125,-1.1078768968582153,-6.649653911590576,0.29431718587875366
1775728228861297700,7.839297607421875,11.911471366882324,-11.660224914550781,-2.9048867225646973
1775728228879826400,7.857826416015625,9.174081802368164,-12.935599327087402,-3.3236305713653564
1775728228898355200,7.876355224609375,4.716253280639648,-14.880964279174805,-5.453242778778076
1775728228916883700,7.8948837890625,2.682354211807251,-14.268401145935059,-8.365307807922363
1775728228935412500,7.91341259765625,2.1296122074127197,-12.935599327087402,-9.643074989318848
1775728228953941200,7.931941162109375,3.431307554244995,-10.693524360656738,-6.905686378479004
1775728228972470000,7.950469970703125,4.883750915527344,-8.896514892578125,-2.8498518466949463
1775728228990998800,7.968998779296875,3.9385859966278076,-7.82692289352417,0.2632105052471161
1775728229009527300,7.98752734375,2.5363919734954834,-6.788437843322754,1.4189438819885254
1775728229028056000,8.00605615234375,2.163111686706543,-7.637889862060547,0.18903298676013947
1775728229046584800,8.024584716796875,2.6273193359375,-8.008777618408203,-1.6055840253829956
1775728229065113300,8.04311328125,2.5770699977874756,-8.898907661437988,-3.469592809677124
1775728229083642000,8.06164208984375,0.6556333899497986,-8.762516975402832,-5.438885688781738
1775728229102171000,8.0801708984375,1.399801254272461,-8.937192916870117,-6.666403770446777
1775728229120699600,8.09869970703125,2.8043880462646484,-8.85344409942627,-5.998806476593018
1775728229139228400,8.117228515625,2.4023938179016113,-8.267202377319336,-3.053241729736328
1775728229157757000,8.1357568359375,1.0265209674835205,-8.02074146270752,-1.978864312171936
1775728229176285700,8.15428564453125,0.6221339106559753,-7.176074981689453,-1.8831514120101929
1775728229194814500,8.172814453125,1.2658032178878784,-6.994220733642578,-2.5435705184936523
1775728229213343200,8.19134326171875,1.856830358505249,-7.3292155265808105,-4.084548473358154
1775728229231872000,8.2098720703125,1.0480563640594482,-7.625925540924072,-3.517449378967285
1775728229250400500,8.228400390625,0.41156548261642456,-7.489534854888916,-2.0889341831207275
1775728229268929300,8.24692919921875,1.2801600694656372,-8.336593627929688,-2.225325107574463
1775728229287458000,8.2654580078125,1.9070796966552734,-9.095118522644043,-2.4741785526275635
1775728229305986600,8.283986572265626,1.8616160154342651,-9.425328254699707,-2.9934210777282715
1775728229324515300,8.302515380859376,1.7204394340515137,-9.906285285949707,-3.407379388809204
1775728229343044000,8.321044189453126,2.6703901290893555,-10.504491806030273,-2.8594231605529785
1775728229361572900,8.33957275390625,4.1491546630859375,-11.607583045959473,-3.469592809677124
1775728229380101600,8.3581015625,3.5198421478271484,-12.468998908996582,-5.221138954162598
1775728229398630100,8.376630126953126,2.723032236099243,-13.304094314575195,-5.7786664962768555
1775728229417159000,8.395158935546876,2.1774685382843018,-15.450455665588379,-4.792823791503906
1775728229435687700,8.413687744140624,0.914058268070221,-15.672987937927246,-2.234896421432495
1775728229454216400,8.432216552734374,0.32303106784820557,-14.687145233154297,-2.2540390491485596
1775728229472745200,8.4507451171875,1.856830358505249,-13.61037540435791,-3.4791641235351562
1775728229491273700,8.469273681640624,4.0319061279296875,-12.445070266723633,-4.110869407653809
1775728229509802500,8.487802490234374,6.92482852935791,-11.667403221130371,-3.452843189239502
1775728229537595600,8.515595703125,12.011969566345215,-11.626725196838379,-2.8905298709869385
1775728229556124400,8.53412451171875,11.394621849060059,-12.988241195678711,-6.687939167022705
1775728229574653000,8.55265283203125,5.654240131378174,-14.43350601196289,-8.673981666564941
1775728229593181700,8.571181640625,-1.8999011516571045,-14.088939666748047,-7.226324558258057
1775728229611710500,8.58971044921875,-3.900300979614258,-13.600804328918457,-4.563112735748291
1775728229630239200,8.6082392578125,-4.053441524505615,-11.997612953186035,-2.7828526496887207
1775728229648767700,8.626767822265625,-4.783252239227295,-8.09970474243164,0.7704889178276062
1775728229667296500,8.645296630859375,-1.9310078620910645,-5.168497085571289,3.043670415878296
1775728229685825300,8.6638251953125,3.9457645416259766,-5.252245903015137,2.0793628692626953
1775728229704354000,8.68235400390625,7.511070251464844,-6.096911907196045,0.7776673436164856
1775728229722882800,8.7008828125,4.924428939819336,-6.4701924324035645,-0.9355936646461487
1775728229741411600,8.71941162109375,1.5936198234558105,-6.340980052947998,-2.6775684356689453
1775728229759940000,8.737940185546876,0.2560320198535919,-6.149554252624512,-3.3236305713653564
1775728229778468900,8.75646875,-0.1818545162677765,-6.013163089752197,-3.4576287269592285
1775728229796997600,8.77499755859375,0.9930213689804077,-4.835894584655762,-2.2923240661621094
1775728229815526100,8.793526123046876,2.0171494483947754,-4.0797624588012695,-0.6245267391204834
1775728229834055000,8.812054931640626,1.4141582250595093,-3.6610186100006104,0.45942193269729614
1775728229852583700,8.830583740234376,0.5335994362831116,-4.122833251953125,-0.4211367964744568
1775728229871112400,8.849112548828124,1.1988041400909424,-4.175475597381592,-1.1389836072921753
1775728229889641200,8.86764111328125,3.2685956954956055,-3.242274761199951,-1.3663017749786377
1775728229908169700,8.886169677734374,4.6372904777526855,-3.1896326541900635,-1.4763715267181396
1775728229926698500,8.904698486328124,6.080162525177002,-3.7232320308685303,-1.1198409795761108
1775728229945227300,8.923227294921874,12.732209205627441,-3.5581271648406982,0.33738797903060913
1775728229963756000,8.941756103515624,17.38385581970215,-5.836094379425049,4.3549370765686035
1775728229982284800,8.960284912109374,1.5792629718780518,-8.13081169128418,2.871387243270874
1775728230000813600,8.9788134765625,3.7160534858703613,-9.580862045288086,-3.8572301864624023
1775728230019342000,8.997342041015624,11.743973731994629,-11.97607707977295,-5.67338228225708
1775728230037870800,9.015870849609374,10.231709480285645,-13.607982635498047,-4.48414945602417
1775728230056399600,9.034399658203125,-0.763310432434082,-14.536397933959961,-4.766502857208252
1775728230074928000,9.05292822265625,-1.1772687435150146,-12.260823249816895,-6.7070817947387695
1775728230093457000,9.071456787109375,5.07517671585083,-9.937392234802246,-6.446264266967773
1775728230111985700,9.089985595703125,5.608776092529297,-8.082955360412598,-3.5222349166870117
1775728230130514400,9.108514404296875,1.6941183805465698,-8.10688304901123,-0.8805587291717529
1775728230149043200,9.127043212890625,0.8901300430297852,-9.090332984924316,-0.49292147159576416
1775728230167572000,9.145572021484375,2.744567632675171,-9.250652313232422,-1.0432707071304321
1775728230186100500,9.1641005859375,3.1680972576141357,-8.901300430297852,-2.335394859313965
1775728230204629200,9.182629150390625,3.043670415878296,-9.32722282409668,-3.7567315101623535
1775728230223158000,9.201157958984375,1.9645073413848877,-8.93240737915039,-4.182653903961182
1775728230241686800,9.219686767578125,2.469393014907837,-8.221738815307617,-3.359523057937622
1775728230260215600,9.238215576171875,2.6608188152313232,-8.097311973571777,-3.8213376998901367
1775728230278744000,9.256744140625,2.4574289321899414,-7.592426300048828,-4.1730828285217285
1775728230297272800,9.27527294921875,2.4095723628997803,-7.154539585113525,-3.783052682876587
1775728230315801600,9.293801513671875,1.2251251935958862,-6.9822564125061035,-3.2374889850616455
1775728230334330400,9.312330322265625,0.8757730722427368,-6.8865437507629395,-2.3234307765960693
1775728230352859000,9.33085888671875,1.8041882514953613,-6.786045074462891,-1.852044701576233
1775728230380652000,9.358652099609374,3.0963125228881836,-7.013363361358643,-3.1034910678863525
1775728230399180800,9.377180908203124,2.455035924911499,-7.491927623748779,-3.672982692718506
1775728230417709600,9.39570947265625,0.9260223507881165,-8.944371223449707,-4.508078098297119
1775728230436238300,9.41423828125,0.23449662327766418,-10.52363395690918,-4.797609329223633
1775728230454766800,9.432766845703124,1.2681959867477417,-10.346565246582031,-3.761517286300659
1775728230473295600,9.451295654296874,2.251646041870117,-10.949556350708008,-4.218546390533447
1775728230491824400,9.469824462890625,2.2396819591522217,-11.394621849060059,-4.443471431732178
1775728230510353200,9.488353271484375,2.9168508052825928,-11.956934928894043,-4.412364959716797
1775728230528881700,9.506881591796875,2.5076780319213867,-12.839886665344238,-4.409972190856934
1775728230547410400,9.525410400390625,1.1198409795761108,-14.000405311584473,-3.783052682876587
1775728230565939200,9.543939208984375,0.2919243574142456,-14.608181953430176,-2.888136863708496
1775728230584468000,9.562468017578125,0.1746760457754135,-15.215959548950195,-2.6177480220794678
1775728230602996700,9.580996826171875,0.12442677468061447,-14.802000999450684,-3.8883368968963623
1775728230621525200,9.599525146484375,0.7872386574745178,-13.28255844116211,-4.591826438903809
1775728230640054000,9.618053955078125,2.9288148880004883,-12.39721393585205,-4.634897232055664
1775728230658582800,9.636582763671875,6.467799663543701,-11.452049255371094,-4.06540584564209
1775728230677111600,9.655111572265625,10.351350784301758,-11.411371231079102,-2.0195422172546387
1775728230695640300,9.673640380859375,12.461820602416992,-11.138589859008789,-2.7182464599609375
1775728230714168800,9.6921689453125,10.358529090881348,-12.789636611938477,-7.058826923370361
1775728230732697600,9.710697509765625,3.8835511207580566,-14.19422435760498,-8.941978454589844
1775728230751226400,9.729226318359375,-1.825723648071289,-13.938192367553711,-5.776273727416992
1775728230769755100,9.747755126953125,-3.4193434715270996,-12.569497108459473,-2.878565549850464
1775728230788283600,9.76628369140625,-3.1250264644622803,-10.947163581848145,-0.8183453679084778
1775728230806812400,9.7848125,-4.883750915527344,-7.668996810913086,1.7754744291305542
1775728230825341200,9.803341064453125,-3.689732551574707,-4.972285270690918,3.077169895172119
1775728230843870000,9.821869873046875,2.273181438446045,-4.508078098297119,0.8685946464538574
1775728230862398700,9.840398681640625,9.044869422912598,-4.792823791503906,-2.0650060176849365
1775728230880927200,9.85892724609375,9.107083320617676,-5.477170944213867,-2.4717857837677
1775728230899456000,9.8774560546875,4.024727821350098,-6.843472957611084,-2.6799614429473877
1775728230917984800,9.89598486328125,-0.6819544434547424,-6.991827964782715,-2.801995277404785
1775728230936513500,9.914513427734375,-1.8664016723632812,-5.654240131378174,-1.911865234375
1775728230955042300,9.933042236328125,0.8566305041313171,-4.642076015472412,-2.007578134536743
1775728230973570800,9.95157080078125,3.273381471633911,-3.6155550479888916,-1.6630117893218994
1775728230992099600,9.970099609375,2.4885356426239014,-4.42193603515625,-1.4931213855743408
1775728231010628400,9.98862841796875,0.7657032608985901,-4.73300313949585,-0.4618147611618042
1775728231029157000,10.0071572265625,0.9523434042930603,-4.381258487701416,-0.17228323221206665
1775728231047685600,10.025685546875,1.911865234375,-4.42193603515625,-1.2681959867477417
1775728231066214400,10.04421435546875,3.2925238609313965,-4.244867324829102,-1.7228323221206665
1775728231084743200,10.0627431640625,5.0703911781311035,-4.101297855377197,-1.1509476900100708
1775728231103272000,10.08127197265625,8.949156761169434,-4.070191383361816,-0.5144568681716919
1775728231121800400,10.099800537109376,26.06980323791504,-2.1750757694244385,2.667997360229492
1775728231140329200,10.1183291015625,8.054241180419922,-8.597412109375,5.010570526123047
1775728231158858000,10.13685791015625,-7.733603000640869,-10.954341888427734,-2.407179594039917
1775728231177386800,10.15538671875,5.8719868659973145,-8.111668586730957,-5.826523303985596
1775728231195915300,10.173915283203126,16.816757202148438,-13.141382217407227,-4.5200419425964355
1775728231214444000,10.192444091796874,1.3878371715545654,-13.253844261169434,-2.4981069564819336
1775728231232972800,10.210972900390624,-0.2871387302875519,-14.701501846313477,-6.197410583496094
1775728231251501600,10.22950146484375,4.213760852813721,-11.478370666503906,-9.131011009216309
1775728231270030300,10.2480302734375,6.2668023109436035,-9.877572059631348,-7.314858913421631
1775728231288559000,10.26655908203125,3.4002010822296143,-9.667003631591797,-3.579662561416626
1775728231307087600,10.285087646484374,1.7276179790496826,-9.025727272033691,-1.7778671979904175
1775728231325616400,10.303616455078124,2.7493531703948975,-7.886743545532227,-1.3591232299804688
1775728231344145200,10.322145263671874,3.1561331748962402,-7.867600917816162,-1.0169496536254883
1775728231362673700,10.340673583984374,2.7110681533813477,-7.946564197540283,-1.3399807214736938
1775728231381202400,10.359202392578124,2.713460922241211,-8.434700012207031,-3.0005996227264404
1775728231399731200,10.377731201171875,2.311466693878174,-8.595019340515137,-4.046263217926025
1775728231418260000,10.396260009765625,2.194218397140503,-8.523234367370605,-4.335794448852539
1775728231436788500,10.41478857421875,1.8640087842941284,-8.793622970581055,-4.570291042327881
1775728231455317200,10.433317138671875,1.1318050622940063,-8.884550094604492,-4.467400074005127
1775728231473846000,10.451845947265625,1.1054840087890625,-8.50169849395752,-4.266402721405029
1775728231492374800,10.470374755859375,1.2418749332427979,-8.01356315612793,-3.7806596755981445
1775728231510903300,10.4889033203125,1.210768222808838,-7.334001541137695,-3.359523057937622
1775728231529432000,10.50743212890625,1.3710874319076538,-6.649653911590576,-3.4791641235351562
1775728231547960800,10.5259609375,1.2873386144638062,-6.400800704956055,-3.28773832321167
1775728231566489600,10.544489501953125,0.729810893535614,-7.259823799133301,-3.6227335929870605
1775728231585018400,10.563018310546875,0.32542386651039124,-7.475177764892578,-3.6921253204345703
1775728231603547000,10.581546875,1.3639088869094849,-7.858029365539551,-2.825923442840576
1775728231622075600,10.60007568359375,2.2707886695861816,-8.02074146270752,-1.9046868085861206
1775728231640604400,10.6186044921875,2.713460922241211,-9.107083320617676,-2.2133610248565674
1775728231659133000,10.6371328125,3.761517286300659,-10.449456214904785,-3.5533416271209717
1775728231677661700,10.65566162109375,4.256831645965576,-11.050054550170898,-4.668396949768066
1775728231696190500,10.6741904296875,2.3162522315979004,-10.954341888427734,-5.5728840827941895
1775728231714719200,10.69271923828125,1.124626636505127,-11.95454216003418,-5.436492919921875
1775728231733247700,10.711247802734375,1.373480200767517,-12.928421020507812,-3.7399818897247314
1775728231751776500,10.729776611328125,1.5625132322311401,-13.919049263000488,-2.7182464599609375
1775728231770305300,10.74830517578125,1.3280165195465088,-15.043676376342773,-1.6893328428268433
1775728231788834000,10.766833984375,0.7872386574745178,-15.589239120483398,-1.648654818534851
1775728231807362600,10.785362548828125,2.249253273010254,-14.634503364562988,-2.8139593601226807
1775728231825891300,10.803891357421875,4.855037212371826,-12.605389595031738,-4.170690059661865
1775728231844420000,10.822420166015625,6.92482852935791,-11.626725196838379,-4.498506546020508
1775728231862948900,10.840948974609375,8.00638484954834,-11.794222831726074,-4.357329845428467
1775728231881477400,10.859477294921875,9.131011009216309,-11.667403221130371,-4.101297855377197
1775728231900006100,10.878006103515625,9.93260669708252,-12.3278226852417,-4.807180881500244
1775728231918535000,10.896534912109376,6.955935478210449,-13.416556358337402,-6.661618232727051
1775728231937063700,10.915063720703126,0.4546363055706024,-13.95972728729248,-6.185446739196777
1775728231955592200,10.93359228515625,-3.06999135017395,-12.64606761932373,-4.4650068283081055
1775728231974121000,10.952120849609376,-3.263810157775879,-11.818151473999023,-3.658625841140747
1775728231992649700,10.970649658203126,-2.1774685382843018,-9.56650447845459,-2.234896421432495
1775728232011178200,10.98917822265625,-2.66560435295105,-7.726424217224121,-0.1698904037475586
1775728232029707000,11.00770703125,-0.7226324677467346,-5.840879917144775,3.10109806060791
1775728232048235800,11.02623583984375,3.792623996734619,-4.991427898406982,3.7088751792907715
1775728232066764300,11.044764404296876,7.269395351409912,-4.591826438903809,2.416750907897949
1775728232085293000,11.06329296875,6.874579429626465,-5.063212871551514,-0.6891329288482666
1775728232103821800,11.08182177734375,3.5437703132629395,-6.032305717468262,-3.098705291748047
1775728232122350600,11.1003505859375,0.7680960893630981,-5.577669620513916,-3.108276605606079
1775728232140879000,11.118879150390624,0.8709874153137207,-4.768895626068115,-1.5984054803848267
1775728232159407900,11.137407958984374,2.7326035499572754,-4.254438877105713,-0.48574298620224
1775728232177936600,11.1559365234375,4.249652862548828,-4.326223373413086,-1.2346965074539185
1775728232196465200,11.174465087890624,3.7232320308685303,-4.922036170959473,-2.3976082801818848
1775728232214994000,11.192993896484374,2.4837498664855957,-4.419543266296387,-2.328216314315796
1775728232233522700,11.211522705078124,1.6941183805465698,-3.2853455543518066,-1.490728497505188
1775728232252051200,11.23005126953125,2.1750757694244385,-2.610569477081299,-1.057627558708191
1775728232270580000,11.248580078125,3.8835511207580566,-2.4023938179016113,-1.1892328262329102
1775728232289108700,11.267108642578124,4.8502516746521,-2.9072794914245605,-1.4333007335662842
1775728232307637500,11.285637451171874,6.994220733642578,-2.4981069564819336,-1.1437692642211914
1775728232326166300,11.304166259765625,17.666210174560547,-1.1198409795761108,-0.1339980661869049
1775728232344694800,11.32269482421875,24.033510208129883,-4.350151538848877,1.9669002294540405
1775728232363223600,11.3412236328125,-0.576670229434967,-10.255638122558594,4.101297855377197
1775728232381752300,11.35975244140625,1.2346965074539185,-7.384250640869141,-2.100898265838623
1775728232400280800,11.37828076171875,9.032905578613281,-12.815958023071289,-8.733802795410156
1775728232418809600,11.3968095703125,4.376472473144531,-10.935199737548828,-4.613361835479736
1775728232437338400,11.41533837890625,5.9198431968688965,-12.0933256149292,-1.9022940397262573
1775728232455867000,11.433866943359375,6.472585201263428,-11.277373313903809,-4.113262176513672
1775728232474395600,11.452395751953125,4.350151538848877,-11.82293701171875,-7.420143127441406
1775728232492924400,11.47092431640625,2.1678972244262695,-11.526226997375488,-6.812366008758545
1775728232511453000,11.489452880859375,2.65842604637146,-10.092926025390625,-5.426921844482422
1775728232529981700,11.507981689453125,2.933600664138794,-8.781659126281738,-4.505684852600098
1775728232548510500,11.526510498046875,2.0961127281188965,-8.068597793579102,-3.6705899238586426
1775728232567039200,11.545039306640625,2.9694929122924805,-7.45364236831665,-3.4241292476654053
1775728232585567700,11.563567626953125,3.091526746749878,-7.590033531188965,-3.239881753921509
1775728232604096500,11.582096435546875,2.825923442840576,-7.070790767669678,-2.706282377243042
1775728232622625300,11.600625244140625,3.696911096572876,-6.477370738983154,-2.0171494483947754
1775728232641153800,11.61915380859375,4.077369689941406,-6.91765022277832,-2.957528829574585
1775728232659682600,11.6376826171875,2.3306093215942383,-7.171289443969727,-4.074976921081543
1775728232678211300,11.65621142578125,1.3830515146255493,-7.252645492553711,-3.728017568588257
1775728232696739800,11.67473974609375,1.0600204467773438,-7.685746192932129,-2.974278450012207
1775728232715268600,11.6932685546875,1.5290136337280273,-7.403393268585205,-2.416750907897949
1775728232733797400,11.71179736328125,2.6392834186553955,-7.130611419677734,-2.225325107574463
1775728232752326000,11.730325927734375,3.177668571472168,-7.51585578918457,-3.2231321334838867
1775728232770854700,11.748854736328125,2.7732813358306885,-8.403593063354492,-4.388436794281006
1775728232789383400,11.767383544921875,2.069791555404663,-8.755337715148926,-4.8502516746521
1775728232807912000,11.785911865234375,1.6295121908187866,-8.70508861541748,-4.785645484924316
1775728232826440700,11.804440673828125,1.2442678213119507,-9.231510162353516,-5.472385406494141
1775728232844969500,11.822969482421875,1.0480563640594482,-9.903892517089844,-5.6685967445373535
1775728232863498200,11.841498291015625,1.3806586265563965,-9.250652313232422,-3.634697675704956
1775728232882026800,11.86002685546875,1.588834285736084,-8.980263710021973,-2.6967110633850098
1775728232900555500,11.878555419921875,1.8496519327163696,-8.812766075134277,-1.9262222051620483
1775728232919084300,11.897084228515626,1.2969099283218384,-9.236295700073242,-2.115255117416382
1775728232937612800,11.91561279296875,0.9236295223236084,-9.454042434692383,-3.160918712615967
1775728232956141600,11.9341416015625,1.00259268283844,-9.724431037902832,-4.505684852600098
1775728232974670300,11.95267041015625,1.2011969089508057,-9.949356079101562,-5.5345988273620605
1775728232993198800,11.97119873046875,1.1940184831619263,-11.251051902770996,-5.740381717681885
1775728233011727600,11.9897275390625,1.0719845294952393,-12.380464553833008,-4.113262176513672
1775728233030256400,12.00825634765625,0.9044869542121887,-13.060026168823242,-2.7349963188171387
1775728233048785000,12.026784912109376,2.007578134536743,-14.47896957397461,-2.706282377243042
1775728233067313700,12.045313720703126,2.342573404312134,-15.357135772705078,-2.9551360607147217
1775728233085842400,12.063842529296876,0.9236295223236084,-15.275779724121094,-2.9694929122924805
1775728233104371000,12.082370849609376,0.5240281820297241,-14.758930206298828,-3.436093330383301
1775728233122899700,12.100899658203126,1.332802176475525,-13.481163024902344,-4.101297855377197
1775728233141428200,12.11942822265625,1.734796404838562,-11.507083892822266,-4.0079779624938965
1775728233159957000,12.13795703125,1.8711873292922974,-9.805787086486816,-3.297309637069702
1775728233178485800,12.15648583984375,3.1130621433258057,-9.075976371765137,-2.0338993072509766
1775728233197014300,12.17501416015625,5.517848968505859,-8.894122123718262,-1.7611174583435059
1775728233215543000,12.19354296875,7.255038261413574,-9.269794464111328,-3.594019651412964
1775728233234071800,12.21207177734375,6.735795974731445,-10.188638687133789,-5.443671703338623
1775728233261864700,12.23986474609375,1.648654818534851,-9.611968994140625,-2.541177749633789
1775728233280393500,12.2583935546875,-1.825723648071289,-9.707681655883789,-0.17228323221206665
1775728233298922200,12.276922119140625,-3.428914785385132,-10.255638122558594,1.4452649354934692
1775728233317450800,12.29545068359375,-4.668396949768066,-8.61176872253418,1.5385849475860596
1775728233335979500,12.3139794921875,-3.129812002182007,-7.379465103149414,-0.39481574296951294
1775728233354508300,12.33250830078125,-0.24406790733337402,-5.749952793121338,-2.792423963546753
1775728233373036800,12.351036865234375,4.34536600112915,-5.280959606170654,-3.28773832321167
1775728233391565600,12.369565673828125,7.393822193145752,-5.594419479370117,-1.2418749332427979
1775728233410094300,12.38809423828125,4.826323509216309,-6.317051887512207,0.29431718587875366
1775728233428622800,12.406622802734375,1.0815558433532715,-7.0755767822265625,0.550349235534668
1775728233447151600,12.425151611328126,0.4785645306110382,-6.314659118652344,0.15314064919948578
1775728233465680400,12.443680419921876,1.8376877307891846,-6.50608491897583,-1.8735800981521606
1775728233484209000,12.462208984375,2.5842485427856445,-6.652047157287598,-3.620340585708618
1775728233502737700,12.480737548828126,1.9884356260299683,-6.594619274139404,-3.290131092071533
1775728233521266400,12.499266357421876,1.545763373374939,-6.69990348815918,-2.1774685382843018
1775728233539795000,12.517794921875,1.892722725868225,-6.51326322555542,-0.9020941257476807
1775728233558323700,12.53632373046875,2.344966173171997,-6.489335060119629,-0.6508477330207825
1775728233576852500,12.5548525390625,2.7421748638153076,-6.63769006729126,-0.9762716293334961
1775728233595381000,12.573381103515626,3.232703447341919,-6.460621356964111,-1.0767701864242554
1775728233613909800,12.59190966796875,4.125226020812988,-6.283552169799805,-0.9523434042930603
1775728233632438300,12.610438232421876,4.991427898406982,-6.752545356750488,-0.6532405614852905
1775728233650967000,12.628967041015626,5.565705299377441,-7.195217609405518,-1.6055840253829956
1775728233669495800,12.647495849609374,7.04207706451416,-6.994220733642578,-2.3306093215942383
1775728233688024300,12.6660244140625,9.360722541809082,-7.020541667938232,-2.5220351219177246
1775728233706553000,12.684552978515624,9.734002113342285,-7.499105930328369,-2.7254250049591064
1775728233725081900,12.703081787109374,8.202595710754395,-8.403593063354492,-3.682554006576538
1775728233743610400,12.7216103515625,7.3746795654296875,-9.140582084655762,-4.59421968460083
1775728233762139100,12.74013916015625,3.3619158267974854,-9.394221305847168,-4.869394302368164
1775728233780668000,12.75866796875,1.5672988891601562,-10.277173042297363,-4.658825874328613
1775728233799196400,12.777196533203124,2.586641311645508,-11.052447319030762,-4.924428939819336
1775728233817725200,12.79572509765625,2.8426733016967773,-11.542976379394531,-4.359723091125488
1775728233836253700,12.814253662109374,-1.0289137363433838,-11.547761917114258,-0.39481574296951294
1775728233854782500,12.832782470703124,-1.0336993932724,-10.526026725769043,1.9453648328781128
1775728233873311200,12.851311279296874,3.366701364517212,-9.631111145019531,-1.0815558433532715
1775728233891839700,12.86983984375,3.81655216217041,-9.358329772949219,-2.9862427711486816
1775728233910368500,12.888368408203124,1.5409778356552124,-9.274580955505371,-2.8283164501190186
1775728233928897300,12.906897216796875,-0.4426721930503845,-9.360722541809082,-1.4883357286453247
1775728233947425800,12.92542578125,-0.4713860750198364,-9.882357597351074,-1.2921242713928223
1775728233965954600,12.94395458984375,1.5481562614440918,-10.49970531463623,-2.806781053543091
1775728233984483300,12.9624833984375,3.436093330383301,-10.37767219543457,-3.5270206928253174
1775728234003011800,12.98101171875,3.2997024059295654,-9.767501831054688,-3.2470602989196777
1775728234021540600,12.99954052734375,1.7180466651916504,-9.681360244750977,-3.649054527282715
1775728234040069400,13.0180693359375,0.41874396800994873,-9.899106979370117,-4.529613494873047
1775728234058598000,13.036597900390625,0.43549370765686035,-9.487542152404785,-4.18983268737793
1775728234077126700,13.055126708984375,1.521835207939148,-8.446663856506348,-3.3690943717956543
1775728234095655400,13.073655517578125,2.7254250049591064,-8.228917121887207,-3.0723843574523926
1775728234114184000,13.092183837890625,1.9022940397262573,-8.413164138793945,-3.1896326541900635
1775728234132712700,13.110712646484375,1.0360921621322632,-8.937192916870117,-3.871587038040161
1775728234151241200,13.1292412109375,1.2586246728897095,-9.265008926391602,-5.2977094650268555
1775728234169770000,13.14777001953125,2.1894326210021973,-9.233902931213379,-5.836094379425049
1775728234188298800,13.166298828125,3.22552490234375,-8.7505521774292,-4.694717884063721
1775728234206827300,13.1848271484375,4.510470867156982,-8.554341316223145,-2.8666014671325684
1775728234225356000,13.20335595703125,4.130012035369873,-8.805587768554688,-2.366501569747925
1775728234243884800,13.221884765625,1.8448662757873535,-9.145368576049805,-2.5196423530578613
1775728234262413300,13.240413330078125,-0.7896314859390259,-9.681360244750977,-2.6847469806671143
1775728234280942000,13.258942138671875,-1.9932212829589844,-10.078569412231445,-2.4765713214874268
1775728234299470800,13.277470947265625,-0.7657032608985901,-9.91825008392334,-1.6199408769607544
1775728234317999400,13.295999267578125,1.8999011516571045,-10.102497100830078,-1.648654818534851
1775728234336528100,13.314528076171875,3.25663161277771,-10.147960662841797,-2.266003131866455
1775728234355056600,13.333056640625,3.326023578643799,-9.882357597351074,-2.2540390491485596
1775728234373585400,13.35158544921875,3.3954153060913086,-9.858428955078125,-2.5292134284973145
1775728234392114200,13.3701142578125,3.649054527282715,-9.805787086486816,-3.2614171504974365
1775728234410643000,13.388642822265625,3.2207393646240234,-9.10229778289795,-2.943171739578247
1775728234429171500,13.40717138671875,2.203789710998535,-8.405985832214355,-1.923829436302185
1775728234447700200,13.4257001953125,2.218146562576294,-7.752745151519775,-0.6173482537269592
1775728234466228700,13.444228759765625,2.6057839393615723,-7.57806921005249,-0.08853443711996078
1775728234484757500,13.462757568359375,3.067598581314087,-7.135396957397461,-0.5072783827781677
1775728234503286300,13.481286376953125,2.9479575157165527,-7.121040344238281,-1.368694543838501
1775728234521814800,13.499814697265625,3.1585259437561035,-8.12123966217041,-2.7637102603912354
1775728234540343600,13.518343505859375,2.4717857837677,-9.229117393493652,-4.1419758796691895
1775728234558872300,13.536872314453126,1.0648061037063599,-10.195816993713379,-5.312066078186035
1775728234577400800,13.55540087890625,1.2610175609588623,-9.719645500183105,-5.426921844482422
1775728234595929600,13.5739296875,2.6249263286590576,-9.628718376159668,-6.1399827003479
1775728234614458400,13.592458251953126,3.9864425659179688,-8.681160926818848,-5.077569484710693
1775728234632987000,13.61098681640625,3.345165967941284,-8.334200859069824,-3.579662561416626
1775728234651515600,13.629515625,2.0554347038269043,-8.118846893310547,-2.775674343109131
1775728234670044400,13.64804443359375,2.053041934967041,-7.77188777923584,-2.7397818565368652
1775728234688573000,13.666572998046876,2.909672260284424,-7.645068168640137,-3.077169895172119
1775728234707101700,13.685101806640626,4.366901397705078,-7.611568927764893,-2.589034080505371
1775728234725630200,13.703630126953126,4.780859470367432,-7.891529083251953,-2.68953275680542
1775728234744159000,13.722158935546876,4.3070807456970215,-7.994420528411865,-3.555734395980835
1775728234762687700,13.740687744140626,4.07258415222168,-7.992027759552002,-3.586841106414795
1775728234781216300,13.75921630859375,4.78803825378418,-8.298309326171875,-3.211168050765991
1775728234799745000,13.7777451171875,5.101497650146484,-8.34855842590332,-3.3786656856536865
1775728234818273800,13.796273681640624,6.111268997192383,-8.427521705627441,-4.027120590209961
1775728234836802300,13.81480224609375,6.6113691329956055,-8.702695846557617,-4.232903480529785
1775728234855331000,13.8333310546875,5.66620397567749,-8.769695281982422,-4.077369689941406
1775728234873859600,13.851859619140624,6.003592014312744,-8.83669376373291,-4.01037073135376
1775728234892388400,13.870388427734374,5.67338228225708,-9.461220741271973,-4.716253280639648
1775728234910917000,13.888917236328124,2.8666014671325684,-9.738788604736328,-4.094119548797607
1775728234929445600,13.907445556640624,-0.2679961323738098,-9.963713645935059,-2.1607189178466797
1775728234947974400,13.925974365234374,-1.8089739084243774,-8.772088050842285,-0.8015955686569214
1775728234966503200,13.944503173828124,0.4666004180908203,-7.975277900695801,-0.3278166949748993
1775728234985031700,13.96303173828125,3.4959139823913574,-8.350951194763184,-0.5120640397071838
1775728235003560400,13.981560546875,3.957728624343872,-8.841479301452637,-1.8305093050003052
1775728235022089200,14.000089111328125,3.31884503364563,-9.518648147583008,-2.878565549850464
1775728235040617700,14.01861767578125,2.861815929412842,-9.590433120727539,-3.366701364517212
1775728235059146500,14.037146484375,1.9070796966552734,-9.181260108947754,-3.641875982284546
1775728235077675000,14.055675048828125,1.399801254272461,-9.535398483276367,-4.1970109939575195
1775728235096203800,14.074203857421875,1.6079767942428589,-9.719645500183105,-4.1491546630859375
1775728235114732500,14.092732666015625,2.076970100402832,-9.28893756866455,-4.405186653137207
1775728235133261000,14.111260986328125,1.6175481081008911,-9.157332420349121,-5.201996326446533
1775728235151789800,14.129789794921875,1.1174482107162476,-9.293723106384277,-4.72582483291626
1775728235170318600,14.148318603515625,2.541177749633789,-9.10229778289795,-3.335594654083252
1775728235188847000,14.16684716796875,3.768695592880249,-8.673981666564941,-2.799602508544922
1775728235207376000,14.1853759765625,3.404986619949341,-8.48734188079834,-3.4815568923950195
1775728235225904600,14.203904541015625,2.3497519493103027,-8.3629150390625,-3.9074792861938477
1775728235244433200,14.22243310546875,1.825723648071289,-8.449056625366211,-4.462614059448242
1775728235262962000,14.2409619140625,2.1439690589904785,-8.585447311401367,-4.043870449066162
1775728235281490700,14.25949072265625,2.8689942359924316,-8.669196128845215,-3.4743785858154297
1775728235300019200,14.278019287109375,3.273381471633911,-8.671588897705078,-3.1752755641937256
1775728235318548000,14.2965478515625,3.4552359580993652,-8.542376518249512,-3.1968109607696533
1775728235337076700,14.31507666015625,3.814159393310547,-8.571090698242188,-2.555534601211548
1775728235355605200,14.333605224609375,2.902493953704834,-8.554341316223145,-2.6392834186553955
1775728235374134000,14.352134033203125,1.6701902151107788,-9.32722282409668,-3.187239646911621
1775728235392662800,14.370662841796875,1.5696916580200195,-9.233902931213379,-3.38105845451355
1775728235411191300,14.38919140625,2.3976082801818848,-9.631111145019531,-3.3092737197875977
1775728235429720000,14.407719970703125,2.2683959007263184,-9.578469276428223,-3.421736478805542
1775728235448248600,14.42624853515625,2.2995026111602783,-8.989834785461426,-3.31884503364563
1775728235466777300,14.44477734375,2.651247501373291,-8.394021987915039,-2.754138946533203
1775728235485306000,14.46330615234375,2.7637102603912354,-8.358129501342773,-2.909672260284424
1775728235503834600,14.481834716796875,2.5770699977874756,-8.724231719970703,-3.3020951747894287
1775728235522363400,14.50036328125,2.7972097396850586,-8.96829891204834,-2.8498518466949463
1775728235540892200,14.51889208984375,3.5988051891326904,-8.70508861541748,-2.3976082801818848
1775728235559420700,14.537420654296875,4.036691665649414,-8.757730484008789,-2.531606435775757
1775728235577949400,14.555949462890625,3.6945180892944336,-8.688339233398438,-2.1272194385528564
1775728235596478200,14.574478271484375,3.1968109607696533,-8.879764556884766,-1.8424733877182007
1775728235615006700,14.5930068359375,2.682354211807251,-9.073583602905273,-2.0889341831207275
1775728235633535500,14.611535400390625,2.895315408706665,-9.142974853515625,-2.895315408706665
1775728235652064300,14.630064208984376,3.6155550479888916,-9.078369140625,-2.919243574142456
1775728235670592800,14.6485927734375,4.118047714233398,-8.788837432861328,-2.4885356426239014
1775728235689121500,14.66712158203125,4.144368648529053,-8.652446746826172,-2.179861545562744
1775728235707650000,14.685650146484376,3.950550079345703,-8.831908226013184,-2.5124638080596924
1775728235726178800,14.7041787109375,3.768695592880249,-8.841479301452637,-2.8666014671325684
1775728235744707600,14.72270751953125,3.5030922889709473,-9.037691116333008,-2.7493531703948975
1775728235763236000,14.741236083984376,2.675175666809082,-9.226723670959473,-2.794816732406616
1775728235781764900,14.759764892578126,2.8905298709869385,-9.075976371765137,-2.7661030292510986
1775728235800293600,14.778293701171876,3.38105845451355,-8.717052459716797,-2.6871397495269775
1775728235818822100,14.796822265625,3.5198421478271484,-8.506484031677246,-2.8283164501190186
1775728235837351000,14.815350830078126,3.0484559535980225,-8.592626571655273,-2.4598217010498047
1775728235855879700,14.833879638671876,2.486142635345459,-8.965906143188477,-1.911865234375
1775728235874408200,14.852408203125,1.9046868085861206,-9.363115310668945,-2.414358139038086
1775728235892937000,14.87093701171875,2.139183521270752,-9.394221305847168,-2.9527430534362793
1775728235911465700,14.8894658203125,2.9527430534362793,-9.253045082092285,-2.6297121047973633
1775728235929994200,14.907994140625,3.366701364517212,-8.96829891204834,-1.828116536140442
1775728235948523000,14.92652294921875,3.3571300506591797,-9.004191398620605,-1.923829436302185
1775728235967051800,14.9450517578125,2.8043880462646484,-9.205188751220703,-2.455035924911499
1775728235985580300,14.963580322265624,2.2612173557281494,-9.346364974975586,-2.9216363430023193
1775728236004109000,14.982109130859374,2.7804598808288574,-8.93240737915039,-2.6536402702331543
1775728236022637800,15.000637939453124,3.421736478805542,-8.714659690856934,-2.2636101245880127
1775728236041166300,15.019166259765624,3.081955671310425,-9.06401252746582,-2.7661030292510986
1775728236059695000,15.037695068359374,2.2133610248565674,-9.135796546936035,-2.4598217010498047
1775728236078223600,15.0562236328125,2.084148406982422,-9.145368576049805,-2.6368906497955322
1775728236096752400,15.07475244140625,2.60339093208313,-9.016156196594238,-3.046063184738159
1775728236115281200,15.09328125,2.809173822402954,-8.841479301452637,-2.706282377243042
1775728236133809700,15.1118095703125,2.3736801147460938,-9.001798629760742,-2.550748825073242
1775728236152338400,15.13033837890625,2.196611166000366,-9.140582084655762,-2.328216314315796
1775728236170867200,15.1488671875,2.3712873458862305,-9.121439933776855,-2.4885356426239014
1775728236189395700,15.167395751953125,2.6153552532196045,-9.21715259552002,-2.840280532836914
1775728236207924500,15.185924560546875,2.9862427711486816,-8.965906143188477,-2.1128623485565186
1775728236226453000,15.204452880859375,2.5124638080596924,-9.07119083404541,-1.947757601737976
1775728236244981800,15.222981689453125,1.7180466651916504,-9.107083320617676,-2.335394859313965
1775728236263510500,15.241510498046875,3.0580272674560547,-9.047262191772461,-2.124826431274414
1775728236282039300,15.260039306640625,4.070191383361816,-9.22433090209961,-2.8689942359924316
1775728236300567800,15.27856787109375,3.634697675704956,-9.592825889587402,-3.4648072719573975
1775728236319096600,15.2970966796875,3.3882367610931396,-9.056833267211914,-2.462214469909668
1775728236337625000,15.315625,2.9623143672943115,-9.142974853515625,-1.8759729862213135
1775728236356153900,15.33415380859375,1.1724830865859985,-9.408578872680664,-2.7014968395233154
1775728236374682600,15.3526826171875,2.4765713214874268,-9.415757179260254,-2.65842604637146
1775728236393211100,15.371211181640625,3.2159535884857178,-8.779266357421875,-2.163111686706543
1775728236411740000,15.389739990234375,2.9144580364227295,-8.654839515686035,-2.5746772289276123
1775728236430268700,15.4082685546875,3.0556344985961914,-8.827122688293457,-2.1343977451324463
1775728236448797200,15.426797119140625,2.644068956375122,-8.915657043457031,-1.8089739084243774
1775728236467326000,15.445325927734375,2.3018953800201416,-9.233902931213379,-2.6057839393615723
1775728236485854700,15.463854736328125,2.3330020904541016,-8.870193481445312,-2.8905298709869385
1775728236504383200,15.48238330078125,3.1752755641937256,-8.910871505737305,-2.9838497638702393
1775728236522912000,15.500912109375,3.0245277881622314,-8.83669376373291,-2.5842485427856445
1775728236541440500,15.5194404296875,2.785245656967163,-9.020941734313965,-2.6632115840911865
1775728236559969300,15.53796923828125,2.825923442840576,-9.004191398620605,-2.6392834186553955
1775728236578498000,15.556498046875,2.7110681533813477,-8.934800148010254,-2.4670002460479736
1775728236597026600,15.575026611328125,2.6799614429473877,-9.193224906921387,-2.5986053943634033
1775728236615555300,15.593555419921875,3.0005996227264404,-9.164510726928711,-2.1607189178466797
1775728236634084000,15.612083984375,3.414557933807373,-8.965906143188477,-2.297109842300415
1775728236652612600,15.630612548828125,3.864408493041992,-8.81515884399414,-2.746960401535034
1775728236671141400,15.649141357421875,4.077369689941406,-8.831908226013184,-2.8689942359924316
1775728236689670100,15.667670166015625,3.895515203475952,-9.035298347473145,-2.885744094848633
1775728236708198700,15.68619873046875,3.8021950721740723,-9.087940216064453,-3.146561861038208
1775728236726727400,15.7047275390625,3.8883368968963623,-8.863015174865723,-3.2853455543518066
1775728236745256000,15.723255859375,3.88594388961792,-8.817551612854004,-3.2829527854919434
1775728236763784700,15.74178466796875,3.9912281036376953,-9.133403778076172,-2.919243574142456
1775728236782313500,15.7603134765625,4.405186653137207,-8.956335067749023,-2.967100143432617
1775728236800842000,15.778842041015626,5.431707382202148,-8.724231719970703,-3.3690943717956543
1775728236819370800,15.797370849609376,6.285944938659668,-8.678768157958984,-3.4025938510894775
1775728236837899300,15.815899169921876,6.484549522399902,-9.111868858337402,-3.2350962162017822
1775728236856428000,15.834427978515626,6.156732559204102,-9.547362327575684,-3.1561331748962402
1775728236874956800,15.852956787109376,6.376872539520264,-9.863214492797852,-3.1106693744659424
1775728236893485300,15.8714853515625,6.0777692794799805,-9.841679573059082,-2.9527430534362793
1775728236912014000,15.89001416015625,4.419543266296387,-8.997013092041016,-2.493321180343628
1775728236930542800,15.90854296875,1.612762451171875,-7.920242786407471,-2.8354947566986084
1775728236949071400,15.9270712890625,0.397208571434021,-7.652246952056885,-3.531806230545044
1775728236967600000,15.94560009765625,1.576870083808899,-7.743174076080322,-3.2470602989196777
1775728236986128600,15.964128662109376,2.2612173557281494,-7.81974458694458,-1.459621787071228
1775728237004657400,15.982657470703124,2.163111686706543,-7.482356548309326,0.14835500717163086
1775728237023186200,16.001186279296874,2.8450660705566406,-7.200003147125244,-0.5694918036460876
1775728237041714700,16.019714599609376,3.565305709838867,-6.922435760498047,-2.124826431274414
1775728237060243500,16.038243408203126,4.218546390533447,-6.819544315338135,-2.9934210777282715
1775728237078772000,16.05677197265625,4.122833251953125,-6.8171515464782715,-2.847458839416504
1775728237097300700,16.07530078125,3.5030922889709473,-7.061219692230225,-2.8737800121307373
1775728237115829500,16.09382958984375,3.2446675300598145,-6.927221775054932,-2.447857618331909
1775728237134358000,16.11235791015625,4.170690059661865,-7.319644451141357,-1.770688772201538
1775728237152886800,16.13088671875,5.9676995277404785,-7.245467185974121,-1.8783657550811768
1775728237171415300,16.149415283203126,7.743174076080322,-7.255038261413574,-2.8498518466949463
1775728237189944000,16.167944091796876,8.09970474243164,-8.188239097595215,-3.617947816848755
1775728237208472800,16.186472900390626,6.704689025878906,-8.662017822265625,-4.225724697113037
1775728237227001300,16.20500146484375,5.108676433563232,-8.425128936767578,-3.675375461578369
1775728237245530000,16.223530029296874,4.622933387756348,-7.286144733428955,-2.7517459392547607
1775728237264058600,16.24205859375,6.604190349578857,-6.8554368019104,-2.7900311946868896
1775728237282587400,16.26058740234375,7.992027759552002,-8.142775535583496,-2.1367905139923096
1775728237301116200,16.2791162109375,5.367101192474365,-8.95394229888916,-1.6103696823120117
1775728237319644700,16.297644775390626,0.22971096634864807,-10.521241188049316,-1.7204394340515137
1775728237338173400,16.31617333984375,-2.0793628692626953,-11.119446754455566,-3.0412776470184326
1775728237356702000,16.334701904296875,0.5742774605751038,-10.607382774353027,-3.4097721576690674
1775728237375230700,16.353230712890625,3.6777684688568115,-9.473184585571289,-2.242074728012085
1775728237393759500,16.371759521484375,4.7473602294921875,-8.989834785461426,-0.1579262912273407
1775728237412288000,16.3902880859375,2.124826431274414,-9.67657470703125,-1.801795482635498
1775728237430816800,16.408816650390627,-0.4953143000602722,-9.30329418182373,-3.5341989994049072
1775728237449345300,16.42734521484375,0.6245267391204834,-9.016156196594238,-3.0317063331604004
1775728237467874000,16.4458740234375,2.9934210777282715,-7.8628153800964355,-2.280359983444214
1775728237486402600,16.464402587890625,4.247260093688965,-8.327022552490234,-2.988635540008545
1775728237504931300,16.482931396484375,3.1274192333221436,-9.164510726928711,-3.6945180892944336
1775728237523460000,16.501460205078125,1.828116536140442,-9.504291534423828,-3.7543387413024902
1775728237541988600,16.519988525390627,2.1846470832824707,-9.042476654052734,-3.7423746585845947
1775728237560517400,16.538517333984377,2.713460922241211,-8.645268440246582,-4.185046672821045
1775728237579046000,16.5570458984375,2.9288148880004883,-8.525627136230469,-4.412364959716797
1775728237597574700,16.57557470703125,3.0795626640319824,-8.319844245910645,-4.235296249389648
1775728237616103400,16.594103515625,3.1968109607696533,-8.707481384277344,-4.077369689941406
1775728237634632000,16.6126318359375,3.3858439922332764,-7.7838521003723145,-3.845266103744507
1775728237653160700,16.63116064453125,4.5822553634643555,-7.295716285705566,-3.7399818897247314
1775728237671689200,16.649689208984373,4.907679080963135,-7.645068168640137,-3.8907296657562256
1775728237690218000,16.668218017578123,3.2829527854919434,-7.518248558044434,-3.0245277881622314
1775728237708746500,16.68674658203125,2.871387243270874,-6.398407936096191,-2.9479575157165527
1775728237727275300,16.705275146484375,3.9457645416259766,-5.8959150314331055,-4.304687976837158
1775728237745804000,16.723803955078125,5.2977094650268555,-6.118447303771973,-4.1491546630859375
1775728237764332500,16.74233251953125,3.895515203475952,-5.362315654754639,-2.6392834186553955
1775728237782861300,16.760861328125,0.6699903607368469,-5.5106706619262695,-1.8448662757873535
1775728237801389800,16.779389892578124,0.8638089895248413,-4.886143684387207,-1.892722725868225
1775728237819918600,16.797918701171874,2.6368906497955322,-4.823930263519287,-2.5746772289276123
1775728237838447000,16.816447021484375,2.4358935356140137,-5.548955917358398,-1.679761528968811
1775728237856976000,16.834975830078125,3.263810157775879,-6.262016773223877,-0.2153540402650833
1775728237875504600,16.853504638671875,4.199403762817383,-7.733603000640869,-0.698704183101654
1775728237894033200,16.872033203125,5.340780258178711,-8.059026718139648,-3.4576287269592285
1775728237912561700,16.890561767578124,3.7160534858703613,-9.480362892150879,-6.752545356750488
1775728237931090400,16.90909033203125,5.185246467590332,-8.221738815307617,-5.422136306762695
1775728237949619200,16.927619140625,13.88794231414795,-10.15753173828125,-2.469393014907837
1775728237968147700,16.946147705078126,14.567503929138184,-15.438491821289062,-3.2303106784820557
1775728237986676500,16.964676513671876,6.9104719161987305,-15.026926040649414,-7.599604606628418
1775728238005205200,16.983205322265626,2.6297121047973633,-14.009976387023926,-10.313065528869629
1775728238023733800,17.001733642578124,2.1511476039886475,-14.378471374511719,-6.628118515014648
1775728238042262500,17.020262451171874,-0.7345965504646301,-12.868599891662598,-1.0671988725662231
1775728238060791000,17.038791015625,0.11006984114646912,-8.441878318786621,0.973878800868988
1775728238079319800,17.05731982421875,4.560719966888428,-5.161318302154541,0.8709874153137207
1775728238097848300,17.075848388671876,5.410171985626221,-4.675575256347656,2.9455647468566895
1775728238116377000,17.094377197265626,2.878565549850464,-5.7619171142578125,3.735196113586426
1775728238134905600,17.112905517578124,0.2560320198535919,-8.413164138793945,1.1389836072921753
1775728238153434400,17.131434326171874,-1.3208380937576294,-8.327022552490234,-2.2779672145843506
1775728238171963000,17.149962890625,0.5240281820297241,-6.463014125823975,-3.421736478805542
1775728238190491600,17.16849169921875,3.6442689895629883,-4.364508628845215,-2.7828526496887207
1775728238209020200,17.187020263671876,5.3934221267700195,-3.098705291748047,-0.47617170214653015
1775728238227549000,17.205548828125,6.240481376647949,-2.526820659637451,1.552941918373108
1775728238246077700,17.22407763671875,7.463213920593262,-2.837887763977051,1.1892328262329102
1775728238264606200,17.242606201171874,6.955935478210449,-4.101297855377197,-0.8949156403541565
1775728238283135000,17.261135009765624,4.677968502044678,-4.744967460632324,-3.838087558746338
1775728238301663500,17.27966357421875,2.4909284114837646,-6.558726787567139,-5.8097734451293945
1775728238320192300,17.298192138671876,2.5938198566436768,-6.417550563812256,-5.812166213989258
1775728238338720800,17.316720703125,5.529813289642334,-6.369693756103516,-6.025127410888672
1775728238357249500,17.33524951171875,7.795815944671631,-7.999206066131592,-6.034698486328125
1775728238375778000,17.353778076171874,7.795815944671631,-8.752944946289062,-4.340580463409424
1775728238394306800,17.372306884765624,8.26241683959961,-9.561718940734863,-2.445464849472046
1775728238412835300,17.39083544921875,6.276373863220215,-12.260823249816895,-3.5198421478271484
1775728238431364000,17.409364013671876,-0.2727817893028259,-14.244473457336426,-5.357530117034912
1775728238449892600,17.427892578125,-4.18983268737793,-14.914463996887207,-6.204588890075684
1775728238468421400,17.44642138671875,6.25723123550415,-15.206387519836426,-5.197210788726807
1775728238486950100,17.4649501953125,12.648460388183594,-17.276180267333984,-4.7401814460754395
1775728238505478700,17.483478759765624,3.328416347503662,-15.349957466125488,-2.768495798110962
1775728238524007400,17.50200732421875,-2.902493953704834,-14.955141067504883,-3.4911282062530518
1775728238542536000,17.520535888671876,-7.707281589508057,-12.988241195678711,-3.6227335929870605
1775728238561064700,17.539064697265626,-2.4095723628997803,-9.729216575622559,-1.9381862878799438
1775728238579593200,17.55759326171875,8.894122123718262,-9.355937004089355,-0.9786644577980042
1775728238598122000,17.5761220703125,7.542177200317383,-9.454042434692383,-1.5649060010910034
1775728238616650500,17.594650390625,0.6819544434547424,-8.267202377319336,-2.6297121047973633
1775728238635179300,17.61317919921875,0.5599204897880554,-8.118846893310547,-4.019941806793213
1775728238653707800,17.631707763671876,3.407379388809204,-7.010970115661621,-3.4025938510894775
1775728238672236500,17.650236572265626,5.254638671875,-5.099104881286621,-2.4095723628997803
1775728238690765000,17.66876513671875,5.651846885681152,-5.4173502922058105,-2.7182464599609375
1775728238709293800,17.6872939453125,4.252045631408691,-5.5034918785095215,-2.1415762901306152
1775728238727822300,17.705822265625,4.01037073135376,-5.096712112426758,-1.5649060010910034
1775728238746351000,17.72435107421875,2.1367905139923096,-6.192625045776367,-2.895315408706665
1775728238764879600,17.742879638671877,2.9862427711486816,-6.45822811126709,-3.524627685546875
1775728238783408400,17.761408447265627,4.185046672821045,-6.5491557121276855,-3.1728827953338623
1775728238801937000,17.77993701171875,4.2209391593933105,-7.331608772277832,-2.2133610248565674
1775728238820465700,17.798465576171875,5.120640277862549,-6.7932233810424805,-1.3112667798995972
1775728238838994200,17.816994140625,5.804987907409668,-7.69531774520874,-1.6606189012527466
1775728238857523000,17.83552294921875,3.9074792861938477,-9.650253295898438,-4.201796531677246
1775728238876051500,17.854051513671877,7.494320392608643,-7.267002582550049,-5.31685209274292
1775728238903844600,17.8818447265625,9.343972206115723,-14.751751899719238,-4.974678039550781
1775728238922373000,17.900373046875,3.996013879776001,-13.818551063537598,-3.4408788681030273
1775728238940902000,17.91890185546875,3.864408493041992,-13.911870956420898,-5.0943193435668945
1775728238959430400,17.937430419921874,5.024927616119385,-14.467005729675293,-6.853044033050537
1775728238977959000,17.955958984375,4.701896667480469,-14.964713096618652,-6.180660724639893
1775728238996487700,17.97448779296875,2.00518536567688,-13.009777069091797,-4.945964336395264
1775728239015016400,17.993016357421876,0.729810893535614,-8.889336585998535,-3.9840497970581055
1775728239033545000,18.011544921875,2.526820659637451,-6.206982135772705,-1.9980069398880005
1775728239052073700,18.03007373046875,2.6392834186553955,-5.134997367858887,0.638883650302887
1775728239070602200,18.048602294921874,1.368694543838501,-5.434100151062012,3.373879909515381
1775728239089130800,18.067130859375,0.4019941985607147,-5.934200286865234,3.6921253204345703
1775728239107659500,18.085659423828126,0.038285162299871445,-6.209374904632568,0.8255237936973572
1775728239126188000,18.10418798828125,0.6771687865257263,-5.515456199645996,-0.6963114142417908
1775728239144716800,18.122716796875,2.1990039348602295,-4.366901397705078,-0.7585247755050659
1775728239163245300,18.141245361328124,3.620340585708618,-3.8117663860321045,-0.7226324677467346
1775728239181774000,18.159774169921874,4.12761926651001,-3.19441819190979,-0.07417750358581543
1775728239200302600,18.178302490234376,4.814359188079834,-2.8426733016967773,1.0791629552841187
1775728239218831400,18.196831298828126,5.3216376304626465,-3.460021495819092,1.1174482107162476
1775728239237359900,18.21535986328125,6.372086524963379,-4.711467742919922,-1.25144624710083
1775728239255888600,18.233888671875,7.295716285705566,-5.718846321105957,-4.3310089111328125
1775728239274417200,18.252417236328125,6.45822811126709,-6.508477687835693,-6.2668023109436035
1775728239292946000,18.27094580078125,5.469992637634277,-7.487142086029053,-6.594619274139404
1775728239311474400,18.289474365234376,4.73300313949585,-8.590232849121094,-6.439085960388184
1775728239330003200,18.308003173828126,4.922036170959473,-8.372486114501953,-5.651846885681152
1775728239348531700,18.32653173828125,9.248259544372559,-7.621140003204346,-4.6372904777526855
1775728239367060200,18.345060302734375,16.072589874267578,-10.76530933380127,-3.768695592880249
1775728239385589000,18.363589111328125,4.297509670257568,-14.483755111694336,-4.6301116943359375
1775728239404117500,18.382117431640626,-9.906285285949707,-15.658631324768066,-4.426722049713135
1775728239422646300,18.400646240234376,-9.415757179260254,-13.423734664916992,-0.9212366938591003
1775728239441174800,18.4191748046875,2.610569477081299,-14.842679023742676,-2.060220241546631
1775728239459703600,18.43770361328125,10.439885139465332,-13.01216983795166,-2.423929452896118
1775728239478232000,18.456232177734375,19.609182357788086,-14.995819091796875,-2.029113531112671
1775728239496760800,18.4747607421875,0.6364908218383789,-16.481761932373047,-2.146361827850342
1775728239515289300,18.493289306640627,-9.982855796813965,-15.278172492980957,-3.649054527282715
1775728239533818000,18.511818115234377,-5.766702651977539,-12.839886665344238,-5.309673309326172
1775728239552346600,18.5303466796875,3.436093330383301,-9.937392234802246,-5.197210788726807
1775728239570875400,18.54887548828125,7.960920810699463,-8.506484031677246,-3.864408493041992
1775728239589404000,18.56740380859375,5.661418437957764,-7.18086051940918,-2.146361827850342
1775728239607932400,18.585932373046877,2.187039852142334,-7.118647575378418,-1.2394821643829346
1775728239626461200,18.604461181640627,1.9836499691009521,-6.0777692794799805,-1.124626636505127
1775728239644989700,18.62298974609375,4.177868366241455,-5.505885124206543,-3.2685956954956055
1775728239663518500,18.6415185546875,5.8719868659973145,-6.183053493499756,-4.383651256561279
1775728239682047000,18.660046875,4.687539577484131,-5.8719868659973145,-3.7016966342926025
1775728239700575700,18.67857568359375,3.13220477104187,-5.517848968505859,-3.5988051891326904
1775728239719104300,18.697104248046877,1.0815558433532715,-5.886343479156494,-3.7423746585845947
1775728239737632800,18.7156328125,1.6917256116867065,-5.400600910186768,-3.1992039680480957
1775728239756161500,18.73416162109375,4.543970108032227,-4.756931304931641,-3.3332018852233887
1775728239774690000,18.75268994140625,5.800201892852783,-5.520241737365723,-4.125226020812988
1775728239793218800,18.77121875,3.744767427444458,-6.338587284088135,-3.2997024059295654
1775728239811747300,18.789747314453123,2.2851455211639404,-6.994220733642578,-1.8424733877182007
1775728239830275800,18.80827587890625,3.91705060005188,-9.016156196594238,-2.744567632675171
1775728239848804600,18.8268046875,5.259424209594727,-9.45882797241211,-3.9290146827697754
1775728239867333000,18.8453330078125,8.059026718139648,-11.064412117004395,-4.086941242218018
1775728239885862000,18.86386181640625,8.678768157958984,-12.89492130279541,-3.8524444103240967
1775728239904390400,18.882390380859373,11.516654968261719,-13.63908863067627,-4.1036906242370605
1775728239922919200,18.900919189453123,11.468798637390137,-17.022541046142578,-4.924428939819336
1775728239941447700,18.91944775390625,5.520241737365723,-18.307485580444336,-6.128018856048584
1775728239959976400,18.9379765625,2.0506489276885986,-14.751751899719238,-8.056633949279785
1775728239978505000,18.9565048828125,0.5670989751815796,-12.88056468963623,-7.5565338134765625
1775728239997033500,18.975033447265623,-0.2679961323738098,-10.279565811157227,-4.244867324829102
1775728240015562200,18.993562255859374,0.5120640397071838,-7.786244869232178,0.20338992774486542
1775728240034090800,19.0120908203125,2.1678972244262695,-6.331408500671387,2.8929226398468018
1775728240052619500,19.03061962890625,2.7900311946868896,-5.410171985626221,2.6225335597991943
1775728240071148000,19.04914794921875,1.9716858863830566,-4.965106964111328,0.6221339106559753
1775728240089676500,19.067676513671874,0.30149564146995544,-5.249852657318115,-0.8279166221618652
1775728240108205300,19.086205322265624,-1.2011969089508057,-5.2283172607421875,-0.5838487148284912
1775728240126733800,19.10473388671875,-1.5792629718780518,-4.512863636016846,-0.31106695532798767
1775728240145262600,19.1232626953125,-0.11006984114646912,-3.414557933807373,-0.11724831163883209
1775728240163791000,19.141791015625,1.730010747909546,-2.878565549850464,0.24167509377002716
1775728240182319900,19.16031982421875,2.8115665912628174,-2.8977081775665283,1.0887342691421509
1775728240200848400,19.178848388671874,4.223331928253174,-3.019742250442505,1.4213366508483887
1775728240219377000,19.197376953125,5.5345988273620605,-3.2757742404937744,0.4450650215148926
1775728240237905700,19.21590576171875,6.625725746154785,-3.933800458908081,-1.950150489807129
1775728240256434200,19.23443408203125,7.4464640617370605,-5.654240131378174,-4.625326156616211
1775728240274963000,19.252962890625,6.465406894683838,-7.549355506896973,-5.663811206817627
1775728240293491500,19.271491455078124,6.891329288482666,-8.482556343078613,-6.151947021484375
1775728240312020000,19.29002001953125,7.767102241516113,-8.398807525634766,-5.982056617736816
1775728240330548700,19.308548828125,8.303094863891602,-8.336593627929688,-5.288137912750244
1775728240349077200,19.3270771484375,10.092926025390625,-8.891729354858398,-2.9551360607147217
1775728240367606000,19.34560595703125,11.389835357666016,-13.643875122070312,-2.8450660705566406
1775728240386134500,19.364134521484374,1.8137595653533936,-17.079967498779297,-3.9529430866241455
1775728240404663000,19.3826630859375,-7.724031448364258,-17.04646873474121,-5.087141036987305
1775728240423191800,19.40119189453125,-4.35254430770874,-15.462419509887695,-4.914857864379883
1775728240441720300,19.41972021484375,-0.2584248483181,-13.96690559387207,-6.5419769287109375
1775728240460249000,19.4382490234375,7.154539585113525,-12.820743560791016,-4.893322467803955
1775728240478777600,19.456777587890624,12.459427833557129,-14.892928123474121,-3.0891339778900146
1775728240497306000,19.47530615234375,1.2993026971817017,-14.646467208862305,-1.1581261157989502
1775728240515835000,19.4938349609375,-5.276174068450928,-12.837493896484375,-1.8807586431503296
1775728240534363400,19.51236328125,-3.31884503364563,-11.889935493469238,-3.8356947898864746
1775728240552892200,19.53089208984375,2.8354947566986084,-9.389435768127441,-2.778067111968994
1775728240571420700,19.549420654296874,7.125825881958008,-7.207181930541992,-1.3304094076156616
1775728240589949400,19.567949462890624,5.063212871551514,-7.57806921005249,-2.612962245941162
1775728240608478000,19.58647802734375,2.3258235454559326,-7.317251682281494,-3.4815568923950195
1775728240627006500,19.60500634765625,3.177668571472168,-6.501298904418945,-4.2592244148254395
1775728240645535200,19.62353515625,4.192225456237793,-6.2428741455078125,-4.926821708679199
1775728240664063700,19.642063720703124,3.7974095344543457,-5.618347644805908,-4.8574299812316895
1775728240682592500,19.660592529296874,3.7232320308685303,-4.9292144775390625,-4.185046672821045
1775728240701121000,19.67912109375,3.3690943717956543,-5.4173502922058105,-3.266202926635742
1775728240719649500,19.6976494140625,2.438286304473877,-4.996213912963867,-2.6057839393615723
1775728240738178300,19.71617822265625,2.273181438446045,-4.419543266296387,-2.225325107574463
1775728240756706800,19.734706787109374,2.2468605041503906,-6.857829570770264,-3.4169507026672363
1775728240775235600,19.753235595703124,0.9882357716560364,-5.3455657958984375,-3.972085475921631
1775728240793764000,19.77176416015625,3.840480327606201,-4.6995038986206055,-4.213760852813721
1775728240812292600,19.790292724609376,6.094519138336182,-6.606583118438721,-3.9768712520599365
1775728240830821400,19.8088212890625,6.199803352355957,-7.09711217880249,-3.005385160446167
1775728240849350000,19.827349853515624,6.97268533706665,-9.623932838439941,-3.084348440170288
1775728240867878700,19.845878662109374,5.101497650146484,-12.358928680419922,-3.0556344985961914
1775728240886407200,19.8644072265625,7.731209754943848,-11.198410034179688,-3.314059257507324
1775728240904936000,19.88293603515625,13.569697380065918,-15.04128360748291,-6.553941249847412
1775728240923464400,19.90146435546875,8.279166221618652,-20.176280975341797,-8.530412673950195
1775728240941993000,19.919992919921874,1.8376877307891846,-17.359928131103516,-7.317251682281494
1775728240960521700,19.938521728515624,0.19621145725250244,-15.115460395812988,-6.369693756103516
1775728240979050200,19.95705029296875,-0.4043870270252228,-12.978670120239258,-6.008377552032471
1775728240997579000,19.9755791015625,-0.9332008361816406,-10.05703353881836,-3.572484254837036
1775728241016107500,19.994107421875,0.9475577473640442,-6.453442573547363,0.9475577473640442
1775728241034636300,20.01263623046875,1.9381862878799438,-4.694717884063721,4.625326156616211
1775728241053164800,20.031164794921875,1.9621145725250244,-3.7016966342926025,4.7712883949279785
1775728241071693300,20.049693359375,1.1772687435150146,-4.156332969665527,2.0506489276885986
1775728241090222000,20.06822216796875,-0.2560320198535919,-4.673182487487793,-0.9643075466156006
1775728241108750600,20.08675048828125,-0.2799602448940277,-4.871787071228027,-2.416750907897949
1775728241127279400,20.105279296875,1.1653046607971191,-4.445864677429199,-1.8616160154342651
1775728241145808000,20.123807861328125,2.0985054969787598,-4.01037073135376,-0.42352959513664246
1775728241164336600,20.142336669921875,2.179861545562744,-4.287938117980957,-0.07178468257188797
1775728241182865200,20.160865234375,3.084348440170288,-4.934000492095947,-1.0121639966964722
1775728241201393700,20.1793935546875,5.340780258178711,-5.292923450469971,-2.4765713214874268
1775728241219922400,20.19792236328125,7.381857872009277,-5.376672267913818,-3.8333017826080322
1775728241238451000,20.216450927734375,8.432307243347168,-5.146961688995361,-3.94815731048584
1775728241256979700,20.234979736328125,7.77188777923584,-4.776073932647705,-2.7278177738189697
1775728241275508200,20.25350830078125,6.080162525177002,-5.879165172576904,-1.6917256116867065
1775728241294036700,20.27203662109375,3.81655216217041,-6.888936519622803,-2.447857618331909
1775728241312565500,20.2905654296875,4.835894584655762,-7.968099594116211,-3.208775281906128
1775728241331094000,20.309093994140625,9.226723670959473,-9.868000984191895,-2.249253273010254
1775728241349622800,20.327622802734375,9.346364974975586,-12.713067054748535,-4.402793884277344
1775728241368151600,20.346151611328125,-3.586841106414795,-15.986448287963867,-6.003592014312744
1775728241386680000,20.36468017578125,-4.931607246398926,-14.634503364562988,-4.534399032592773
1775728241405208600,20.38320849609375,8.595019340515137,-18.08495330810547,-4.342973232269287
1775728241423737300,20.4017373046875,12.825529098510742,-16.6660099029541,-5.608776092529297
1775728241442265900,20.420265869140625,-0.2512463629245758,-16.077375411987305,-5.402993679046631
1775728241460794600,20.438794677734375,-9.401400566101074,-16.831113815307617,-4.9292144775390625
1775728241479323100,20.4573232421875,-5.285745143890381,-13.129417419433594,-3.1680972576141357
1775728241497852000,20.475851806640627,4.213760852813721,-11.660224914550781,-2.902493953704834
1775728241516380400,20.49438037109375,8.535198211669922,-9.994820594787598,-2.8833513259887695
1775728241534909000,20.512908935546875,5.0943193435668945,-8.666803359985352,-3.4432718753814697
1775728241553437700,20.531437744140625,0.4737788736820221,-7.64028263092041,-4.163511276245117
1775728241571966200,20.54996630859375,0.8398807644844055,-6.97986364364624,-4.1419758796691895
1775728241590495000,20.568494873046873,3.029313564300537,-5.821737289428711,-3.641875982284546
1775728241609023500,20.5870234375,4.230510234832764,-5.525027275085449,-3.6227335929870605
1775728241627552300,20.60555224609375,4.383651256561279,-4.551148891448975,-2.7349963188171387
1775728241646080800,20.624080810546875,4.876572608947754,-3.5605201721191406,-2.0865414142608643
1775728241664609500,20.642609619140625,3.541377544403076,-5.07517671585083,-1.2681959867477417
1775728241683138000,20.661137939453123,0.45942193269729614,-4.898108005523682,-1.2011969089508057
1775728241701666800,20.679666748046873,0.3565305769443512,-4.587040901184082,-2.014756679534912
1775728241720195300,20.6981953125,3.431307554244995,-5.422136306762695,-3.053241729736328
1775728241738724000,20.71672412109375,8.298309326171875,-6.027520179748535,-3.9912281036376953
1775728241757252600,20.735252685546875,10.72702407836914,-8.671588897705078,-3.541377544403076
1775728241775781400,20.753781494140625,5.481956481933594,-10.540383338928223,-3.249453067779541
1775728241794310000,20.772309814453124,2.68953275680542,-8.951549530029297,-2.9383862018585205
1775728241812838400,20.79083837890625,4.0319061279296875,-12.07179069519043,-3.2590243816375732
1775728241831367200,20.8093671875,7.188039302825928,-13.007384300231934,-4.108476638793945
1775728241849895700,20.827895751953125,11.12183952331543,-17.12303924560547,-6.2500529289245605
1775728241868424400,20.846424560546875,8.819944381713867,-19.745573043823242,-7.762316703796387
1775728241886953000,20.864952880859374,4.022335052490234,-18.017953872680664,-9.19561767578125
1775728241905481700,20.883481689453124,3.1106693744659424,-13.423734664916992,-8.346165657043457
1775728241924010200,20.90201025390625,2.7326035499572754,-9.58325481414795,-4.005585193634033
1775728241942539000,20.9205390625,2.3784656524658203,-6.754938125610352,-0.97148597240448
1775728241961067500,20.939067626953126,2.6560330390930176,-5.958128452301025,1.7204394340515137
1775728241979596300,20.95759619140625,1.5481562614440918,-5.003392219543457,2.9599215984344482
1775728241998124800,20.976124755859374,0.727418065071106,-4.709074974060059,1.950150489807129
1775728242016653600,20.994653564453124,0.2392822653055191,-5.003392219543457,-0.4426721930503845
1775728242035182000,21.01318212890625,0.17706887423992157,-4.299902439117432,-1.7204394340515137
1775728242053710800,21.0317109375,0.5407779216766357,-3.830909013748169,-1.404586911201477
1775728242072239400,21.0502392578125,1.1676974296569824,-3.0723843574523926,0.14117653667926788
1775728242090768100,21.06876806640625,1.3615161180496216,-2.3306093215942383,1.1030912399291992
1775728242109296600,21.087296630859374,0.9284151792526245,-2.0673987865448,1.5936198234558105
1775728242127825400,21.105825439453124,1.4644074440002441,-2.1822543144226074,1.7467604875564575
1775728242146354000,21.12435400390625,3.6538400650024414,-2.3641088008880615,1.007378339767456
1775728242164882700,21.142882568359376,6.348158359527588,-2.878565549850464,-1.2801600694656372
1775728242183411200,21.1614111328125,8.240880966186523,-5.60399055480957,-4.584648132324219
1775728242201940000,21.17993994140625,7.197610378265381,-7.903493404388428,-7.003791809082031
1775728242220468500,21.198468505859374,7.546962738037109,-9.4660062789917,-8.719446182250977
1775728242238997200,21.216997314453124,8.173882484436035,-9.006584167480469,-7.829315662384033
1775728242257525800,21.23552587890625,10.717453002929688,-9.387042999267578,-4.639683246612549
1775728242276054500,21.254054443359376,10.827522277832031,-13.028919219970703,-3.0005996227264404
1775728242294583000,21.2725830078125,0.39960137009620667,-14.536397933959961,-3.170490026473999
1775728242313111800,21.29111181640625,-7.786244869232178,-16.0103759765625,-6.116054534912109
1775728242331640300,21.309640380859374,-0.3900300860404968,-14.943177223205566,-5.635097503662109
1775728242350169000,21.328169189453124,7.221538543701172,-17.211572647094727,-4.680361270904541
1775728242368697600,21.346697509765626,8.327022552490234,-16.15873146057129,-3.390629768371582
1775728242387226400,21.365226318359376,5.223531723022461,-17.015361785888672,-4.261617183685303
1775728242405755000,21.3837548828125,-0.7226324677467346,-15.146567344665527,-4.529613494873047
1775728242424283600,21.40228369140625,-2.3856441974639893,-12.55274772644043,-4.728217601776123
1775728242442812200,21.420812255859374,-0.9308080077171326,-8.920442581176758,-3.4672000408172607
1775728242461341000,21.4393408203125,3.3403804302215576,-7.214360237121582,-2.383251428604126
1775728242479869400,21.457869384765626,5.804987907409668,-5.481956481933594,-1.3639088869094849
1775728242498398200,21.476398193359376,6.010770320892334,-4.41475772857666,-0.9451649188995361
1775728242516926700,21.4949267578125,5.582455158233643,-4.1036906242370605,-1.3639088869094849
1775728242535455500,21.51345556640625,5.276174068450928,-4.445864677429199,-2.342573404312134
1775728242553984300,21.531984375,3.751945972442627,-4.761716842651367,-2.9240293502807617
1775728242572512800,21.5505126953125,0.7130611538887024,-5.2283172607421875,-3.87876558303833
1775728242591041500,21.56904150390625,-0.42831525206565857,-3.105883836746216,-3.2303106784820557
1775728242609570000,21.587570068359376,2.155933141708374,-3.081955671310425,-1.730010747909546
1775728242628098800,21.606098876953126,8.367700576782227,-4.668396949768066,-0.6580262184143066
1775728242646627300,21.62462744140625,11.906685829162598,-5.965306758880615,-1.0360921621322632
1775728242665156000,21.643156005859375,4.273581027984619,-9.53779125213623,-2.1511476039886475
1775728242683684600,21.6616845703125,-1.6701902151107788,-9.34157943725586,-3.8739798069000244
1775728242702213400,21.68021337890625,0.31345975399017334,-8.554341316223145,-4.706682205200195
1775728242720742000,21.698741943359376,14.285151481628418,-12.083754539489746,-4.73300313949585
1775728242739270700,21.717270751953127,19.71925163269043,-16.34776496887207,-3.9840497970581055
1775728242757799200,21.735799072265625,5.788238048553467,-19.101903915405273,-7.161718368530273
1775728242776328000,21.754327880859375,0.45942193269729614,-19.661823272705078,-11.504691123962402
1775728242794856700,21.772856689453125,3.4672000408172607,-17.898313522338867,-11.710474014282227
1775728242813385200,21.79138525390625,3.565305709838867,-13.00259780883789,-6.580262184143066
1775728242831914000,21.8099140625,1.7730815410614014,-9.638289451599121,-3.4672000408172607
1775728242850442500,21.8284423828125,2.4023938179016113,-6.640082836151123,-1.153340458869934
1775728242868971300,21.84697119140625,3.2997024059295654,-4.73300313949585,1.667797327041626
1775728242887499800,21.865499755859375,2.8043880462646484,-3.462414264678955,2.801995277404785
1775728242906028500,21.884028564453125,1.2011969089508057,-3.242274761199951,2.170290231704712
1775728242924557000,21.90255712890625,-0.6891329288482666,-3.586841106414795,1.007378339767456
1775728242943085800,21.9210859375,-1.4979069232940674,-4.125226020812988,0.8805587291717529
1775728242961614600,21.939614501953123,-0.8183453679084778,-4.012763500213623,1.5098711252212524
1775728242980143000,21.95814306640625,0.8303094506263733,-2.9168508052825928,2.2301106452941895
1775728242998672000,21.976671875,3.012563705444336,-2.342573404312134,2.3784656524658203
1775728243017200400,21.995200439453125,5.61116886138916,-3.139383316040039,1.277767300605774
1775728243035729200,22.013729248046875,6.898507595062256,-4.034298896789551,-0.9954141974449158
1775728243054257700,22.032257568359373,7.582854747772217,-4.754538536071777,-4.311866283416748
1775728243072786400,22.050786376953123,7.76470947265625,-6.467799663543701,-6.91765022277832
1775728243091315000,22.06931494140625,7.154539585113525,-8.09252643585205,-7.853243827819824
1775728243109843700,22.08784375,6.123233318328857,-8.082955360412598,-7.7455668449401855
1775728243128372500,22.10637255859375,6.106483459472656,-7.219145774841309,-6.364908218383789
1775728243146901000,22.12490087890625,6.44387149810791,-6.735795974731445,-4.125226020812988
1775728243165429800,22.1434296875,6.750152587890625,-8.870193481445312,-1.6151553392410278
1775728243183958300,22.161958251953124,6.558726787567139,-10.822736740112305,-0.9427721500396729
1775728243202487000,22.180487060546874,-0.4043870270252228,-11.94736385345459,-2.950350284576416
1775728243221015600,22.199015625,-4.3070807456970215,-14.206188201904297,-5.443671703338623
1775728243239544300,22.21754443359375,4.768895626068115,-15.237494468688965,-4.6372904777526855
1775728243258072800,22.23607275390625,13.596017837524414,-17.903099060058594,-5.745167255401611
1775728243276601600,22.2546015625,10.85862922668457,-14.237295150756836,-3.3690943717956543
1775728243295130400,22.27313037109375,-1.5744773149490356,-15.54377555847168,-3.524627685546875
1775728243313659000,22.291658935546874,-8.102097511291504,-16.09891128540039,-5.264209747314453
1775728243332187600,22.310187744140624,-7.156932353973389,-10.514062881469727,-4.869394302368164
1775728243350716200,22.328716064453126,3.084348440170288,-9.437292098999023,-3.7639100551605225
1775728243369245000,22.347244873046876,14.481362342834473,-8.796015739440918,-3.022135019302368
1775728243387773400,22.3657734375,11.47119140625,-9.308079719543457,-2.675175666809082
1775728243406302200,22.38430224609375,1.1222338676452637,-9.32722282409668,-2.555534601211548
1775728243424831000,22.4028310546875,-2.091326951980591,-7.95134973526001,-3.4241292476654053
1775728243443359500,22.421359375,1.2346965074539185,-5.874379634857178,-4.802394866943359
1775728243461888300,22.43988818359375,5.419743061065674,-4.7712883949279785,-4.646861553192139
1775728243480416800,22.458416748046876,6.4941205978393555,-4.438685894012451,-3.0340991020202637
1775728243498945500,22.476945556640626,4.728217601776123,-4.40757942199707,-2.447857618331909
1775728243517474300,22.495474365234376,2.610569477081299,-4.800002098083496,-2.6153552532196045
1775728243536002800,22.5140029296875,1.6175481081008911,-4.584648132324219,-2.5674986839294434
1775728243554531600,22.532531494140624,1.8424733877182007,-4.051048755645752,-3.0029923915863037
1775728243573060000,22.55106005859375,2.940778970718384,-5.051248550415039,-3.4241292476654053
1775728243591588900,22.5695888671875,4.082155227661133,-4.823930263519287,-3.1968109607696533
1775728243610117400,22.588117431640626,4.694717884063721,-6.281159400939941,-2.991028308868408
1775728243628646100,22.606646240234376,5.197210788726807,-7.671389579772949,-3.0867412090301514
1775728243647174700,22.625174560546874,6.527620315551758,-9.004191398620605,-3.314059257507324
1775728243665703400,22.643703369140624,7.800601959228516,-11.514262199401855,-2.8594231605529785
1775728243684232200,22.662232177734374,8.791230201721191,-12.844672203063965,-4.1419758796691895
1775728243702760700,22.6807607421875,10.863414764404297,-15.591631889343262,-6.419943332672119
1775728243721289500,22.69928955078125,7.726424217224121,-18.15673828125,-7.88913631439209
1775728243739818000,22.71781787109375,4.18983268737793,-18.015562057495117,-8.707481384277344
1775728243758346800,22.7363466796875,3.1274192333221436,-15.452848434448242,-8.688339233398438
1775728243776875300,22.754875244140624,1.3471591472625732,-11.94736385345459,-6.034698486328125
1775728243795404000,22.773404052734374,1.1700903177261353,-8.202595710754395,-1.7371892929077148
1775728243813932800,22.791932861328124,2.4095723628997803,-5.8959150314331055,1.5625132322311401
1775728243832461300,22.81046142578125,3.871587038040161,-4.735395908355713,3.201596736907959
1775728243850990000,22.828989990234376,3.1992039680480957,-5.003392219543457,2.744567632675171
1775728243869518600,22.8475185546875,0.9308080077171326,-5.2737812995910645,0.2799602448940277
1775728243888047400,22.86604736328125,-1.2370892763137817,-4.931607246398926,-1.947757601737976
1775728243906576100,22.884576171875,-1.2610175609588623,-5.082355499267578,-3.4480574131011963
1775728243925104600,22.903104736328125,-0.2584248483181,-4.237689018249512,-2.7876384258270264
1775728243943633400,22.92163330078125,0.9690931439399719,-3.469592809677124,-0.8757730722427368
1775728243962162000,22.940161865234376,1.9070796966552734,-3.019742250442505,1.215553879737854
1775728243980690700,22.958690673828126,2.878565549850464,-3.232703447341919,2.2085752487182617
1775728243999219200,22.97721923828125,5.082355499267578,-3.5198421478271484,2.4335005283355713
1775728244017748000,22.995748046875,7.867600917816162,-4.125226020812988,0.7369893789291382
1775728244036276500,23.0142763671875,10.549955368041992,-5.477170944213867,-2.720639228820801
1775728244054805200,23.03280517578125,10.528419494628906,-6.812366008758545,-5.855237007141113
1775728244073334000,23.051333984375,9.078369140625,-8.319844245910645,-7.051648139953613
1775728244091862500,23.069862548828127,6.63769006729126,-7.618747234344482,-6.149554252624512
1775728244110391300,23.088391357421877,6.788437843322754,-7.566105365753174,-3.9912281036376953
1775728244128919800,23.106919921875,6.869793891906738,-9.549755096435547,-1.8855443000793457
1775728244147448600,23.125448486328125,1.069591760635376,-10.918449401855469,-0.8015955686569214
1775728244165977000,23.14397705078125,-3.397808074951172,-12.622138977050781,-1.34476637840271
1775728244184505900,23.162505859375,-2.115255117416382,-12.937992095947266,-4.735395908355713
1775728244203034600,23.18103466796875,4.247260093688965,-15.546168327331543,-7.714460372924805
1775728244221563100,23.199563232421873,7.544569969177246,-16.862220764160156,-7.999206066131592
1775728244240092000,23.218091796875,10.49970531463623,-15.567704200744629,-4.716253280639648
1775728244258620400,23.236620361328125,1.4883357286453247,-16.170696258544922,-2.579462766647339
1775728244277149200,23.255149169921875,-5.247459888458252,-13.5242338180542,-3.3475589752197266
1775728244295677700,23.273677734375,-2.1200408935546875,-10.547562599182129,-4.366901397705078
1775728244314206500,23.29220654296875,6.771687984466553,-9.521040916442871,-4.680361270904541
1775728244332735200,23.3107353515625,9.868000984191895,-9.162117958068848,-4.232903480529785
1775728244351263700,23.329263671875,4.417150497436523,-8.817551612854004,-3.7710886001586914
1775728244369792500,23.34779248046875,0.02871387079358101,-8.011170387268066,-3.187239646911621
1775728244388321000,23.366321044921875,0.1459621787071228,-6.599404811859131,-3.005385160446167
1775728244406849800,23.384849853515625,2.060220241546631,-5.4556355476379395,-2.7182464599609375
1775728244425378300,23.40337841796875,2.7972097396850586,-4.589433670043945,-2.1678972244262695
1775728244443907000,23.421906982421874,2.4885356426239014,-4.400400638580322,-2.0267207622528076
1775728244462435600,23.440435546875,2.4406790733337402,-4.402793884277344,-2.56510591506958
1775728244480964400,23.45896435546875,1.9764715433120728,-4.7712883949279785,-3.081955671310425
1775728244499493000,23.4774931640625,1.643869161605835,-5.087141036987305,-3.3332018852233887
1775728244518021600,23.496021728515625,1.6414763927459717,-5.414957523345947,-3.893122434616089
1775728244536550400,23.51455029296875,2.311466693878174,-6.087340831756592,-4.398007869720459
1775728244555079000,23.533078857421874,3.3475589752197266,-6.302694797515869,-3.955335855484009
1775728244573607700,23.551607666015624,4.575077056884766,-6.970292568206787,-3.730410575866699
1775728244592136200,23.57013623046875,4.577469825744629,-8.085348129272461,-3.7232320308685303
1775728244610665000,23.5886650390625,3.589233875274658,-8.58066177368164,-4.369294166564941
1775728244629193700,23.60719384765625,4.491328239440918,-9.702896118164062,-4.321437835693359
1775728244647722200,23.62572216796875,8.023134231567383,-13.17248821258545,-3.091526746749878
1775728244666251000,23.6442509765625,6.697510719299316,-16.27597999572754,-4.790431022644043
1775728244684779500,23.662779541015624,4.572684288024902,-17.92463493347168,-7.293323516845703
1775728244703308300,23.681308349609374,4.498506546020508,-21.41097640991211,-9.068798065185547
