time,seconds_elapsed,z,y,x
1775728221133751600,0.11175146484375,0.24083344638347626,0.08017600327730179,0.3520108163356781
1775728221152280300,0.1302802734375,0.28787001967430115,-0.03283398225903511,0.439364492893219
1775728221170809000,0.14880908203125,0.22556181252002716,-0.1311832070350647,0.5590940117835999
1775728221189337600,0.167337646484375,0.03802633285522461,-0.10674861818552017,0.4949531853199005
1775728221207866400,0.185866455078125,-0.1049160286784172,-0.024892739951610565,0.1204930767416954
1775728221226395100,0.20439501953125,-0.046883873641490936,-0.07315105944871902,-0.03711003437638283
1775728221244924000,0.222923828125,0.0038179049734026194,-0.12996147572994232,-0.1366809904575348
1775728221263452700,0.24145263671875,-0.064598947763443,-0.10980294644832611,-0.2900080680847168
1775728221281981400,0.2599814453125,-0.04932733252644539,-0.041386090219020844,-0.5325213670730591
1775728221300510000,0.278510009765625,0.14370593428611755,-0.0206166859716177,-0.5716167092323303
1775728221319038700,0.297038818359375,0.29275694489479065,0.0013744457392022014,-0.47143489122390747
1775728221337567500,0.3155673828125,0.27198755741119385,-0.013897174037992954,-0.22098033130168915
1775728221356096300,0.33409619140625,0.07406735420227051,0.0032070400193333626,0.042913250625133514
1775728221374625000,0.352625,-0.15500694513320923,0.09972367435693741,0.16264274716377258
1775728221393153800,0.37115380859375,0.017867794260382652,0.15897755324840546,-0.18432845175266266
1775728221411682600,0.3896826171875,0.1821904182434082,0.13454297184944153,-0.4017963111400604
1775728221430211300,0.40821142578125,0.04718930274248123,0.07651081681251526,-0.30222535133361816
1775728221448739800,0.42673974609375,-0.08903354406356812,0.023976443335413933,-0.3016144931316376
1775728221467268600,0.4452685546875,-0.14706569910049438,-0.04932733252644539,-0.21426081657409668
1775728221485797400,0.46379736328125,-0.11896591633558273,-0.0591011680662632,-0.017562363296747208
1775728221504326100,0.482326171875,0.012980876490473747,-0.06337722390890121,0.017256930470466614
1775728221522855000,0.50085498046875,-0.009621120058000088,-0.0639880821108818,0.15592323243618011
1775728221541383400,0.519383544921875,0.007483093533664942,-0.02672533318400383,0.09117157012224197
1775728221559912200,0.537912109375,0.039858926087617874,-0.005345067009329796,-0.014508038759231567
1775728221578441000,0.55644091796875,-0.003512472379952669,-0.03894263133406639,0.0025961752980947495
1775728221596969700,0.5749697265625,-0.01206457894295454,-0.08720094710588455,-0.07131846249103546
1775728221615498500,0.59349853515625,-0.013286309316754341,-0.09758564829826355,0.03436114266514778
1775728221634027300,0.61202734375,-0.02611446939408779,-0.004734201822429895,0.06123919412493706
1775728221652555800,0.6305556640625,-0.009010255336761475,0.04108065739274025,-0.04932733252644539
1775728221671084500,0.64908447265625,-0.009010255336761475,-0.004734201822429895,-0.018173227086663246
1775728221689613300,0.66761328125,0.005650499369949102,-0.044440411031246185,0.2707658112049103
1775728221708142000,0.68614208984375,0.009926552884280682,-0.006566796451807022,0.25793763995170593
1775728221726670600,0.704670654296875,-0.037720900028944016,0.058795735239982605,-0.03711003437638283
1775728221745199400,0.723199462890625,-0.11835505068302155,0.09911280870437622,-0.2759581506252289
1775728221763728100,0.74172802734375,-0.19593487679958344,0.05024362727999687,-0.2179260104894638
1775728221782257000,0.7602568359375,-0.08781181275844574,-0.003512472379952669,0.1974620372056961
1775728221800785700,0.77878564453125,-0.09269873052835464,0.04841103404760361,0.2438877671957016
1775728221819314200,0.797314208984375,0.004428769461810589,0.08750637620687485,0.22495095431804657
1775728221837843000,0.815843017578125,-0.004734201822429895,0.1156061589717865,0.263435423374176
1775728221856371700,0.834371826171875,-0.07254019379615784,0.14981459081172943,-0.014508038759231567
1775728221874900500,0.852900390625,-0.21609342098236084,0.21456626057624817,-0.18371757864952087
1775728221893429000,0.871428955078125,-0.38591381907463074,0.29886558651924133,-0.03222311660647392
1775728221911957800,0.889957763671875,-0.3958403766155243,0.37461283802986145,0.16508620977401733
1775728221930486500,0.908486572265625,-0.10934479534626007,0.2536616027355194,0.5829176902770996
1775728221949015300,0.927015380859375,-0.03543015569448471,0.18524473905563354,0.5597048401832581
1775728221967543800,0.945543701171875,-0.13500112295150757,0.23961171507835388,-0.002290742937475443
1775728221986072600,0.964072509765625,-0.12583814561367035,0.37400195002555847,-0.4292852282524109
1775728222004601300,0.982601318359375,-0.0769689604640007,0.2658788859844208,-0.3095557391643524
1775728222023130000,1.001130126953125,-0.02626718580722809,0.022754713892936707,0.4650208055973053
1775728222041659000,1.019658935546875,-0.3384190797805786,-0.06582067906856537,1.5413645505905151
1775728222060187400,1.0381875,-0.4062250852584839,0.04718930274248123,1.530979871749878
1775728222078716200,1.056716064453125,-0.08063415437936783,-0.14889828860759735,0.7570141553878784
1775728222097245000,1.075244873046875,-0.2510654330253601,0.0038179049734026194,0.4558578431606293
1775728222115773700,1.093773681640625,-0.12278381735086441,0.02153298258781433,0.4082103967666626
1775728222134302200,1.11230224609375,-0.15638138353824615,0.10888664424419403,0.3764454126358032
1775728222152831000,1.1308310546875,-0.4410443603992462,1.0807725191116333,0.523052990436554
1775728222171359700,1.14935986328125,-0.7867938280105591,1.7588324546813965,0.7967203855514526
1775728222189888500,1.167888427734375,-0.39767298102378845,1.4735585451126099,0.808937668800354
1775728222208417000,1.1864169921875,0.3597993552684784,0.12415826320648193,0.5261073112487793
1775728222226945800,1.20494580078125,0.3897317349910736,-0.18555018305778503,-0.021227551624178886
1775728222245474600,1.223474609375,0.09590577334165573,0.005650499369949102,-0.40118545293807983
1775728222264003000,1.242003173828125,0.17043127119541168,-0.23136503994464874,-0.3779725730419159
1775728222282531800,1.26053173828125,0.12583814561367035,-0.5771145224571228,-0.3663661479949951
1775728222301060600,1.279060546875,0.11056652665138245,-0.5508472919464111,-0.2136499583721161
1775728222319589400,1.29758935546875,-0.15699224174022675,0.11927134543657303,0.005039634648710489
1775728222338118000,1.316117919921875,-0.17531819641590118,0.7643445730209351,0.263435423374176
1775728222356646700,1.334646728515625,0.043982263654470444,0.439364492893219,0.14981459081172943
1775728222375175400,1.353175537109375,0.10690133273601532,-0.004734201822429895,-0.4182896614074707
1775728222393704000,1.371703857421875,0.31520622968673706,-0.15928299725055695,-0.39996370673179626
1775728222412232700,1.390232666015625,0.10018182545900345,-0.08414662629365921,-0.051159925758838654
1775728222430761500,1.408761474609375,-0.08429934084415436,0.32452189922332764,0.22434009611606598
1775728222449290200,1.427290283203125,-0.13194678723812103,0.2493855506181717,0.10888664424419403
1775728222467818800,1.44581884765625,-0.18814635276794434,0.45219266414642334,-0.27656903862953186
1775728222486347500,1.464347412109375,-0.08491020649671555,0.19135339558124542,-0.2759581506252289
1775728222504876300,1.482876220703125,0.14721840620040894,-0.20082180202007294,0.0691804364323616
1775728222523404800,1.50140478515625,-0.013439024798572063,-0.45066550374031067,0.503505289554596
1775728222541933600,1.51993359375,-0.11178825795650482,-0.19471314549446106,0.5120574235916138
1775728222560462300,1.53846240234375,0.006719512399286032,0.19379685819149017,0.0007635809597559273
1775728222578991000,1.5569912109375,0.009773836471140385,0.1663079410791397,-0.4555523991584778
1775728222597519600,1.57551953125,0.037262752652168274,0.09789107739925385,-0.2906189262866974
1775728222616048400,1.59404833984375,0.056810423731803894,0.04169152304530144,-0.053603384643793106
1775728222634577200,1.6125771484375,0.10567960888147354,0.06734783947467804,0.017256930470466614
1775728222653105700,1.631105712890625,0.043982263654470444,0.12965604662895203,0.08811724185943604
1775728222671634400,1.649634521484375,0.017715077847242355,0.10338886082172394,0.07223475724458694
1775728222690163200,1.6681630859375,0.059864748269319534,0.02153298258781433,0.016646064817905426
1775728222708691700,1.686691650390625,0.06780599057674408,-0.04321868345141411,-0.03405570983886719
1775728222727220500,1.705220458984375,0.06902772188186646,-0.13851359486579895,0.0007635809597559273
1775728222745749200,1.723749267578125,-0.01649334840476513,-0.14889828860759735,0.039248060435056686
1775728222764277800,1.74227783203125,-0.04764745384454727,-0.015729768201708794,0.07223475724458694
1775728222782806500,1.760806640625,-0.02626718580722809,0.020311253145337105,0.061850059777498245
1775728222801335300,1.779335205078125,0.017715077847242355,-0.050549060106277466,0.004428769461810589
1775728222819863800,1.79786376953125,-0.01282816007733345,-0.1055268943309784,0.011148282326757908
1775728222838392600,1.816392578125,-0.021991131827235222,-0.07070759683847427,0.04474584385752678
1775728222856921300,1.83492138671875,-0.012217295356094837,-0.013897174037992954,-0.05238165333867073
1775728222875449900,1.853449951171875,-0.03848448023200035,0.07895427197217941,-0.12140937149524689
1775728222893978600,1.871978515625,0.01954767294228077,-0.05299251899123192,-0.10797034949064255
1775728222912507400,1.89050732421875,0.03848448023200035,-0.12873975932598114,-0.04627300798892975
1775728222931036000,1.909035888671875,0.056199558079242706,-0.13790272176265717,-0.009010255336761475
1775728222949564700,1.927564697265625,0.037262752652168274,-0.11957678198814392,0.009315688163042068
1775728222968093400,1.946093505859375,-0.0720820426940918,-0.044440411031246185,0.008093958720564842
1775728222986622200,1.964622314453125,-0.06536252796649933,0.0025961752980947495,0.1052214577794075
1775728223005150700,1.983150634765625,-0.0054977829568088055,-0.08781181275844574,-0.1415679156780243
1775728223023679500,2.001679443359375,0.001832594396546483,-0.13851359486579895,-0.3816377818584442
1775728223042208300,2.020208251953125,-0.07086031138896942,-0.050549060106277466,-0.04016435891389847
1775728223060736800,2.03873681640625,-0.02871064469218254,0.039858926087617874,0.2341139316558838
1775728223079265500,2.057265625,0.08674279600381851,0.02764163166284561,0.3513999581336975
1775728223097794300,2.075794189453125,0.12095122784376144,-0.16905683279037476,0.30863943696022034
1775728223116322800,2.09432275390625,0.14294235408306122,-0.20693044364452362,0.16386447846889496
1775728223134851600,2.1128515625,0.13255766034126282,-0.008399390615522861,0.05329795181751251
1775728223153380400,2.13138037109375,0.13927717506885529,0.042913250625133514,-0.02306014485657215
1775728223171908900,2.149908935546875,0.09834922850131989,0.11194097250699997,-0.056657709181308746
1775728223190437600,2.168437744140625,-0.014660755172371864,0.1204930767416954,-0.02916879393160343
1775728223208966400,2.18696630859375,-0.10934479534626007,0.07284562289714813,0.04718930274248123
1775728223227495000,2.205494873046875,-0.17043127119541168,0.02214384824037552,0.09117157012224197
1775728223246023700,2.224023681640625,-0.13683371245861053,0.05940660089254379,0.05818486958742142
1775728223264552400,2.242552490234375,-0.0616973415017128,0.04169152304530144,-0.028557928279042244
1775728223283081000,2.2610810546875,-0.03787361457943916,0.0386371985077858,-0.06704241037368774
1775728223301609700,2.279609619140625,-0.0720820426940918,0.0746782198548317,-0.043829549103975296
1775728223320138500,2.298138427734375,-0.20769402384757996,0.09911280870437622,-0.05604684352874756
1775728223338667000,2.3166669921875,-0.21868959069252014,-0.12140937149524689,-0.037720900028944016
1775728223357195800,2.33519580078125,-0.1795942485332489,-0.25702136754989624,-0.05482511222362518
1775728223375724500,2.353724609375,-0.14660754799842834,-0.08597921580076218,-0.11163553595542908
1775728223394253000,2.372253173828125,-0.07391463965177536,-0.14462223649024963,-0.03649916872382164
1775728223412781800,2.39078173828125,-0.03543015569448471,-0.208152174949646,0.05513054504990578
1775728223431310600,2.409310546875,-0.08979712426662445,-0.11774418503046036,0.09056070446968079
1775728223449839000,2.427839111328125,-0.09285144507884979,-0.05971203371882439,0.1718057245016098
1775728223468368000,2.446367919921875,-0.05864302068948746,-0.1879936307668686,0.4198168218135834
1775728223486896600,2.464896728515625,0.16798780858516693,-0.2845102846622467,0.6201804876327515
1775728223505425200,2.483425048828125,0.1905898153781891,-0.4341721534729004,0.7368556261062622
1775728223523954000,2.501953857421875,0.07574722915887833,-0.504421591758728,0.7924443483352661
1775728223542482700,2.520482666015625,0.056199558079242706,-0.6498073935508728,0.8443678617477417
1775728223561011200,2.53901123046875,0.17287473380565643,-0.6174315810203552,1.0728312730789185
1775728223579540000,2.5575400390625,0.2412915825843811,-0.6351466774940491,1.4827215671539307
1775728223598068700,2.57606884765625,0.2205221801996231,-0.8067996501922607,1.3226749897003174
1775728223616597200,2.59459716796875,0.17592905461788177,-0.8049670457839966,0.7179188132286072
1775728223644390400,2.622390380859375,0.41355544328689575,-0.6565269231796265,0.4949531853199005
1775728223662919000,2.6409189453125,0.4269944727420807,-0.679739773273468,0.6079631447792053
1775728223681447700,2.65944775390625,0.36224281787872314,-0.8330668210983276,0.5157225728034973
1775728223699976200,2.67797607421875,0.3439168632030487,-1.0749692916870117,0.39416050910949707
1775728223718505000,2.6965048828125,0.2522871494293213,-1.114675521850586,0.2493855506181717
1775728223737033700,2.71503369140625,0.1490510106086731,-0.9949460029602051,0.212733656167984
1775728223755562200,2.733562255859375,0.17287473380565643,-0.8067996501922607,0.13942988216876984
1775728223774091000,2.752091064453125,0.23945899307727814,-0.7011200785636902,0.009926552884280682
1775728223792619800,2.770619873046875,0.3390299379825592,-0.6669116020202637,-0.08536835014820099
1775728223811148300,2.789148193359375,0.370184063911438,-0.4647153913974762,-0.13423752784729004
1775728223829677000,2.807677001953125,0.3836230933666229,-0.17516547441482544,-0.1769980639219284
1775728223848205800,2.826205810546875,0.38301220536231995,-0.1715002804994583,-0.125074565410614
1775728223866734300,2.844734375,0.3970620930194855,-0.2130390852689743,-0.07803797721862793
1775728223885263000,2.86326318359375,0.4373791813850403,-0.1672242283821106,-0.14278964698314667
1775728223903791900,2.8817919921875,0.5198459029197693,-0.08231402933597565,-0.2539670467376709
1775728223922320400,2.9003203125,0.5033525824546814,0.0795651376247406,-0.40607234835624695
1775728223940849200,2.91884912109375,0.4673115611076355,0.14737112820148468,-0.5166388750076294
1775728223959378000,2.9373779296875,0.3756818473339081,0.009315688163042068,-0.4689914286136627
1775728223977906400,2.955906494140625,0.23518294095993042,-0.1715002804994583,-0.3364337682723999
1775728223996435200,2.974435302734375,0.2919933497905731,-0.09880737960338593,-0.4390590488910675
1775728224014964000,2.9929638671875,0.5412262082099915,0.0025961752980947495,-0.6730202436447144
1775728224033492500,3.011492431640625,0.6499601006507874,0.06856957077980042,-0.7683151960372925
1775728224052021200,3.030021240234375,0.46059203147888184,0.0435241162776947,-0.5251910090446472
1775728224070550000,3.048550048828125,0.25900667905807495,-0.018784092739224434,-0.16539163887500763
1775728224089078500,3.06707861328125,0.39828383922576904,-0.47326749563217163,0.30314165353775024
1775728224107607300,3.085607177734375,0.5430588126182556,-0.8147408962249756,0.6629409790039062
1775728224126136000,3.104135986328125,0.17653992772102356,0.1363755613565445,0.5890263915061951
1775728224144664600,3.12266455078125,-0.12644900381565094,1.307403326034546,0.0001527161948615685
1775728224163193300,3.141193359375,0.23212862014770508,0.7765618562698364,-0.2283107042312622
1775728224181722000,3.15972216796875,0.4740310609340668,-0.33460119366645813,-0.8471167087554932
1775728224200250600,3.178250732421875,-0.0409279391169548,-0.018784092739224434,-0.8220712542533875
1775728224218779400,3.196779296875,-0.38667741417884827,0.6128500699996948,-0.4500546157360077
1775728224237308200,3.21530810546875,-0.45875945687294006,0.92072594165802,-0.8691078424453735
1775728224255836700,3.233836669921875,-0.4459312856197357,1.2108867168426514,-1.401171088218689
1775728224274365400,3.252365478515625,-0.3133736252784729,1.1357502937316895,-1.3083196878433228
1775728224292894200,3.270894287109375,-0.056199558079242706,0.6800451874732971,-1.1549925804138184
1775728224311422700,3.289422607421875,0.1331685185432434,0.458301305770874,-1.2887719869613647
1775728224329951500,3.307951416015625,0.10567960888147354,0.4747946560382843,-1.486692190170288
1775728224348480300,3.326480224609375,-0.07757982611656189,0.5371028780937195,-1.5599958896636963
1775728224367008800,3.3450087890625,-0.22724169492721558,0.23777911067008972,-1.5532764196395874
1775728224385537500,3.36353759765625,-0.2712239623069763,-0.1971566081047058,-1.4451533555984497
1775728224404066300,3.38206640625,-0.29077163338661194,-0.34926193952560425,-1.3840668201446533
1775728224422594800,3.4005947265625,-0.18753549456596375,-0.38591381907463074,-1.3052653074264526
1775728224441123600,3.41912353515625,-0.009162971749901772,-0.46166107058525085,-1.2606722116470337
1775728224459652400,3.43765234375,-0.01893680728971958,-0.5771145224571228,-1.3504693508148193
1775728224478181000,3.45618115234375,-0.13744457066059113,-0.8208495378494263,-1.366351842880249
1775728224496709600,3.474709716796875,-0.031154103577136993,-1.3602432012557983,-1.1629338264465332
1775728224515238400,3.49323828125,0.009773836471140385,-1.6045891046524048,-1.00594162940979
1775728224533767200,3.51176708984375,0.021991131827235222,-1.4763075113296509,-1.0596976280212402
1775728224552295700,3.530295654296875,-0.04214967042207718,-1.106123447418213,-1.1024582386016846
1775728224570824400,3.548824462890625,-0.0360410213470459,-0.9802852272987366,-0.8904881477355957
1775728224589353200,3.567353271484375,-0.04886918142437935,-0.9283617734909058,-0.7145590782165527
1775728224607881700,3.5858818359375,-0.1441640853881836,-0.7793107628822327,-0.5826122760772705
1775728224626410500,3.604410400390625,-0.20463970303535461,-0.46288278698921204,-0.33765551447868347
1775728224644939000,3.62293896484375,-0.1026252806186676,-0.18005239963531494,-0.07192932814359665
1775728224663467800,3.6414677734375,-0.033597562462091446,-0.027336198836565018,0.0038179049734026194
1775728224681996500,3.65999658203125,-0.21868959069252014,0.11316270381212234,-0.15439607203006744
1775728224700525000,3.678525146484375,-0.3384190797805786,0.2890917658805847,-0.08109229803085327
1775728224719053800,3.6970537109375,-0.17898337543010712,0.15409064292907715,0.23228132724761963
1775728224737582600,3.71558251953125,-0.06719512492418289,-0.23258677124977112,0.15592323243618011
1775728224756111000,3.734111083984375,-0.09651663154363632,-0.8251255750656128,-0.024892739951610565
1775728224774639900,3.752639892578125,-0.12950333952903748,-1.1892009973526,0.6672170758247375
1775728224793168600,3.771168701171875,-0.1026252806186676,-1.1183407306671143,2.1113014221191406
1775728224811697200,3.789697265625,0.19364413619041443,-1.2887719869613647,3.3788459300994873
1775728224830226000,3.808225830078125,0.5784889459609985,-1.8434371948242188,4.07645320892334
1775728224848754700,3.826754638671875,0.8741474747657776,-2.6943719387054443,4.144870281219482
1775728224867283500,3.845283447265625,0.8161153197288513,-2.7737841606140137,3.789346933364868
1775728224885812000,3.86381201171875,0.4990765154361725,-1.98515784740448,3.6066982746124268
1775728224904340700,3.8823408203125,0.7611374855041504,-1.106123447418213,3.705658435821533
1775728224922869500,3.900869384765625,1.2797616720199585,-0.25274530053138733,3.1259477138519287
1775728224941398000,3.91939794921875,1.1502584218978882,-0.3058905303478241,2.0825908184051514
1775728224959926800,3.9379267578125,1.0195332765579224,-1.299156665802002,1.8938335180282593
1775728224978455600,3.95645556640625,0.9847140312194824,-2.336405038833618,2.4594943523406982
1775728224996984000,3.974984130859375,0.7202095985412598,-2.5923573970794678,2.5382959842681885
1775728225015512800,3.993512939453125,0.3995055556297302,-2.1610867977142334,2.4680464267730713
1775728225034041600,4.01204150390625,0.39339691400527954,-1.3907864093780518,2.3513712882995605
1775728225052570000,4.030570068359375,0.5607738494873047,-0.9124792814254761,2.1473424434661865
1775728225071099000,4.049098876953125,0.5626064538955688,-0.6113229393959045,1.7295109033584595
1775728225089627600,4.067627685546875,0.5717694163322449,-0.48670652508735657,1.336724877357483
1775728225108156200,4.08615625,0.6866120100021362,-0.5325213670730591,1.0728312730789185
1775728225126685000,4.104684814453125,0.7739656567573547,-0.8092431426048279,0.9066760540008545
1775728225145213700,4.123213623046875,0.8185588121414185,-0.7970257997512817,0.5749764442443848
1775728225163742200,4.1417421875,0.7800742983818054,-0.6168206930160522,0.20601414144039154
1775728225182271000,4.16027099609375,0.6633991599082947,-0.5001455545425415,-0.008399390615522861
1775728225200799700,4.1787998046875,0.6988292932510376,-0.48731738328933716,-0.2087630331516266
1775728225219328500,4.19732861328125,0.8197805285453796,-0.48731738328933716,-0.45066550374031067
1775728225237857000,4.21585693359375,0.8930842876434326,-0.45249807834625244,-0.864831805229187
1775728225256385800,4.2343857421875,0.8026763200759888,-0.056657709181308746,-1.4170535802841187
1775728225274914600,4.25291455078125,0.6120865345001221,0.6953168511390686,-1.908188819885254
1775728225293443000,4.271443115234375,0.748920202255249,0.9072869420051575,-1.7872376441955566
1775728225311971800,4.289971923828125,0.8790343999862671,1.1100940704345703,-0.3975202441215515
1775728225330500600,4.30850048828125,0.3127627670764923,0.920115053653717,-0.0591011680662632
1775728225349029000,4.327029052734375,-0.9199623465538025,2.7698135375976562,-1.521511435508728
1775728225367558000,4.345557861328125,-0.8698714375495911,2.6396994590759277,-2.48423433303833
1775728225386086700,4.364086669921875,-0.49602219462394714,1.5920662879943848,-2.853196620941162
1775728225404615200,4.382615234375,-0.6151408553123474,1.5450297594070435,-1.6742275953292847
1775728225423144000,4.40114404296875,-0.4251618981361389,1.4802781343460083,-1.4017819166183472
1775728225441672400,4.41967236328125,-0.002443459117785096,1.3330596685409546,-2.2429428100585938
1775728225460201200,4.438201171875,0.13561198115348816,0.8126028776168823,-2.3926045894622803
1775728225478730000,4.45672998046875,-0.2730565667152405,0.5829176902770996,-1.9912664890289307
1775728225497258800,4.4752587890625,-0.758083164691925,0.8260418772697449,-1.7566944360733032
1775728225515787300,4.493787353515625,-0.4764745235443115,0.7942769527435303,-1.8055635690689087
1775728225534316000,4.51231591796875,-0.0922405794262886,0.5236638188362122,-2.107330799102783
1775728225552844800,4.5308447265625,-0.2364046722650528,0.7301361560821533,-1.8849760293960571
1775728225571373300,4.549373291015625,-0.5259546041488647,0.7087558507919312,-1.457370638847351
1775728225589902000,4.567902099609375,-0.7947350740432739,0.347123920917511,-1.4940224885940552
1775728225608430800,4.586430908203125,-1.0134246349334717,0.3202458620071411,-1.6070325374603271
1775728225626959600,4.604959716796875,-1.0274745225906372,0.8431460857391357,-1.4830269813537598
1775728225645488000,4.623488037109375,-0.7379246354103088,1.0062470436096191,-1.448818564414978
1775728225664017000,4.642016845703125,-0.34636032581329346,0.6885973215103149,-1.5068507194519043
1775728225682545700,4.660545654296875,-0.1545487940311432,0.1101083755493164,-1.4439315795898438
1775728225701074200,4.67907421875,-0.18570289015769958,-0.06826414167881012,-1.1366666555404663
1775728225719603000,4.69760302734375,-0.18814635276794434,-0.004123337101191282,-0.8770490884780884
1775728225738131700,4.716131591796875,-0.04276053607463837,-0.09086613357067108,-0.8397863507270813
1775728225756660200,4.73466015625,0.05497783049941063,-0.17883066833019257,-0.8684970140457153
1775728225775189000,4.75318896484375,0.04459312930703163,-0.4494437575340271,-0.8507819175720215
1775728225793717800,4.7717177734375,0.0977383628487587,-0.7768672704696655,-0.893542468547821
1775728225812246500,4.79024658203125,0.11911863088607788,-0.8538362383842468,-0.864831805229187
1775728225830775000,4.808775146484375,0.025045456364750862,-0.7872520089149475,-0.9008728265762329
1775728225849303800,4.8273037109375,-0.1802051067352295,-0.503810703754425,-0.7805324792861938
1775728225867832600,4.84583251953125,-0.2779434621334076,-0.20143266022205353,-0.4598284661769867
1775728225886361000,4.864361083984375,-0.24556763470172882,-0.08170316368341446,-0.41157013177871704
1775728225904889900,4.882889892578125,-0.13133592903614044,0.02458730712532997,-0.34987279772758484
1775728225923418600,4.901418701171875,0.05558869615197182,0.07712167501449585,0.04474584385752678
1775728225941947100,4.919947021484375,0.17043127119541168,-0.0334448479115963,0.5340485572814941
1775728225960476000,4.938475830078125,-0.047036588191986084,-0.40607234835624695,0.939662754535675
1775728225979004700,4.957004638671875,-0.06719512492418289,-1.1745402812957764,1.1614066362380981
1775728225997533200,4.975533203125,0.09040798991918564,-1.8654283285140991,1.4509565830230713
1775728226016062000,4.99406201171875,0.15088360011577606,-1.949116826057434,1.8675663471221924
1775728226034590700,5.0125908203125,0.09957095980644226,-1.4756965637207031,2.5413501262664795
1775728226053119200,5.031119140625,0.19730933010578156,-0.5429060459136963,3.397782564163208
1775728226071648000,5.04964794921875,0.2559523284435272,-0.056657709181308746,3.912130832672119
1775728226090176800,5.0681767578125,0.39278605580329895,0.14920371770858765,3.6671741008758545
1775728226108705500,5.08670556640625,1.0079269409179688,0.24327689409255981,3.042870283126831
1775728226127234000,5.105234130859375,1.0873392820358276,-0.031001387163996696,2.4246749877929688
1775728226145762800,5.1237626953125,1.0323615074157715,-0.35048365592956543,2.0465497970581055
1775728226164291600,5.14229150390625,0.8723149299621582,-1.0401500463485718,1.9091051816940308
1775728226182820000,5.160820068359375,0.5210676789283752,-1.6076433658599854,1.8449643850326538
1775728226210613200,5.18861328125,0.28527384996414185,-1.447596788406372,2.062432289123535
1775728226229142000,5.20714208984375,0.2254091054201126,-1.0645846128463745,2.4399466514587402
1775728226247670500,5.22567041015625,-0.03787361457943916,-0.3633118271827698,2.308610677719116
1775728226266199300,5.24419921875,-0.02626718580722809,-0.3315468728542328,1.891390085220337
1775728226284727800,5.262727783203125,0.25411975383758545,-0.43661558628082275,1.4540108442306519
1775728226303256600,5.281256591796875,0.40927940607070923,-0.09697478264570236,1.0300707817077637
1775728226321785300,5.299785400390625,0.49418962001800537,-0.07559451460838318,0.6012436747550964
1775728226340314000,5.318314208984375,0.5131264328956604,-0.3816377818584442,0.39110618829727173
1775728226358843000,5.3368427734375,0.4886918365955353,-0.453719824552536,0.24694208800792694
1775728226377371400,5.355371337890625,0.5186241865158081,-0.5031998753547668,0.08261945843696594
1775728226395900200,5.373900146484375,0.5534434914588928,-0.30222535133361816,-0.10125083476305008
1775728226414429000,5.392428955078125,0.49541133642196655,-0.2631300091743469,-0.33337944746017456
1775728226432957400,5.41095751953125,0.22357651591300964,-0.23625195026397705,-0.9210313558578491
1775728226451486200,5.429486328125,0.20830489695072174,-0.21059563755989075,-1.6259692907333374
1775728226470015000,5.448014892578125,0.04459312930703163,0.4344775676727295,-1.1782054901123047
1775728226488543500,5.46654345703125,-0.3347539007663727,1.0184643268585205,0.4283689260482788
1775728226507072300,5.485072265625,-0.7990111112594604,0.8938478827476501,-1.0768018960952759
1775728226525601000,5.50360107421875,-1.4410300254821777,2.453385591506958,-2.663217782974243
1775728226544129500,5.522129638671875,-1.045189619064331,2.6946773529052734,-1.8703151941299438
1775728226562658300,5.540658203125,-1.0708459615707397,2.623816967010498,-1.7310380935668945
1775728226581187000,5.55918701171875,-1.0506874322891235,1.976911187171936,-2.296698808670044
1775728226599715600,5.577715576171875,-0.7409789562225342,1.6733113527297974,-2.291811943054199
1775728226618244400,5.596244384765625,-0.22479823231697083,1.4698933362960815,-2.014479398727417
1775728226636773000,5.614773193359375,0.08857539296150208,1.1058179140090942,-1.8122830390930176
1775728226655302000,5.633302001953125,-0.07574722915887833,0.9103412628173828,-1.9045236110687256
1775728226673830400,5.651830322265625,-0.42271843552589417,0.5187768936157227,-1.9766056537628174
1775728226692359200,5.670359130859375,-0.5888736248016357,0.2438877671957016,-1.9521710872650146
1775728226710888000,5.688887939453125,-0.7476984858512878,0.3666715919971466,-1.89047372341156
1775728226729416400,5.70741650390625,-0.915686309337616,0.5279398560523987,-1.7933462858200073
1775728226747945200,5.7259453125,-0.8142827749252319,0.5939132571220398,-1.7854050397872925
1775728226766474000,5.744473876953125,-0.711046576499939,0.6085740327835083,-1.8147265911102295
1775728226785002800,5.763002685546875,-0.667064368724823,0.6262891292572021,-1.8110613822937012
1775728226803531300,5.78153125,-0.5204567909240723,0.6855430006980896,-1.6754493713378906
1775728226822060000,5.80006005859375,-0.2706131041049957,0.6965385675430298,-1.4799726009368896
1775728226840588800,5.8185888671875,-0.11972949653863907,0.6061305999755859,-1.3321434259414673
1775728226859117300,5.837117431640625,-0.20280711352825165,0.33368489146232605,-1.159879446029663
1775728226877646000,5.85564599609375,-0.40866854786872864,0.19379685819149017,-0.966846227645874
1775728226896174800,5.8741748046875,-0.45326167345046997,0.40149086713790894,-0.6968439817428589
1775728226914703600,5.89270361328125,-0.3860665261745453,0.3813323378562927,-0.4402807950973511
1775728226933232000,5.911232177734375,-0.3530798554420471,0.33979353308677673,-0.342542439699173
1775728226951761000,5.929760986328125,-0.36712974309921265,0.0435241162776947,-0.434783011674881
1775728226970289700,5.94828955078125,-0.16249002516269684,-0.24541492760181427,-0.5942187309265137
1775728226988818200,5.966818115234375,-0.07513637095689774,-0.3675878942012787,-0.5905535221099854
1775728227007347000,5.985346923828125,-0.15577052533626556,-0.2136499583721161,-0.3162752389907837
1775728227025875700,6.003875732421875,-0.1893680840730667,0.0032070400193333626,-0.004734201822429895
1775728227044404200,6.022404296875,-0.22846342623233795,0.2078467458486557,0.09666935354471207
1775728227062933000,6.04093310546875,-0.16798780858516693,0.09178243577480316,0.1980729103088379
1775728227081461800,6.059461669921875,-0.1649334877729416,0.1614210158586502,0.25732678174972534
1775728227099990300,6.077990234375,-0.06475166976451874,0.34345871210098267,0.33307403326034546
1775728227118519000,6.09651904296875,0.06902772188186646,0.4198168218135834,0.5199986696243286
1775728227137047800,6.1150478515625,0.13439024984836578,0.10399972647428513,0.6403390169143677
1775728227155576300,6.133576416015625,0.12522727251052856,-0.7573196291923523,0.9451605081558228
1775728227174105000,6.15210498046875,0.22907429933547974,-1.7609704732894897,1.455843448638916
1775728227192633900,6.1706337890625,0.33658650517463684,-2.355341911315918,2.0893101692199707
1775728227211162600,6.18916259765625,0.48930269479751587,-1.937510371208191,2.9103124141693115
1775728227229691100,6.207691162109375,0.657290518283844,-1.0768018960952759,3.6708390712738037
1775728227248220000,6.226219970703125,0.5485565662384033,-0.21181736886501312,3.733147382736206
1775728227266748700,6.244748779296875,0.5687150955200195,-0.08720094710588455,3.0715808868408203
1775728227285277200,6.263277099609375,1.156977891921997,-0.29856017231941223,2.4381141662597656
1775728227303806000,6.281805908203125,1.4935643672943115,-0.5545125007629395,2.3061673641204834
1775728227322334700,6.300334716796875,1.237612009048462,-1.077412724494934,2.215148448944092
1775728227340863500,6.318863525390625,0.7507528066635132,-1.6076433658599854,1.835801362991333
1775728227359392000,6.33739208984375,0.411722868680954,-1.6650646924972534,1.7844886779785156
1775728227377920800,6.355920654296875,0.10323614627122879,-1.2985458374023438,2.413679361343384
1775728227396449500,6.374449462890625,0.08857539296150208,-0.5288561582565308,2.7013967037200928
1775728227414978000,6.39297802734375,0.44898560643196106,-0.3480401933193207,2.417344570159912
1775728227433506800,6.4115068359375,0.5790998339653015,-0.4176788032054901,1.8461860418319702
1775728227452035600,6.43003564453125,0.5467239618301392,-0.5612320303916931,1.4430153369903564
1775728227470564400,6.448564453125,0.6065887212753296,-0.7658717036247253,1.1998910903930664
1775728227489092900,6.4670927734375,0.6847794055938721,-0.8733839392662048,0.9427170753479004
1775728227507621600,6.48562158203125,0.5387827157974243,-1.0077741146087646,0.7093667387962341
1775728227526150400,6.504150390625,0.3445277214050293,-1.0248783826828003,0.4240928590297699
1775728227544679000,6.522678955078125,0.33231043815612793,-0.8410080671310425,0.13515383005142212
1775728227563207700,6.541207763671875,0.4575377106666565,-0.6815723776817322,-0.14340050518512726
1775728227581736400,6.559736328125,0.45509424805641174,-0.5697841048240662,-0.44089165329933167
1775728227600265000,6.578264892578125,0.5210676789283752,-0.606436014175415,-0.8886555433273315
1775728227618793700,6.596793701171875,0.6041452884674072,-0.49342602491378784,-1.5642719268798828
1775728227637322500,6.615322509765625,0.15210533142089844,0.38927358388900757,-1.5172353982925415
1775728227655851300,6.633851318359375,-0.4214966893196106,1.2591450214385986,0.31291547417640686
1775728227674379800,6.6523798828125,-0.4789179861545563,0.9543235301971436,-0.6284271478652954
1775728227692908500,6.670908447265625,-0.8949168920516968,2.232863426208496,-2.635118007659912
1775728227711437300,6.689437255859375,-0.8833104968070984,3.224907875061035,-1.7011057138442993
1775728227729965800,6.7079658203125,-0.6224712133407593,2.973231554031372,-1.3547453880310059
1775728227748494600,6.72649462890625,-0.6719512343406677,2.084423303604126,-2.1861324310302734
1775728227767023400,6.7450234375,-0.48930269479751587,1.447291374206543,-1.993709921836853
1775728227785552100,6.76355224609375,-0.2205221801996231,1.169347882270813,-1.7011057138442993
1775728227804080600,6.78208056640625,-0.12522727251052856,0.9097303748130798,-1.824500322341919
1775728227822609400,6.800609375,-0.14110976457595825,0.7014254927635193,-1.9173518419265747
1775728227841138200,6.81913818359375,-0.2632827162742615,0.5047270059585571,-1.9118540287017822
1775728227859667000,6.8376669921875,-0.5290089249610901,0.3819431960582733,-1.9552254676818848
1775728227878195500,6.856195556640625,-0.6084213256835938,0.14309507608413696,-1.9503384828567505
1775728227896724200,6.87472412109375,-0.6261364221572876,0.05024362727999687,-1.790902853012085
1775728227915253000,6.8932529296875,-0.6010909676551819,0.15836669504642487,-1.7004948854446411
1775728227933781500,6.911781494140625,-0.5613847374916077,0.29825472831726074,-1.74508798122406
1775728227952310300,6.930310302734375,-0.6084213256835938,0.39538222551345825,-1.743255376815796
1775728227970839000,6.948839111328125,-0.6438514590263367,0.29703301191329956,-1.6271910667419434
1775728227989367600,6.967367431640625,-0.545502245426178,0.3165806829929352,-1.5080723762512207
1775728228007896300,6.985896240234375,-0.49602219462394714,0.36422812938690186,-1.4781399965286255
1775728228026425000,7.004425048828125,-0.45509424805641174,0.3972148299217224,-1.4903573989868164
1775728228044953900,7.022953857421875,-0.4263836145401001,0.44730573892593384,-1.2759437561035156
1775728228063482400,7.041482421875,-0.4526508152484894,0.4094321131706238,-0.9051488637924194
1775728228082011100,7.06001123046875,-0.3738492429256439,0.3367392122745514,-0.6785180568695068
1775728228100540000,7.078539794921875,-0.19303326308727264,0.24327689409255981,-0.6290380358695984
1775728228119068700,7.097068603515625,-0.2156352698802948,0.1773035079240799,-0.6534726023674011
1775728228137597200,7.11559716796875,-0.24862197041511536,0.08384118974208832,-0.6210967898368835
1775728228156126000,7.1341259765625,-0.23823726177215576,-0.047494735568761826,-0.4176788032054901
1775728228174654700,7.15265478515625,-0.19792018830776215,-0.0694858655333519,-0.16966769099235535
1775728228193183500,7.17118359375,-0.11728604137897491,-0.05849030241370201,-0.2032652497291565
1775728228211712000,7.1897119140625,0.023212861269712448,0.11316270381212234,-0.36392268538475037
1775728228230240800,7.20824072265625,0.18203771114349365,0.2756527364253998,-0.5203040838241577
1775728228248769500,7.22676953125,0.20769402384757996,0.12904518842697144,-0.47204574942588806
1775728228267298300,7.24529833984375,0.06963858753442764,-0.10063996911048889,-0.05971203371882439
1775728228285826800,7.263826904296875,-0.2987128794193268,-0.46776971220970154,0.4992292523384094
1775728228304355600,7.28235546875,-0.3634645342826843,-0.9363030195236206,0.9451605081558228
1775728228322884400,7.30088427734375,-0.185092031955719,-1.2967132329940796,1.383150577545166
1775728228341412900,7.319412841796875,0.10140355676412582,-1.4561488628387451,1.62199866771698
1775728228359941600,7.337941650390625,0.39400777220726013,-1.4695879220962524,1.7472259998321533
1775728228378470400,7.356470458984375,0.5149590373039246,-1.4256056547164917,2.075871229171753
1775728228396999200,7.374999267578125,0.42394015192985535,-1.0737475156784058,2.883434534072876
1775728228415527700,7.393527587890625,-0.002443459117785096,0.11316270381212234,3.7826273441314697
1775728228434056400,7.412056396484375,0.16859868168830872,1.0172425508499146,3.7905685901641846
1775728228452585200,7.430585205078125,0.6010909676551819,1.1131483316421509,3.187645196914673
1775728228471114000,7.449114013671875,1.1001675128936768,0.3153589367866516,2.7753114700317383
1775728228489642500,7.467642578125,1.4355322122573853,-0.9436333775520325,2.5688390731811523
1775728228508171300,7.486171142578125,1.1600322723388672,-1.9869904518127441,1.948811411857605
1775728228526700000,7.504699951171875,0.5192350745201111,-2.693760871887207,1.568853497505188
1775728228545228800,7.523228759765625,0.28588470816612244,-3.0303473472595215,2.195600748062134
1775728228563757300,7.54175732421875,0.10445787757635117,-2.224005937576294,2.9274168014526367
1775728228582286000,7.5602861328125,0.16249002516269684,-1.4030036926269531,3.051422357559204
1775728228600814800,7.57881494140625,0.1893680840730667,-1.0737475156784058,2.5523457527160645
1775728228619343600,7.597343505859375,0.1337793916463852,-0.855057954788208,1.852294683456421
1775728228637872400,7.615872314453125,0.25473061203956604,-0.6101012229919434,1.427743673324585
1775728228656401000,7.63440087890625,0.3640754222869873,-0.597273051738739,1.169347882270813
1775728228674929700,7.6529296875,0.3543015718460083,-0.6210967898368835,0.8626937866210938
1775728228693458400,7.67145849609375,0.2461785078048706,-0.504421591758728,0.4790706932544708
1775728228711987000,7.689987060546875,-0.0030543238390237093,-0.12140937149524689,0.017867794260382652
1775728228730515700,7.708515625,0.07147117704153061,0.16081015765666962,-0.2741255760192871
1775728228749044500,7.72704443359375,0.3274235129356384,0.3269653618335724,-0.5367974042892456
1775728228767573200,7.7455732421875,0.5424479246139526,0.23961171507835388,-0.9870047569274902
1775728228786101800,7.764101806640625,0.4471530318260193,0.24572035670280457,-1.541059136390686
1775728228804630500,7.782630615234375,-0.1795942485332489,1.170569658279419,-0.523969292640686
1775728228823159300,7.8011591796875,-0.3995055556297302,0.8822414875030518,0.28725916147232056
1775728228841688000,7.81968798828125,-0.8491020202636719,1.7331761121749878,-2.352287530899048
1775728228860216800,7.838216796875,-1.3567306995391846,3.3843436241149902,-3.051116943359375
1775728228878745300,7.856745361328125,-1.036637544631958,3.1247260570526123,-2.075565814971924
1775728228897274000,7.875274169921875,-1.0751219987869263,2.4039056301116943,-2.0657920837402344
1775728228915803000,7.893802978515625,-0.8619301915168762,1.9005529880523682,-2.002872943878174
1775728228934331600,7.91233154296875,-0.47586366534233093,1.4992148876190186,-2.198960542678833
1775728228952860200,7.930860107421875,0.09712749719619751,0.929888904094696,-2.3901612758636475
1775728228971389000,7.949388916015625,0.3659079968929291,0.7924443483352661,-2.251494884490967
1775728228989917700,7.967917724609375,0.2724456787109375,0.7973312735557556,-1.9033019542694092
1775728229008446200,7.9864462890625,-0.2254091054201126,0.7417425513267517,-1.651014804840088
1775728229026975000,8.00497509765625,-0.7177661061286926,0.6116283535957336,-1.5233440399169922
1775728229045503700,8.023503662109375,-0.943786084651947,0.3605629503726959,-1.4323252439498901
1775728229064032500,8.042032470703125,-1.033583164215088,0.37461283802986145,-1.335808515548706
1775728229082561300,8.060561279296875,-0.9474512934684753,0.5566505193710327,-1.3889538049697876
1775728229101089800,8.07908984375,-0.6444623470306396,0.3721693754196167,-1.6522364616394043
1775728229119618600,8.09761865234375,-0.24862197041511536,0.33857181668281555,-1.6742275953292847
1775728229138147300,8.116147216796875,-0.10567960888147354,0.6232348084449768,-1.5331178903579712
1775728229156676000,8.134676025390625,-0.19425499439239502,0.6360629796981812,-1.435990333557129
1775728229175204900,8.153204833984375,-0.1899789422750473,0.11866047978401184,-1.3675734996795654
1775728229193733400,8.1717333984375,-0.2626718580722809,-0.21120649576187134,-1.2472331523895264
1775728229212262100,8.19026220703125,-0.24801109731197357,-0.18432845175266266,-1.0065524578094482
1775728229230791000,8.208791015625,-0.0769689604640007,-0.009010255336761475,-0.7774781584739685
1775728229249319400,8.2273193359375,-0.09651663154363632,0.020311253145337105,-0.7786998748779297
1775728229267848200,8.24584814453125,-0.24923282861709595,-0.009621120058000088,-0.8892664313316345
1775728229286377000,8.264376953125,-0.2614501118659973,-0.0847574844956398,-0.7982475757598877
1775728229304905700,8.28290576171875,-0.27000224590301514,-0.10797034949064255,-0.641866147518158
1775728229323434500,8.3014345703125,-0.24740023910999298,-0.09575305134057999,-0.669965922832489
1775728229341963000,8.319962890625,-0.27000224590301514,0.014202605932950974,-0.7047852277755737
1775728229360491800,8.33849169921875,-0.4276053309440613,0.21639885008335114,-0.5563451051712036
1775728229379020500,8.3570205078125,-0.43493571877479553,0.439364492893219,-0.24724751710891724
1775728229397549300,8.37554931640625,-0.25473061203956604,0.6391173005104065,-0.11407899856567383
1775728229416078000,8.394078125,0.050090912729501724,0.9805907011032104,0.12293653935194016
1775728229434606600,8.412606689453124,0.08918625861406326,1.1461350917816162,0.4405862092971802
1775728229453135400,8.43113525390625,-0.13255766034126282,0.7783944606781006,0.6391173005104065
1775728229471664000,8.4496640625,-0.17043127119541168,-0.09636391699314117,0.892015278339386
1775728229490193000,8.46819287109375,-0.01893680728971958,-0.9631810188293457,1.2200497388839722
1775728229508721400,8.486721435546874,0.2254091054201126,-1.7719659805297852,1.474169373512268
1775728229536514600,8.5145146484375,0.18081597983837128,-2.26310133934021,2.2762348651885986
1775728229555043300,8.533043212890625,0.14782927930355072,-1.2221877574920654,3.2572836875915527
1775728229573572000,8.551572021484375,0.3695732057094574,0.14004075527191162,4.0892815589904785
1775728229592100600,8.5701005859375,0.6823359727859497,0.8443678617477417,3.774686098098755
1775728229610629400,8.58862939453125,0.8600975871086121,0.9323323965072632,2.899927854537964
1775728229629158100,8.607158203125,1.368947982788086,0.3764454126358032,2.5608978271484375
1775728229647687000,8.62568701171875,1.8600832223892212,-1.0358740091323853,2.268293619155884
1775728229666215700,8.644215576171876,1.6505566835403442,-2.0279183387756348,1.5517492294311523
1775728229684744400,8.662744384765626,0.988990068435669,-2.2172863483428955,1.317177176475525
1775728229703273000,8.68127294921875,0.5192350745201111,-2.307694435119629,1.982408881187439
1775728229721801700,8.6998017578125,0.21807873249053955,-1.992488145828247,2.684903383255005
1775728229740330500,8.71833056640625,0.10323614627122879,-1.5147919654846191,2.5327980518341064
1775728229758859000,8.73685888671875,0.19853104650974274,-0.8623883724212646,2.0746495723724365
1775728229777387800,8.7553876953125,0.42088583111763,-0.6559160351753235,1.6641483306884766
1775728229795916500,8.77391650390625,0.656679630279541,-0.606436014175415,1.223714828491211
1775728229814445300,8.7924453125,0.7232639193534851,-0.5673406720161438,1.011744737625122
1775728229832974000,8.81097412109375,0.6695078015327454,-0.669965922832489,0.939662754535675
1775728229851502800,8.8295029296875,0.5149590373039246,-0.7744238376617432,0.6617192625999451
1775728229870031400,8.84803125,0.5613847374916077,-0.9149227142333984,0.28237223625183105
1775728229888560000,8.86656005859375,0.5400044918060303,-0.8092431426048279,-0.07498364895582199
1775728229907089000,8.8850888671875,0.5204567909240723,-0.5606211423873901,-0.41584619879722595
1775728229925617700,8.90361767578125,0.6090322136878967,-0.5386300086975098,-0.8141300082206726
1775728229944146400,8.922146484375,0.656679630279541,-0.5624537467956543,-1.3309216499328613
1775728229962675000,8.940675048828124,0.3292561173439026,0.11255183815956116,-0.6290380358695984
1775728229981203700,8.95920361328125,-0.2260199636220932,0.20540328323841095,-0.46166107058525085
1775728229999732500,8.977732421875,-1.1924080848693848,2.287841320037842,-1.8458806276321411
1775728230018261000,8.996260986328124,-1.1032217741012573,3.2340707778930664,-2.6198463439941406
1775728230036789800,9.014789794921874,-0.822834849357605,2.7893612384796143,-1.6473495960235596
1775728230055318500,9.033318603515625,-0.7831286191940308,1.9927936792373657,-1.4433207511901855
1775728230073847300,9.051847412109375,-0.5571087002754211,1.2359321117401123,-2.3541202545166016
1775728230092376000,9.0703759765625,-0.15821397304534912,0.5780308246612549,-2.5691444873809814
1775728230110904800,9.08890478515625,0.16554436087608337,0.35995206236839294,-2.056628942489624
1775728230129433300,9.107433349609375,0.026878049597144127,0.4143190383911133,-1.7004948854446411
1775728230147962000,9.125962158203125,-0.2828303873538971,0.42959064245224,-1.866650104522705
1775728230166491000,9.144490966796875,-0.5571087002754211,0.33001968264579773,-1.8654283285140991
1775728230185019600,9.16301953125,-0.6585122346878052,0.35017824172973633,-1.6937752962112427
1775728230203548400,9.18154833984375,-0.6444623470306396,0.38988444209098816,-1.5825979709625244
1775728230222077000,9.200076904296875,-0.500298261642456,0.27687445282936096,-1.492189884185791
1775728230240605700,9.218605712890625,-0.46364638209342957,0.4185950756072998,-1.5709915161132812
1775728230259134500,9.237134521484375,-0.47525280714035034,0.7777835726737976,-1.5288418531417847
1775728230277663200,9.255663330078125,-0.33658650517463684,0.8877392411231995,-1.4647010564804077
1775728230296191700,9.274191650390625,-0.21930044889450073,0.8437569737434387,-1.3736821413040161
1775728230314720500,9.292720458984375,-0.1539379209280014,0.6928733587265015,-1.2478439807891846
1775728230333249300,9.311249267578125,-0.08674279600381851,0.41492989659309387,-1.2887719869613647
1775728230351778000,9.329778076171875,-0.17104214429855347,0.20357069373130798,-1.3529127836227417
1775728230379571200,9.3575712890625,-0.3585776388645172,0.1876882016658783,-1.1476621627807617
1775728230398099700,9.376099609375,-0.3756818473339081,0.3630063831806183,-0.8721621632575989
1775728230416628500,9.39462841796875,-0.3042106628417969,0.5248855352401733,-0.7090612649917603
1775728230435157200,9.4131572265625,-0.06047561392188072,0.3526217043399811,-0.6882919073104858
1775728230453686000,9.43168603515625,0.0054977829568088055,0.12232567369937897,-0.7273872494697571
1775728230472214500,9.450214599609374,-0.12095122784376144,0.23655737936496735,-0.6504182815551758
1775728230490743300,9.468743408203125,-0.1130099818110466,0.16814053058624268,-0.5270236134529114
1775728230509272000,9.48727197265625,-0.14110976457595825,0.05513054504990578,-0.35353797674179077
1775728230527800800,9.50580078125,-0.17592905461788177,0.17852523922920227,-0.14217877388000488
1775728230546329600,9.52432958984375,-0.1331685185432434,0.32757624983787537,0.039858926087617874
1775728230564858000,9.542858154296875,-0.08918625861406326,0.4039343297481537,0.10399972647428513
1775728230583387000,9.561386962890625,-0.20830489695072174,0.4699077308177948,0.21090106666088104
1775728230601915600,9.57991552734375,-0.32620179653167725,0.449138343334198,0.35811948776245117
1775728230620444400,9.5984443359375,-0.18570289015769958,0.0013744457392022014,0.5682569742202759
1775728230638973200,9.61697314453125,0.047036588191986084,-0.6663007736206055,0.8168789148330688
1775728230657501700,9.635501708984375,0.35246896743774414,-1.4213296175003052,1.0404554605484009
1775728230676030500,9.654030517578125,0.5900954008102417,-2.1024439334869385,1.4796671867370605
1775728230694559200,9.672559326171875,0.3646862804889679,-2.134208917617798,2.2756240367889404
1775728230713088000,9.691087890625,0.18631376326084137,-1.141553521156311,3.30248761177063
1775728230731616500,9.709616455078125,0.4410443603992462,-0.13301581144332886,4.097222805023193
1775728230750145300,9.728145263671875,0.8460476994514465,0.2811505198478699,3.8217227458953857
1775728230768674000,9.746674072265625,1.0482439994812012,0.4039343297481537,2.91703200340271
1775728230787202800,9.765202880859375,1.3127484321594238,-0.030390523374080658,2.43689227104187
1775728230805731600,9.783731689453125,1.5497639179229736,-0.957683265209198,2.21881365776062
1775728230824260000,9.802260009765625,1.2718204259872437,-2.0071489810943604,1.5431971549987793
1775728230842788900,9.820788818359375,0.6646208763122559,-2.3510658740997314,1.1113157272338867
1775728230861317600,9.839317626953125,0.3072649836540222,-2.1201589107513428,1.513264775276184
1775728230879846400,9.857846435546875,0.14599667489528656,-1.649793028831482,2.4998114109039307
1775728230898375200,9.876375244140625,0.08613193035125732,-0.6980656981468201,2.908479928970337
1775728230916903700,9.894903564453125,0.21441353857517242,-0.2075413018465042,2.519969940185547
1775728230935432400,9.913432373046875,0.3127627670764923,-0.443945974111557,1.7130175828933716
1775728230953961200,9.931961181640625,0.4324922561645508,-0.855668842792511,1.1192569732666016
1775728230972490000,9.950489990234376,0.5247328281402588,-1.0230457782745361,1.052061915397644
1775728230991018500,9.9690185546875,0.554665207862854,-1.0096067190170288,1.124754786491394
1775728231009547300,9.98754736328125,0.5222893953323364,-0.8336777091026306,0.892015278339386
1775728231028076000,10.006075927734376,0.3543015718460083,-0.6223185062408447,0.44608399271965027
1775728231046604800,10.024604736328126,0.36774060130119324,-0.5569559335708618,0.0850629210472107
1775728231065133600,10.043133544921876,0.5009090900421143,-0.6730202436447144,-0.301003634929657
1775728231083662000,10.061662109375,0.5112938284873962,-0.5386300086975098,-0.7738129496574402
1775728231102190800,10.08019091796875,0.3799578845500946,0.036804601550102234,-1.5092941522598267
1775728231120719600,10.0987197265625,0.23396120965480804,0.3685041666030884,-1.6100867986679077
1775728231139248400,10.117248291015626,-0.28954991698265076,0.7399099469184875,0.39965829253196716
1775728231157777000,10.13577685546875,-0.8888082504272461,0.9860884547233582,-0.5630646347999573
1775728231176305700,10.1543056640625,-1.2705987691879272,3.3012659549713135,-3.0645558834075928
1775728231194834400,10.17283447265625,-0.9370665550231934,2.9805619716644287,-2.028529167175293
1775728231213363200,10.19136328125,-0.7391464114189148,2.315941095352173,-1.134223222732544
1775728231231892000,10.20989208984375,-0.880256175994873,1.5822924375534058,-1.8697043657302856
1775728231250420500,10.22842041015625,-0.4984656572341919,1.224936604499817,-2.1665847301483154
1775728231268949200,10.24694921875,0.08124501258134842,1.162628412246704,-1.8868086338043213
1775728231287478000,10.26547802734375,0.2938259541988373,1.0905463695526123,-1.687666654586792
1775728231306006500,10.284006591796874,0.1747073233127594,0.9390518665313721,-1.7218750715255737
1775728231324535300,10.302535400390624,-0.10873392969369888,0.6214022040367126,-1.7554726600646973
1775728231343064000,10.32106396484375,-0.4465421438217163,0.3165806829929352,-1.5538872480392456
1775728231361592800,10.3395927734375,-0.7373138070106506,0.06795870512723923,-1.4781399965286255
1775728231380121600,10.35812158203125,-0.8833104968070984,0.1107192412018776,-1.4579814672470093
1775728231398650000,10.376650146484375,-0.8717040419578552,0.29886558651924133,-1.4225513935089111
1775728231417179000,10.395178955078125,-0.7904590368270874,0.4705185890197754,-1.4030036926269531
1775728231435707600,10.413707763671875,-0.6731730103492737,0.6134609580039978,-1.3211477994918823
1775728231454236400,10.432236328125,-0.5522217750549316,0.7344121932983398,-1.2832741737365723
1775728231472765000,10.450764892578125,-0.43310311436653137,0.7179188132286072,-1.2704460620880127
1775728231491293700,10.469293701171875,-0.3066541254520416,0.512668251991272,-1.2075269222259521
1775728231509822500,10.487822509765625,-0.24495677649974823,0.26221370697021484,-1.1152863502502441
1775728231528351200,10.506351318359375,-0.2162461280822754,0.08323032408952713,-1.0328196287155151
1775728231546879700,10.524879638671875,-0.185092031955719,0.03436114266514778,-0.9253074526786804
1775728231565408500,10.543408447265625,-0.10506874322891235,-0.11774418503046036,-0.772591233253479
1775728231583937300,10.561937255859375,0.05497783049941063,-0.16661337018013,-0.7793107628822327
1775728231602466000,10.580466064453125,0.06108647957444191,-0.08048143237829208,-0.8904881477355957
1775728231620994600,10.59899462890625,-0.07391463965177536,-0.18432845175266266,-0.8306233882904053
1775728231639523300,10.6175234375,-0.2724456787109375,-0.41157013177871704,-0.7389936447143555
1775728231658052000,10.636052001953125,-0.3640754222869873,-0.69012451171875,-0.5905535221099854
1775728231676580900,10.654580810546875,-0.34086254239082336,-0.577725350856781,-0.31871870160102844
1775728231695109400,10.673109375,-0.3042106628417969,-0.16600249707698822,-0.1366809904575348
1775728231713638100,10.69163818359375,-0.12461641430854797,0.17791436612606049,-0.16966769099235535
1775728231732167000,10.7101669921875,0.0873536616563797,0.44241881370544434,-0.19532401859760284
1775728231750695700,10.72869580078125,0.1539379209280014,0.6549997329711914,-0.0743727833032608
1775728231769224200,10.74722412109375,0.10079269111156464,0.827874481678009,0.141262486577034
1775728231787753000,10.7657529296875,-0.14172062277793884,0.8217658400535583,0.32757624983787537
1775728231806281700,10.78428173828125,-0.3078758418560028,0.33368489146232605,0.4454731345176697
1775728231824810500,10.802810546875,-0.258395791053772,-0.4738783538341522,0.7796161770820618
1775728231843339000,10.821339111328125,-0.024434590712189674,-1.333975911140442,1.3025164604187012
1775728231861867800,10.83986767578125,0.22296564280986786,-1.8104504346847534,1.7667737007141113
1775728231880396500,10.858396484375,0.31154105067253113,-1.6858340501785278,2.0263912677764893
1775728231898925000,10.876925048828125,0.30115634202957153,-1.1030690670013428,2.4930918216705322
1775728231917453800,10.895453857421876,0.3958403766155243,-0.031001387163996696,3.3495242595672607
1775728231935982600,10.913982666015626,0.7990111112594604,0.3917170464992523,3.727038621902466
1775728231954511400,10.932511474609376,0.9364557266235352,0.5884155035018921,3.260948896408081
1775728231973039900,10.951039794921876,0.943786084651947,0.4967857897281647,2.7893612384796143
1775728231991568600,10.969568603515626,1.0677915811538696,0.16386447846889496,2.5554001331329346
1775728232010097400,10.988097412109376,1.3665045499801636,-0.7713695168495178,2.296393394470215
1775728232028626000,11.0066259765625,1.535714030265808,-2.1690280437469482,1.8785618543624878
1775728232047154700,11.02515478515625,1.064737319946289,-3.0883796215057373,1.676365613937378
1775728232065683500,11.043683349609376,0.430659681558609,-3.0724971294403076,1.983630657196045
1775728232084212200,11.062212158203126,-0.20280711352825165,-2.445138931274414,2.4943137168884277
1775728232102740700,11.08074072265625,-0.3952295184135437,-1.6394083499908447,2.614654064178467
1775728232121269500,11.09926953125,-0.1747073233127594,-1.1348340511322021,2.3519821166992188
1775728232139798300,11.11779833984375,0.09529490768909454,-0.8794925808906555,1.9500330686569214
1775728232158327000,11.1363271484375,0.07086031138896942,-0.6155989766120911,1.5083779096603394
1775728232176855600,11.15485546875,-0.09162971377372742,-0.27229297161102295,1.251814603805542
1775728232195384300,11.17338427734375,0.002443459117785096,-0.0951421856880188,1.058781385421753
1775728232213913000,11.1919130859375,0.2162461280822754,-0.15012001991271973,0.8590285778045654
1775728232232441600,11.210441650390624,0.32070401310920715,-0.145843967795372,0.5395463109016418
1775728232250970400,11.228970458984374,0.3084867000579834,-0.15256348252296448,0.13759729266166687
1775728232269499100,11.2474990234375,0.23518294095993042,-0.08781181275844574,-0.187382772564888
1775728232288028000,11.26602783203125,0.26389357447624207,0.03252854943275452,-0.5215258002281189
1775728232306556400,11.284556396484374,0.32070401310920715,0.11316270381212234,-1.0102176666259766
1775728232325085200,11.303085205078125,0.11117739230394363,0.9311106204986572,-1.4616466760635376
1775728232343613700,11.32161376953125,-0.12461641430854797,1.7967060804367065,-0.4653262495994568
1775728232362142500,11.340142578125,-0.22846342623233795,0.5914698243141174,0.6079631447792053
1775728232380671200,11.358671142578125,-1.2644901275634766,1.7307326793670654,-1.606421709060669
1775728232399200000,11.377199951171875,-1.4850122928619385,3.5187337398529053,-2.3730568885803223
1775728232417728500,11.395728515625,-0.6554579138755798,2.994611978530884,-1.8770347833633423
1775728232436257300,11.41425732421875,-0.5589412450790405,1.8596251010894775,-2.2148430347442627
1775728232454786000,11.4327861328125,-0.8368847370147705,1.7313435077667236,-1.8458806276321411
1775728232473314600,11.451314453125,-0.9114102721214294,1.8431317806243896,-1.6143629550933838
1775728232491843300,11.46984326171875,-0.6102539300918579,1.5077669620513916,-1.7456988096237183
1775728232510372000,11.4883720703125,-0.337808221578598,0.939662754535675,-1.8971933126449585
1775728232528900900,11.50690087890625,-0.26939135789871216,0.9610430002212524,-1.8849760293960571
1775728232547429400,11.525429443359375,-0.318871408700943,0.9127846956253052,-1.902691125869751
1775728232565958100,11.543958251953125,-0.37629270553588867,0.643393337726593,-1.8898628950119019
1775728232584487000,11.56248681640625,-0.3854556679725647,0.4943423271179199,-1.6259692907333374
1775728232603015400,11.581015380859375,-0.27550002932548523,0.19074252247810364,-1.4537054300308228
1775728232621544200,11.599544189453125,-0.32620179653167725,-0.0743727833032608,-1.3480257987976074
1775728232640073000,11.618072998046875,-0.5308414697647095,-0.031001387163996696,-1.1830923557281494
1775728232658601500,11.6366015625,-0.5057960152626038,0.1974620372056961,-1.0120502710342407
1775728232677130200,11.655130126953125,-0.3860665261745453,0.25732678174972534,-1.1488839387893677
1775728232695659000,11.673658935546875,-0.4147771894931793,0.36361727118492126,-1.3138173818588257
1775728232714187500,11.6921875,-0.4196641147136688,0.3459021747112274,-1.3975058794021606
1775728232732716300,11.71071630859375,-0.5271763205528259,0.3507890999317169,-1.4323252439498901
1775728232751245000,11.7292451171875,-0.5827649831771851,0.3837758004665375,-1.264337420463562
1775728232769773800,11.74777392578125,-0.5693259835243225,0.43753188848495483,-1.0279327630996704
1775728232788302300,11.76630224609375,-0.4886918365955353,0.49800750613212585,-0.9686788320541382
1775728232806831000,11.7848310546875,-0.4172206521034241,0.5694786906242371,-0.9399681687355042
1775728232825360000,11.80335986328125,-0.3274235129356384,0.4760163724422455,-0.9063706398010254
1775728232843888400,11.821888427734375,0.023823726922273636,0.1455385386943817,-0.826958179473877
1775728232862417200,11.840417236328125,0.25534147024154663,-0.2338084876537323,-0.7225003242492676
1775728232880946000,11.85894580078125,0.1997527778148651,-0.3364337682723999,-0.6082686185836792
1775728232899474400,11.877474365234375,0.001832594396546483,-0.35048365592956543,-0.42745262384414673
1775728232918003200,11.896003173828126,-0.26878049969673157,-0.310166597366333,-0.22159120440483093
1775728232936532000,11.914531982421876,-0.40255987644195557,-0.3871355652809143,-0.12446369975805283
1775728232955060500,11.933060546875,-0.4251618981361389,-0.18982623517513275,-0.1776089370250702
1775728232973589200,11.95158935546875,-0.3439168632030487,0.14737112820148468,-0.2075413018465042
1775728232992117800,11.97011767578125,-0.13255766034126282,0.5346593856811523,-0.1971566081047058
1775728233010646500,11.988646484375,0.0054977829568088055,1.0093013048171997,-0.1879936307668686
1775728233029175300,12.00717529296875,-0.04520399495959282,1.162017583847046,-0.3058905303478241
1775728233047704000,12.0257041015625,-0.14172062277793884,0.9048434495925903,-0.34498587250709534
1775728233066232600,12.044232666015626,-0.1747073233127594,0.6305651664733887,0.03741546720266342
1775728233084761300,12.06276123046875,-0.34147340059280396,0.4815141558647156,0.43203410506248474
1775728233103290000,12.0812900390625,-0.4764745235443115,0.1259908676147461,0.5542070865631104
1775728233121818600,12.099818603515626,-0.44409868121147156,-0.3889681398868561,0.790000855922699
1775728233140347400,12.118347412109374,-0.26511532068252563,-0.7426588535308838,1.08810293674469
1775728233158876200,12.136876220703124,-0.04459312930703163,-0.985783040523529,1.23348867893219
1775728233177404700,12.15540478515625,0.16737695038318634,-1.1953096389770508,1.2512037754058838
1775728233195933400,12.173933349609374,0.14049890637397766,-0.893542468547821,1.3691006898880005
1775728233214462200,12.192462158203124,0.06108647957444191,0.19013166427612305,1.606727123260498
1775728233232990700,12.21099072265625,0.27488914132118225,1.215162754058838,2.1980443000793457
1775728233260783900,12.238783935546875,0.952949047088623,1.2340996265411377,2.7343835830688477
1775728233279312400,12.2573125,0.9920443892478943,0.4399753510951996,2.3067781925201416
1775728233297841200,12.275841064453125,0.9547816514968872,-1.2802199125289917,1.9885175228118896
1775728233316370000,12.294369873046875,0.7202095985412598,-2.6393940448760986,1.686139464378357
1775728233334898400,12.3128984375,0.3842339515686035,-3.0327908992767334,1.3147337436676025
1775728233353427200,12.33142724609375,0.09590577334165573,-2.4078762531280518,0.7918334603309631
1775728233371956000,12.3499560546875,-0.053145237267017365,-1.2887719869613647,0.4021017551422119
1775728233390484500,12.368484375,0.01893680728971958,-0.2228129357099533,0.7753401398658752
1775728233409013200,12.38701318359375,0.01893680728971958,0.28176137804985046,1.4155263900756836
1775728233427542000,12.4055419921875,-0.027488915249705315,0.14920371770858765,1.5004366636276245
1775728233446070500,12.424070556640626,-0.1533270627260208,0.023365577682852745,1.0728312730789185
1775728233464599300,12.442599365234376,-0.24373504519462585,0.039858926087617874,0.6959276795387268
1775728233483128000,12.461128173828126,-0.06108647957444191,0.18035782873630524,0.5584831237792969
1775728233501656600,12.479656494140626,0.13439024984836578,0.47296205163002014,0.3733910918235779
1775728233520185300,12.498185302734376,0.2205221801996231,0.8119919896125793,0.05940660089254379
1775728233538714000,12.516714111328126,0.2009745091199875,1.0074687004089355,-0.20448698103427887
1775728233557242600,12.53524267578125,0.1178968995809555,0.9555452466011047,-0.2887863218784332
1775728233575771400,12.553771484375,0.04581485688686371,0.6678279042243958,-0.2631300091743469
1775728233594300200,12.572300048828126,0.03848448023200035,0.439364492893219,-0.2637408673763275
1775728233612828700,12.59082861328125,-0.050090912729501724,0.3422369956970215,-0.2845102846622467
1775728233631357400,12.609357421875,-0.2522871494293213,0.4637990891933441,-0.26251915097236633
1775728233649886000,12.627885986328126,-0.430659681558609,0.7289143800735474,-0.29184064269065857
1775728233668414700,12.646414794921874,-0.48502662777900696,0.9335541129112244,-0.36880961060523987
1775728233686943500,12.664943603515624,-0.49052441120147705,1.114980936050415,-0.31261005997657776
1775728233705472000,12.683471923828124,-0.5131264328956604,1.3654354810714722,-0.022449281066656113
1775728233724000800,12.702000732421874,-0.545502245426178,1.5645774602890015,0.1931859850883484
1775728233742529500,12.720529541015624,-0.4825831651687622,1.7282891273498535,0.3678933084011078
1775728233761058000,12.73905810546875,-0.3897317349910736,2.151007652282715,0.4088212549686432
1775728233779586800,12.7575869140625,-0.277332603931427,1.9982913732528687,-0.14767655730247498
1775728233798115600,12.776115478515624,-0.21380266547203064,2.0581562519073486,-0.26740604639053345
1775728233816644000,12.79464404296875,-0.056810423731803894,2.170555353164673,-0.0591011680662632
1775728233835172900,12.8131728515625,0.1899789422750473,1.113759160041809,-0.10430516302585602
1775728233853701600,12.83170166015625,0.05192350596189499,-0.1623373180627823,-0.559399425983429
1775728233872230100,12.850230224609374,-0.4819723069667816,-0.22525638341903687,-0.5807796716690063
1775728233890759000,12.868759033203125,-0.6695078015327454,0.4656316637992859,-0.07559451460838318
1775728233909287700,12.88728759765625,-0.5723803043365479,0.8419243693351746,0.3825540542602539
1775728233927816200,12.905816162109375,-0.43982264399528503,1.075885534286499,0.3727802336215973
1775728233946345000,12.924344970703125,-0.6487383842468262,1.5334233045578003,-0.02306014485657215
1775728233964873700,12.942873779296875,-0.7690787315368652,1.708741545677185,-0.2753472924232483
1775728233983402200,12.96140234375,-0.7141009569168091,1.6830852031707764,-0.12690715491771698
1775728234001931000,12.979930908203125,-0.6701186895370483,1.714239239692688,0.2689332067966461
1775728234020459500,12.99845947265625,-0.8112284541130066,1.9201006889343262,0.5352702736854553
1775728234038988300,13.01698828125,-0.7159335017204285,1.97568941116333,0.5798633694648743
1775728234057517000,13.03551708984375,-0.5815432667732239,2.122907876968384,0.4699077308177948
1775728234076045600,13.054045654296875,-0.5729911923408508,2.316551923751831,0.3092502951622009
1775728234094574300,13.07257421875,-0.6224712133407593,2.43689227104187,0.43569931387901306
1775728234113103000,13.09110302734375,-0.6676751971244812,2.4216206073760986,0.7539598345756531
1775728234131631600,13.109631591796875,-0.7037162184715271,2.3898556232452393,0.9042325615882874
1775728234150160400,13.128160400390625,-0.7165443897247314,2.578613042831421,0.8272636532783508
1775728234168689200,13.146689208984375,-0.5723803043365479,2.9023711681365967,0.7832813858985901
1775728234187217700,13.1652177734375,-0.34147340059280396,2.791804790496826,0.8486438989639282
1775728234205746400,13.183746337890625,-0.27855435013771057,2.6054909229278564,1.1003202199935913
1775728234224275000,13.20227490234375,-0.36651885509490967,2.4484987258911133,1.5242602825164795
1775728234242803700,13.2208037109375,-0.47525280714035034,2.4521639347076416,1.8235840797424316
1775728234261332500,13.23933251953125,-0.5619956254959106,2.4203989505767822,1.8779510259628296
1775728234279861000,13.257861083984375,-0.5980366468429565,2.3758058547973633,1.568853497505188
1775728234298389800,13.2763896484375,-0.6768381595611572,2.19376802444458,1.085659384727478
1775728234316918500,13.29491845703125,-0.8344413042068481,1.985463261604309,0.8663589954376221
1775728234335447000,13.313447021484375,-0.9126319885253906,1.6745331287384033,0.984866738319397
1775728234353975800,13.331975830078125,-0.9621120095252991,1.3770419359207153,1.177899956703186
1775728234372504300,13.35050439453125,-1.1313215494155884,1.1730130910873413,1.3342814445495605
1775728234391033000,13.369033203125,-1.2889246940612793,1.3684898614883423,1.447291374206543
1775728234409561900,13.387561767578125,-1.3194679021835327,1.7624976634979248,1.4876084327697754
1775728234428090400,13.40609033203125,-1.3072506189346313,1.9701915979385376,1.338557481765747
1775728234446619100,13.424619140625,-1.3286309242248535,1.8144210577011108,1.0319033861160278
1775728234465148000,13.44314794921875,-1.4037672281265259,1.3428335189819336,0.939662754535675
1775728234483676400,13.461676513671875,-1.561981201171875,1.254258155822754,0.9072869420051575
1775728234502205200,13.480205078125,-1.7794491052627563,1.705687165260315,0.8290961980819702
1775728234520734000,13.49873388671875,-1.9327762126922607,2.4295618534088135,0.8987348079681396
1775728234539262500,13.517262451171876,-1.9743149280548096,3.3153159618377686,0.8993456959724426
1775728234557791200,13.535791259765626,-1.775783896446228,3.6842782497406006,0.6470585465431213
1775728234576320000,13.554320068359376,-1.4398082494735718,3.2255187034606934,0.3929387629032135
1775728234594848500,13.5728486328125,-1.1197150945663452,2.545015335083008,0.29275694489479065
1775728234613377300,13.591377197265626,-0.9095776677131653,2.3061673641204834,0.39049530029296875
1775728234631905800,13.60990576171875,-0.8643736839294434,2.344040870666504,0.6134609580039978
1775728234650434600,13.6284345703125,-0.8454368710517883,2.12107515335083,0.6110175251960754
1775728234668963300,13.64696337890625,-0.8381064534187317,1.6391029357910156,0.42042768001556396
1775728234687491800,13.665491943359376,-0.8075632452964783,1.3513855934143066,0.1931859850883484
1775728234706020600,13.6840205078125,-0.7898481488227844,1.4143047332763672,0.07528908550739288
1775728234724549400,13.70254931640625,-0.8075632452964783,1.6586506366729736,0.15409064292907715
1775728234743078000,13.721077880859376,-0.7012727856636047,1.623220443725586,0.30863943696022034
1775728234761606700,13.739606689453124,-0.526565432548523,1.5670208930969238,0.3000873327255249
1775728234780135400,13.758135498046874,-0.42821621894836426,1.6336051225662231,0.24999640882015228
1775728234798664000,13.776663818359374,-0.39217519760131836,1.6085597276687622,0.2756527364253998
1775728234817192700,13.795192626953124,-0.3225366175174713,1.4772237539291382,0.24144430458545685
1775728234835721500,13.813721435546874,-0.29565855860710144,1.5419753789901733,0.3098611533641815
1775728234854250000,13.83225,-0.1740964651107788,1.4625630378723145,0.4082103967666626
1775728234872778800,13.85077880859375,-0.06902772188186646,1.3037381172180176,0.3813323378562927
1775728234891307300,13.869307373046874,-0.09590577334165573,1.5896228551864624,0.45280352234840393
1775728234909836000,13.8878359375,-0.010995565913617611,1.6360485553741455,0.5542070865631104
1775728234928364800,13.90636474609375,0.14049890637397766,1.142469882965088,0.6482802629470825
1775728234946893300,13.924893310546874,0.21135921776294708,0.439364492893219,0.44730573892593384
1775728234965422000,13.943422119140624,0.0769689604640007,0.20357069373130798,-0.11896591633558273
1775728234983950800,13.961950927734375,-0.10384701192378998,0.32452189922332764,-0.27290382981300354
1775728235002479400,13.980479248046874,-0.21868959069252014,0.5743656158447266,-0.06826414167881012
1775728235021008100,13.999008056640625,-0.30543237924575806,0.9268345832824707,0.055741410702466965
1775728235039537000,14.017536865234375,-0.34574946761131287,1.2756383419036865,0.15592323243618011
1775728235058065400,14.0360654296875,-0.35674503445625305,1.4216350317001343,0.20540328323841095
1775728235076594200,14.05459423828125,-0.3017672002315521,1.282357931137085,0.18341214954853058
1775728235095123000,14.073123046875,-0.2315177470445633,1.1870629787445068,0.12476912885904312
1775728235113651500,14.0916513671875,-0.2632827162742615,1.2939642667770386,0.11804962158203125
1775728235132180200,14.11018017578125,-0.2522871494293213,1.3232858180999756,0.20906847715377808
1775728235150709000,14.128708984375,-0.08796452730894089,1.0581705570220947,0.10766492038965225
1775728235169237500,14.147237548828125,-0.0824667438864708,0.7136427760124207,-0.06765327602624893
1775728235187766300,14.165766357421875,-0.23884813487529755,0.7783944606781006,0.008093958720564842
1775728235206295000,14.184294921875,-0.4068359434604645,0.9060651659965515,0.2231183648109436
1775728235224823600,14.202823486328125,-0.4324922561645508,0.9091194868087769,0.2964221239089966
1775728235243352300,14.221352294921875,-0.3280344009399414,0.9066760540008545,0.21945317089557648
1775728235261880800,14.239880859375,-0.17715078592300415,0.8565851449966431,0.05146535858511925
1775728235280409600,14.25840966796875,-0.13988803327083588,0.6727148294448853,0.10216713696718216
1775728235298938400,14.2769384765625,-0.2052505612373352,0.5676460862159729,0.23777911067008972
1775728235317467000,14.295466796875,-0.22785256803035736,0.560315728187561,0.3104720115661621
1775728235335995600,14.31399560546875,-0.27550002932548523,0.6672170758247375,0.40515607595443726
1775728235354524400,14.3325244140625,-0.4214966893196106,0.9445496797561646,0.4692968726158142
1775728235373053000,14.351052978515625,-0.4453204274177551,0.921336829662323,0.47174033522605896
1775728235391581700,14.369581787109375,-0.33658650517463684,0.7142536640167236,0.3312414288520813
1775728235410110500,14.3881103515625,-0.3341430425643921,0.708145022392273,0.19990549981594086
1775728235428639000,14.406638916015625,-0.3182605504989624,0.698371171951294,0.27320927381515503
1775728235447167700,14.425167724609375,-0.2419024556875229,0.5493201613426208,0.26221370697021484
1775728235465696300,14.4436962890625,-0.22418737411499023,0.4967857897281647,0.2029598206281662
1775728235484225000,14.46222509765625,-0.3182605504989624,0.6311760544776917,0.16264274716377258
1775728235502753800,14.48075390625,-0.3139844834804535,0.7228057384490967,0.11438442766666412
1775728235521282300,14.4992822265625,-0.2510654330253601,0.5566505193710327,0.0539088174700737
1775728235539811000,14.51781103515625,-0.27000224590301514,0.45219266414642334,-0.005955931730568409
1775728235558339800,14.53633984375,-0.25961753726005554,0.39477136731147766,0.0154243353754282
1775728235576868400,14.554868408203125,-0.22235478460788727,0.33368489146232605,0.06368265300989151
1775728235595397000,14.573397216796875,-0.24984370172023773,0.38560840487480164,0.027030766010284424
1775728235613926000,14.59192578125,-0.32559093832969666,0.39477136731147766,-0.013286309316754341
1775728235632454400,14.610454345703126,-0.32070401310920715,0.2707658112049103,-0.03955349326133728
1775728235650983200,14.628983154296876,-0.2522871494293213,0.22067490220069885,0.005039634648710489
1775728235669512000,14.647511962890626,-0.2406807243824005,0.2133445292711258,0.025809036567807198
1775728235688040400,14.66604052734375,-0.22235478460788727,0.25182899832725525,0.05940660089254379
1775728235706569200,14.6845693359375,-0.22846342623233795,0.295811265707016,0.06123919412493706
1775728235725098000,14.703097900390626,-0.1588248461484909,0.24572035670280457,0.09972367435693741
1775728235743626500,14.72162646484375,-0.12034036219120026,0.26099199056625366,0.1253799945116043
1775728235762155300,14.7401552734375,-0.09590577334165573,0.2903134822845459,0.09728021919727325
1775728235780684000,14.75868408203125,-0.043371398001909256,0.19624030590057373,-0.005345067009329796
1775728235799212500,14.777212646484376,-0.03237583488225937,0.09911280870437622,-0.01206457894295454
1775728235817741300,14.7957412109375,-0.012217295356094837,0.017867794260382652,0.07223475724458694
1775728235836270000,14.81427001953125,0.007330377586185932,0.05696314200758934,0.11438442766666412
1775728235854798600,14.832798583984374,-0.03237583488225937,0.15836669504642487,0.049632761627435684
1775728235873327400,14.851327392578124,-0.05436696484684944,0.09544762223958969,-0.03649916872382164
1775728235891856000,14.86985595703125,0.023823726922273636,-0.0334448479115963,-0.15439607203006744
1775728235910384600,14.888384521484374,0.09590577334165573,-0.008399390615522861,-0.26190826296806335
1775728235928913400,14.906913330078124,0.06352993845939636,0.05635227635502815,-0.1672242283821106
1775728235947442000,14.92544189453125,-0.05558869615197182,0.006872228812426329,-0.043829549103975296
1775728235965970700,14.943970703125,-0.10079269111156464,-0.024281874299049377,0.03375028073787689
1775728235984499500,14.96249951171875,-0.09957095980644226,-0.04199695214629173,0.03130681812763214
1775728236003028000,14.981028076171874,-0.023212861269712448,-0.14278964698314667,0.006872228812426329
1775728236021556700,14.999556640625,-0.06719512492418289,-0.145843967795372,0.04046979174017906
1775728236040085500,15.01808544921875,-0.07269290834665298,-0.03711003437638283,0.12354740500450134
1775728236058614000,15.036614013671874,-0.025045456364750862,0.0642935186624527,0.11988221108913422
1775728236077142800,15.055142822265625,-0.053145237267017365,0.1314886510372162,0.005650499369949102
1775728236095671600,15.073671630859375,-0.01649334840476513,0.06856957077980042,-0.03405570983886719
1775728236114200000,15.092199951171875,0.01649334840476513,0.009926552884280682,0.019700389355421066
1775728236132728800,15.110728759765625,0.009162971749901772,0.008704823441803455,0.06307178735733032
1775728236151257300,15.12925732421875,-0.01649334840476513,-0.04627300798892975,0.027030766010284424
1775728236169786000,15.1477861328125,-0.0513126403093338,-0.06582067906856537,-0.040775224566459656
1775728236188315000,15.16631494140625,0.018325943499803543,-0.1415679156780243,-0.07254019379615784
1775728236206843400,15.184843505859375,0.036651886999607086,-0.12690715491771698,-0.06704241037368774
1775728236225372200,15.2033720703125,-0.013439024798572063,-0.017562363296747208,-0.0334448479115963
1775728236243901000,15.22190087890625,-0.0409279391169548,-0.0902552679181099,-0.29856017231941223
1775728236262429400,15.240429443359375,-0.027488915249705315,-0.19960007071495056,-0.39141160249710083
1775728236280958200,15.258958251953125,-0.05192350596189499,-0.11102467030286789,-0.23136503994464874
1775728236299486700,15.27748681640625,0.04214967042207718,-0.053603384643793106,0.0642935186624527
1775728236318015500,15.296015380859375,0.12278381735086441,-0.014508038759231567,0.22983787953853607
1775728236336544300,15.314544189453125,0.006108647678047419,0.023365577682852745,0.37033677101135254
1775728236355072800,15.33307275390625,-0.015271619893610477,-0.19410228729248047,0.3318522870540619
1775728236373601500,15.3516015625,0.09040798991918564,-0.24052800238132477,0.04474584385752678
1775728236392130000,15.370130126953125,0.037262752652168274,0.05451968312263489,0.007483093533664942
1775728236410658800,15.388658935546875,0,0.1663079410791397,0.023365577682852745
1775728236429187600,15.4071875,0.01893680728971958,0.10461059212684631,0.017256930470466614
1775728236447716000,15.425716064453125,-0.0665842592716217,0.10949750989675522,0.052076224237680435
1775728236466244900,15.444244873046875,-0.10934479534626007,0.0539088174700737,0.03191768378019333
1775728236484773600,15.462773681640625,-0.11972949653863907,0.07040216773748398,-0.0591011680662632
1775728236503302100,15.48130224609375,-0.08796452730894089,0.05757400393486023,-0.1256854236125946
1775728236521831000,15.499830810546875,-0.07574722915887833,0.0746782198548317,-0.05849030241370201
1775728236540359700,15.518359619140625,-0.0922405794262886,0.026419902220368385,-0.07376192510128021
1775728236558888200,15.53688818359375,-0.0720820426940918,-0.027336198836565018,-0.07559451460838318
1775728236577417000,15.5554169921875,-0.10079269111156464,-0.0487164668738842,-0.054214250296354294
1775728236595945700,15.57394580078125,-0.09285144507884979,-0.07131846249103546,-0.044440411031246185
1775728236614474200,15.59247412109375,-0.08552107214927673,-0.08048143237829208,-0.047494735568761826
1775728236633003000,15.6110029296875,-0.1337793916463852,-0.01695149764418602,-0.04505127668380737
1775728236651531500,15.629531494140625,-0.1545487940311432,-0.02916879393160343,-0.016340631991624832
1775728236670060300,15.648060302734375,-0.11423171311616898,-0.0694858655333519,0.06490438431501389
1775728236688589000,15.666589111328125,-0.08063415437936783,-0.13240493834018707,0.15775582194328308
1775728236707117600,15.68511767578125,-0.08613193035125732,-0.14217877388000488,0.2176205813884735
1775728236725646300,15.703646240234375,-0.09162971377372742,-0.09453132748603821,0.25121814012527466
1775728236744175000,15.722175048828126,-0.046425722539424896,-0.10613775253295898,0.2964221239089966
1775728236762703600,15.74070361328125,0.023823726922273636,-0.15439607203006744,0.3257436454296112
1775728236781232400,15.759232421875,0.05864302068948746,-0.26251915097236633,0.33490660786628723
1775728236799761000,15.777760986328126,0.08124501258134842,-0.3352120518684387,0.3477347791194916
1775728236818289700,15.79628955078125,0.13011419773101807,-0.32849252223968506,0.46135562658309937
1775728236836818400,15.814818359375,0.14721840620040894,-0.24541492760181427,0.6177369952201843
1775728236855347000,15.833346923828126,0.18570289015769958,-0.14401137828826904,0.7032580971717834
1775728236873875700,15.851875732421876,0.24006985127925873,-0.10797034949064255,0.6898190379142761
1775728236892404500,15.870404541015626,0.36285367608070374,-0.30833399295806885,0.9085086584091187
1775728236910933000,15.88893310546875,0.5632173418998718,-0.9320269227027893,1.3691006898880005
1775728236929461800,15.907461669921876,0.5021308660507202,-1.032208800315857,1.38192880153656
1775728236947990300,15.925990234375,0.47097674012184143,-0.6950113773345947,0.9769254922866821
1775728236966519000,15.94451904296875,0.5271763205528259,-0.4042397737503052,0.5487092733383179
1775728236985047800,15.9630478515625,0.6273581385612488,-0.2331976294517517,0.346513032913208
1775728237003576300,15.981576416015624,0.49663305282592773,-0.33399030566215515,0.17058399319648743
1775728237022105000,16.00010498046875,0.24006985127925873,-0.3681987524032593,-0.04627300798892975
1775728237040633600,16.018633544921876,0.13011419773101807,-0.2838993966579437,-0.18066325783729553
1775728237059162400,16.037162353515626,0.1740964651107788,-0.16600249707698822,-0.25152358412742615
1775728237077691100,16.055691162109376,0.2364046722650528,0.010537417605519295,-0.27168211340904236
1775728237096219600,16.0742197265625,0.28466299176216125,0.14798198640346527,-0.33276858925819397
1775728237114748400,16.09274853515625,0.337808221578598,0.2438877671957016,-0.5740602016448975
1775728237133277000,16.11127685546875,0.31642794609069824,0.191964253783226,-0.8825469017028809
1775728237151805700,16.1298056640625,0.26878049969673157,-0.030390523374080658,-0.9503529071807861
1775728237170334500,16.14833447265625,0.1844811588525772,-0.09147699922323227,-0.8434515595436096
1775728237188863000,16.166863037109376,0.1331685185432434,0.045967575162649155,-0.5789470672607422
1775728237207391700,16.185391845703126,0.16859868168830872,0.2084576040506363,-0.30344706773757935
1775728237225920300,16.203920166015624,0.28954991698265076,0.3727802336215973,-0.25152358412742615
1775728237244449000,16.222448974609375,0.2724456787109375,0.4137081801891327,-0.45310893654823303
1775728237262977800,16.240977783203125,0.185092031955719,0.3116937577724457,-0.5862774848937988
1775728237281506300,16.25950634765625,0.21197007596492767,0.1571449637413025,-0.2124282270669937
1775728237300035000,16.27803515625,0.21380266547203064,0.26099199056625366,0.3917170464992523
1775728237318563800,16.296563720703126,0.11056652665138245,0.4033234715461731,0.40088000893592834
1775728237337092400,16.31509228515625,-0.0360410213470459,0.6311760544776917,-0.20021092891693115
1775728237355621000,16.33362109375,-0.12400554865598679,0.9763146042823792,-0.7744238376617432
1775728237374149600,16.352149658203125,-0.011606430634856224,0.6140718460083008,-0.8049670457839966
1775728237392678400,16.370678466796875,0.026878049597144127,-0.47204574942588806,-0.42623090744018555
1775728237411207200,16.389207275390625,-0.16310089826583862,-0.9137009978294373,-0.015729768201708794
1775728237429735700,16.407735595703127,-0.19181154668331146,-1.0664172172546387,-0.2240346521139145
1775728237448264400,16.426264404296877,-0.0513126403093338,-1.1470513343811035,-0.5710058808326721
1775728237466793000,16.44479296875,-0.059864748269319534,-0.7982475757598877,-0.5813905596733093
1775728237485321700,16.46332177734375,-0.23457208275794983,-0.2124282270669937,-0.4231765866279602
1775728237503850500,16.4818505859375,-0.22846342623233795,0.2390008419752121,-0.21181736886501312
1775728237522379000,16.50037890625,-0.16249002516269684,0.4124864339828491,-0.23075416684150696
1775728237540907800,16.51890771484375,-0.2260199636220932,0.6201804876327515,-0.3620901107788086
1775728237559436300,16.537436279296877,-0.3029889166355133,0.7594576478004456,-0.3627009689807892
1775728237577965000,16.555965087890623,-0.2816086709499359,0.6372846961021423,-0.26679518818855286
1775728237596493600,16.57449365234375,-0.23212862014770508,0.407599538564682,-0.20631958544254303
1775728237615022300,16.593022216796875,-0.18264856934547424,0.3666715919971466,-0.13912445306777954
1775728237633550800,16.61155078125,-0.18753549456596375,0.3428478538990021,-0.16050471365451813
1775728237652079600,16.63007958984375,-0.20708316564559937,0.3361283540725708,-0.13912445306777954
1775728237670608400,16.6486083984375,-0.09896009415388107,0.21639885008335114,0.11438442766666412
1775728237689137000,16.667136962890623,0.043982263654470444,0.06001746281981468,0.32330018281936646
1775728237707665700,16.685665771484373,-0.017104214057326317,-0.11163553595542908,0.4124864339828491
1775728237726194200,16.704194091796875,-0.03176496922969818,-0.1721111536026001,0.36911505460739136
1775728237744723000,16.722722900390625,0.24373504519462585,-0.43722647428512573,0.7637336850166321
1775728237763251500,16.74125146484375,0.3750709891319275,-0.523969292640686,1.0905463695526123
1775728237781780200,16.7597802734375,0.27488914132118225,-0.5331322550773621,1.0062470436096191
1775728237800309000,16.77830908203125,0.258395791053772,-0.7481566667556763,0.8535308241844177
1775728237818837500,16.79683740234375,0.1948658674955368,-0.42073312401771545,0.7533490061759949
1775728237837366300,16.8153662109375,0.2571740746498108,-0.19043709337711334,0.9164499044418335
1775728237855894800,16.833894775390625,0.11911863088607788,-0.20021092891693115,0.8223767280578613
1775728237874423600,16.852423583984375,-0.1386663019657135,-0.2704603672027588,1.070387840270996
1775728237892952300,16.870952392578126,-0.42455101013183594,-0.3413206934928894,1.0483967065811157
1775728237911480800,16.889480712890624,-0.20952661335468292,-0.33765551447868347,1.4576760530471802
1775728237930009600,16.908009521484374,0.42821621894836426,-0.9228639602661133,1.327561855316162
1775728237948538000,16.9265380859375,0.5424479246139526,-1.0474803447723389,1.2579232454299927
1775728237967067000,16.94506689453125,0.15088360011577606,-1.0487021207809448,2.2585198879241943
1775728237985595400,16.963595458984376,-0.25045454502105713,-0.7432697415351868,2.6164865493774414
1775728238004124200,16.982124267578126,-0.021380268037319183,-0.23747368156909943,1.8486295938491821
1775728238022652700,17.000652587890624,0.7275399565696716,-0.5429060459136963,1.1870629787445068
1775728238041181400,17.019181396484374,1.0134246349334717,-0.9631810188293457,1.0209077596664429
1775728238059710000,17.0377099609375,0.7422007322311401,-1.0548107624053955,0.33918267488479614
1775728238078238700,17.05623876953125,0.5809323787689209,-0.7744238376617432,-0.03711003437638283
1775728238096767500,17.074767578125,0.44470956921577454,-0.39629852771759033,0.08872810751199722
1775728238115296000,17.0932958984375,-0.14172062277793884,0.31719154119491577,-0.07131846249103546
1775728238133824800,17.11182470703125,-0.7318159937858582,0.6030762791633606,-0.4384481906890869
1775728238152353300,17.130353271484374,-0.7672461867332458,0.5053378939628601,-1.1574360132217407
1775728238170882000,17.148882080078124,-0.337808221578598,0.1821904182434082,-1.9448407888412476
1775728238189410600,17.16741064453125,0.05864302068948746,0.11804962158203125,-2.2307255268096924
1775728238207939300,17.185939208984376,0.3585776388645172,0.407599538564682,-2.178802013397217
1775728238226468000,17.204468017578126,0.18264856934547424,0.7845031023025513,-2.0328052043914795
1775728238244996600,17.22299658203125,-0.3897317349910736,1.1363612413406372,-1.8379393815994263
1775728238263525400,17.241525390625,-0.8533781170845032,1.4466805458068848,-1.4078905582427979
1775728238282054000,17.260053955078124,-1.0146464109420776,1.661094069480896,-1.1275036334991455
1775728238300582700,17.278582763671874,-0.8216131329536438,1.9237658977508545,-1.3028218746185303
1775728238319111200,17.297111083984376,-0.5332849621772766,1.9842414855957031,-1.788459300994873
1775728238337640000,17.315639892578126,-0.38850998878479004,1.9433135986328125,-2.1354305744171143
1775728238356168400,17.33416845703125,-0.21685700118541718,1.7832670211791992,-1.8764238357543945
1775728238374697200,17.352697265625,0.03543015569448471,1.095433235168457,-1.2967132329940796
1775728238393225700,17.371225830078124,0.033597562462091446,0.304974228143692,-0.7402154207229614
1775728238411754500,17.38975439453125,-0.23335035145282745,0.03497200831770897,0.2341139316558838
1775728238430283000,17.408282958984376,-0.09651663154363632,-0.4402807950973511,0.7020363211631775
1775728238448811800,17.426811767578126,0.17531819641590118,-0.9613484740257263,-0.03588830679655075
1775728238467340300,17.44534033203125,0.5125155448913574,-1.5263984203338623,-1.1470513343811035
1775728238485869000,17.463869140625,0.481361448764801,-0.8165735006332397,-0.002290742937475443
1775728238504397600,17.4823974609375,0.43432486057281494,-0.5862774848937988,1.1100940704345703
1775728238522926300,17.50092626953125,0.42271843552589417,-0.7829759120941162,1.3880374431610107
1775728238541454800,17.519454833984376,0.6982184648513794,-1.0089958906173706,1.0099122524261475
1775728238559983600,17.537983642578126,0.7147117853164673,-0.97600919008255,-0.5031998753547668
1775728238578512400,17.556512451171876,0.33719736337661743,-0.4182896614074707,-0.8397863507270813
1775728238597041000,17.575041015625,0.001832594396546483,0.5083922147750854,0.20112723112106323
1775728238615569700,17.593569580078125,-0.2260199636220932,0.8358157277107239,0.356286883354187
1775728238634098200,17.61209814453125,-0.29993459582328796,0.5389354228973389,-0.3052796721458435
1775728238652627000,17.630626953125,-0.14110976457595825,0.1363755613565445,-0.4641045033931732
1775728238671155500,17.649155517578127,-0.2712239623069763,0.10461059212684631,-0.3468184769153595
1775728238689684200,17.667684326171877,-0.2620609998703003,-0.031001387163996696,-0.12018764764070511
1775728238708212700,17.686212646484375,-0.020158538594841957,-0.37064221501350403,0.29397866129875183
1775728238726741500,17.704741455078125,-0.13622283935546875,-0.30772313475608826,0.5206094980239868
1775728238745270000,17.72327001953125,-0.31459537148475647,0.08567378669977188,0.6727148294448853
1775728238763798800,17.741798828125,-0.23396120965480804,0.19562944769859314,0.5768090486526489
1775728238782327300,17.760327392578127,-0.17226386070251465,0.5548179149627686,0.46746426820755005
1775728238800856000,17.77885595703125,-0.09590577334165573,0.4796815812587738,0.6091849207878113
1775728238819384600,17.797384521484375,-0.07086031138896942,-0.005345067009329796,1.0135773420333862
1775728238837913300,17.815913330078125,-0.3042106628417969,-0.33337944746017456,1.315955400466919
1775728238856441900,17.83444189453125,-0.20708316564559937,-1.077412724494934,2.008676052093506
1775728238874970600,17.852970703125,-0.04825831577181816,-0.6253728270530701,1.5896228551864624
1775728238902763500,17.880763427734376,0.5497782826423645,-0.3168860971927643,2.5071418285369873
1775728238921292000,17.8992919921875,0.7440332770347595,-0.4298960864543915,2.643364667892456
1775728238939820800,17.91782080078125,0.4367683231830597,-0.12935061752796173,1.8920009136199951
1775728238958349300,17.936349365234374,0.4312705397605896,-0.1000291109085083,1.338557481765747
1775728238976878000,17.954878173828124,0.5864301919937134,-0.20204351842403412,1.096655011177063
1775728238995406600,17.973406494140626,0.6432406306266785,-0.360868364572525,0.7887791395187378
1775728239013935400,17.991935302734376,0.7226530313491821,-0.8410080671310425,0.2536616027355194
1775728239032464000,18.0104638671875,0.9071341753005981,-1.1372774839401245,-0.11774418503046036
1775728239050992600,18.02899267578125,0.9572250843048096,-0.8098539710044861,-0.21670427918434143
1775728239069521200,18.047521240234374,0.6811142563819885,-0.25152358412742615,-0.45066550374031067
1775728239088050000,18.0660498046875,0.024434590712189674,0.2328922003507614,-0.8862120509147644
1775728239106578400,18.084578369140626,-0.36163195967674255,0.22739441692829132,-1.3461933135986328
1775728239125107200,18.103107177734376,-0.27916520833969116,-0.18432845175266266,-1.723707675933838
1775728239143635700,18.1216357421875,-0.13439024984836578,-0.2845102846622467,-1.9252930879592896
1775728239162164500,18.14016455078125,-0.10018182545900345,-0.06765327602624893,-1.9381211996078491
1775728239180693000,18.15869287109375,-0.08491020649671555,0.19501857459545135,-1.8336633443832397
1775728239199221500,18.177221435546876,-0.1899789422750473,0.27320927381515503,-1.7475314140319824
1775728239217750300,18.195750244140626,-0.5137372612953186,0.531605064868927,-1.7768529653549194
1775728239236279000,18.214279052734376,-0.8374956250190735,0.7331904768943787,-1.7737985849380493
1775728239254807600,18.2328076171875,-0.8075632452964783,0.8523091077804565,-1.4995203018188477
1775728239273336300,18.25133642578125,-0.5155698657035828,1.0166317224502563,-1.2295180559158325
1775728239291864800,18.26986474609375,-0.21441353857517242,1.070387840270996,-1.1299470663070679
1775728239310393300,18.288393310546876,0.0769689604640007,0.9702059626579285,-1.093906044960022
1775728239328922000,18.306922119140626,0.268169641494751,0.4552469849586487,-1.126281976699829
1775728239347450600,18.32545068359375,0.5314523577690125,-0.7151699662208557,-1.310152292251587
1775728239365979400,18.3439794921875,0.5375609993934631,-0.9014837145805359,-0.046883873641490936
1775728239384508000,18.3625078125,0.5180133581161499,-0.3627009689807892,2.425285816192627
1775728239403036700,18.38103662109375,0.8344413042068481,-0.6168206930160522,2.1216859817504883
1775728239421565200,18.399565185546876,1.156977891921997,-1.6717841625213623,-0.3211621642112732
1775728239440094000,18.418093994140627,0.3139844834804535,-0.9430224895477295,-1.5752675533294678
1775728239458622500,18.43662255859375,0.17043127119541168,-0.7493783831596375,-1.7011057138442993
1775728239477151200,18.455151123046875,-0.02260199747979641,-0.2698495090007782,0.06368265300989151
1775728239495679700,18.4736796875,-0.34086254239082336,0.614682674407959,2.257297992706299
1775728239514208500,18.49220849609375,-0.5913171172142029,0.3862192630767822,1.1418589353561401
1775728239532737000,18.510737060546877,-0.49541133642196655,-0.3107774555683136,-0.3993528485298157
1775728239551265500,18.529265625,-0.35613417625427246,-0.29367324709892273,-1.2392919063568115
1775728239569794300,18.547794189453125,-0.21502439677715302,0.005039634648710489,-0.8031344413757324
1775728239588322800,18.56632275390625,-0.1637117564678192,0.3868301212787628,-0.1727220118045807
1775728239606851600,18.5848515625,-0.24006985127925873,0.3831649422645569,-0.053603384643793106
1775728239625380000,18.603380126953127,-0.5057960152626038,0.48701193928718567,-0.29672756791114807
1775728239643908900,18.621908935546877,-0.7043271064758301,0.8706350326538086,-0.5080868005752563
1775728239662437400,18.640437255859375,-0.535728394985199,0.9622647166252136,-0.18677189946174622
1775728239680966000,18.6589658203125,-0.2657261788845062,1.0221295356750488,0.37583455443382263
1775728239699494700,18.67749462890625,-0.23212862014770508,1.0978766679763794,0.5939132571220398
1775728239718023200,18.696023193359373,-0.1288924664258957,0.8700241446495056,0.5444332361221313
1775728239736552000,18.714552001953123,0.017715077847242355,0.4137081801891327,0.31780239939689636
1775728239755080400,18.73308056640625,-0.03237583488225937,0.5334376692771912,0.29764387011528015
1775728239773609200,18.751609130859375,-0.02626718580722809,0.6470585465431213,0.7185297012329102
1775728239792137700,18.7701376953125,0.20280711352825165,0.3819431960582733,1.2835795879364014
1775728239810666500,18.78866650390625,0.19608759880065918,-0.10613775253295898,1.089935541152954
1775728239829195000,18.807195068359373,0.007941242307424545,-0.4030180275440216,1.0025818347930908
1775728239847723500,18.8257236328125,0.004886918235570192,-0.6485856771469116,1.058781385421753
1775728239866252300,18.844252197265625,0.17348559200763702,-0.855057954788208,1.2707514762878418
1775728239884780800,18.86278076171875,0.25350889563560486,-1.133001446723938,1.9323179721832275
1775728239903309600,18.8813095703125,0.16859868168830872,-0.9546289443969727,2.04838228225708
1775728239921838000,18.899838134765623,-0.0409279391169548,-0.40973755717277527,2.255465507507324
1775728239940366600,18.91836669921875,-0.13744457066059113,-0.503810703754425,2.4246749877929688
1775728239958895400,18.936895263671875,-0.0030543238390237093,-0.4195113778114319,1.9005529880523682
1775728239977424000,18.955423828125,0.5955931544303894,-0.6626355648040771,1.320231556892395
1775728239995952600,18.97395263671875,1.135597586631775,-1.0102176666259766,0.8290961980819702
1775728240014481200,18.992481201171874,1.2510510683059692,-0.9375247359275818,0.3214675784111023
1775728240033010000,19.011010009765624,0.8368847370147705,-0.4195113778114319,-0.1721111536026001
1775728240051538400,19.029538330078125,0.28466299176216125,-0.08903354406356812,-0.4341721534729004
1775728240070067000,19.04806689453125,-0.12095122784376144,0.20967933535575867,-0.5374082922935486
1775728240088595700,19.066595703125,-0.21258094906806946,0.3526217043399811,-0.7011200785636902
1775728240107124200,19.085124267578124,-0.11728604137897491,0.22189663350582123,-0.97600919008255
1775728240125653000,19.103653076171874,-0.037262752652168274,0.017867794260382652,-1.4427099227905273
1775728240144181500,19.122181396484375,0.017104214057326317,-0.08842267841100693,-1.872147798538208
1775728240162710000,19.1407099609375,0.0360410213470459,0.08139773458242416,-2.0767874717712402
1775728240181238800,19.15923876953125,-0.039706211537122726,0.233503058552742,-2.1134393215179443
1775728240199767300,19.177767333984374,-0.34574946761131287,0.25610506534576416,-2.0664029121398926
1775728240218296000,19.196296142578124,-0.6365211009979248,0.3935496211051941,-1.9344559907913208
1775728240236824600,19.214824462890626,-0.749531090259552,0.5816959738731384,-1.7371467351913452
1775728240255353000,19.23335302734375,-0.516791582107544,0.5719221234321594,-1.3865103721618652
1775728240273881900,19.2518818359375,-0.2260199636220932,0.8767436742782593,-1.0963495969772339
1775728240292410400,19.270410400390624,-0.08124501258134842,1.4332414865493774,-1.1452187299728394
1775728240310939100,19.288939208984374,-0.034208428114652634,1.939037561416626,-1.1213949918746948
1775728240329467600,19.307467529296876,0.05253437161445618,1.5389211177825928,-0.8898772597312927
1775728240347996400,19.325996337890626,0.26450446248054504,0.1663079410791397,-0.6003273725509644
1775728240366525000,19.34452490234375,0.19669845700263977,-0.5331322550773621,0.6910407543182373
1775728240385053400,19.363053466796874,0.11911863088607788,-0.5655080676078796,1.9579743146896362
1775728240403582200,19.381582275390624,0.1130099818110466,-0.8342885971069336,1.1357502937316895
1775728240422110700,19.40011083984375,0.22357651591300964,-1.345582365989685,-0.31383177638053894
1775728240440639500,19.418639404296876,0.2632827162742615,-0.7041743993759155,-0.6815723776817322
1775728240459168000,19.43716796875,0.36163195967674255,-0.05543597787618637,-1.2783873081207275
1775728240477696500,19.455696533203124,0.6023126840591431,-0.3248273432254791,0.22434009611606598
1775728240496225300,19.474225341796874,0.37629270553588867,-0.08903354406356812,1.623220443725586
1775728240514753800,19.49275390625,-0.21441353857517242,0.4045451879501343,0.6824886798858643
1775728240533282600,19.511282470703126,-0.32559093832969666,0.11133010685443878,-0.5367974042892456
1775728240551811000,19.52981103515625,-0.10201441496610641,-0.3040579557418823,-1.032208800315857
1775728240570339600,19.548339599609374,-0.2522871494293213,-0.064598947763443,-0.689513623714447
1775728240588868400,19.566868408203124,-0.516791582107544,0.37949973344802856,-0.040775224566459656
1775728240607396900,19.58539697265625,-0.5632173418998718,0.6378955245018005,0.05146535858511925
1775728240625925600,19.603925537109376,-0.5595521330833435,0.8431460857391357,-0.14034618437290192
1775728240644454100,19.6224541015625,-0.4404335021972656,0.8504765033721924,-0.03711003437638283
1775728240662983000,19.64098291015625,-0.11056652665138245,0.6818777918815613,0.20173808932304382
1775728240690775800,19.66877587890625,0.23762640357017517,0.4021017551422119,0.3306305706501007
1775728240709304300,19.68730419921875,0.37751442193984985,0.07712167501449585,0.5853611826896667
1775728240727833000,19.7058330078125,0.34697118401527405,-0.0487164668738842,0.662330150604248
1775728240746361600,19.724361572265625,0.12461641430854797,0.016646064817905426,0.5535961985588074
1775728240764890000,19.74289013671875,0.1844811588525772,-0.16539163887500763,0.8413135409355164
1775728240783419000,19.7614189453125,0.205861434340477,-0.47265663743019104,0.7118101716041565
1775728240801947400,19.779947509765623,0.1692095398902893,-0.2503018379211426,0.6159043908119202
1775728240820476200,19.79847607421875,0.25534147024154663,0.0013744457392022014,1.0661118030548096
1775728240839004700,19.817004638671875,0.19792018830776215,0.14798198640346527,1.1302525997161865
1775728240857533200,19.835533203125,0.22968515753746033,-0.11224640160799026,1.417969822883606
1775728240876062000,19.85406201171875,0.389120876789093,-0.9735657572746277,1.782656192779541
1775728240894590500,19.872590576171874,0.03909534588456154,-0.754265308380127,1.3477203845977783
1775728240913119200,19.891119140625,-0.20158538222312927,-0.20570871233940125,1.7478368282318115
1775728240931647700,19.909647705078125,-0.007941242307424545,-0.3920224606990814,2.0966405868530273
1775728240950176300,19.92817626953125,0.26450446248054504,-0.5294670462608337,1.4796671867370605
1775728240968705000,19.946705078125,0.41416633129119873,-0.6351466774940491,0.6611084342002869
1775728240987233800,19.96523388671875,0.8686497211456299,-1.2655590772628784,0.3678933084011078
1775728241005762300,19.98376220703125,1.3732240200042725,-1.7591378688812256,0.03130681812763214
1775728241024290800,20.002290771484375,1.351232886314392,-1.566104531288147,-0.19349141418933868
1775728241042819600,20.020819580078125,0.7012727856636047,-0.7970257997512817,-0.40546149015426636
1775728241061348000,20.03934814453125,-0.1026252806186676,0.06246092543005943,-0.7371610999107361
1775728241079876900,20.057876953125,-0.471587598323822,0.5291616320610046,-1.0829105377197266
1775728241098405400,20.0764052734375,-0.3249800503253937,0.5193877816200256,-1.5343396663665771
1775728241116934000,20.094933837890625,0.04459312930703163,0.12171480804681778,-1.9240713119506836
1775728241135462700,20.113462646484376,0.29443681240081787,-0.021227551624178886,-2.145815372467041
1775728241153991200,20.1319912109375,0.20952661335468292,0.012370011769235134,-2.2930335998535156
1775728241172520000,20.15052001953125,-0.03176496922969818,-0.10430516302585602,-2.459188938140869
1775728241191048400,20.16904833984375,-0.2571740746498108,-0.3217730224132538,-2.5911357402801514
1775728241209577200,20.1875771484375,-0.35124725103378296,-0.3315468728542328,-2.417039155960083
1775728241228105700,20.206105712890626,-0.19181154668331146,-0.19043709337711334,-1.836106777191162
1775728241246634200,20.22463427734375,0.01893680728971958,0.18402300775051117,-1.001665472984314
1775728241265163000,20.2431630859375,0.09957095980644226,0.672104001045227,-0.3828594982624054
1775728241283691500,20.26169140625,-0.205861434340477,1.262810230255127,-0.3254382014274597
1775728241302220300,20.28022021484375,-0.3329212963581085,1.215773582458496,-0.6143772602081299
1775728241320748800,20.298748779296876,-0.08124501258134842,0.27259841561317444,-0.781143307685852
1775728241339277600,20.317277587890626,-0.006108647678047419,-0.5367974042892456,0.18952079117298126
1775728241357806000,20.33580615234375,-0.0616973415017128,0.05818486958742142,1.5431971549987793
1775728241376334600,20.35433447265625,0.11667517572641373,0.0899498388171196,1.1650718450546265
1775728241394863400,20.37286328125,0.1533270627260208,-0.10797034949064255,-0.9894482493400574
1775728241413392000,20.391391845703126,-0.25350889563560486,0.20479241013526917,-0.2582430839538574
1775728241431920600,20.409920654296876,0.04886918142437935,0.4027126133441925,1.9530874490737915
1775728241450449200,20.42844921875,0.36835145950317383,0.3819431960582733,1.9683589935302734
1775728241468978000,20.44697802734375,0.5106829404830933,0.16569706797599792,0.36483898758888245
1775728241487506400,20.46550634765625,0.22724169492721558,0.5047270059585571,-1.1348340511322021
1775728241506035200,20.48403515625,0.02260199747979641,0.7087558507919312,-1.014493703842163
1775728241524563700,20.502563720703126,-0.2315177470445633,0.8211549520492554,0.06123919412493706
1775728241543092500,20.521092529296876,-0.3946186602115631,0.7179188132286072,0.5926915407180786
1775728241570885400,20.548885498046875,-0.3078758418560028,-0.06887500733137131,-0.003512472379952669
1775728241589414000,20.567413818359373,-0.2608392536640167,-0.27779075503349304,-0.14462223649024963
1775728241607942700,20.585942626953123,-0.14599667489528656,-0.09697478264570236,-0.13729186356067657
1775728241626471200,20.60447119140625,0.11239911615848541,-0.16966769099235535,0.10644318908452988
1775728241645000000,20.623,0.10567960888147354,-0.19349141418933868,0.3068068325519562
1775728241663528400,20.641528564453125,-0.07330377399921417,-0.18493930995464325,0.6006327867507935
1775728241682057200,20.66005712890625,-0.16615521907806396,-0.4243983030319214,0.9054543375968933
1775728241700585700,20.678585693359373,-0.34208428859710693,-0.4237874448299408,0.43203410506248474
1775728241719114200,20.6971142578125,-0.28954991698265076,-0.6491965651512146,0.22434009611606598
1775728241737643000,20.71564306640625,-0.21807873249053955,-0.5954404473304749,0.36422812938690186
1775728241756171500,20.734171630859375,-0.16187916696071625,-0.07192932814359665,1.113759160041809
1775728241774700300,20.7527001953125,-0.056810423731803894,-0.11774418503046036,2.3770275115966797
1775728241793228800,20.771228759765624,0.018325943499803543,-0.24724751710891724,2.1216859817504883
1775728241811757600,20.789757568359374,0.06352993845939636,-0.6119337677955627,1.9995131492614746
1775728241830286000,20.8082861328125,0.1496618688106537,-0.8801034092903137,2.078314781188965
1775728241848814800,20.82681494140625,0.10323614627122879,-0.21914774179458618,1.976911187171936
1775728241867343400,20.84534326171875,0.08613193035125732,0.1510363221168518,2.0135629177093506
1775728241885872000,20.8638720703125,0.17898337543010712,-0.04810560122132301,1.6256638765335083
1775728241904400600,20.882400634765624,0.6890554428100586,-0.4647153913974762,0.9366084337234497
1775728241922929400,20.900929443359374,1.1893537044525146,-0.9137009978294373,0.5725330114364624
1775728241941458000,20.9194580078125,1.2522728443145752,-0.9430224895477295,0.35506516695022583
1775728241959986700,20.937986572265626,1.1753038167953491,-0.35964664816856384,-0.009621120058000088
1775728241978515200,20.95651513671875,0.8216131329536438,0.35506516695022583,-0.45310893654823303
1775728241997044000,20.9750439453125,0.2968802750110626,0.7014254927635193,-0.9375247359275818
1775728242015572500,20.993572509765624,-0.06475166976451874,0.7313578724861145,-1.3388628959655762
1775728242034101200,21.012101318359374,-0.037262752652168274,0.5853611826896667,-1.613752007484436
1775728242052629800,21.030629638671876,0.16554436087608337,0.3410152494907379,-1.7841832637786865
1775728242071158500,21.049158447265626,0.2981020212173462,0.23961171507835388,-1.7670791149139404
1775728242089687000,21.06768701171875,0.31520622968673706,0.32940882444381714,-1.696218729019165
1775728242108215800,21.0862158203125,0.17226386070251465,0.3819431960582733,-1.7218750715255737
1775728242126744300,21.104744384765624,-0.13988803327083588,0.026419902220368385,-1.8672609329223633
1775728242145273000,21.123273193359374,-0.5522217750549316,-0.14340050518512726,-1.974162220954895
1775728242163801600,21.141801513671876,-0.8784235715866089,0.0539088174700737,-1.772576928138733
1775728242182330400,21.160330322265626,-0.7898481488227844,0.5438223481178284,-1.2783873081207275
1775728242200859000,21.17885888671875,-0.7006618976593018,1.2957968711853027,-1.0841323137283325
1775728242219387600,21.1973876953125,-0.43493571877479553,1.7038545608520508,-1.1391100883483887
1775728242237916200,21.215916259765624,0.11178825795650482,1.4595086574554443,-0.9980003237724304
1775728242256445000,21.23444482421875,0.5009090900421143,0.4503600597381592,-0.6748528480529785
1775728242274973400,21.252973388671876,0.44898560643196106,-0.20998476445674896,0.7142536640167236
1775728242293502200,21.271502197265626,0.2412915825843811,-0.1562286615371704,1.6904155015945435
1775728242312030700,21.29003076171875,0.046425722539424896,-0.44089165329933167,0.8590285778045654
1775728242330559500,21.3085595703125,0.3530798554420471,-1.5447243452072144,-1.0829105377197266
1775728242349088000,21.327087890625,0.33536475896835327,-1.5099049806594849,-0.8526145219802856
1775728242367616800,21.34561669921875,0.16798780858516693,-1.0627520084381104,-0.08659008145332336
1775728242386145300,21.364145263671876,-0.10995566099882126,-0.32788166403770447,0.5193877816200256
1775728242404674000,21.382674072265626,-0.08124501258134842,-0.1000291109085083,0.8150463104248047
1775728242423202600,21.40120263671875,-0.03298669680953026,-0.10797034949064255,0.44730573892593384
1775728242441731300,21.4197314453125,0.06719512492418289,-0.23441936075687408,-0.2704603672027588
1775728242460259800,21.438259765625,0.08429934084415436,-0.5074759125709534,-0.6656898856163025
1775728242478788600,21.45678857421875,0.07330377399921417,-0.5099193453788757,-0.26740604639053345
1775728242497317000,21.475317138671876,-0.21868959069252014,0.01359174121171236,0.02825249545276165
1775728242515846000,21.493845947265626,-0.5497782826423645,0.6116283535957336,0.10277800261974335
1775728242534374400,21.51237451171875,-0.6359102129936218,0.7429642677307129,0.31719154119491577
1775728242552903200,21.530903076171874,-0.5100721120834351,0.6214022040367126,0.5939132571220398
1775728242571431700,21.549431640625,-0.17348559200763702,0.16081015765666962,1.0447314977645874
1775728242589960400,21.56796044921875,0.11972949653863907,-0.20693044364452362,0.9885319471359253
1775728242608489200,21.5864892578125,0.06841685622930527,-0.258853942155838,0.2597702443599701
1775728242627017700,21.605017822265626,-0.09040798991918564,-0.495258629322052,0.31291547417640686
1775728242645546500,21.62354638671875,-0.4416552484035492,0.21700970828533173,0.9579886794090271
1775728242664075000,21.642074951171875,-0.6200277805328369,0.3355174660682678,2.2023203372955322
1775728242682603800,21.660603759765625,-0.4251618981361389,-0.29856017231941223,2.5749478340148926
1775728242701132300,21.67913232421875,-0.19914191961288452,-0.4799869954586029,1.6366595029830933
1775728242719661000,21.6976611328125,-0.03787361457943916,-0.28817546367645264,0.9909753799438477
1775728242738189600,21.716189453125,-0.2467893660068512,0.4387536346912384,2.223700523376465
1775728242756718300,21.73471826171875,-0.6652317643165588,0.8584177494049072,2.9524621963500977
1775728242775246800,21.753246826171875,-0.536339282989502,0.5303833484649658,1.6592614650726318
1775728242793775600,21.771775634765625,0.48075059056282043,0.14737112820148468,0.8675807118415833
1775728242812304100,21.79030419921875,1.2253947257995605,-0.6009382009506226,0.7063124179840088
1775728242830833000,21.8088330078125,1.5687007904052734,-0.7738129496574402,0.3733910918235779
1775728242849361700,21.827361572265627,1.6841541528701782,-0.5826122760772705,-0.1721111536026001
1775728242867890200,21.84589013671875,1.4862339496612549,-0.12018764764070511,-0.5282453298568726
1775728242886419000,21.8644189453125,0.915075421333313,0.41554075479507446,-0.6754637360572815
1775728242904947500,21.882947509765625,0.30543237924575806,0.8290961980819702,-0.7579304575920105
1775728242923476200,21.901476318359375,-0.049480047076940536,0.9231693744659424,-0.9411898851394653
1775728242942004700,21.920004638671877,-0.07024945318698883,0.490677148103714,-1.2625048160552979
1775728242960533500,21.938533447265623,-0.01954767294228077,-0.05543597787618637,-1.5587742328643799
1775728242979062300,21.957062255859373,-0.11545344442129135,-0.2942841053009033,-1.8318307399749756
1775728242997590800,21.9755908203125,-0.40255987644195557,-0.44089165329933167,-2.00104022026062
1775728243016119600,21.99411962890625,-0.7269290685653687,-0.5545125007629395,-1.9161300659179688
1775728243034648000,22.01264794921875,-0.9480621218681335,-0.3920224606990814,-1.6106977462768555
1775728243053176800,22.0311767578125,-0.8979712128639221,-0.13179408013820648,-1.3510801792144775
1775728243071705300,22.049705322265623,-0.6010909676551819,0.40576693415641785,-1.1922553777694702
1775728243090234000,22.068234130859373,-0.3402516841888428,1.3868157863616943,-1.11650812625885
1775728243108762600,22.0867626953125,0.01282816007733345,2.006232738494873,-0.9912807941436768
1775728243127291400,22.10529150390625,0.28954991698265076,1.9036073684692383,-0.9088140726089478
1775728243145820000,22.12381982421875,0.5100721120834351,1.3397791385650635,-0.7463240623474121
1775728243164348700,22.1423486328125,0.4990765154361725,0.5426006317138672,-0.383470356464386
1775728243182877400,22.16087744140625,0.2052505612373352,-0.05482511222362518,0.7521272301673889
1775728243201406000,22.179406005859374,-0.12644900381565094,-0.13362666964530945,0.9152281284332275
1775728243219934700,22.197934814453124,-0.24251331388950348,-0.3730856776237488,-0.15012001991271973
1775728243238463200,22.216463134765625,-0.046425722539424896,-1.2313506603240967,-1.6473495960235596
1775728243256992000,22.234991943359375,-0.06719512492418289,-0.9729548692703247,-0.5270236134529114
1775728243275520800,22.253520751953126,-0.0054977829568088055,-0.6858484148979187,0.9689842462539673
1775728243294049300,22.27204931640625,-0.10018182545900345,-0.6009382009506226,2.0025675296783447
1775728243312578000,22.290578125,-0.09957095980644226,-0.7267763614654541,1.6293290853500366
1775728243331106600,22.3091064453125,-0.007330377586185932,-0.49770209193229675,-0.34926193952560425
1775728243349635300,22.32763525390625,0.012217295356094837,0.03802633285522461,-1.844048023223877
1775728243368163800,22.346163818359376,-0.0256563201546669,0.6403390169143677,-1.2075269222259521
1775728243386692600,22.364692626953126,-0.16859868168830872,1.6617048978805542,0.7044798135757446
1775728243405221000,22.38322119140625,-0.3384190797805786,2.0551018714904785,1.1962260007858276
1775728243423750000,22.40175,-0.5009090900421143,1.6238312721252441,0.39416050910949707
1775728243442278700,22.420278564453124,-0.4612029194831848,1.0367902517318726,-0.33460119366645813
1775728243460807200,22.43880712890625,-0.28527384996414185,0.653167188167572,-0.3358229100704193
1775728243479336000,22.4573359375,-0.08796452730894089,0.33490660786628723,0.19990549981594086
1775728243497864400,22.475864501953126,-0.04520399495959282,0.23044873774051666,0.625067412853241
1775728243516393200,22.494393310546876,-0.05803215503692627,0.03497200831770897,0.6776017546653748
1775728243534921700,22.512921630859374,-0.06597339361906052,-0.13484840095043182,0.6537780165672302
1775728243553450500,22.531450439453124,-0.18570289015769958,-0.07192932814359665,0.41492989659309387
1775728243571979000,22.54997900390625,-0.1331685185432434,-0.30833399295806885,0.407599538564682
1775728243590507800,22.5685078125,-0.03543015569448471,-0.38591381907463074,0.5755873322486877
1775728243609036500,22.58703662109375,-0.16249002516269684,-0.310166597366333,0.6782126426696777
1775728243627565000,22.60556494140625,-0.15271618962287903,-0.42684176564216614,0.9170607328414917
1775728243646093800,22.62409375,-0.08918625861406326,-0.495258629322052,1.162628412246704
1775728243664622600,22.64262255859375,-0.14172062277793884,-0.8526145219802856,1.5902336835861206
1775728243683151000,22.661151123046874,-0.23029601573944092,-0.9430224895477295,1.8571816682815552
1775728243701679900,22.679679931640624,-0.37812530994415283,-0.48670652508735657,1.8779510259628296
1775728243720208400,22.69820849609375,-0.25350889563560486,-0.3413206934928894,1.9860740900039673
1775728243738737200,22.716737060546876,-0.031154103577136993,-0.36025750637054443,1.7099632024765015
1775728243757265700,22.735265625,0.40805765986442566,-0.44638943672180176,1.2469277381896973
1775728243775794400,22.75379443359375,1.1032217741012573,-0.7738129496574402,0.8553634285926819
1775728243794323000,22.772322998046874,1.433088779449463,-1.014493703842163,0.41492989659309387
1775728243812851700,22.790851806640624,1.3921607732772827,-0.7420479655265808,0.03741546720266342
1775728243831380500,22.80938037109375,0.9016364216804504,-0.23014330863952637,-0.2075413018465042
1775728243849909000,22.827908935546876,0.19425499439239502,0.24694208800792694,-0.29184064269065857
1775728243868437800,22.846437744140626,-0.258395791053772,0.46807512640953064,-0.4842630624771118
1775728243886966300,22.86496630859375,-0.28588470816612244,0.4760163724422455,-0.9234748482704163
1775728243905495000,22.8834951171875,-0.01893680728971958,0.25243985652923584,-1.447596788406372
1775728243924023600,22.9020234375,0.3659079968929291,0.2603811025619507,-1.8715369701385498
1775728243942552300,22.92055224609375,0.5900954008102417,0.30741769075393677,-2.0767874717712402
1775728243961080800,22.939080810546876,0.5222893953323364,0.28664830327033997,-2.1586434841156006
1775728243979609600,22.957609619140626,0.1698204129934311,0.02458730712532997,-2.240499258041382
1775728243998138400,22.976138427734377,-0.2932150959968567,-0.1818849891424179,-2.321744203567505
1775728244016667000,22.9946669921875,-0.6359102129936218,-0.1769980639219284,-2.1696388721466064
1775728244035195600,23.013195556640625,-0.7128791809082031,-0.20693044364452362,-1.5239548683166504
1775728244053724400,23.031724365234375,-0.6218603253364563,0.2964221239089966,-0.6925679445266724
1775728244072253000,23.0502529296875,-0.4453204274177551,1.391702651977539,-0.4127918779850006
