time,seconds_elapsed,z,y,x
1775728221151310800,0.129310791015625,-5.175000190734863,28.781251907348633,41.26875305175781
1775728221161310700,0.139310791015625,-5.512500286102295,27.750001907348633,41.08125305175781
1775728221171310800,0.149310791015625,-5.512500286102295,26.36250114440918,37.57500076293945
1775728221181310700,0.159310791015625,-5.831250190734863,26.83125114440918,39.09375
1775728221201310700,0.179310791015625,-3.656250238418579,26.887500762939453,36.91875076293945
1775728221211310800,0.189310791015625,-7.218750476837158,25.950000762939453,38.10000228881836
1775728221221310700,0.199310791015625,-4.800000190734863,26.100000381469727,40.05000305175781
1775728221231310800,0.209310791015625,-4.800000190734863,26.100000381469727,40.05000305175781
1775728221241310700,0.219310791015625,-5.8125,27.787500381469727,41.38125228881836
1775728221251310800,0.229310791015625,-7.350000381469727,27.618751525878906,41.8125
1775728221261310700,0.239310791015625,-8.700000762939453,28.05000114440918,41.36250305175781
1775728221271310800,0.249310791015625,-6.150000095367432,26.606250762939453,40.03125
1775728221281310700,0.259310791015625,-5.231250286102295,25.61250114440918,36.712501525878906
1775728221291310800,0.269310791015625,-1.8937500715255737,24.95625114440918,35.66250228881836
1775728221301310700,0.279310791015625,-4.125,27.037500381469727,37.10625076293945
1775728221311310800,0.289310791015625,-4.443750381469727,26.718751907348633,38.32500076293945
1775728221321310700,0.299310791015625,-5.362500190734863,27.431251525878906,39.75
1775728221331310800,0.309310791015625,-2.4750001430511475,27.618751525878906,40.275001525878906
1775728221341310700,0.319310791015625,-7.256250381469727,26.850000381469727,44.34375
1775728221351310800,0.329310791015625,-7.087500095367432,26.587501525878906,41.60625076293945
1775728221361310700,0.339310791015625,-3.1125001907348633,26.887500762939453,40.29375076293945
1775728221371310800,0.349310791015625,0.07500000298023224,24.900001525878906,36.16875076293945
1775728221381310700,0.359310791015625,-1.5937501192092896,23.681251525878906,32.868751525878906
1775728221391310800,0.369310791015625,-5.643750190734863,27.056251525878906,37.14375305175781
1775728221401310700,0.379310791015625,-0.9375000596046448,25.068750381469727,32.962501525878906
1775728221411310800,0.389310791015625,-0.05625000223517418,25.593751907348633,35.73750305175781
1775728221421310700,0.399310791015625,-3.093750238418579,25.70625114440918,36.54375076293945
1775728221431310800,0.409310791015625,-3.6937501430511475,26.250001907348633,36.806251525878906
1775728221441310700,0.419310791015625,-2.5875000953674316,26.568750381469727,35.56875228881836
1775728221451310800,0.429310791015625,-3.843750238418579,24.318750381469727,43.20000076293945
1775728221461310700,0.439310791015625,-2.3812501430511475,26.400001525878906,41.306251525878906
1775728221471310800,0.449310791015625,-3.450000047683716,26.45625114440918,41.625
1775728221481310700,0.459310791015625,-1.912500023841858,25.98750114440918,40.087501525878906
1775728221491310800,0.469310791015625,-1.0125000476837158,26.587501525878906,41.73750305175781
1775728221501310700,0.479310791015625,-3.937500238418579,26.025001525878906,42.97500228881836
1775728221511310800,0.489310791015625,-4.518750190734863,26.418750762939453,42.22500228881836
1775728221521310700,0.499310791015625,-5.4375,26.775001525878906,43.85625076293945
1775728221531310800,0.509310791015625,-3.3187501430511475,26.193750381469727,43.275001525878906
1775728221541310700,0.519310791015625,-4.800000190734863,26.606250762939453,41.83125305175781
1775728221551310800,0.529310791015625,-5.587500095367432,26.850000381469727,43.462501525878906
1775728221561310700,0.539310791015625,-4.631250381469727,27.543750762939453,42.30000305175781
1775728221571310800,0.549310791015625,-3.4125001430511475,27.093751907348633,41.75625228881836
1775728221581310700,0.559310791015625,-4.03125,27.000001907348633,41.88750076293945
1775728221591310800,0.569310791015625,-3.918750047683716,25.931251525878906,42.243751525878906
1775728221601310700,0.579310791015625,-3.281250238418579,28.068750381469727,45.03750228881836
1775728221611310800,0.589310791015625,-3.937500238418579,26.73750114440918,45.22500228881836
1775728221621310700,0.599310791015625,-4.837500095367432,25.818750381469727,42.39375305175781
1775728221631310800,0.609310791015625,-6.956250190734863,26.493751525878906,43.57500076293945
1775728221641310700,0.619310791015625,-4.987500190734863,26.418750762939453,43.06875228881836
1775728221651310800,0.629310791015625,-3.262500047683716,28.162500381469727,43.931251525878906
1775728221661310700,0.639310791015625,-3.262500047683716,28.162500381469727,43.931251525878906
1775728221671310800,0.649310791015625,-4.668750286102295,26.625001907348633,42.82500076293945
1775728221681310700,0.659310791015625,-3.843750238418579,27.693750381469727,41.587501525878906
1775728221691310800,0.669310791015625,-4.837500095367432,26.212501525878906,43.3125
1775728221701310700,0.679310791015625,-4.650000095367432,27.01875114440918,42.900001525878906
1775728221711310800,0.689310791015625,-4.950000286102295,27.01875114440918,42.900001525878906
1775728221721310700,0.699310791015625,-5.25,26.962501525878906,41.625
1775728221731310800,0.709310791015625,-3.3000001907348633,25.968751907348633,41.681251525878906
1775728221741310700,0.719310791015625,-6.318750381469727,27.993751525878906,44.400001525878906
1775728221751310800,0.729310791015625,-4.481250286102295,27.000001907348633,41.90625
1775728221761310700,0.739310791015625,-4.931250095367432,27.543750762939453,42.30000305175781
1775728221771310800,0.749310791015625,-3.918750047683716,26.83125114440918,44.25
1775728221781310700,0.759310791015625,-4.650000095367432,26.36250114440918,40.931251525878906
1775728221791310800,0.769310791015625,-3.4312500953674316,25.950000762939453,39.84375
1775728221801310700,0.779310791015625,-5.71875,26.531251907348633,42.13125228881836
1775728221811310800,0.789310791015625,-3.2250001430511475,27.67500114440918,40.59375
1775728221821310700,0.799310791015625,-3.843750238418579,28.556251525878906,43.16250228881836
1775728221831310800,0.809310791015625,-3.8625001907348633,26.587501525878906,39.97500228881836
1775728221841310700,0.819310791015625,-6.243750095367432,27.262500762939453,37.76250076293945
1775728221851310800,0.829310791015625,-4.03125,26.025001525878906,39.58125305175781
1775728221861310700,0.839310791015625,-0.3375000059604645,27.093751907348633,39.28125
1775728221871310800,0.849310791015625,-2.4750001430511475,27.731250762939453,41.00625228881836
1775728221881310700,0.859310791015625,-4.912500381469727,28.350000381469727,43.44375228881836
1775728221891310800,0.869310791015625,-5.25,27.262500762939453,41.98125076293945
1775728221901310700,0.879310791015625,-5.418750286102295,26.17500114440918,41.34375
1775728221911310800,0.889310791015625,-2.6437501907348633,26.306251525878906,38.04375076293945
1775728221921310700,0.899310791015625,-3.825000047683716,28.968751907348633,43.53750228881836
1775728221931310800,0.909310791015625,-5.25,27.056251525878906,42.35625076293945
1775728221941310700,0.919310791015625,-3.2437500953674316,26.625001907348633,39.39375305175781
1775728221951310800,0.929310791015625,-5.568750381469727,27.168750762939453,43.087501525878906
1775728221961310700,0.939310791015625,-4.668750286102295,26.306251525878906,42.337501525878906
1775728221971310800,0.949310791015625,-7.218750476837158,27.600000381469727,42.65625
1775728221981310700,0.959310791015625,-6.956250190734863,26.64375114440918,42.88125228881836
1775728221991310800,0.969310791015625,-4.631250381469727,27.693750381469727,43.3125
1775728222001310700,0.979310791015625,-5.662500381469727,28.200000762939453,42.45000076293945
1775728222011310800,0.989310791015625,-4.443750381469727,27.67500114440918,40.61250305175781
1775728222021310700,0.999310791015625,-5.512500286102295,28.23750114440918,41.88750076293945
1775728222031310800,1.009310791015625,-5.568750381469727,27.11250114440918,42.65625
1775728222041310700,1.019310791015625,-5.381250381469727,27.86250114440918,42.65625
1775728222051310800,1.029310791015625,-7.368750095367432,27.918750762939453,43.98750305175781
1775728222061310700,1.039310791015625,-7.368750095367432,27.825000762939453,43.275001525878906
1775728222071310800,1.049310791015625,-7.162500381469727,27.881250381469727,40.3125
1775728222081310700,1.059310791015625,-8.58750057220459,26.981250762939453,41.71875
1775728222091310800,1.069310791015625,-8.512500762939453,28.125001907348633,39.41250228881836
1775728222101310700,1.079310791015625,-7.068750381469727,26.868751525878906,40.95000076293945
1775728222111310800,1.089310791015625,-7.068750381469727,26.868751525878906,40.95000076293945
1775728222121310700,1.099310791015625,-9.65625,26.92500114440918,41.32500076293945
1775728222131310800,1.109310791015625,-7.743750095367432,28.98750114440918,40.95000076293945
1775728222141310700,1.119310791015625,-10.65000057220459,28.068750381469727,39.73125076293945
1775728222151310800,1.129310791015625,-8.700000762939453,27.450000762939453,39.84375
1775728222161310700,1.139310791015625,-10.987500190734863,27.731250762939453,41.79375076293945
1775728222171310800,1.149310791015625,-11.606250762939453,27.58125114440918,41.493751525878906
1775728222181310700,1.159310791015625,-8.68125057220459,28.087501525878906,39.95625305175781
1775728222191310800,1.169310791015625,-9.450000762939453,28.368751525878906,41.868751525878906
1775728222201310700,1.179310791015625,-8.34375,29.17500114440918,40.59375
1775728222211310800,1.189310791015625,-9.90000057220459,27.20625114440918,38.13750076293945
1775728222221310700,1.199310791015625,-9.450000762939453,27.843751907348633,39.9375
1775728222231310800,1.209310791015625,-8.006250381469727,29.756250381469727,39.41250228881836
1775728222241310700,1.219310791015625,-10.143750190734863,29.26875114440918,39.525001525878906
1775728222251310800,1.229310791015625,-10.18125057220459,28.481250762939453,40.087501525878906
1775728222261310700,1.239310791015625,-8.006250381469727,29.756250381469727,39.41250228881836
1775728222271310800,1.249310791015625,-10.818750381469727,29.062501907348633,43.16250228881836
1775728222281310700,1.259310791015625,-8.0625,28.23750114440918,40.125
1775728222291310800,1.269310791015625,-10.96875,28.80000114440918,42.28125
1775728222301310700,1.279310791015625,-10.36875057220459,27.506250381469727,39.337501525878906
1775728222311310800,1.289310791015625,-8.081250190734863,28.087501525878906,40.80000305175781
1775728222321310700,1.299310791015625,-10.050000190734863,27.506250381469727,39.31875228881836
1775728222331310800,1.309310791015625,-9.168750762939453,27.618751525878906,41.025001525878906
1775728222341310700,1.319310791015625,-10.08750057220459,27.562501907348633,41.45625305175781
1775728222351310800,1.329310791015625,-8.71875,27.356250762939453,40.95000076293945
1775728222361310700,1.339310791015625,-7.818750381469727,26.662500381469727,39.525001525878906
1775728222371310800,1.349310791015625,-8.40000057220459,27.562501907348633,40.556251525878906
1775728222381310700,1.359310791015625,-8.381250381469727,27.937501907348633,40.63125228881836
1775728222391310800,1.369310791015625,-7.331250190734863,26.700000762939453,38.118751525878906
1775728222401310700,1.379310791015625,-8.700000762939453,27.450000762939453,39.84375
1775728222411310800,1.389310791015625,-7.650000095367432,26.587501525878906,38.23125076293945
1775728222421310700,1.399310791015625,-8.756250381469727,26.343751907348633,40.76250076293945
1775728222431310800,1.409310791015625,-8.11875057220459,27.656251907348633,42.13125228881836
1775728222441310700,1.419310791015625,-7.931250095367432,28.293750762939453,41.400001525878906
1775728222451310800,1.429310791015625,-8.831250190734863,29.193750381469727,42.431251525878906
1775728222461310700,1.439310791015625,-10.36875057220459,28.200000762939453,41.587501525878906
1775728222471310800,1.449310791015625,-7.893750190734863,29.287500381469727,41.306251525878906
1775728222481310700,1.459310791015625,-8.887500762939453,26.906251907348633,41.306251525878906
1775728222491310800,1.469310791015625,-7.312500476837158,28.23750114440918,40.087501525878906
1775728222501310700,1.479310791015625,-7.181250095367432,28.200000762939453,42.48750305175781
1775728222511310800,1.489310791015625,-8.0625,28.725000381469727,40.91250228881836
1775728222521310700,1.499310791015625,-9.9375,27.58125114440918,42.45000076293945
1775728222531310800,1.509310791015625,-10.36875057220459,28.106250762939453,40.85625076293945
1775728222541310700,1.519310791015625,-8.381250381469727,28.256250381469727,41.118751525878906
1775728222551310800,1.529310791015625,-8.850000381469727,28.293750762939453,42.26250076293945
1775728222561310700,1.539310791015625,-8.850000381469727,28.293750762939453,42.26250076293945
1775728222571310800,1.549310791015625,-11.15625,27.637500762939453,41.92500305175781
1775728222581310700,1.559310791015625,-9.15000057220459,29.006250381469727,43.6875
1775728222591310800,1.569310791015625,-9.28125,28.350000381469727,40.875
1775728222601310700,1.579310791015625,-7.012500286102295,28.087501525878906,40.76250076293945
1775728222611310800,1.589310791015625,-9.693750381469727,25.631250381469727,41.08125305175781
1775728222621310700,1.599310791015625,-9.131250381469727,28.200000762939453,40.70625305175781
1775728222631310800,1.609310791015625,-8.550000190734863,27.450000762939453,40.6875
1775728222641310700,1.619310791015625,-8.850000381469727,28.256250381469727,41.98125076293945
1775728222651310800,1.629310791015625,-9.450000762939453,28.80000114440918,42.243751525878906
1775728222661310700,1.639310791015625,-8.887500762939453,27.731250762939453,42.58125305175781
1775728222671310800,1.649310791015625,-9.131250381469727,28.80000114440918,42.22500228881836
1775728222681310700,1.659310791015625,-7.781250476837158,28.443750381469727,41.56875228881836
1775728222691310800,1.669310791015625,-9.881250381469727,28.950000762939453,41.56875228881836
1775728222701310700,1.679310791015625,-8.8125,28.725000381469727,40.931251525878906
1775728222711310800,1.689310791015625,-7.950000286102295,27.543750762939453,40.556251525878906
1775728222721310700,1.699310791015625,-9.168750762939453,28.575000762939453,43.3125
1775728222731310800,1.709310791015625,-7.031250476837158,27.693750381469727,40.6875
1775728222741310700,1.719310791015625,-9.581250190734863,28.912500381469727,42.11250305175781
1775728222751310800,1.729310791015625,-9.637500762939453,27.731250762939453,42.60000228881836
1775728222761310700,1.739310791015625,-8.11875057220459,28.575000762939453,44.13750076293945
1775728222771310800,1.749310791015625,-10.83750057220459,28.368751525878906,42.75
1775728222781310700,1.759310791015625,-9.5625,29.587501525878906,42.525001525878906
1775728222791310800,1.769310791015625,-8.137500762939453,27.881250381469727,43.72500228881836
1775728222801310700,1.779310791015625,-8.381250381469727,28.368751525878906,41.85000228881836
1775728222811310800,1.789310791015625,-9.15000057220459,28.012500762939453,41.08125305175781
1775728222821310700,1.799310791015625,-9.637500762939453,27.168750762939453,41.36250305175781
1775728222831310800,1.809310791015625,-8.850000381469727,28.51875114440918,42.01875305175781
1775728222841310700,1.819310791015625,-8.02500057220459,29.587501525878906,40.80000305175781
1775728222851310800,1.829310791015625,-8.100000381469727,28.293750762939453,42.243751525878906
1775728222861310700,1.839310791015625,-7.650000095367432,27.356250762939453,40.931251525878906
1775728222871310800,1.849310791015625,-7.987500190734863,26.381250381469727,41.025001525878906
1775728222881310700,1.859310791015625,-7.275000095367432,29.793750762939453,42.22500228881836
1775728222891310800,1.869310791015625,-8.53125,28.89375114440918,42.09375
1775728222901310700,1.879310791015625,-10.36875057220459,28.743751525878906,43.51875305175781
1775728222911310800,1.889310791015625,-8.15625,26.625001907348633,41.92500305175781
1775728222921310700,1.899310791015625,-8.737500190734863,27.131250381469727,41.90625
1775728222931310800,1.909310791015625,-6.937500476837158,26.475000381469727,41.71875
1775728222941310700,1.919310791015625,-8.512500762939453,28.950000762939453,40.6875
1775728222951310800,1.929310791015625,-10.237500190734863,27.731250762939453,41.775001525878906
1775728222961310700,1.939310791015625,-8.381250381469727,28.368751525878906,41.85000228881836
1775728222971310800,1.949310791015625,-8.58750057220459,26.868751525878906,41.00625228881836
1775728222981310700,1.959310791015625,-7.781250476837158,28.443750381469727,41.56875228881836
1775728222991310800,1.969310791015625,-7.800000190734863,27.450000762939453,40.66875076293945
1775728223001310700,1.979310791015625,-7.800000190734863,27.450000762939453,40.66875076293945
1775728223011310800,1.989310791015625,-9.46875,27.20625114440918,39.806251525878906
1775728223021310700,1.999310791015625,-9.206250190734863,26.231250762939453,40.05000305175781
1775728223031310800,2.009310791015625,-8.081250190734863,28.05000114440918,40.5
1775728223041310700,2.019310791015625,-9.975000381469727,26.343751907348633,40.80000305175781
1775728223051310800,2.029310791015625,-9.112500190734863,29.400001525878906,42.056251525878906
1775728223061310700,2.039310791015625,-10.21875,28.51875114440918,42.91875076293945
1775728223071310800,2.049310791015625,-9.918750762939453,27.67500114440918,41.32500076293945
1775728223081310700,2.059310791015625,-9.15000057220459,27.525001525878906,40.29375076293945
1775728223091310800,2.069310791015625,-8.381250381469727,28.89375114440918,42.9375
1775728223101310700,2.079310791015625,-6.975000381469727,29.36250114440918,41.00625228881836
1775728223111310800,2.089310791015625,-7.800000190734863,27.506250381469727,41.10000228881836
1775728223121310700,2.099310791015625,-8.100000381469727,27.76875114440918,41.15625
1775728223131310800,2.109310791015625,-9.168750762939453,27.76875114440918,42.03750228881836
1775728223141310700,2.119310791015625,-11.49375057220459,27.412500381469727,43.85625076293945
1775728223151310800,2.129310791015625,-9.487500190734863,27.843751907348633,42.46875
1775728223161310700,2.139310791015625,-9.46875,27.76875114440918,42.03750228881836
1775728223171310800,2.149310791015625,-8.737500190734863,27.58125114440918,42.41250228881836
1775728223181310700,2.159310791015625,-7.987500190734863,26.981250762939453,42.5625
1775728223191310800,2.169310791015625,-10.350000381469727,29.26875114440918,42.91875076293945
1775728223201310700,2.179310791015625,-10.237500190734863,27.30000114440918,40.556251525878906
1775728223211310800,2.189310791015625,-7.687500476837158,26.868751525878906,41.8125
1775728223221310700,2.199310791015625,-10.21875,28.481250762939453,42.618751525878906
1775728223231310800,2.209310791015625,-8.53125,28.087501525878906,40.80000305175781
1775728223241310700,2.219310791015625,-9.225000381469727,26.493751525878906,41.79375076293945
1775728223251310800,2.229310791015625,-9.28125,28.950000762939453,42.39375305175781
1775728223261310700,2.239310791015625,-8.568750381469727,26.92500114440918,39.60000228881836
1775728223271310800,2.249310791015625,-8.925000190734863,26.437501907348633,42.337501525878906
1775728223281310700,2.259310791015625,-8.850000381469727,28.51875114440918,42.01875305175781
1775728223291310800,2.269310791015625,-10.65000057220459,29.118751525878906,42.75
1775728223301310700,2.279310791015625,-10.237500190734863,27.67500114440918,41.34375
1775728223311310800,2.289310791015625,-9.881250381469727,28.593751907348633,40.80000305175781
1775728223321310700,2.299310791015625,-10.6875,27.562501907348633,40.63125228881836
1775728223331310800,2.309310791015625,-9.918750762939453,28.125001907348633,41.83125305175781
1775728223341310700,2.319310791015625,-10.106250762939453,27.187501907348633,41.38125228881836
1775728223351310800,2.329310791015625,-10.83750057220459,27.937501907348633,42.243751525878906
1775728223361310700,2.339310791015625,-10.818750381469727,28.537500381469727,42.07500076293945
1775728223371310800,2.349310791015625,-8.86875057220459,27.806251525878906,41.47500228881836
1775728223381310700,2.359310791015625,-8.662500381469727,29.006250381469727,41.98125076293945
1775728223391310800,2.369310791015625,-8.512500762939453,28.687501907348633,40.63125228881836
1775728223401310700,2.379310791015625,-9.90000057220459,27.806251525878906,39.65625
1775728223411310800,2.389310791015625,-8.8125,29.156251907348633,42.150001525878906
1775728223421310700,2.399310791015625,-11.11875057220459,28.575000762939453,42.375
1775728223431310800,2.409310791015625,-8.831250190734863,28.350000381469727,40.85625076293945
1775728223441310700,2.419310791015625,-8.831250190734863,28.350000381469727,40.85625076293945
1775728223451310800,2.429310791015625,-8.0625,28.80000114440918,41.34375
1775728223461310700,2.439310791015625,-9.450000762939453,28.05000114440918,41.38125228881836
1775728223471310800,2.449310791015625,-10.200000762939453,28.650001525878906,41.25
1775728223481310700,2.459310791015625,-9.918750762939453,28.125001907348633,41.83125305175781
1775728223491310800,2.469310791015625,-9.43125057220459,28.912500381469727,41.26875305175781
1775728223501310700,2.479310791015625,-10.78125,29.006250381469727,41.04375076293945
1775728223511310800,2.489310791015625,-9.9375,27.30000114440918,40.556251525878906
1775728223521310700,2.499310791015625,-15.05625057220459,29.64375114440918,43.66875076293945
1775728223531310800,2.509310791015625,-11.887500762939453,28.106250762939453,40.89375305175781
1775728223541310700,2.519310791015625,-12.318750381469727,29.887500762939453,44.493751525878906
1775728223551310800,2.529310791015625,-11.96250057220459,25.762500762939453,40.16250228881836
1775728223561310700,2.539310791015625,-14.02500057220459,27.693750381469727,41.4375
1775728223571310800,2.549310791015625,-12.787500381469727,28.218751907348633,40.80000305175781
1775728223581310700,2.559310791015625,-12.375000953674316,27.093751907348633,40.72500228881836
1775728223591310800,2.569310791015625,-13.856250762939453,28.087501525878906,40.66875076293945
1775728223601310700,2.579310791015625,-15.112500190734863,27.656251907348633,42.88125228881836
1775728223611310800,2.589310791015625,-15.393750190734863,27.712501525878906,40.63125228881836
1775728223621310700,2.599310791015625,-15.506250381469727,29.681251525878906,43.98750305175781
1775728223631310800,2.609310791015625,-15.393750190734863,27.843751907348633,41.64375305175781
1775728223651310800,2.629310791015625,-15.562500953674316,26.73750114440918,39.1875
1775728223661310700,2.639310791015625,-14.006250381469727,26.73750114440918,36.60000228881836
1775728223671310800,2.649310791015625,-14.77500057220459,26.36250114440918,36.54375076293945
1775728223681310700,2.659310791015625,-17.55000114440918,25.406251907348633,37.70625305175781
1775728223701310700,2.679310791015625,-16.931251525878906,26.212501525878906,38.98125076293945
1775728223711310800,2.689310791015625,-16.5,25.51875114440918,38.400001525878906
1775728223721310700,2.699310791015625,-17.418750762939453,26.531251907348633,42.01875305175781
1775728223731310800,2.709310791015625,-17.962501525878906,28.200000762939453,41.51250076293945
1775728223741310700,2.719310791015625,-18.01875114440918,26.962501525878906,41.55000305175781
1775728223751310800,2.729310791015625,-19.125,25.762500762939453,41.775001525878906
1775728223761310700,2.739310791015625,-18.30000114440918,26.662500381469727,39.375
1775728223771310800,2.749310791015625,-20.26875114440918,26.92500114440918,39.48750305175781
1775728223781310700,2.759310791015625,-18.9375,25.931251525878906,39.54375076293945
1775728223791310800,2.769310791015625,-18.150001525878906,27.075000762939453,41.4375
1775728223801310700,2.779310791015625,-18.65625,25.33125114440918,39.69375228881836
1775728223811310800,2.789310791015625,-18.637500762939453,25.481250762939453,39.01875305175781
1775728223821310700,2.799310791015625,-20.587501525878906,27.30000114440918,42.11250305175781
1775728223831310800,2.809310791015625,-19.6875,27.356250762939453,43.368751525878906
1775728223841310700,2.819310791015625,-19.106250762939453,26.512500762939453,42.618751525878906
1775728223851310800,2.829310791015625,-21.075000762939453,26.700000762939453,42.28125
1775728223861310700,2.839310791015625,-18.618751525878906,26.83125114440918,41.400001525878906
1775728223871310800,2.849310791015625,-17.568750381469727,26.325000762939453,41.41875076293945
1775728223881310700,2.859310791015625,-18.993751525878906,25.33125114440918,42.243751525878906
1775728223891310800,2.869310791015625,-18.993751525878906,25.33125114440918,42.243751525878906
1775728223901310700,2.879310791015625,-16.51875114440918,25.931251525878906,41.306251525878906
1775728223911310800,2.889310791015625,-18.806251525878906,26.662500381469727,43.78125
1775728223921310700,2.899310791015625,-20.325000762939453,26.025001525878906,41.85000228881836
1775728223931310800,2.909310791015625,-20.325000762939453,26.025001525878906,41.85000228881836
1775728223941310700,2.919310791015625,-19.087501525878906,27.318750381469727,43.89375305175781
1775728223951310800,2.929310791015625,-16.556251525878906,26.062501907348633,43.875
1775728223961310700,2.939310791015625,-17.306251525878906,26.212501525878906,43.21875
1775728223971310800,2.949310791015625,-17.90625,26.55000114440918,43.875
1775728223981310700,2.959310791015625,-15.937500953674316,26.212501525878906,44.025001525878906
1775728223991310800,2.969310791015625,-17.325000762939453,26.587501525878906,45.84375
1775728224001310700,2.979310791015625,-16.98750114440918,26.775001525878906,44.45625305175781
1775728224011310800,2.989310791015625,-17.17500114440918,25.912500381469727,43.72500228881836
1775728224021310700,2.999310791015625,-18.1875,27.600000381469727,45.056251525878906
1775728224031310800,3.009310791015625,-13.668750762939453,26.08125114440918,43.23750305175781
1775728224041310700,3.019310791015625,-13.200000762939453,26.118751525878906,42.67500305175781
1775728224051310800,3.029310791015625,-18.375,25.968751907348633,43.20000076293945
1775728224061310700,3.039310791015625,-17.0625,26.156251907348633,47.15625
1775728224071310800,3.049310791015625,-16.556251525878906,27.375001907348633,46.95000076293945
1775728224081310700,3.059310791015625,-13.968750953674316,26.36250114440918,44.28750228881836
1775728224091310800,3.069310791015625,-14.006250381469727,25.61250114440918,45.13125228881836
1775728224101310700,3.079310791015625,-13.668750762939453,26.850000381469727,45.9375
1775728224111310800,3.089310791015625,-14.756250381469727,26.83125114440918,47.51250076293945
1775728224121310700,3.099310791015625,-14.943750381469727,25.837501525878906,47.45625305175781
1775728224131310800,3.109310791015625,-14.943750381469727,25.200000762939453,45.63750076293945
1775728224141310700,3.119310791015625,-15.581250190734863,24.562501907348633,46.38750076293945
1775728224151310800,3.129310791015625,-11.8125,26.812501907348633,44.04375076293945
1775728224161310700,3.139310791015625,-12.018750190734863,25.856250762939453,45.13125228881836
1775728224171310800,3.149310791015625,-14.156250953674316,26.681251525878906,47.32500076293945
1775728224181310700,3.159310791015625,-11.58750057220459,25.968751907348633,46.6875
1775728224191310800,3.169310791015625,-12.52500057220459,25.387500762939453,47.88750076293945
1775728224201310700,3.179310791015625,-10.912500381469727,27.243751525878906,46.06875228881836
1775728224211310800,3.189310791015625,-11.90625,25.275001525878906,46.29375076293945
1775728224221310700,3.199310791015625,-12.52500057220459,25.275001525878906,47.15625
1775728224231310800,3.209310791015625,-12.61875057220459,27.356250762939453,47.70000076293945
1775728224241310700,3.219310791015625,-10.443750381469727,27.937501907348633,46.61250305175781
1775728224251310800,3.229310791015625,-11.0625,26.981250762939453,45.1875
1775728224261310700,3.239310791015625,-8.175000190734863,26.962501525878906,44.25
1775728224271310800,3.249310791015625,-8.96250057220459,26.231250762939453,45.11250305175781
1775728224281310700,3.259310791015625,-6.956250190734863,25.837501525878906,41.60625076293945
1775728224291310800,3.269310791015625,-5.90625,25.781251907348633,42.13125228881836
1775728224301310700,3.279310791015625,-5.568750381469727,26.681251525878906,42.30000305175781
1775728224311310800,3.289310791015625,-4.237500190734863,26.625001907348633,44.51250076293945
1775728224321310700,3.299310791015625,-4.856250286102295,26.512500762939453,45.48750305175781
1775728224331310800,3.309310791015625,-4.5,27.58125114440918,44.26875305175781
1775728224341310700,3.319310791015625,-4.5,27.58125114440918,44.26875305175781
1775728224351310800,3.329310791015625,-1.8937500715255737,27.637500762939453,42.9375
1775728224361310700,3.339310791015625,-4.162500381469727,28.33125114440918,43.42500305175781
1775728224371310800,3.349310791015625,-2.5687501430511475,27.187501907348633,45.84375
1775728224381310700,3.359310791015625,-1.912500023841858,26.943750381469727,42.39375305175781
1775728224391310800,3.369310791015625,-1.03125,26.718751907348633,44.306251525878906
1775728224401310700,3.379310791015625,-1.03125,26.868751525878906,43.61250305175781
1775728224411310800,3.389310791015625,0.6375000476837158,27.76875114440918,46.42500305175781
1775728224421310700,3.399310791015625,0.5250000357627869,28.51875114440918,46.44375228881836
1775728224431310800,3.409310791015625,0.65625,28.05000114440918,45.76875305175781
1775728224441310700,3.419310791015625,1.5562500953674316,28.012500762939453,47.306251525878906
1775728224451310800,3.429310791015625,3.093750238418579,27.187501907348633,43.29375076293945
1775728224461310700,3.439310791015625,2.2875001430511475,26.118751525878906,44.51250076293945
1775728224471310800,3.449310791015625,3.825000047683716,26.193750381469727,43.368751525878906
1775728224481310700,3.459310791015625,5.006250381469727,25.556251525878906,43.20000076293945
1775728224491310800,3.469310791015625,4.556250095367432,25.650001525878906,43.95000076293945
1775728224501310700,3.479310791015625,4.425000190734863,27.000001907348633,45.46875
1775728224511310800,3.489310791015625,4.21875,24.825000762939453,44.212501525878906
1775728224521310700,3.499310791015625,4.275000095367432,26.793750762939453,44.868751525878906
1775728224531310800,3.509310791015625,5.418750286102295,24.318750381469727,44.23125076293945
1775728224541310700,3.519310791015625,4.481250286102295,24.337501525878906,45.11250305175781
1775728224551310800,3.529310791015625,5.118750095367432,25.125001907348633,45.375
1775728224561310700,3.539310791015625,6.937500476837158,24.11250114440918,42.75
1775728224571310800,3.549310791015625,5.400000095367432,24.168750762939453,44.90625
1775728224581310700,3.559310791015625,6.675000190734863,26.08125114440918,45.243751525878906
1775728224591310800,3.569310791015625,4.59375,24.150001525878906,47.32500076293945
1775728224601310700,3.579310791015625,6.468750476837158,25.068750381469727,45.900001525878906
1775728224611310800,3.589310791015625,4.481250286102295,24.506250381469727,46.275001525878906
1775728224621310700,3.599310791015625,5.418750286102295,24.86250114440918,45.31875228881836
1775728224631310800,3.609310791015625,7.537500381469727,24.468751907348633,44.34375
1775728224641310700,3.619310791015625,6.018750190734863,24.637500762939453,45.54375076293945
1775728224651310800,3.629310791015625,8.475000381469727,24.58125114440918,43.5
1775728224661310700,3.639310791015625,7.856250286102295,25.012500762939453,45.58125305175781
1775728224671310800,3.649310791015625,6.075000286102295,22.762500762939453,46.3125
1775728224681310700,3.659310791015625,8.606250762939453,25.312501907348633,45.900001525878906
1775728224691310800,3.669310791015625,6.131250381469727,23.83125114440918,45.11250305175781
1775728224701310700,3.679310791015625,6.656250476837158,25.350000381469727,44.400001525878906
1775728224711310800,3.689310791015625,6.693750381469727,26.287500381469727,44.85000228881836
1775728224721310700,3.699310791015625,7.106250286102295,25.218751907348633,45.20625305175781
1775728224731310800,3.709310791015625,4.668750286102295,24.600000381469727,43.61250305175781
1775728224741310700,3.719310791015625,6.037500381469727,24.750001907348633,43.743751525878906
1775728224751310800,3.729310791015625,6.825000286102295,25.275001525878906,43.10625076293945
1775728224761310700,3.739310791015625,5.118750095367432,24.975000381469727,44.36250305175781
1775728224771310800,3.749310791015625,7.050000190734863,23.625,44.625
1775728224781310700,3.759310791015625,7.050000190734863,23.625,44.625
1775728224791310800,3.769310791015625,6.037500381469727,25.106250762939453,44.51250076293945
1775728224801310700,3.779310791015625,3.6750001907348633,26.475000381469727,43.556251525878906
1775728224811310800,3.789310791015625,3.6750001907348633,26.475000381469727,43.556251525878906
1775728224821310700,3.799310791015625,2.7562501430511475,26.793750762939453,44.92500305175781
1775728224831310800,3.809310791015625,-0.8062500357627869,24.412500381469727,43.85625076293945
1775728224841310700,3.819310791015625,-1.9312500953674316,27.58125114440918,45.056251525878906
1775728224851310800,3.829310791015625,-1.21875,26.437501907348633,45.806251525878906
1775728224861310700,3.839310791015625,-5.475000381469727,27.11250114440918,47.88750076293945
1775728224871310800,3.849310791015625,-8.71875,26.062501907348633,48.337501525878906
1775728224881310700,3.859310791015625,-11.325000762939453,25.387500762939453,47.85000228881836
1775728224891310800,3.869310791015625,-12.825000762939453,25.537500381469727,47.212501525878906
1775728224901310700,3.879310791015625,-11.943750381469727,24.787500381469727,47.17500305175781
1775728224911310800,3.889310791015625,-18.1875,25.293750762939453,49.70625305175781
1775728224921310700,3.899310791015625,-19.087501525878906,25.387500762939453,48.618751525878906
1775728224931310800,3.909310791015625,-16.368751525878906,24.450000762939453,48.22500228881836
1775728224941310700,3.919310791015625,-18.543750762939453,24.225000381469727,50.92500305175781
1775728224951310800,3.929310791015625,-22.6875,22.387500762939453,49.406253814697266
1775728224961310700,3.939310791015625,-21.450000762939453,23.17500114440918,48.82500076293945
1775728224971310800,3.949310791015625,-22.125,21.618751525878906,50.10000228881836
1775728224981310700,3.959310791015625,-21.506250381469727,21.11250114440918,47.4375
1775728224991310800,3.969310791015625,-24.86250114440918,20.587501525878906,48.13125228881836
1775728225001310700,3.979310791015625,-24.600000381469727,19.05000114440918,46.14375305175781
1775728225011310800,3.989310791015625,-26.418750762939453,18.11250114440918,43.89375305175781
1775728225021310700,3.999310791015625,-29.231250762939453,17.306251525878906,46.91250228881836
1775728225031310800,4.009310791015625,-28.781251907348633,16.931251525878906,46.125
1775728225041310700,4.019310791015625,-29.512500762939453,18.431251525878906,47.85000228881836
1775728225051310800,4.029310791015625,-31.687501907348633,16.89375114440918,47.47500228881836
1775728225061310700,4.039310791015625,-30.468751907348633,16.59375,47.10000228881836
1775728225071310800,4.049310791015625,-35.025001525878906,17.34375,47.92500305175781
1775728225081310700,4.059310791015625,-33.993751525878906,15.956250190734863,47.0625
1775728225091310800,4.069310791015625,-36.75,16.03125,48.281253814697266
1775728225101310700,4.079310791015625,-38.025001525878906,14.100000381469727,47.962501525878906
1775728225111310800,4.089310791015625,-34.38750076293945,12.843750953674316,45.35625076293945
1775728225121310700,4.099310791015625,-37.275001525878906,13.725000381469727,47.85000228881836
1775728225131310800,4.109310791015625,-38.962501525878906,13.050000190734863,46.650001525878906
1775728225141310700,4.119310791015625,-35.85000228881836,11.081250190734863,46.89375305175781
1775728225151310800,4.129310791015625,-38.23125076293945,12.225000381469727,47.04375076293945
1775728225161310700,4.139310791015625,-36.375,12.975000381469727,46.14375305175781
1775728225171310800,4.149310791015625,-36.73125076293945,11.831250190734863,46.91250228881836
1775728225181310700,4.159310791015625,-38.15625,10.55625057220459,47.56875228881836
1775728225191310800,4.169310791015625,-37.6875,11.30625057220459,48.39375305175781
1775728225201310700,4.179310791015625,-38.08125305175781,12.543750762939453,48.35625076293945
1775728225211310800,4.189310791015625,-38.70000076293945,11.756250381469727,46.38750076293945
1775728225221310700,4.199310791015625,-38.70000076293945,11.756250381469727,46.38750076293945
1775728225231310800,4.209310791015625,-37.96875,11.193750381469727,46.837501525878906
1775728225241310700,4.219310791015625,-36.76875305175781,9.506250381469727,43.80000305175781
1775728225251310800,4.229310791015625,-38.26875305175781,10.3125,44.98125076293945
1775728225261310700,4.239310791015625,-35.212501525878906,10.350000381469727,42.78750228881836
1775728225271310800,4.249310791015625,-37.16250228881836,12.075000762939453,45.993751525878906
1775728225281310700,4.259310791015625,-38.681251525878906,12.52500057220459,47.38125228881836
1775728225291310800,4.269310791015625,-36.73125076293945,11.58750057220459,46.875
1775728225301310700,4.279310791015625,-34.23750305175781,12.281250953674316,43.96875
1775728225311310800,4.289310791015625,-34.875,12.90000057220459,47.36250305175781
1775728225321310700,4.299310791015625,-34.275001525878906,11.943750381469727,46.03125
1775728225331310800,4.309310791015625,-33.46875,13.593750953674316,47.025001525878906
1775728225341310700,4.319310791015625,-32.75625228881836,11.40000057220459,44.90625
1775728225351310800,4.329310791015625,-31.98750114440918,12.675000190734863,46.81875228881836
1775728225361310700,4.339310791015625,-30.543750762939453,10.331250190734863,46.05000305175781
1775728225371310800,4.349310791015625,-30.600000381469727,13.93125057220459,48.562503814697266
1775728225381310700,4.359310791015625,-28.61250114440918,14.268750190734863,49.14375305175781
1775728225391310800,4.369310791015625,-29.343751907348633,15.90000057220459,51.88125228881836
1775728225401310700,4.379310791015625,-27.656251907348633,16.743751525878906,52.556251525878906
1775728225411310800,4.389310791015625,-28.725000381469727,17.8125,55.61250305175781
1775728225421310700,4.399310791015625,-25.481250762939453,18.168750762939453,52.91250228881836
1775728225431310800,4.409310791015625,-23.981250762939453,18.1875,54.712501525878906
1775728225441310700,4.419310791015625,-24.075000762939453,19.59375,53.28750228881836
1775728225451310800,4.429310791015625,-23.15625,19.068750381469727,52.312503814697266
1775728225461310700,4.439310791015625,-21.731250762939453,21.506250381469727,53.587501525878906
1775728225471310800,4.449310791015625,-19.068750381469727,19.106250762939453,52.650001525878906
1775728225481310700,4.459310791015625,-19.80000114440918,19.70625114440918,52.35000228881836
1775728225491310800,4.469310791015625,-19.481250762939453,19.837501525878906,52.500003814697266
1775728225501310700,4.479310791015625,-18.506250381469727,19.950000762939453,48.13125228881836
1775728225511310800,4.489310791015625,-16.818750381469727,20.943750381469727,49.81875228881836
1775728225521310700,4.499310791015625,-15.187500953674316,20.212501525878906,49.931251525878906
1775728225531310800,4.509310791015625,-14.700000762939453,21.28125,50.400001525878906
1775728225541310700,4.519310791015625,-12,19.96875,49.23750305175781
1775728225551310800,4.529310791015625,-12.112500190734863,20.662500381469727,48.806251525878906
1775728225561310700,4.539310791015625,-9.65625,20.568750381469727,47.306251525878906
1775728225571310800,4.549310791015625,-9.768750190734863,22.275001525878906,48.76875305175781
1775728225581310700,4.559310791015625,-9.956250190734863,21.30000114440918,48.01875305175781
1775728225591310800,4.569310791015625,-11.0625,21.412500381469727,51.45000076293945
1775728225601310700,4.579310791015625,-10.40625,22.950000762939453,52.57500076293945
1775728225611310800,4.589310791015625,-9.037500381469727,22.80000114440918,52.368751525878906
1775728225621310700,4.599310791015625,-8.700000762939453,24.11250114440918,52.89375305175781
1775728225631310800,4.609310791015625,-7.631250381469727,24.262500762939453,53.04375076293945
1775728225641310700,4.619310791015625,-6.543750286102295,23.943750381469727,50.83125305175781
1775728225651310800,4.629310791015625,-8.362500190734863,24.20625114440918,50.92500305175781
1775728225661310700,4.639310791015625,-8.362500190734863,24.20625114440918,50.92500305175781
1775728225671310800,4.649310791015625,-6.318750381469727,25.462501525878906,49.275001525878906
1775728225681310700,4.659310791015625,-6.543750286102295,24.262500762939453,51.31875228881836
1775728225691310800,4.669310791015625,-7.275000095367432,24.693750381469727,50.00625228881836
1775728225701310700,4.679310791015625,-4.331250190734863,26.812501907348633,52.593753814697266
1775728225711310800,4.689310791015625,-4.837500095367432,25.23750114440918,52.01250076293945
1775728225721310700,4.699310791015625,-3.3187501430511475,25.106250762939453,51.243751525878906
1775728225731310800,4.709310791015625,-3.6000001430511475,25.200000762939453,50.156253814697266
1775728225741310700,4.719310791015625,-2.4937500953674316,26.475000381469727,50.36250305175781
1775728225751310800,4.729310791015625,-3.356250047683716,23.981250762939453,50.32500076293945
1775728225761310700,4.739310791015625,-2.5875000953674316,24.58125114440918,51.843753814697266
1775728225771310800,4.749310791015625,-1.03125,24.937501907348633,50.025001525878906
1775728225781310700,4.759310791015625,-3.637500047683716,25.256250381469727,52.275001525878906
1775728225791310800,4.769310791015625,-2.418750047683716,24.918750762939453,51.618751525878906
1775728225801310700,4.779310791015625,-1.2000000476837158,24.543750762939453,50.812503814697266
1775728225811310800,4.789310791015625,-3.375000238418579,24.037500381469727,52.462501525878906
1775728225821310700,4.799310791015625,-3.937500238418579,24.525001525878906,50.587501525878906
1775728225831310800,4.809310791015625,-4.706250190734863,24.937501907348633,51.67500305175781
1775728225841310700,4.819310791015625,-1.9500000476837158,25.406251907348633,52.406253814697266
1775728225851310800,4.829310791015625,-1.1062500476837158,23.53125,51.60000228881836
1775728225861310700,4.839310791015625,-2.4562501907348633,24.187501907348633,52.61250305175781
1775728225871310800,4.849310791015625,-0.8812500238418579,25.256250381469727,51.35625076293945
1775728225881310700,4.859310791015625,0.768750011920929,23.850000381469727,49.500003814697266
1775728225891310800,4.869310791015625,0.24375000596046448,22.087501525878906,49.312503814697266
1775728225901310700,4.879310791015625,-0.956250011920929,22.837501525878906,50.19375228881836
1775728225911310800,4.889310791015625,-1.9875000715255737,23.981250762939453,51.13125228881836
1775728225921310700,4.899310791015625,-0.45000001788139343,24.86250114440918,51.26250076293945
1775728225931310800,4.909310791015625,0.4687500298023224,24.337501525878906,50.306251525878906
1775728225941310700,4.919310791015625,-1.21875,24.86250114440918,52.98750305175781
1775728225961310700,4.939310791015625,-1.9687501192092896,24.618751525878906,51.26250076293945
1775728225971310800,4.949310791015625,-2.1000001430511475,24.937501907348633,50.062503814697266
1775728225981310700,4.959310791015625,-1.21875,23.868751525878906,50.400001525878906
1775728225991310800,4.969310791015625,-4.275000095367432,24.131250381469727,52.218753814697266
1775728226001310700,4.979310791015625,-4.162500381469727,23.512500762939453,53.08125305175781
1775728226011310800,4.989310791015625,-5.493750095367432,24,51.243751525878906
1775728226021310700,4.999310791015625,-6.675000190734863,25.23750114440918,52.06875228881836
1775728226031310800,5.009310791015625,-7.462500095367432,23.756250381469727,50.400001525878906
1775728226041310700,5.019310791015625,-9.918750762939453,23.493751525878906,51.95625305175781
1775728226051310800,5.029310791015625,-12.225000381469727,22.856250762939453,51.900001525878906
1775728226061310700,5.039310791015625,-11.40000057220459,24.01875114440918,49.556251525878906
1775728226071310800,5.049310791015625,-13.387500762939453,23.943750381469727,50.73750305175781
1775728226081310700,5.059310791015625,-15.393750190734863,22.78125,50.41875076293945
1775728226091310800,5.069310791015625,-15.731250762939453,21.543750762939453,49.63125228881836
1775728226101310700,5.079310791015625,-16.837501525878906,22.068750381469727,53.28750228881836
1775728226111310800,5.089310791015625,-16.837501525878906,22.068750381469727,53.28750228881836
1775728226121310700,5.099310791015625,-16.818750381469727,21.693750381469727,50.681251525878906
1775728226131310800,5.109310791015625,-19.293750762939453,21.1875,52.33125305175781
1775728226141310700,5.119310791015625,-19.162500381469727,20.55000114440918,53.062503814697266
1775728226151310800,5.129310791015625,-22.537500381469727,19.537500381469727,52.95000076293945
1775728226161310700,5.139310791015625,-21.84375,18.037500381469727,52.931251525878906
1775728226171310800,5.149310791015625,-21.693750381469727,18.056251525878906,53.92500305175781
1775728226181310700,5.159310791015625,-26.17500114440918,16.668750762939453,54.618751525878906
1775728226191310800,5.169310791015625,-25.500001907348633,18.131250381469727,54.31875228881836
1775728226201310700,5.179310791015625,-25.687501907348633,17.306251525878906,54.73125076293945
1775728226211310800,5.189310791015625,-27.225000381469727,16.575000762939453,53.92500305175781
1775728226221310700,5.199310791015625,-25.70625114440918,15.281250953674316,51.093753814697266
1775728226231310800,5.209310791015625,-27.11250114440918,13.725000381469727,49.70625305175781
1775728226241310700,5.219310791015625,-29.718751907348633,13.950000762939453,51.22500228881836
1775728226251310800,5.229310791015625,-29.55000114440918,13.875000953674316,49.95000076293945
1775728226261310700,5.239310791015625,-30.918750762939453,13.74375057220459,49.81875228881836
1775728226271310800,5.249310791015625,-30.637500762939453,12.656250953674316,48.31875228881836
1775728226281310700,5.259310791015625,-32.66250228881836,12.075000762939453,50.38125228881836
1775728226291310800,5.269310791015625,-32.15625,13.256250381469727,49.89375305175781
1775728226301310700,5.279310791015625,-31.89375114440918,11.175000190734863,46.66875076293945
1775728226311310800,5.289310791015625,-34.5,10.6875,47.625
1775728226321310700,5.299310791015625,-33,10.481250762939453,47.98125076293945
1775728226331310800,5.309310791015625,-30.450000762939453,9.131250381469727,47.23125076293945
1775728226341310700,5.319310791015625,-32.90625,9.675000190734863,50.08125305175781
1775728226351310800,5.329310791015625,-31.818750381469727,9.09375,47.8125
1775728226361310700,5.339310791015625,-31.42500114440918,9.65625,42.26250076293945
1775728226371310800,5.349310791015625,-34.462501525878906,7.237500190734863,46.125
1775728226381310700,5.359310791015625,-31.950000762939453,9.28125,46.59375
1775728226391310800,5.369310791015625,-35.32500076293945,9.90000057220459,50.75625228881836
1775728226401310700,5.379310791015625,-32.64375305175781,8.49375057220459,50.55000305175781
1775728226411310800,5.389310791015625,-32.17500305175781,7.912500381469727,48.31875228881836
1775728226421310700,5.399310791015625,-32.92500305175781,9.99375057220459,52.25625228881836
1775728226431310800,5.409310791015625,-32.79375076293945,8.231250762939453,49.650001525878906
1775728226441310700,5.419310791015625,-32.66250228881836,8.456250190734863,51.95625305175781
1775728226451310800,5.429310791015625,-32.66250228881836,8.662500381469727,51.712501525878906
1775728226461310700,5.439310791015625,-33.60000228881836,11.231250762939453,49.687503814697266
1775728226471310800,5.449310791015625,-34.20000076293945,12.412500381469727,52.61250305175781
1775728226481310700,5.459310791015625,-33.76875305175781,11.86875057220459,53.19375228881836
1775728226491310800,5.469310791015625,-34.556251525878906,10.74375057220459,52.29375076293945
1775728226501310700,5.479310791015625,-32.56875228881836,11.006250381469727,52.44375228881836
1775728226511310800,5.489310791015625,-31.33125114440918,12,53.306251525878906
1775728226521310700,5.499310791015625,-31.181251525878906,12.112500190734863,53.17500305175781
1775728226531310800,5.509310791015625,-30.993751525878906,13.237500190734863,53.250003814697266
1775728226541310700,5.519310791015625,-26.568750381469727,12.843750953674316,51.35625076293945
1775728226551310800,5.529310791015625,-26.568750381469727,12.843750953674316,51.35625076293945
1775728226561310700,5.539310791015625,-29.193750381469727,16.125,52.48125076293945
1775728226571310800,5.549310791015625,-26.962501525878906,15.843750953674316,54.900001525878906
1775728226581310700,5.559310791015625,-26.962501525878906,15.843750953674316,54.900001525878906
1775728226591310800,5.569310791015625,-25.912500381469727,15.731250762939453,54.993751525878906
1775728226601310700,5.579310791015625,-22.537500381469727,16.293750762939453,54.60000228881836
1775728226611310800,5.589310791015625,-20.36250114440918,17.287500381469727,54.58125305175781
1775728226621310700,5.599310791015625,-19.087501525878906,19.537500381469727,55.53750228881836
1775728226631310800,5.609310791015625,-19.068750381469727,19.631250381469727,54.431251525878906
1775728226641310700,5.619310791015625,-18.600000381469727,19.575000762939453,54.13125228881836
1775728226651310800,5.629310791015625,-16.368751525878906,18.28125,53.83125305175781
1775728226661310700,5.639310791015625,-16.78125,20.0625,54.88125228881836
1775728226671310800,5.649310791015625,-16.96875,18.993751525878906,55.23750305175781
1775728226681310700,5.659310791015625,-17.4375,19.106250762939453,55.98750305175781
1775728226691310800,5.669310791015625,-13.856250762939453,20.71875,54.35625076293945
1775728226701310700,5.679310791015625,-13.256250381469727,20.625,54.468753814697266
1775728226711310800,5.689310791015625,-12.975000381469727,20.34375,55.10625076293945
1775728226721310700,5.699310791015625,-11.981250762939453,22.368751525878906,55.33125305175781
1775728226731310800,5.709310791015625,-11.100000381469727,21.450000762939453,54.281253814697266
1775728226741310700,5.719310791015625,-9.24375057220459,22.725000381469727,55.33125305175781
1775728226751310800,5.729310791015625,-10.762500762939453,20.71875,50.04375076293945
1775728226761310700,5.739310791015625,-9.975000381469727,22.40625,53.17500305175781
1775728226771310800,5.749310791015625,-8.737500190734863,22.80000114440918,52.368751525878906
1775728226781310700,5.759310791015625,-6.637500286102295,22.5,53.812503814697266
1775728226791310800,5.769310791015625,-6.150000095367432,23.025001525878906,53.19375228881836
1775728226801310700,5.779310791015625,-6.093750476837158,24.11250114440918,51.97500228881836
1775728226811310800,5.789310791015625,-5.512500286102295,23.756250381469727,52.181251525878906
1775728226821310700,5.799310791015625,-3.9562501907348633,24.731250762939453,52.05000305175781
1775728226831310800,5.809310791015625,-2.0062501430511475,24.48750114440918,52.931251525878906
1775728226841310700,5.819310791015625,-4.762500286102295,22.96875,51.01875305175781
1775728226851310800,5.829310791015625,-2.793750047683716,23.100000381469727,51.97500228881836
1775728226861310700,5.839310791015625,-4.181250095367432,21.84375,50.23125076293945
1775728226871310800,5.849310791015625,-2.5687501430511475,24.262500762939453,49.650001525878906
1775728226881310700,5.859310791015625,-0.6375000476837158,22.33125114440918,47.55000305175781
1775728226891310800,5.869310791015625,-1.8000000715255737,24.993751525878906,50.47500228881836
1775728226901310700,5.879310791015625,1.3687500953674316,23.64375114440918,48.86250305175781
1775728226911310800,5.889310791015625,0.6000000238418579,23.793750762939453,49.91250228881836
1775728226921310700,5.899310791015625,-1.2000000476837158,24.806251525878906,50.85000228881836
1775728226931310800,5.909310791015625,0.24375000596046448,22.575000762939453,50.10000228881836
1775728226941310700,5.919310791015625,-0.956250011920929,22.875,50.47500228881836
1775728226951310800,5.929310791015625,1.350000023841858,24,51.337501525878906
1775728226961310700,5.939310791015625,1.5750000476837158,24.656251907348633,48.20625305175781
1775728226971310800,5.949310791015625,1.256250023841858,25.275001525878906,50.73750305175781
1775728226981310700,5.959310791015625,0.6000000238418579,24.150001525878906,50.681251525878906
1775728226991310800,5.969310791015625,0.6000000238418579,24.150001525878906,50.681251525878906
1775728227001310700,5.979310791015625,1.5187500715255737,23.793750762939453,49.031253814697266
1775728227011310800,5.989310791015625,1.9875000715255737,23.681251525878906,48.30000305175781
1775728227021310700,5.999310791015625,3.5250000953674316,24.468751907348633,49.53750228881836
1775728227031310800,6.009310791015625,2.25,23.850000381469727,51.150001525878906
1775728227041310700,6.019310791015625,1.5562500953674316,25.181251525878906,50.00625228881836
1775728227051310800,6.029310791015625,0.768750011920929,23.850000381469727,49.500003814697266
1775728227061310700,6.039310791015625,1.8562500476837158,25.125001907348633,50.55000305175781
1775728227071310800,6.049310791015625,1.0875000953674316,24.168750762939453,48.281253814697266
1775728227081310700,6.059310791015625,1.068750023841858,23.681251525878906,49.16250228881836
1775728227091310800,6.069310791015625,-1.0125000476837158,25.631250381469727,50.587501525878906
1775728227101310700,6.079310791015625,1.21875,23.26875114440918,47.25
1775728227111310800,6.089310791015625,2.1750001907348633,23.981250762939453,46.931251525878906
1775728227121310700,6.099310791015625,0.35625001788139343,23.92500114440918,46.556251525878906
1775728227131310800,6.109310791015625,-1.0500000715255737,24.150001525878906,48.88125228881836
1775728227141310700,6.119310791015625,2.2875001430511475,24.225000381469727,49.51875305175781
1775728227151310800,6.129310791015625,0.5062500238418579,24.712501525878906,48.525001525878906
1775728227161310700,6.139310791015625,-0.4125000238418579,24.037500381469727,47.306251525878906
1775728227171310800,6.149310791015625,0.5062500238418579,24.525001525878906,47.23125076293945
1775728227181310700,6.159310791015625,-2.5500001907348633,23.400001525878906,46.38750076293945
1775728227191310800,6.169310791015625,-2.0062501430511475,22.443750381469727,47.45625305175781
1775728227201310700,6.179310791015625,-4.387500286102295,24.01875114440918,47.962501525878906
1775728227211310800,6.189310791015625,-5.868750095367432,24.918750762939453,48.16875076293945
1775728227221310700,6.199310791015625,-6.337500095367432,24.750001907348633,48.712501525878906
1775728227231310800,6.209310791015625,-8.362500190734863,23.212501525878906,48.337501525878906
1775728227241310700,6.219310791015625,-10.3125,24.750001907348633,50.38125228881836
1775728227251310800,6.229310791015625,-11.0625,23.568750381469727,46.5
1775728227261310700,6.239310791015625,-12.975000381469727,22.162500381469727,49.66875076293945
1775728227271310800,6.249310791015625,-13.425000190734863,21.918750762939453,47.94375228881836
1775728227281310700,6.259310791015625,-13.968750953674316,19.200000762939453,47.306251525878906
1775728227291310800,6.269310791015625,-14.49375057220459,21.95625114440918,48.26250076293945
1775728227301310700,6.279310791015625,-14.68125057220459,20.118751525878906,46.78125
1775728227311310800,6.289310791015625,-16.70625114440918,20.212501525878906,49.968753814697266
1775728227321310700,6.299310791015625,-17.606250762939453,20.306251525878906,49.72500228881836
1775728227331310800,6.309310791015625,-17.850000381469727,18.037500381469727,49.57500076293945
1775728227341310700,6.319310791015625,-20.100000381469727,19.106250762939453,50.83125305175781
1775728227351310800,6.329310791015625,-20.71875,18.618751525878906,50.88750076293945
1775728227361310700,6.339310791015625,-21.450000762939453,19.59375,50.812503814697266
1775728227371310800,6.349310791015625,-23.943750381469727,17.90625,51.13125228881836
1775728227381310700,6.359310791015625,-23.73750114440918,17.981250762939453,46.48125076293945
1775728227391310800,6.369310791015625,-24.656251907348633,18.131250381469727,48.375003814697266
1775728227401310700,6.379310791015625,-24.975000381469727,17.868751525878906,48.31875228881836
1775728227411310800,6.389310791015625,-26.26875114440918,15.468750953674316,47.19375228881836
1775728227421310700,6.399310791015625,-27.95625114440918,15.731250762939453,49.837501525878906
1775728227431310800,6.409310791015625,-27.95625114440918,15.731250762939453,49.837501525878906
1775728227441310700,6.419310791015625,-27.900001525878906,16.80000114440918,48.618751525878906
1775728227451310800,6.429310791015625,-28.837501525878906,16.33125114440918,48.843753814697266
1775728227461310700,6.439310791015625,-28.837501525878906,16.33125114440918,48.843753814697266
1775728227471310800,6.449310791015625,-29.55000114440918,12.24375057220459,45.54375076293945
1775728227481310700,6.459310791015625,-27.975000381469727,14.887500762939453,48.26250076293945
1775728227491310800,6.469310791015625,-31.068750381469727,12.937500953674316,47.681251525878906
1775728227501310700,6.479310791015625,-30.318750381469727,12.975000381469727,47.962501525878906
1775728227511310800,6.489310791015625,-33.1875,13.537500381469727,48.431251525878906
1775728227521310700,6.499310791015625,-30.375001907348633,10.818750381469727,45.993751525878906
1775728227531310800,6.509310791015625,-30.20625114440918,11.49375057220459,47.25
1775728227541310700,6.519310791015625,-30.918750762939453,12.937500953674316,46.837501525878906
1775728227551310800,6.529310791015625,-31.42500114440918,12.018750190734863,48.22500228881836
1775728227561310700,6.539310791015625,-31.256250381469727,11.662500381469727,46.59375
1775728227571310800,6.549310791015625,-32.64375305175781,11.700000762939453,47.775001525878906
1775728227581310700,6.559310791015625,-34.91250228881836,11.86875057220459,47.15625
1775728227591310800,6.569310791015625,-35.04375076293945,12.168750762939453,47.51250076293945
1775728227601310700,6.579310791015625,-31.687501907348633,12.937500953674316,48.54375076293945
1775728227611310800,6.589310791015625,-30.48750114440918,12.543750762939453,48.45000076293945
1775728227621310700,6.599310791015625,-29.625001907348633,11.96250057220459,49.57500076293945
1775728227631310800,6.609310791015625,-31.350000381469727,13.83750057220459,47.868751525878906
1775728227641310700,6.619310791015625,-32.13750076293945,12.975000381469727,48
1775728227651310800,6.629310791015625,-30.150001525878906,12.637500762939453,46.48125076293945
1775728227661310700,6.639310791015625,-31.70625114440918,13.050000190734863,49.275001525878906
1775728227671310800,6.649310791015625,-31.312501907348633,11.643750190734863,50.83125305175781
1775728227681310700,6.659310791015625,-29.700000762939453,13.875000953674316,49.10625076293945
1775728227691310800,6.669310791015625,-29.981250762939453,13.93125057220459,48.562503814697266
1775728227701310700,6.679310791015625,-25.837501525878906,15.675000190734863,50.32500076293945
1775728227711310800,6.689310791015625,-27.225000381469727,14.662500381469727,49.33125305175781
1775728227721310700,6.699310791015625,-25.312501907348633,16.743751525878906,48.26250076293945
1775728227731310800,6.709310791015625,-25.481250762939453,16.743751525878906,49.10625076293945
1775728227741310700,6.719310791015625,-24.787500381469727,16.087501525878906,51.50625228881836
1775728227751310800,6.729310791015625,-23.043750762939453,18.09375,51.562503814697266
1775728227761310700,6.739310791015625,-20.325000762939453,17.400001525878906,51.07500076293945
1775728227771310800,6.749310791015625,-20.625,17.850000381469727,52.44375228881836
1775728227781310700,6.759310791015625,-18.037500381469727,17.418750762939453,51.30000305175781
1775728227791310800,6.769310791015625,-17.868751525878906,18.506250381469727,52.781253814697266
1775728227801310700,6.779310791015625,-16.3125,18.9375,51.41250228881836
1775728227811310800,6.789310791015625,-17.381250381469727,18.225000381469727,50.025001525878906
1775728227821310700,6.799310791015625,-16.931251525878906,18.76875114440918,51.95625305175781
1775728227831310800,6.809310791015625,-16.912500381469727,19.40625,52.06875228881836
1775728227841310700,6.819310791015625,-15.99375057220459,19.631250381469727,51.95625305175781
1775728227851310800,6.829310791015625,-15.206250190734863,21.225000381469727,54.35625076293945
1775728227861310700,6.839310791015625,-14.756250381469727,19.668750762939453,50.51250076293945
1775728227871310800,6.849310791015625,-13.050000190734863,20.83125114440918,50.83125305175781
1775728227881310700,6.859310791015625,-13.050000190734863,20.83125114440918,50.83125305175781
1775728227891310800,6.869310791015625,-13.481250762939453,20.887500762939453,49.44375228881836
1775728227901310700,6.879310791015625,-9.825000762939453,21.600000381469727,51.03750228881836
1775728227911310800,6.889310791015625,-10.46250057220459,20.15625,48.806251525878906
1775728227921310700,6.899310791015625,-9.300000190734863,18.9375,48.95625305175781
1775728227931310800,6.909310791015625,-8.4375,21.431251525878906,48.993751525878906
1775728227941310700,6.919310791015625,-8.418750762939453,21.01875114440918,46.23750305175781
1775728227951310800,6.929310791015625,-7.218750476837158,20.981250762939453,46.76250076293945
1775728227961310700,6.939310791015625,-6.862500190734863,22.106250762939453,46.81875228881836
1775728227971310800,6.949310791015625,-3.6750001907348633,21.39375114440918,45.31875228881836
1775728227981310700,6.959310791015625,-3.5062501430511475,22.762500762939453,47.13750076293945
1775728227991310800,6.969310791015625,-3.6187500953674316,23.418750762939453,46.42500305175781
1775728228001310700,6.979310791015625,-4.462500095367432,22.23750114440918,48.618751525878906
1775728228011310800,6.989310791015625,-3.9937500953674316,22.5,49.500003814697266
1775728228021310700,6.999310791015625,-3.2250001430511475,22.3125,48.31875228881836
1775728228031310800,7.009310791015625,-3.637500047683716,23.8125,49.181251525878906
1775728228041310700,7.019310791015625,-2.5875000953674316,22.650001525878906,47.23125076293945
1775728228051310800,7.029310791015625,-1.03125,24.30000114440918,48.20625305175781
1775728228061310700,7.039310791015625,-2.4562501907348633,23.381250381469727,49.63125228881836
1775728228071310800,7.049310791015625,-1.9687501192092896,23.90625,49.01250076293945
1775728228081310700,7.059310791015625,-0.4312500059604645,23.793750762939453,48.243751525878906
1775728228091310800,7.069310791015625,-1.6687500476837158,23.118751525878906,47.868751525878906
1775728228101310700,7.079310791015625,3.6000001430511475,25.818750381469727,47.681251525878906
1775728228111310800,7.089310791015625,0.4687500298023224,23.793750762939453,49.06875228881836
1775728228121310700,7.099310791015625,0.6937500238418579,24.600000381469727,45.26250076293945
1775728228131310800,7.109310791015625,0.8250000476837158,24.412500381469727,46.5
1775728228141310700,7.119310791015625,2.0250000953674316,24.693750381469727,48.48750305175781
1775728228151310800,7.129310791015625,2.2875001430511475,22.78125,46.42500305175781
1775728228161310700,7.139310791015625,1.9875000715255737,22.575000762939453,44.98125076293945
1775728228171310800,7.149310791015625,0.7875000238418579,23.025001525878906,45.525001525878906
1775728228181310700,7.159310791015625,4.162500381469727,23.587501525878906,44.26875305175781
1775728228191310800,7.169310791015625,1.8375000953674316,22.481250762939453,45.243751525878906
1775728228201310700,7.179310791015625,2.137500047683716,21.993751525878906,44.4375
1775728228211310800,7.189310791015625,2.3062500953674316,23.118751525878906,46.20000076293945
1775728228221310700,7.199310791015625,3.5062501430511475,22.668750762939453,45.65625
1775728228231310800,7.209310791015625,2.34375,23.90625,45.65625
1775728228241310700,7.219310791015625,1.5562500953674316,23.100000381469727,44.38125228881836
1775728228251310800,7.229310791015625,2.7750000953674316,22.912500381469727,44.73750305175781
1775728228261310700,7.239310791015625,1.5562500953674316,22.856250762939453,44.34375
1775728228271310800,7.249310791015625,2.1937501430511475,23.493751525878906,43.59375
1775728228281310700,7.259310791015625,4.631250381469727,23.73750114440918,44.41875076293945
1775728228291310800,7.269310791015625,2.606250047683716,22.743751525878906,45.28125
1775728228301310700,7.279310791015625,2.606250047683716,23.587501525878906,46.85625076293945
1775728228311310800,7.289310791015625,-0.11250000447034836,23.400001525878906,45.46875
1775728228321310700,7.299310791015625,-0.11250000447034836,23.400001525878906,45.46875
1775728228331310800,7.309310791015625,2.043750047683716,23.8125,44.92500305175781
1775728228341310700,7.319310791015625,2.043750047683716,23.8125,44.92500305175781
1775728228351310800,7.329310791015625,-0.24375000596046448,24.468751907348633,46.81875228881836
1775728228361310700,7.339310791015625,-1.7812501192092896,23.71875,46.01250076293945
1775728228371310800,7.349310791015625,0.39375001192092896,24.562501907348633,44.98125076293945
1775728228381310700,7.359310791015625,-4.818750381469727,23.64375114440918,45.35625076293945
1775728228391310800,7.369310791015625,-4.837500095367432,23.45625114440918,46.743751525878906
1775728228401310700,7.379310791015625,-5.887500286102295,23.15625,44.587501525878906
1775728228411310800,7.389310791015625,-7.256250381469727,23.118751525878906,45.1875
1775728228421310700,7.399310791015625,-9.675000190734863,23.662500381469727,45.50625228881836
1775728228431310800,7.409310791015625,-8.96250057220459,22.856250762939453,46.72500228881836
1775728228441310700,7.419310791015625,-8.606250762939453,23.512500762939453,44.45625305175781
1775728228451310800,7.429310791015625,-11.96250057220459,22.818750381469727,43.98750305175781
1775728228461310700,7.439310791015625,-13.406250953674316,22.556251525878906,48.056251525878906
1775728228471310800,7.449310791015625,-14.96250057220459,21.84375,49.23750305175781
1775728228481310700,7.459310791015625,-16.162500381469727,22.40625,49.66875076293945
1775728228491310800,7.469310791015625,-15.450000762939453,21.056251525878906,48.95625305175781
1775728228501310700,7.479310791015625,-15.843750953674316,22.61250114440918,49.275001525878906
1775728228511310800,7.489310791015625,-19.33125114440918,18.693750381469727,49.743751525878906
1775728228521310700,7.499310791015625,-21.39375114440918,21.131250381469727,51.11250305175781
1775728228531310800,7.509310791015625,-20.681251525878906,19.5,50.08125305175781
1775728228541310700,7.519310791015625,-22.556251525878906,18.618751525878906,50.94375228881836
1775728228551310800,7.529310791015625,-23.90625,18.225000381469727,49.06875228881836
1775728228561310700,7.539310791015625,-27.225000381469727,18.787500381469727,48.562503814697266
1775728228571310800,7.549310791015625,-26.062501907348633,16.5,46.53750228881836
1775728228581310700,7.559310791015625,-27.58125114440918,16.912500381469727,47.64375305175781
1775728228591310800,7.569310791015625,-29.887500762939453,15.975000381469727,47.25
1775728228601310700,7.579310791015625,-29.36250114440918,13.950000762939453,46.98750305175781
1775728228611310800,7.589310791015625,-31.70625114440918,15.956250190734863,47.00625228881836
1775728228621310700,7.599310791015625,-31.931251525878906,14.325000762939453,47.83125305175781
1775728228631310800,7.609310791015625,-30.993751525878906,14.006250381469727,44.775001525878906
1775728228641310700,7.619310791015625,-32.88750076293945,12.787500381469727,46.72500228881836
1775728228651310800,7.629310791015625,-35.85000228881836,11.25,48.056251525878906
1775728228661310700,7.639310791015625,-35.98125076293945,11.943750381469727,47.625
1775728228671310800,7.649310791015625,-34.125,12.99375057220459,48.056251525878906
1775728228681310700,7.659310791015625,-33.69375228881836,10.987500190734863,45.41250228881836
1775728228691310800,7.669310791015625,-34.5,9.71250057220459,45.1875
1775728228701310700,7.679310791015625,-36.03750228881836,9.5625,45.900001525878906
1775728228711310800,7.689310791015625,-35.70000076293945,10.893750190734863,46.42500305175781
1775728228721310700,7.699310791015625,-36.58125305175781,11.643750190734863,46.462501525878906
1775728228731310800,7.709310791015625,-34.10625076293945,12.693750381469727,46.03125
1775728228741310700,7.719310791015625,-36.337501525878906,9.300000190734863,44.868751525878906
1775728228751310800,7.729310791015625,-34.95000076293945,10.5,46.33125305175781
1775728228761310700,7.739310791015625,-34.95000076293945,10.5,46.33125305175781
1775728228771310800,7.749310791015625,-35.8125,12.318750381469727,48.54375076293945
1775728228781310700,7.759310791015625,-32.98125076293945,11.175000190734863,48.39375305175781
1775728228791310800,7.769310791015625,-35.625,12.225000381469727,45.26250076293945
1775728228801310700,7.779310791015625,-34.91250228881836,11.86875057220459,47.15625
1775728228811310800,7.789310791015625,-33.16875076293945,14.231250762939453,48.843753814697266
1775728228821310700,7.799310791015625,-32.13750076293945,13.83750057220459,49.57500076293945
1775728228831310800,7.809310791015625,-32.94375228881836,12.018750190734863,48.26250076293945
1775728228841310700,7.819310791015625,-31.70625114440918,12.543750762939453,48.468753814697266
1775728228851310800,7.829310791015625,-32.85000228881836,14.700000762939453,49.48125076293945
1775728228861310700,7.839310791015625,-31.350000381469727,14.418750762939453,49.38750076293945
1775728228871310800,7.849310791015625,-29.325000762939453,15.543750762939453,49.406253814697266
1775728228881310700,7.859310791015625,-27.056251525878906,16.106250762939453,51.58125305175781
1775728228891310800,7.869310791015625,-27.037500381469727,16.42500114440918,51.20625305175781
1775728228901310700,7.879310791015625,-23.34375,17.700000762939453,50.51250076293945
1775728228911310800,7.889310791015625,-24.993751525878906,17.700000762939453,49.70625305175781
1775728228921310700,7.899310791015625,-21,18.150001525878906,47.71875
1775728228931310800,7.909310791015625,-23.887500762939453,18.918750762939453,49.48125076293945
1775728228941310700,7.919310791015625,-20.53125,18.337501525878906,47.306251525878906
1775728228951310800,7.929310791015625,-19.78125,18.787500381469727,48.63750076293945
1775728228961310700,7.939310791015625,-20.212501525878906,20.381250381469727,51.91875076293945
1775728228971310800,7.949310791015625,-17.025001525878906,19.40625,48.69375228881836
1775728228981310700,7.959310791015625,-16.51875114440918,21.600000381469727,51.76875305175781
1775728228991310800,7.969310791015625,-16.575000762939453,19.762500762939453,50.306251525878906
1775728229001310700,7.979310791015625,-13.46250057220459,21.67500114440918,50.587501525878906
1775728229011310800,7.989310791015625,-13.031250953674316,21.993751525878906,52.743751525878906
1775728229021310700,7.999310791015625,-12.131250381469727,20.83125114440918,49.968753814697266
1775728229031310800,8.009310791015626,-13.443750381469727,22.012500762939453,50.36250305175781
1775728229041310700,8.019310791015625,-11.175000190734863,22.05000114440918,50.587501525878906
1775728229051310800,8.029310791015625,-11.325000762939453,21.787500381469727,49.70625305175781
1775728229061310700,8.039310791015625,-11.418750762939453,23.17500114440918,49.81875228881836
1775728229071310800,8.049310791015625,-9.61875057220459,22.89375114440918,50.437503814697266
1775728229081310700,8.059310791015625,-9.131250381469727,23.418750762939453,49.81875228881836
1775728229091310800,8.069310791015624,-8.68125057220459,23.212501525878906,49.20000076293945
1775728229101310700,8.079310791015626,-8.30625057220459,24.787500381469727,48.07500076293945
1775728229111310800,8.089310791015626,-10.59375,25.031251907348633,49.743751525878906
1775728229121310700,8.099310791015625,-8.02500057220459,24.187501907348633,48.243751525878906
1775728229131310800,8.109310791015625,-5.137500286102295,23.850000381469727,46.81875228881836
1775728229141310700,8.119310791015625,-5.606250286102295,23.53125,47.19375228881836
1775728229151310800,8.129310791015625,-5.100000381469727,23.850000381469727,45.13125228881836
1775728229161310700,8.139310791015625,-3.6000001430511475,23.793750762939453,46.5
1775728229171310800,8.149310791015624,-4.800000190734863,24.450000762939453,46.650001525878906
1775728229181310700,8.159310791015624,-2.4375,23.26875114440918,48.900001525878906
1775728229191310800,8.169310791015626,-2.6625001430511475,25.781251907348633,48.95625305175781
1775728229201310700,8.179310791015626,-2.6625001430511475,25.781251907348633,48.95625305175781
1775728229211310800,8.189310791015625,-1.9687501192092896,22.912500381469727,46.42500305175781
1775728229221310700,8.199310791015625,-1.9687501192092896,22.912500381469727,46.42500305175781
1775728229231310800,8.209310791015625,-3.3000001907348633,23.193750381469727,44.962501525878906
1775728229241310700,8.219310791015625,0.1875,23.231250762939453,45.150001525878906
1775728229251310800,8.229310791015624,-0.20625001192092896,24.993751525878906,46.20000076293945
1775728229261310700,8.239310791015624,-0.5250000357627869,24.993751525878906,46.21875
1775728229271310800,8.249310791015626,-1.1437500715255737,23.868751525878906,44.45625305175781
1775728229281310700,8.259310791015626,0.16875000298023224,23.025001525878906,45.54375076293945
1775728229291310800,8.269310791015625,-1.350000023841858,23.606250762939453,47.8125
1775728229301310700,8.279310791015625,-2.0250000953674316,25.931251525878906,48.26250076293945
1775728229311310800,8.289310791015625,-0.375,25.275001525878906,47.25
1775728229321310700,8.299310791015625,2.15625,24.468751907348633,48.58125305175781
1775728229331310800,8.309310791015625,1.125,25.106250762939453,48.73125076293945
1775728229341310700,8.319310791015624,0.375,24.918750762939453,47.45625305175781
1775728229351310800,8.329310791015626,0.375,24.637500762939453,47.10000228881836
1775728229361310700,8.339310791015626,2.0812501907348633,25.725000381469727,46.98750305175781
1775728229371310800,8.349310791015625,1.125,24.618751525878906,47.08125305175781
1775728229381310700,8.359310791015625,2.0812501907348633,25.23750114440918,46.20000076293945
1775728229391310800,8.369310791015625,0.8812500238418579,25.42500114440918,44.85000228881836
1775728229401310700,8.379310791015625,1.8937500715255737,24.337501525878906,45.1875
1775728229411310800,8.389310791015625,2.793750047683716,23.493751525878906,44.41875076293945
1775728229421310700,8.399310791015624,2.7375001907348633,26.118751525878906,44.51250076293945
1775728229431310800,8.409310791015624,1.912500023841858,25.05000114440918,45.73125076293945
1775728229441310700,8.419310791015626,1.912500023841858,24.450000762939453,44.212501525878906
1775728229451310800,8.429310791015626,2.3812501430511475,24.656251907348633,43.95000076293945
1775728229461310700,8.439310791015625,1.350000023841858,26.587501525878906,46.89375305175781
1775728229471310800,8.449310791015625,2.700000047683716,25.125001907348633,44.60625076293945
1775728229481310700,8.459310791015625,0.4312500059604645,25.856250762939453,45.22500228881836
1775728229491310800,8.469310791015625,0.4125000238418579,25.312501907348633,45.82500076293945
1775728229501310700,8.479310791015624,-0.9375000596046448,25.500001907348633,45.337501525878906
1775728229511310800,8.489310791015624,-1.9875000715255737,26.400001525878906,45.525001525878906
1775728229521310700,8.499310791015626,-0.9187500476837158,26.137500762939453,45.45000076293945
1775728229531310800,8.509310791015626,-2.6437501907348633,25.181251525878906,46.59375
1775728229541310700,8.519310791015625,-5.100000381469727,24.843751907348633,47.71875
1775728229551310800,8.529310791015625,-5.662500381469727,24.918750762939453,44.79375076293945
1775728229561310700,8.539310791015625,-8.568750381469727,25.293750762939453,46.48125076293945
1775728229571310800,8.549310791015625,-10.387500762939453,25.42500114440918,47.26875305175781
1775728229581310700,8.559310791015625,-9.46875,25.856250762939453,46.89375305175781
1775728229591310800,8.569310791015624,-13.031250953674316,23.850000381469727,46.743751525878906
1775728229601310700,8.579310791015626,-13.331250190734863,24.075000762939453,47.36250305175781
1775728229611310800,8.589310791015626,-17.118751525878906,25.087501525878906,48.375003814697266
1775728229621310700,8.599310791015625,-16.106250762939453,22.89375114440918,46.931251525878906
1775728229631310800,8.609310791015625,-16.743751525878906,21.39375114440918,44.400001525878906
1775728229641310700,8.619310791015625,-17.512500762939453,21.787500381469727,47.04375076293945
1775728229651310800,8.629310791015625,-17.512500762939453,21.787500381469727,47.04375076293945
1775728229661310700,8.639310791015625,-19.387500762939453,21.056251525878906,47.94375228881836
1775728229671310800,8.649310791015624,-20.493751525878906,20.0625,48.900001525878906
1775728229681310700,8.659310791015624,-19.012500762939453,19.162500381469727,48.69375228881836
1775728229691310800,8.669310791015626,-20.475000381469727,20.662500381469727,48.73125076293945
1775728229701310700,8.679310791015626,-21.243751525878906,19.931251525878906,47.90625
1775728229711310800,8.689310791015625,-21.75,18.58125114440918,48.093753814697266
1775728229721310700,8.699310791015625,-24.656251907348633,17.92500114440918,46.91250228881836
1775728229731310800,8.709310791015625,-26.193750381469727,17.887500762939453,48.35625076293945
1775728229741310700,8.719310791015625,-26.493751525878906,17.34375,47.28750228881836
1775728229751310800,8.729310791015624,-26.36250114440918,16.5,46.556251525878906
1775728229761310700,8.739310791015624,-28.537500381469727,14.86875057220459,44.73750305175781
1775728229771310800,8.749310791015626,-28.387500762939453,14.700000762939453,45.26250076293945
1775728229781310700,8.759310791015626,-31.537500381469727,15.881250381469727,45.73125076293945
1775728229791310800,8.769310791015625,-30.525001525878906,14.850000381469727,46.35000228881836
1775728229801310700,8.779310791015625,-31.950000762939453,13.012500762939453,44.75625228881836
1775728229811310800,8.789310791015625,-32.38125228881836,14.231250762939453,47.118751525878906
1775728229821310700,8.799310791015625,-31.98750114440918,11.793750762939453,44.94375228881836
1775728229831310800,8.809310791015625,-30.431251525878906,13.425000190734863,45.91875076293945
1775728229841310700,8.819310791015624,-30.600000381469727,12.15000057220459,44.85000228881836
1775728229851310800,8.829310791015626,-33.48750305175781,11.943750381469727,44.32500076293945
1775728229861310700,8.839310791015626,-33.97500228881836,12.206250190734863,46.06875228881836
1775728229871310800,8.849310791015625,-31.312501907348633,9.412500381469727,44.0625
1775728229881310700,8.859310791015625,-35.17500305175781,11.96250057220459,45.20625305175781
1775728229891310800,8.869310791015625,-32.868751525878906,12.487500190734863,44.55000305175781
1775728229901310700,8.879310791015625,-32.775001525878906,11.30625057220459,45.86250305175781
1775728229911310800,8.889310791015625,-34.81875228881836,10.237500190734863,47.13750076293945
1775728229921310700,8.899310791015624,-34.14375305175781,10.875,44.70000076293945
1775728229931310800,8.909310791015624,-35.08125305175781,10.78125,46.53750228881836
1775728229941310700,8.919310791015626,-33.712501525878906,10.387500762939453,45.58125305175781
1775728229951310800,8.929310791015626,-31.668750762939453,12.037500381469727,45
1775728229961310700,8.939310791015625,-31.931251525878906,13.706250190734863,45.31875228881836
1775728229971310800,8.949310791015625,-32.45625305175781,11.512500762939453,45.618751525878906
1775728229981310700,8.959310791015625,-33.712501525878906,11.137500762939453,46.42500305175781
1775728229991310800,8.969310791015625,-33.20625305175781,12.693750381469727,46.85625076293945
1775728230001310700,8.979310791015624,-32.868751525878906,12.581250190734863,45.26250076293945
1775728230011310800,8.989310791015624,-30.543750762939453,14.550000190734863,46.01250076293945
1775728230021310700,8.999310791015626,-28.387500762939453,16.162500381469727,48.50625228881836
1775728230031310800,9.009310791015626,-29.306251525878906,15.450000762939453,46.98750305175781
1775728230041310700,9.019310791015625,-26.381250381469727,16.650001525878906,47.56875228881836
1775728230051310800,9.029310791015625,-26.250001907348633,16.21875,48.03750228881836
1775728230061310700,9.039310791015625,-23.606250762939453,16.80000114440918,45.26250076293945
1775728230071310800,9.049310791015625,-24.131250381469727,15.656250953674316,47.60625076293945
1775728230081310700,9.059310791015625,-23.775001525878906,17.26875114440918,47.60625076293945
1775728230091310800,9.069310791015624,-24.787500381469727,18.76875114440918,47.64375305175781
1775728230101310700,9.079310791015626,-24.787500381469727,18.76875114440918,47.64375305175781
1775728230111310800,9.089310791015626,-22.762500762939453,20.793750762939453,49.53750228881836
1775728230121310700,9.099310791015625,-22.368751525878906,18.975000381469727,49.875003814697266
1775728230131310800,9.109310791015625,-22.181251525878906,19.40625,47.70000076293945
1775728230141310700,9.119310791015625,-19.725000381469727,19.912500381469727,47.868751525878906
1775728230151310800,9.129310791015625,-17.90625,19.70625114440918,47.36250305175781
1775728230161310700,9.139310791015625,-17.606250762939453,19.912500381469727,48.656253814697266
1775728230171310800,9.149310791015624,-18.731250762939453,18.1875,47.94375228881836
1775728230181310700,9.159310791015624,-17.400001525878906,21.1875,48.056251525878906
1775728230191310800,9.169310791015626,-17.25,21.48750114440918,49.23750305175781
1775728230201310700,9.179310791015626,-16.03125,21.28125,47.88750076293945
1775728230211310800,9.189310791015625,-15.375000953674316,22.98750114440918,49.33125305175781
1775728230221310700,9.199310791015625,-15.075000762939453,22.556251525878906,48.95625305175781
1775728230231310800,9.209310791015625,-14.568750381469727,24.075000762939453,48.243751525878906
1775728230241310700,9.219310791015625,-13.36875057220459,22.6875,46.38750076293945
1775728230251310800,9.229310791015624,-12.731250762939453,22.931251525878906,44.73750305175781
1775728230261310700,9.239310791015624,-11.68125057220459,23.043750762939453,45.431251525878906
1775728230271310800,9.249310791015626,-9.581250190734863,22.162500381469727,45.48750305175781
1775728230281310700,9.259310791015626,-11.081250190734863,23.45625114440918,47.47500228881836
1775728230291310800,9.269310791015625,-10.293750762939453,23.981250762939453,46.837501525878906
1775728230301310700,9.279310791015625,-8.756250381469727,23.83125114440918,45.78750228881836
1775728230311310800,9.289310791015625,-7.856250286102295,23.15625,44.64375305175781
1775728230321310700,9.299310791015625,-6.581250190734863,21.30000114440918,45.525001525878906
1775728230331310800,9.309310791015625,-6.318750381469727,24.281251907348633,45.525001525878906
1775728230341310700,9.319310791015624,-7.425000190734863,23.118751525878906,46.03125
1775728230351310800,9.329310791015626,-5.550000190734863,24.337501525878906,45.9375
1775728230361310700,9.339310791015626,-4.181250095367432,23.850000381469727,44.25
1775728230371310800,9.349310791015625,-4.800000190734863,22.89375114440918,42.82500076293945
1775728230381310700,9.359310791015625,-3.4125001430511475,23.418750762939453,43.03125
1775728230391310800,9.369310791015625,-2.6625001430511475,21.787500381469727,38.73750305175781
1775728230401310700,9.379310791015625,-0.24375000596046448,21.431251525878906,38.88750076293945
1775728230411310800,9.389310791015625,-4.650000095367432,23.100000381469727,43.42500305175781
1775728230421310700,9.399310791015624,-3.3937501907348633,25.443750381469727,46.650001525878906
1775728230431310800,9.409310791015624,-3.8625001907348633,23.73750114440918,43.51875305175781
1775728230441310700,9.419310791015626,-1.8000000715255737,22.443750381469727,44.0625
1775728230451310800,9.429310791015626,-0.862500011920929,23.71875,45.13125228881836
1775728230461310700,9.439310791015625,-1.9500000476837158,23.306251525878906,46.5
1775728230471310800,9.449310791015625,-2.5500001907348633,23.306251525878906,45.65625
1775728230481310700,9.459310791015625,-1.2937500476837158,23.71875,44.306251525878906
1775728230491310800,9.469310791015625,-2.8312501907348633,22.98750114440918,43.5
1775728230501310700,9.479310791015624,-1.125,24.150001525878906,43.81875228881836
1775728230511310800,9.489310791015624,-2.3812501430511475,23.306251525878906,44.8125
1775728230521310700,9.499310791015626,-1.8000000715255737,23.4375,46.650001525878906
1775728230531310800,9.509310791015626,-1.8000000715255737,23.4375,46.650001525878906
1775728230541310700,9.519310791015625,-1.631250023841858,22.96875,44.306251525878906
1775728230551310800,9.529310791015625,-2.3812501430511475,23.681251525878906,44.88750076293945
1775728230561310700,9.539310791015625,0.35625001788139343,23.08125114440918,43.275001525878906
1775728230571310800,9.549310791015625,0.75,21.67500114440918,44.85000228881836
1775728230581310700,9.559310791015625,-1.0125000476837158,23.92500114440918,45.75
1775728230591310800,9.569310791015624,0.8437500596046448,23.137500762939453,42.01875305175781
1775728230601310700,9.579310791015626,-1.7062500715255737,25.61250114440918,46.087501525878906
1775728230611310800,9.589310791015626,-2.53125,23.887500762939453,45.35625076293945
1775728230621310700,9.599310791015625,-0.8250000476837158,24.318750381469727,44.962501525878906
1775728230631310800,9.609310791015625,-2.0625,23.775001525878906,44.60625076293945
1775728230641310700,9.619310791015625,-1.256250023841858,24.637500762939453,43.76250076293945
1775728230651310800,9.629310791015625,-1.068750023841858,21.806251525878906,43.931251525878906
1775728230661310700,9.639310791015625,-1.9500000476837158,21.693750381469727,42.375
1775728230671310800,9.649310791015624,-3.2250001430511475,24.600000381469727,43.38750076293945
1775728230681310700,9.659310791015624,-5.006250381469727,22.42500114440918,44.71875
1775728230691310800,9.669310791015626,-5.756250381469727,22.725000381469727,45.07500076293945
1775728230701310700,9.679310791015626,-5.081250190734863,23.53125,42.95625305175781
1775728230711310800,9.689310791015625,-7.987500190734863,23.90625,44.66250228881836
1775728230721310700,9.699310791015625,-8.625,22.106250762939453,41.64375305175781
1775728230731310800,9.709310791015625,-8.625,21.918750762939453,42.03750228881836
1775728230741310700,9.719310791015625,-11.8125,22.087501525878906,42.28125
1775728230751310800,9.729310791015624,-9.375,21,38.34375
1775728230761310700,9.739310791015624,-12.24375057220459,21.30000114440918,37.78125
1775728230771310800,9.749310791015626,-14.30625057220459,20.700000762939453,42.22500228881836
1775728230781310700,9.759310791015626,-16.106250762939453,21.5625,43.85625076293945
1775728230791310800,9.769310791015625,-17.4375,20.287500381469727,47.88750076293945
1775728230801310700,9.779310791015625,-17.325000762939453,18.58125114440918,46.42500305175781
1775728230811310800,9.789310791015625,-18.450000762939453,17.493751525878906,47.51250076293945
1775728230821310700,9.799310791015625,-18.543750762939453,18.168750762939453,46.087501525878906
1775728230831310800,9.809310791015625,-19.350000381469727,17.137500762939453,45.91875076293945
1775728230841310700,9.819310791015624,-22.23750114440918,17.4375,47.04375076293945
1775728230851310800,9.829310791015626,-20.08125114440918,17.493751525878906,45.73125076293945
1775728230861310700,9.839310791015626,-22.89375114440918,15.581250190734863,45.431251525878906
1775728230871310800,9.849310791015625,-24.243751525878906,15.675000190734863,44.36250305175781
1775728230881310700,9.859310791015625,-25.293750762939453,16.387500762939453,45.78750228881836
1775728230891310800,9.869310791015625,-25.631250381469727,15.956250190734863,47.13750076293945
1775728230901310700,9.879310791015625,-25.500001907348633,14.362500190734863,43.85625076293945
1775728230911310800,9.889310791015625,-28.875001907348633,12.918750762939453,42.54375076293945
1775728230921310700,9.899310791015624,-27.037500381469727,13.83750057220459,44.51250076293945
1775728230931310800,9.909310791015624,-28.725000381469727,12.731250762939453,42.07500076293945
1775728230941310700,9.919310791015626,-28.61250114440918,12.562500953674316,44.306251525878906
1775728230951310800,9.929310791015626,-31.068750381469727,11.34375,43.57500076293945
1775728230961310700,9.939310791015625,-30.618751525878906,12.862500190734863,47.23125076293945
1775728230971310800,9.949310791015625,-33.22500228881836,11.15625,44.868751525878906
1775728230981310700,9.959310791015625,-30.918750762939453,11.568750381469727,43.462501525878906
1775728230991310800,9.969310791015625,-30.918750762939453,11.568750381469727,43.462501525878906
1775728231001310700,9.979310791015624,-31.856250762939453,11.193750381469727,44.26875305175781
1775728231011310800,9.989310791015624,-32.47500228881836,10.293750762939453,43.275001525878906
1775728231021310700,9.999310791015626,-34.03125,9.768750190734863,43.91250228881836
1775728231031310800,10.009310791015626,-32.64375305175781,10.068750381469727,43.368751525878906
1775728231041310700,10.019310791015625,-34.03125,9.768750190734863,43.91250228881836
1775728231051310800,10.029310791015625,-33.28125,8.96250057220459,42.618751525878906
1775728231061310700,10.039310791015625,-33.243751525878906,9.956250190734863,43.5
1775728231071310800,10.049310791015625,-34.20000076293945,9.600000381469727,44.45625305175781
1775728231081310700,10.059310791015625,-35.53125,9.9375,43.275001525878906
1775728231091310800,10.069310791015624,-33.431251525878906,9.24375057220459,43.650001525878906
1775728231101310700,10.079310791015626,-31.743751525878906,9.693750381469727,43.42500305175781
1775728231111310800,10.089310791015626,-35.25,9.506250381469727,43.76250076293945
1775728231121310700,10.099310791015625,-34.05000305175781,9.487500190734863,44.56875228881836
1775728231131310800,10.109310791015625,-32.4375,11.71875,44.53125
1775728231141310700,10.119310791015625,-31.406251907348633,10.5,43.837501525878906
1775728231151310800,10.129310791015625,-31.725000381469727,10.762500762939453,44.75625228881836
1775728231161310700,10.139310791015625,-31.687501907348633,10.875,42.9375
1775728231171310800,10.149310791015624,-31.031251907348633,12.581250190734863,43.51875305175781
1775728231181310700,10.159310791015624,-30.01875114440918,12.037500381469727,45.78750228881836
1775728231191310800,10.169310791015626,-28.781251907348633,12.562500953674316,45.150001525878906
1775728231201310700,10.179310791015626,-27.975000381469727,13.893750190734863,45.806251525878906
1775728231211310800,10.189310791015625,-27.187501907348633,13.83750057220459,43.66875076293945
1775728231221310700,10.199310791015625,-24.318750381469727,13.106250762939453,43.875
1775728231231310800,10.209310791015625,-25.818750381469727,14.21250057220459,44.55000305175781
1775728231241310700,10.219310791015625,-23.325000762939453,16.481250762939453,46.462501525878906
1775728231251310800,10.229310791015624,-23.325000762939453,15.487500190734863,43.875
1775728231261310700,10.239310791015624,-21,16.743751525878906,44.0625
1775728231271310800,10.249310791015626,-20.55000114440918,16.05000114440918,42.63750076293945
1775728231281310700,10.259310791015626,-20.231250762939453,16.462501525878906,42.150001525878906
1775728231291310800,10.269310791015625,-20.26875114440918,15.543750762939453,42.67500305175781
1775728231301310700,10.279310791015625,-21.056251525878906,15.468750953674316,43.81875228881836
1775728231311310800,10.289310791015625,-19.743751525878906,18.28125,45.16875076293945
1775728231321310700,10.299310791015625,-15.543750762939453,16.162500381469727,43.51875305175781
1775728231331310800,10.309310791015625,-18.46875,16.03125,45.97500228881836
1775728231341310700,10.319310791015624,-16.818750381469727,16.106250762939453,47.34375
1775728231351310800,10.329310791015626,-16.162500381469727,17.587501525878906,48.187503814697266
1775728231361310700,10.339310791015626,-14.812500953674316,17.4375,47.98125076293945
1775728231371310800,10.349310791015625,-16.61250114440918,17.981250762939453,48.26250076293945
1775728231381310700,10.359310791015625,-15.225000381469727,18.75,48.525001525878906
1775728231391310800,10.369310791015625,-16.200000762939453,20.325000762939453,46.44375228881836
1775728231401310700,10.379310791015625,-14.700000762939453,19.368751525878906,45.9375
1775728231411310800,10.389310791015625,-12.71250057220459,20.212501525878906,46.61250305175781
1775728231421310700,10.399310791015624,-12.71250057220459,20.212501525878906,46.61250305175781
1775728231431310800,10.409310791015624,-14.231250762939453,19.743751525878906,45.86250305175781
1775728231441310700,10.419310791015626,-12.393750190734863,20.193750381469727,45.618751525878906
1775728231451310800,10.429310791015626,-11.96250057220459,18.918750762939453,44.51250076293945
1775728231461310700,10.439310791015625,-10.443750381469727,19.387500762939453,45.26250076293945
1775728231471310800,10.449310791015625,-12.881250381469727,19.762500762939453,46.95000076293945
1775728231481310700,10.459310791015625,-12.075000762939453,21.150001525878906,47.90625
1775728231491310800,10.469310791015625,-10.725000381469727,20.400001525878906,46.181251525878906
1775728231501310700,10.479310791015624,-11.737500190734863,21.075000762939453,44.775001525878906
1775728231511310800,10.489310791015624,-9.75,21,44.28750228881836
1775728231521310700,10.499310791015626,-8.700000762939453,20.606250762939453,44.17500305175781
1775728231531310800,10.509310791015626,-7.331250190734863,20.775001525878906,44.45625305175781
1775728231541310700,10.519310791015625,-8.193750381469727,22.33125114440918,44.92500305175781
1775728231551310800,10.529310791015625,-7.968750476837158,20.981250762939453,46.78125
1775728231561310700,10.539310791015625,-8.756250381469727,20.34375,46.66875076293945
1775728231571310800,10.549310791015625,-8.86875057220459,20.625,45.1875
1775728231581310700,10.559310791015625,-7.950000286102295,21.525001525878906,46.16250228881836
1775728231591310800,10.569310791015624,-7.931250095367432,22.256250381469727,47.025001525878906
1775728231601310700,10.579310791015626,-9.918750762939453,21.375,46.05000305175781
1775728231611310800,10.589310791015626,-9,21.09375,44.98125076293945
1775728231621310700,10.599310791015625,-7.162500381469727,22.256250381469727,47.00625228881836
1775728231631310800,10.609310791015625,-5.662500381469727,21.037500381469727,44.60625076293945
1775728231641310700,10.619310791015625,-5.831250190734863,20.118751525878906,44.28750228881836
1775728231651310800,10.629310791015625,-6.881250381469727,21.30000114440918,45.54375076293945
1775728231661310700,10.639310791015625,-5.193750381469727,21.28125,44.64375305175781
1775728231671310800,10.649310791015624,-7.162500381469727,20.943750381469727,43.931251525878906
1775728231681310700,10.659310791015624,-4.875,21.76875114440918,45.431251525878906
1775728231691310800,10.669310791015626,-6.900000095367432,20.0625,43.89375305175781
1775728231701310700,10.679310791015626,-5.606250286102295,22.256250381469727,44.41875076293945
1775728231711310800,10.689310791015625,-5.53125,20.493751525878906,44.36250305175781
1775728231721310700,10.699310791015625,-5.081250190734863,20.15625,44.56875228881836
1775728231731310800,10.709310791015625,-5.8125,20.587501525878906,43.25625228881836
1775728231741310700,10.719310791015625,-4.293750286102295,20.17500114440918,42.150001525878906
1775728231751310800,10.729310791015624,-5.962500095367432,20.92500114440918,43.89375305175781
1775728231761310700,10.739310791015624,-5.006250381469727,21.86250114440918,43.48125076293945
1775728231771310800,10.749310791015626,-5.662500381469727,21.39375114440918,45.375
1775728231781310700,10.759310791015626,-5.512500286102295,21.450000762939453,46.66875076293945
1775728231791310800,10.769310791015625,-5.90625,23.0625,45.712501525878906
1775728231801310700,10.779310791015625,-5.193750381469727,21.1875,43.91250228881836
1775728231811310800,10.789310791015625,-4.293750286102295,21.131250381469727,44.45625305175781
1775728231821310700,10.799310791015625,-4.725000381469727,21.76875114440918,44.587501525878906
1775728231831310800,10.809310791015625,-6.393750190734863,20.71875,42.45000076293945
1775728231841310700,10.819310791015624,-8.081250190734863,21.356250762939453,44.17500305175781
1775728231851310800,10.829310791015626,-8.25,20.606250762939453,44.17500305175781
1775728231861310700,10.839310791015626,-9.862500190734863,22.556251525878906,45.58125305175781
1775728231871310800,10.849310791015625,-9.862500190734863,22.556251525878906,45.58125305175781
1775728231881310700,10.859310791015625,-8.381250381469727,21.150001525878906,44.56875228881836
1775728231891310800,10.869310791015625,-11.71875,20.90625,43.61250305175781
1775728231901310700,10.879310791015625,-10.950000762939453,21,42.618751525878906
1775728231911310800,10.889310791015625,-11.418750762939453,21.11250114440918,44.212501525878906
1775728231921310700,10.899310791015624,-12.05625057220459,20.73750114440918,45
1775728231931310800,10.909310791015624,-15.112500190734863,20.006250381469727,44.23125076293945
1775728231941310700,10.919310791015626,-15.90000057220459,20.025001525878906,46.10625076293945
1775728231951310800,10.929310791015626,-18.412500381469727,17.981250762939453,46.61250305175781
1775728231961310700,10.939310791015625,-18.5625,17.475000381469727,45.67500305175781
1775728231971310800,10.949310791015625,-17.475000381469727,18.11250114440918,45.76875305175781
1775728231981310700,10.959310791015625,-20.981250762939453,18.75,47.55000305175781
1775728231991310800,10.969310791015625,-20.73750114440918,17.212501525878906,47.23125076293945
1775728232001310700,10.979310791015624,-20.325000762939453,15.975000381469727,47.26875305175781
1775728232011310800,10.989310791015624,-22.59375,15.412500381469727,45.95625305175781
1775728232021310700,10.999310791015626,-22.668750762939453,13.162500381469727,45.11250305175781
1775728232031310800,11.009310791015626,-25.125001907348633,12.862500190734863,46.38750076293945
1775728232041310700,11.019310791015625,-24.037500381469727,13.425000190734863,46.05000305175781
1775728232051310800,11.029310791015625,-24.20625114440918,12.487500190734863,44.73750305175781
1775728232061310700,11.039310791015625,-26.437501907348633,14.081250190734863,45.375
1775728232071310800,11.049310791015625,-27.39375114440918,12.562500953674316,44.26875305175781
1775728232081310700,11.059310791015625,-28.218751907348633,11.231250762939453,45.45000076293945
1775728232091310800,11.069310791015624,-31.087501525878906,11.25,44.681251525878906
1775728232101310700,11.079310791015626,-29.606250762939453,9.862500190734863,43.66875076293945
1775728232111310800,11.089310791015626,-32.625,9.84375,41.92500305175781
1775728232121310700,11.099310791015625,-31.256250381469727,10.55625057220459,43.275001525878906
1775728232131310800,11.109310791015625,-31.725000381469727,9.375,41.23125076293945
1775728232141310700,11.119310791015625,-34.556251525878906,6.731250286102295,41.79375076293945
1775728232151310800,11.129310791015625,-33.31875228881836,6.618750095367432,39.337501525878906
1775728232161310700,11.139310791015625,-34.181251525878906,8.475000381469727,40.98750305175781
1775728232171310800,11.149310791015624,-34.875,5.662500381469727,39.618751525878906
1775728232181310700,11.159310791015624,-34.38750076293945,6.225000381469727,39.30000305175781
1775728232191310800,11.169310791015626,-36.67500305175781,6.731250286102295,40.16250228881836
1775728232201310700,11.179310791015626,-35.15625,5.981250286102295,39.26250076293945
1775728232211310800,11.189310791015625,-35.0625,5.4375,41.56875228881836
1775728232221310700,11.199310791015625,-35.94375228881836,5.775000095367432,40.38750076293945
1775728232231310800,11.209310791015625,-35.98125076293945,5.025000095367432,41.23125076293945
1775728232241310700,11.219310791015625,-37.06875228881836,4.650000095367432,41.17500305175781
1775728232251310800,11.229310791015624,-34.5,3.4125001430511475,38.75625228881836
1775728232261310700,11.239310791015624,-35.70000076293945,4.237500190734863,40.087501525878906
1775728232271310800,11.249310791015626,-36.91875076293945,4.5,41.00625228881836
1775728232281310700,11.259310791015626,-36.88125228881836,4.987500190734863,40.10625076293945
1775728232291310800,11.269310791015625,-35.400001525878906,3.9562501907348633,39.88125228881836
1775728232301310700,11.279310791015625,-35.400001525878906,3.9562501907348633,39.88125228881836
1775728232311310800,11.289310791015625,-34.57500076293945,5.981250286102295,40.95000076293945
1775728232321310700,11.299310791015625,-36.056251525878906,6.393750190734863,39.50625228881836
1775728232331310800,11.309310791015625,-34.14375305175781,4.800000190734863,39.73125076293945
1775728232341310700,11.319310791015624,-35.212501525878906,5.71875,41.75625228881836
1775728232351310800,11.329310791015626,-34.181251525878906,4.631250381469727,41.10000228881836
1775728232361310700,11.339310791015626,-36.88125228881836,6.412500381469727,43.91250228881836
1775728232371310800,11.349310791015625,-35.025001525878906,7.537500381469727,44.775001525878906
1775728232381310700,11.359310791015625,-33.69375228881836,6.675000190734863,44.025001525878906
1775728232391310800,11.369310791015625,-33.65625,7.256250381469727,43.70625305175781
1775728232401310700,11.379310791015625,-31.23750114440918,6.956250190734863,43.44375228881836
1775728232411310800,11.389310791015625,-30.318750381469727,7.331250190734863,44.34375
1775728232421310700,11.399310791015624,-30.712501525878906,8.568750381469727,43.462501525878906
1775728232431310800,11.409310791015624,-30.11250114440918,9.46875,45.30000305175781
1775728232441310700,11.419310791015626,-30.993751525878906,10.762500762939453,46.42500305175781
1775728232451310800,11.429310791015626,-27.356250762939453,9.71250057220459,45.28125
1775728232461310700,11.439310791015625,-29.006250381469727,10.78125,46.650001525878906
1775728232471310800,11.449310791015625,-27.262500762939453,13.068750381469727,46.91250228881836
1775728232481310700,11.459310791015625,-25.481250762939453,12.262500762939453,47.400001525878906
1775728232491310800,11.469310791015625,-24.20625114440918,13.725000381469727,47.23125076293945
1775728232501310700,11.479310791015624,-25.387500762939453,14.381250381469727,47.38125228881836
1775728232511310800,11.489310791015624,-24.093751907348633,12.956250190734863,48.76875305175781
1775728232521310700,11.499310791015626,-22.162500381469727,15.225000381469727,47.32500076293945
1775728232531310800,11.509310791015626,-21.48750114440918,12.975000381469727,47.306251525878906
1775728232541310700,11.519310791015625,-22.481250762939453,14.850000381469727,47.26875305175781
1775728232551310800,11.529310791015625,-22.350000381469727,15.206250190734863,48.88125228881836
1775728232561310700,11.539310791015625,-21.09375,15.281250953674316,46.875
1775728232571310800,11.549310791015625,-19.875,16.03125,48.54375076293945
1775728232581310700,11.559310791015625,-19.387500762939453,15.956250190734863,46.40625
1775728232591310800,11.569310791015624,-16.818750381469727,16.537500381469727,47.85000228881836
1775728232601310700,11.579310791015626,-18.037500381469727,15.918750762939453,46.91250228881836
1775728232611310800,11.589310791015626,-15.600000381469727,16.162500381469727,47.75625228881836
1775728232621310700,11.599310791015625,-15.262500762939453,17.17500114440918,47.94375228881836
1775728232631310800,11.609310791015625,-18.01875114440918,16.068750381469727,46.23750305175781
1775728232641310700,11.619310791015625,-18.431251525878906,17.25,45.76875305175781
1775728232651310800,11.629310791015625,-17.681251525878906,17.493751525878906,47.493751525878906
1775728232661310700,11.639310791015625,-17.08125114440918,17.043750762939453,46.96875
1775728232671310800,11.649310791015624,-16.012500762939453,17.381250381469727,47.56875228881836
1775728232681310700,11.659310791015624,-17.493751525878906,18.58125114440918,47.26875305175781
1775728232691310800,11.669310791015626,-15.187500953674316,18.356250762939453,45.76875305175781
1775728232701310700,11.679310791015626,-15.33750057220459,18.506250381469727,45.9375
1775728232711310800,11.689310791015625,-12.393750190734863,19.837501525878906,44.83125305175781
1775728232721310700,11.699310791015625,-15.468750953674316,19.481250762939453,46.6875
1775728232731310800,11.709310791015625,-12.15000057220459,18.9375,47.19375228881836
1775728232741310700,11.719310791015625,-11.21250057220459,18.918750762939453,44.493751525878906
1775728232751310800,11.729310791015624,-11.21250057220459,18.918750762939453,44.493751525878906
1775728232761310700,11.739310791015624,-11.756250381469727,20.475000381469727,44.94375228881836
1775728232771310800,11.749310791015626,-13.162500381469727,19.40625,44.493751525878906
1775728232781310700,11.759310791015626,-11.362500190734863,19.650001525878906,46.181251525878906
1775728232791310800,11.769310791015625,-11.325000762939453,20.25,46.01250076293945
1775728232801310700,11.779310791015625,-9.90000057220459,20.08125114440918,41.4375
1775728232811310800,11.789310791015625,-8.700000762939453,20.568750381469727,43.89375305175781
1775728232821310700,11.799310791015625,-8.006250381469727,19.42500114440918,44.64375305175781
1775728232831310800,11.809310791015625,-10.987500190734863,20.325000762939453,43.91250228881836
1775728232841310700,11.819310791015624,-8.268750190734863,20.512500762939453,45.28125
1775728232851310800,11.829310791015626,-7.143750190734863,21.375,42.60000228881836
1775728232861310700,11.839310791015626,-8.4375,20.34375,45.82500076293945
1775728232871310800,11.849310791015625,-7.368750095367432,20.025001525878906,45.30000305175781
1775728232881310700,11.859310791015625,-7.631250381469727,19.650001525878906,41.00625228881836
1775728232891310800,11.869310791015625,-8.15625,19.23750114440918,44.19375228881836
1775728232901310700,11.879310791015625,-7.500000476837158,20.868751525878906,46.03125
1775728232911310800,11.889310791015625,-8.006250381469727,19.162500381469727,44.587501525878906
1775728232921310700,11.899310791015624,-7.687500476837158,19.23750114440918,44.17500305175781
1775728232931310800,11.909310791015624,-7.631250381469727,21.1875,44.83125305175781
1775728232941310700,11.919310791015626,-6.393750190734863,22.087501525878906,45.806251525878906
1775728232951310800,11.929310791015626,-7.218750476837158,19.762500762939453,44.400001525878906
1775728232961310700,11.939310791015625,-7.631250381469727,21.09375,44.10000228881836
1775728232971310800,11.949310791015625,-7.237500190734863,19.05000114440918,43.85625076293945
1775728232981310700,11.959310791015625,-5.643750190734863,21.075000762939453,43.20000076293945
1775728232991310800,11.969310791015625,-5.962500095367432,20.587501525878906,44.10000228881836
1775728233001310700,11.979310791015624,-7.125000476837158,21.618751525878906,42.63750076293945
1775728233011310800,11.989310791015624,-8.268750190734863,19.96875,44.04375076293945
1775728233021310700,11.999310791015626,-6.581250190734863,20.512500762939453,44.38125228881836
1775728233031310800,12.009310791015626,-4.762500286102295,19.950000762939453,43.10625076293945
1775728233041310700,12.019310791015625,-5.643750190734863,21.30000114440918,44.66250228881836
1775728233051310800,12.029310791015625,-6.600000381469727,19.762500762939453,43.53750228881836
1775728233061310700,12.039310791015625,-3.6937501430511475,19.725000381469727,42.46875
1775728233071310800,12.049310791015625,-6.131250381469727,20.400001525878906,43.650001525878906
1775728233081310700,12.059310791015625,-5.8125,20.587501525878906,43.25625228881836
1775728233091310800,12.069310791015624,-5.512500286102295,20.793750762939453,44.70000076293945
1775728233101310700,12.079310791015626,-6.562500476837158,20.981250762939453,43.35000228881836
1775728233111310800,12.089310791015626,-4.650000095367432,22.61250114440918,41.775001525878906
1775728233121310700,12.099310791015625,-5.53125,20.64375114440918,45.375
1775728233131310800,12.109310791015625,-4.875,20.64375114440918,41.98125076293945
1775728233141310700,12.119310791015625,-6.356250286102295,22.293750762939453,43.03125
1775728233151310800,12.129310791015625,-9.71250057220459,22.350000381469727,44.962501525878906
1775728233161310700,12.139310791015625,-8.700000762939453,20.493751525878906,43.462501525878906
1775728233171310800,12.149310791015624,-9.581250190734863,21.20625114440918,43.20000076293945
1775728233181310700,12.159310791015624,-9.412500381469727,21.75,43.42500305175781
1775728233191310800,12.169310791015626,-9.412500381469727,21.75,43.42500305175781
1775728233201310700,12.179310791015626,-12.018750190734863,20.756250381469727,42.60000228881836
1775728233211310800,12.189310791015625,-9.862500190734863,21.262500762939453,40.95000076293945
1775728233221310700,12.199310791015625,-10.18125057220459,20.943750381469727,42.16875076293945
1775728233231310800,12.209310791015625,-12.637500762939453,20.53125,42.712501525878906
1775728233241310700,12.219310791015625,-13.08750057220459,20.868751525878906,43.368751525878906
1775728233251310800,12.229310791015624,-14.193750381469727,20.006250381469727,43.368751525878906
1775728233271310800,12.249310791015626,-12.225000381469727,19.6875,42.97500228881836
1775728233281310700,12.259310791015626,-15.15000057220459,19.106250762939453,44.0625
1775728233291310800,12.269310791015625,-15.450000762939453,19.537500381469727,45.28125
1775728233301310700,12.279310791015625,-14.381250381469727,19.42500114440918,44.53125
1775728233311310800,12.289310791015625,-18.225000381469727,18.262500762939453,45.11250305175781
1775728233321310700,12.299310791015625,-18.46875,19.837501525878906,44.71875
1775728233331310800,12.309310791015625,-17.868751525878906,19.181251525878906,43.72500228881836
1775728233341310700,12.319310791015624,-19.293750762939453,18.20625114440918,44.71875
1775728233351310800,12.329310791015626,-18.731250762939453,16.725000381469727,43.98750305175781
1775728233361310700,12.339310791015626,-23.887500762939453,17.4375,45.39375305175781
1775728233371310800,12.349310791015625,-21.993751525878906,18.712501525878906,43.89375305175781
1775728233381310700,12.359310791015625,-21.431251525878906,16.80000114440918,42.65625
1775728233391310800,12.369310791015625,-22.23750114440918,14.887500762939453,39.76875305175781
1775728233401310700,12.379310791015625,-18.450000762939453,15.300000190734863,30.731250762939453
1775728233411310800,12.389310791015625,-17.700000762939453,15.543750762939453,32.4375
1775728233421310700,12.399310791015624,-21.431251525878906,14.137500762939453,34.66875076293945
1775728233431310800,12.409310791015624,-17.568750381469727,16.068750381469727,35.23125076293945
1775728233441310700,12.419310791015626,-22.98750114440918,15.356250762939453,41.306251525878906
1775728233451310800,12.429310791015626,-24.693750381469727,15.52500057220459,43.35000228881836
1775728233461310700,12.439310791015625,-25.42500114440918,15.862500190734863,43.01250076293945
1775728233471310800,12.449310791015625,-23.90625,16.162500381469727,43.462501525878906
1775728233481310700,12.459310791015625,-24.543750762939453,14.77500057220459,41.66250228881836
1775728233491310800,12.469310791015625,-25.275001525878906,15.956250190734863,42.88125228881836
1775728233501310700,12.479310791015624,-24.95625114440918,16.818750381469727,43.61250305175781
1775728233511310800,12.489310791015624,-25.256250381469727,15.750000953674316,41.4375
1775728233521310700,12.499310791015626,-25.593751907348633,15.543750762939453,42.525001525878906
1775728233531310800,12.509310791015626,-25.031251907348633,15.037500381469727,44.25
1775728233541310700,12.519310791015625,-26.193750381469727,16.387500762939453,44.962501525878906
1775728233551310800,12.529310791015625,-22.42500114440918,15.731250762939453,44.73750305175781
1775728233561310700,12.539310791015625,-24.993751525878906,15.637500762939453,44.08125305175781
1775728233571310800,12.549310791015625,-24.918750762939453,18.412500381469727,46.03125
1775728233581310700,12.559310791015625,-23.64375114440918,15.375000953674316,44.00625228881836
1775728233591310800,12.569310791015624,-23.775001525878906,16.21875,44.73750305175781
1775728233601310700,12.579310791015626,-23.34375,15.99375057220459,45.65625
1775728233611310800,12.589310791015626,-22.068750381469727,16.89375114440918,44.25
1775728233621310700,12.599310791015625,-25.725000381469727,17.137500762939453,45.806251525878906
1775728233631310800,12.609310791015625,-23.8125,16.23750114440918,47.41875076293945
1775728233641310700,12.619310791015625,-23.8125,16.23750114440918,47.41875076293945
1775728233651310800,12.629310791015625,-24.656251907348633,17.137500762939453,45.76875305175781
1775728233661310700,12.639310791015625,-23.625,16.275001525878906,45.86250305175781
1775728233671310800,12.649310791015624,-20.850000381469727,16.78125,43.5
1775728233681310700,12.659310791015624,-22.556251525878906,16.80000114440918,46.931251525878906
1775728233691310800,12.669310791015626,-21.28125,17.962501525878906,44.71875
1775728233701310700,12.679310791015626,-22.23750114440918,16.51875114440918,45.03750228881836
1775728233711310800,12.689310791015625,-22.275001525878906,15.975000381469727,45.63750076293945
1775728233721310700,12.699310791015625,-22.106250762939453,16.162500381469727,45.09375
1775728233731310800,12.709310791015625,-22.42500114440918,16.6875,47.04375076293945
1775728233741310700,12.719310791015625,-21.037500381469727,16.725000381469727,46.44375228881836
1775728233751310800,12.729310791015624,-18.731250762939453,16.98750114440918,45.73125076293945
1775728233761310700,12.739310791015624,-20.0625,18.375,45.900001525878906
1775728233771310800,12.749310791015626,-19.181251525878906,16.875,45.01875305175781
1775728233781310700,12.759310791015626,-19.762500762939453,19.012500762939453,47.70000076293945
1775728233791310800,12.769310791015625,-19.21875,16.818750381469727,47.118751525878906
1775728233801310700,12.779310791015625,-18.5625,17.775001525878906,46.01250076293945
1775728233811310800,12.789310791015625,-20.26875114440918,17.55000114440918,47.85000228881836
1775728233821310700,12.799310791015625,-16.78125,17.043750762939453,46.96875
1775728233831310800,12.809310791015625,-17.025001525878906,18.46875,46.53750228881836
1775728233841310700,12.819310791015624,-15.487500190734863,18.84375,46.57500076293945
1775728233851310800,12.829310791015626,-17.08125114440918,17.4375,48.03750228881836
1775728233861310700,12.839310791015626,-17.0625,18.618751525878906,49.23750305175781
1775728233871310800,12.849310791015625,-15.24375057220459,16.818750381469727,45.46875
1775728233881310700,12.859310791015625,-14.512500762939453,16.537500381469727,46.10625076293945
1775728233891310800,12.869310791015625,-14.77500057220459,18.450000762939453,48.16875076293945
1775728233901310700,12.879310791015625,-14.456250190734863,17.287500381469727,44.400001525878906
1775728233911310800,12.889310791015625,-15.356250762939453,17.55000114440918,43.63125228881836
1775728233921310700,12.899310791015624,-13.800000190734863,17.212501525878906,41.41875076293945
1775728233931310800,12.909310791015624,-14.437500953674316,18.243751525878906,45.01875305175781
1775728233941310700,12.919310791015626,-14.58750057220459,17.137500762939453,42.54375076293945
1775728233951310800,12.929310791015626,-13.762500762939453,19.200000762939453,43.91250228881836
1775728233961310700,12.939310791015625,-10.537500381469727,19.556251525878906,41.212501525878906
1775728233971310800,12.949310791015625,-12.300000190734863,17.26875114440918,41.8125
1775728233981310700,12.959310791015625,-9.018750190734863,18.75,40.03125
1775728233991310800,12.969310791015625,-10.27500057220459,18.375,41.681251525878906
1775728234001310700,12.979310791015624,-11.90625,19.575000762939453,42.243751525878906
1775728234011310800,12.989310791015624,-9.52500057220459,18.168750762939453,42.03750228881836
1775728234021310700,12.999310791015626,-12.05625057220459,19.78125,42.69375228881836
1775728234031310800,13.009310791015626,-11.006250381469727,19.931251525878906,43.837501525878906
1775728234041310700,13.019310791015625,-11.756250381469727,20.475000381469727,44.94375228881836
1775728234051310800,13.029310791015625,-12.112500190734863,18.65625,43.61250305175781
1775728234061310700,13.039310791015625,-10.55625057220459,19.668750762939453,43.76250076293945
1775728234071310800,13.049310791015625,-10.59375,19.256250381469727,45.09375
1775728234081310700,13.059310791015625,-10.59375,19.256250381469727,45.09375
1775728234091310800,13.069310791015624,-9.506250381469727,19.70625114440918,44.025001525878906
1775728234101310700,13.079310791015626,-11.793750762939453,19.51875114440918,45.1875
1775728234111310800,13.089310791015626,-10.350000381469727,21.056251525878906,43.89375305175781
1775728234121310700,13.099310791015625,-10.18125057220459,20.887500762939453,41.868751525878906
1775728234131310800,13.109310791015625,-10.237500190734863,20.36250114440918,44.17500305175781
1775728234141310700,13.119310791015625,-10.350000381469727,21.806251525878906,44.73750305175781
1775728234151310800,13.129310791015625,-9.881250381469727,22.068750381469727,44.775001525878906
1775728234161310700,13.139310791015625,-9.600000381469727,21.46875,44.92500305175781
1775728234171310800,13.149310791015624,-10.331250190734863,21.637500762939453,43.57500076293945
1775728234181310700,13.159310791015624,-7.950000286102295,19.70625114440918,42.30000305175781
1775728234191310800,13.169310791015626,-7.125000476837158,22.012500762939453,42.712501525878906
1775728234201310700,13.179310791015626,-7.162500381469727,20.231250762939453,41.66250228881836
1775728234211310800,13.189310791015625,-8.90625,22.556251525878906,42.16875076293945
1775728234221310700,13.199310791015625,-9.112500190734863,21.693750381469727,43.98750305175781
1775728234231310800,13.209310791015625,-8.68125057220459,20.681251525878906,42.07500076293945
1775728234241310700,13.219310791015625,-9.71250057220459,21.58125114440918,42.28125
1775728234251310800,13.229310791015624,-6.487500190734863,21.356250762939453,39.88125228881836
1775728234261310700,13.239310791015624,-8.100000381469727,19.6875,41.306251525878906
1775728234271310800,13.249310791015626,-8.8125,21.09375,42.45000076293945
1775728234281310700,13.259310791015626,-10.21875,20.137500762939453,42.73125076293945
1775728234291310800,13.269310791015625,-8.268750190734863,23.17500114440918,41.26875305175781
1775728234301310700,13.279310791015625,-10.875,22.650001525878906,41.10000228881836
1775728234311310800,13.289310791015625,-9.693750381469727,22.03125,42.78750228881836
1775728234321310700,13.299310791015625,-10.27500057220459,22.125,40.837501525878906
1775728234331310800,13.309310791015625,-8.100000381469727,23.71875,41.66250228881836
1775728234341310700,13.319310791015624,-11.643750190734863,22.762500762939453,41.85000228881836
1775728234351310800,13.329310791015626,-10.143750190734863,21.75,40.91250228881836
1775728234361310700,13.339310791015626,-11.381250381469727,21.262500762939453,40.98750305175781
1775728234371310800,13.349310791015625,-11.58750057220459,23.53125,40.29375076293945
1775728234381310700,13.359310791015625,-9.543750762939453,21.037500381469727,39.48750305175781
1775728234391310800,13.369310791015625,-9.037500381469727,22.275001525878906,39.431251525878906
1775728234401310700,13.379310791015625,-12.05625057220459,22.087501525878906,38.0625
1775728234411310800,13.389310791015625,-9.61875057220459,22.556251525878906,37.95000076293945
1775728234421310700,13.399310791015624,-11.362500190734863,21.375,40.03125
1775728234431310800,13.409310791015624,-12.52500057220459,22.5,39.13125228881836
