time,seconds_elapsed,z,y,x
1775728221171310800,0.149310791015625,-15.356250762939453,79.95000457763672,4.518750190734863
1775728221181310700,0.159310791015625,-15.656250953674316,80.41875457763672,6.018750190734863
1775728221201310700,0.179310791015625,-13.500000953674316,80.47500610351562,3.8625001907348633
1775728221211310800,0.189310791015625,-17.043750762939453,79.53750610351562,5.043750286102295
1775728221221310700,0.199310791015625,-14.643750190734863,79.6875,6.993750095367432
1775728221231310800,0.209310791015625,-14.643750190734863,79.6875,6.993750095367432
1775728221241310700,0.219310791015625,-15.656250953674316,81.375,8.325000762939453
1775728221251310800,0.229310791015625,-17.193750381469727,81.1875,8.756250381469727
1775728221261310700,0.239310791015625,-18.543750762939453,81.6187515258789,8.30625057220459
1775728221271310800,0.249310791015625,-15.99375057220459,80.17500305175781,6.975000381469727
1775728221281310700,0.259310791015625,-15.075000762939453,79.20000457763672,3.656250238418579
1775728221291310800,0.269310791015625,-11.737500190734863,78.54375457763672,2.606250047683716
1775728221301310700,0.279310791015625,-13.950000762939453,80.625,4.050000190734863
1775728221311310800,0.289310791015625,-14.287500381469727,80.3062515258789,5.268750190734863
1775728221321310700,0.299310791015625,-15.187500953674316,81.01875305175781,6.693750381469727
1775728221331310800,0.309310791015625,-12.300000190734863,81.20625305175781,7.218750476837158
1775728221341310700,0.319310791015625,-17.100000381469727,80.4375,11.287500381469727
1775728221351310800,0.329310791015625,-16.931251525878906,80.15625,8.550000190734863
1775728221361310700,0.339310791015625,-12.937500953674316,80.45625305175781,7.237500190734863
1775728221371310800,0.349310791015625,-9.768750190734863,78.48750305175781,3.093750238418579
1775728221381310700,0.359310791015625,-11.4375,77.26875305175781,-0.1875
1775728221391310800,0.369310791015625,-15.468750953674316,80.625,4.087500095367432
1775728221401310700,0.379310791015625,-10.78125,78.63750457763672,-0.09375
1775728221411310800,0.389310791015625,-9.881250381469727,79.16250610351562,2.6625001430511475
1775728221421310700,0.399310791015625,-12.937500953674316,79.29375457763672,3.4875001907348633
1775728221431310800,0.409310791015625,-13.518750190734863,79.8375015258789,3.731250047683716
1775728221441310700,0.419310791015625,-12.43125057220459,80.13750457763672,2.4937500953674316
1775728221451310800,0.429310791015625,-13.687500953674316,77.90625,10.143750190734863
1775728221461310700,0.439310791015625,-12.206250190734863,79.98750305175781,8.25
1775728221471310800,0.449310791015625,-13.27500057220459,80.04375457763672,8.568750381469727
1775728221481310700,0.459310791015625,-11.756250381469727,79.5562515258789,7.031250476837158
1775728221491310800,0.469310791015625,-10.83750057220459,80.17500305175781,8.68125057220459
1775728221501310700,0.479310791015625,-13.781250953674316,79.61250305175781,9.918750762939453
1775728221511310800,0.489310791015625,-14.362500190734863,80.00625610351562,9.15000057220459
1775728221521310700,0.499310791015625,-15.281250953674316,80.36250305175781,10.800000190734863
1775728221531310800,0.509310791015625,-13.162500381469727,79.78125,10.21875
1775728221541310700,0.519310791015625,-14.643750190734863,80.19375610351562,8.77500057220459
1775728221551310800,0.529310791015625,-15.412500381469727,80.4375,10.387500762939453
1775728221561310700,0.539310791015625,-14.475000381469727,81.13125610351562,9.24375057220459
1775728221571310800,0.549310791015625,-13.256250381469727,80.6812515258789,8.700000762939453
1775728221581310700,0.559310791015625,-13.875000953674316,80.56875610351562,8.831250190734863
1775728221591310800,0.569310791015625,-13.762500762939453,79.5,9.1875
1775728221601310700,0.579310791015625,-13.125000953674316,81.65625,11.981250762939453
1775728221611310800,0.589310791015625,-13.781250953674316,80.3062515258789,12.168750762939453
1775728221621310700,0.599310791015625,-14.68125057220459,79.40625,9.33750057220459
1775728221631310800,0.609310791015625,-16.80000114440918,80.08125305175781,10.5
1775728221641310700,0.619310791015625,-14.831250190734863,80.00625610351562,10.012500762939453
1775728221651310800,0.629310791015625,-13.106250762939453,81.73125457763672,10.875
1775728221661310700,0.639310791015625,-13.106250762939453,81.73125457763672,10.875
1775728221671310800,0.649310791015625,-14.512500762939453,80.2125015258789,9.768750190734863
1775728221681310700,0.659310791015625,-13.687500953674316,81.28125,8.53125
1775728221691310800,0.669310791015625,-14.68125057220459,79.78125,10.256250381469727
1775728221701310700,0.679310791015625,-14.49375057220459,80.5875015258789,9.84375
1775728221711310800,0.689310791015625,-14.793750762939453,80.60625457763672,9.84375
1775728221721310700,0.699310791015625,-15.093750953674316,80.53125,8.568750381469727
1775728221731310800,0.709310791015625,-13.143750190734863,79.53750610351562,8.606250762939453
1775728221741310700,0.719310791015625,-16.14375114440918,81.5625,11.34375
1775728221751310800,0.729310791015625,-14.325000762939453,80.56875610351562,8.850000381469727
1775728221761310700,0.739310791015625,-14.77500057220459,81.13125610351562,9.24375057220459
1775728221771310800,0.749310791015625,-13.762500762939453,80.41875457763672,11.193750381469727
1775728221781310700,0.759310791015625,-14.49375057220459,79.9312515258789,7.875000476837158
1775728221791310800,0.769310791015625,-13.27500057220459,79.51875305175781,6.787500381469727
1775728221801310700,0.779310791015625,-15.562500953674316,80.1187515258789,9.075000762939453
1775728221811310800,0.789310791015625,-13.068750381469727,81.26250457763672,7.518750190734863
1775728221821310700,0.799310791015625,-13.687500953674316,82.125,10.106250762939453
1775728221831310800,0.809310791015625,-13.706250190734863,80.17500305175781,6.918750286102295
1775728221841310700,0.819310791015625,-16.087501525878906,80.85000610351562,4.706250190734863
1775728221851310800,0.829310791015625,-13.875000953674316,79.61250305175781,6.525000095367432
1775728221861310700,0.839310791015625,-10.18125057220459,80.6812515258789,6.206250190734863
1775728221871310800,0.849310791015625,-12.318750381469727,81.31875610351562,7.950000286102295
1775728221881310700,0.859310791015625,-14.756250381469727,81.91875457763672,10.387500762939453
1775728221891310800,0.869310791015625,-15.075000762939453,80.83125305175781,8.90625
1775728221901310700,0.879310791015625,-15.262500762939453,79.7437515258789,8.287500381469727
1775728221911310800,0.889310791015625,-12.468750953674316,79.89375305175781,4.987500190734863
1775728221921310700,0.899310791015625,-13.668750762939453,82.5562515258789,10.481250762939453
1775728221931310800,0.909310791015625,-15.093750953674316,80.64375305175781,9.300000190734863
1775728221941310700,0.919310791015625,-13.08750057220459,80.2125015258789,6.337500095367432
1775728221951310800,0.929310791015625,-15.412500381469727,80.75625610351562,10.03125
1775728221961310700,0.939310791015625,-14.512500762939453,79.89375305175781,9.28125
1775728221971310800,0.949310791015625,-17.043750762939453,81.1875,9.600000381469727
1775728221981310700,0.959310791015625,-16.78125,80.23125457763672,9.825000762939453
1775728221991310800,0.969310791015625,-14.475000381469727,81.28125,10.256250381469727
1775728222001310700,0.979310791015625,-15.506250381469727,81.76875305175781,9.393750190734863
1775728222011310800,0.989310791015625,-14.287500381469727,81.26250457763672,7.556250095367432
1775728222021310700,0.999310791015625,-15.356250762939453,81.82500457763672,8.831250190734863
1775728222031310800,1.009310791015625,-15.393750190734863,80.6812515258789,9.600000381469727
1775728222041310700,1.019310791015625,-15.225000381469727,81.4312515258789,9.600000381469727
1775728222051310800,1.029310791015625,-17.212501525878906,81.50625610351562,10.93125057220459
1775728222061310700,1.039310791015625,-17.212501525878906,81.39375305175781,10.200000762939453
1775728222071310800,1.049310791015625,-17.006250381469727,81.46875,7.256250381469727
1775728222081310700,1.059310791015625,-18.431251525878906,80.55000305175781,8.662500381469727
1775728222091310800,1.069310791015625,-18.356250762939453,81.7125015258789,6.337500095367432
1775728222101310700,1.079310791015625,-16.912500381469727,80.4375,7.893750190734863
1775728222111310800,1.089310791015625,-16.912500381469727,80.4375,7.893750190734863
1775728222121310700,1.099310791015625,-19.5,80.4937515258789,8.25
1775728222131310800,1.109310791015625,-17.587501525878906,82.5562515258789,7.893750190734863
1775728222141310700,1.119310791015625,-20.493751525878906,81.63750457763672,6.675000190734863
1775728222151310800,1.129310791015625,-18.543750762939453,81.03750610351562,6.787500381469727
1775728222161310700,1.139310791015625,-20.83125114440918,81.31875610351562,8.737500190734863
1775728222171310800,1.149310791015625,-21.450000762939453,81.1500015258789,8.4375
1775728222181310700,1.159310791015625,-18.525001525878906,81.67500305175781,6.900000095367432
1775728222191310800,1.169310791015625,-19.293750762939453,81.95625305175781,8.8125
1775728222201310700,1.179310791015625,-18.1875,82.76250457763672,7.518750190734863
1775728222211310800,1.189310791015625,-19.743751525878906,80.7750015258789,5.081250190734863
1775728222221310700,1.199310791015625,-19.293750762939453,81.41250610351562,6.881250381469727
1775728222231310800,1.209310791015625,-17.850000381469727,83.34375,6.356250286102295
1775728222241310700,1.219310791015625,-19.98750114440918,82.85625457763672,6.468750476837158
1775728222251310800,1.229310791015625,-20.025001525878906,82.06875610351562,7.012500286102295
1775728222261310700,1.239310791015625,-17.850000381469727,83.34375,6.356250286102295
1775728222271310800,1.249310791015625,-20.662500381469727,82.6500015258789,10.106250762939453
1775728222281310700,1.259310791015625,-17.90625,81.82500457763672,7.050000190734863
1775728222291310800,1.269310791015625,-20.793750762939453,82.38750457763672,9.225000381469727
1775728222301310700,1.279310791015625,-20.193750381469727,81.07500457763672,6.281250476837158
1775728222311310800,1.289310791015625,-17.92500114440918,81.67500305175781,7.743750095367432
1775728222321310700,1.299310791015625,-19.89375114440918,81.07500457763672,6.262500286102295
1775728222331310800,1.309310791015625,-19.012500762939453,81.20625305175781,7.950000286102295
1775728222341310700,1.319310791015625,-19.931251525878906,81.1500015258789,8.40000057220459
1775728222351310800,1.329310791015625,-18.5625,80.94375610351562,7.893750190734863
1775728222361310700,1.339310791015625,-17.64375114440918,80.23125457763672,6.468750476837158
1775728222371310800,1.349310791015625,-18.243751525878906,81.13125610351562,7.500000476837158
1775728222381310700,1.359310791015625,-18.225000381469727,81.5250015258789,7.575000286102295
1775728222391310800,1.369310791015625,-17.17500114440918,80.26875305175781,5.043750286102295
1775728222401310700,1.379310791015625,-18.543750762939453,81.03750610351562,6.787500381469727
1775728222411310800,1.389310791015625,-17.493751525878906,80.17500305175781,5.175000190734863
1775728222421310700,1.399310791015625,-18.600000381469727,79.91250610351562,7.706250190734863
1775728222431310800,1.409310791015625,-17.962501525878906,81.2437515258789,9.05625057220459
1775728222441310700,1.419310791015625,-17.775001525878906,81.88125610351562,8.34375
1775728222451310800,1.429310791015625,-18.65625,82.78125,9.375
1775728222461310700,1.439310791015625,-20.212501525878906,81.78750610351562,8.53125
1775728222471310800,1.449310791015625,-17.73750114440918,82.85625457763672,8.231250762939453
1775728222481310700,1.459310791015625,-18.731250762939453,80.4937515258789,8.231250762939453
1775728222491310800,1.469310791015625,-17.137500762939453,81.8062515258789,7.031250476837158
1775728222501310700,1.479310791015625,-17.025001525878906,81.78750610351562,9.43125057220459
1775728222511310800,1.489310791015625,-17.90625,82.3125,7.856250286102295
1775728222521310700,1.499310791015625,-19.78125,81.16875457763672,9.375
1775728222531310800,1.509310791015625,-20.193750381469727,81.67500305175781,7.800000190734863
1775728222541310700,1.519310791015625,-18.225000381469727,81.84375,8.0625
1775728222551310800,1.529310791015625,-18.693750381469727,81.88125610351562,9.206250190734863
1775728222561310700,1.539310791015625,-18.693750381469727,81.88125610351562,9.206250190734863
1775728222571310800,1.549310791015625,-21,81.20625305175781,8.850000381469727
1775728222581310700,1.559310791015625,-18.993751525878906,82.59375,10.612500190734863
1775728222591310800,1.569310791015625,-19.125,81.9375,7.818750381469727
1775728222601310700,1.579310791015625,-16.856250762939453,81.65625,7.706250190734863
1775728222611310800,1.589310791015625,-19.537500381469727,79.21875,8.02500057220459
1775728222621310700,1.599310791015625,-18.975000381469727,81.78750610351562,7.650000095367432
1775728222631310800,1.609310791015625,-18.39375114440918,81.03750610351562,7.631250381469727
1775728222641310700,1.619310791015625,-18.693750381469727,81.84375,8.925000190734863
1775728222651310800,1.629310791015625,-19.275001525878906,82.3687515258789,9.168750762939453
1775728222661310700,1.639310791015625,-18.712501525878906,81.30000305175781,9.52500057220459
1775728222671310800,1.649310791015625,-18.975000381469727,82.3687515258789,9.168750762939453
1775728222681310700,1.659310791015625,-17.606250762939453,82.03125,8.49375057220459
1775728222691310800,1.669310791015625,-19.725000381469727,82.53750610351562,8.512500762939453
1775728222701310700,1.679310791015625,-18.65625,82.3125,7.875000476837158
1775728222711310800,1.689310791015625,-17.793750762939453,81.13125610351562,7.481250286102295
1775728222721310700,1.699310791015625,-18.993751525878906,82.16250610351562,10.256250381469727
1775728222731310800,1.709310791015625,-16.875,81.28125,7.631250381469727
1775728222741310700,1.719310791015625,-19.42500114440918,82.48125457763672,9.05625057220459
1775728222751310800,1.729310791015625,-19.481250762939453,81.31875610351562,9.543750762939453
1775728222761310700,1.739310791015625,-17.943750381469727,82.16250610351562,11.081250190734863
1775728222771310800,1.749310791015625,-20.681251525878906,81.95625305175781,9.693750381469727
1775728222781310700,1.759310791015625,-19.40625,83.17500305175781,9.46875
1775728222791310800,1.769310791015625,-17.962501525878906,81.46875,10.668750762939453
1775728222801310700,1.779310791015625,-18.225000381469727,81.9375,8.77500057220459
1775728222811310800,1.789310791015625,-18.993751525878906,81.58125305175781,8.02500057220459
1775728222821310700,1.799310791015625,-19.481250762939453,80.75625610351562,8.30625057220459
1775728222831310800,1.809310791015625,-18.67500114440918,82.0875015258789,8.96250057220459
1775728222841310700,1.819310791015625,-17.868751525878906,83.15625,7.743750095367432
1775728222851310800,1.829310791015625,-17.92500114440918,81.88125610351562,9.1875
1775728222861310700,1.839310791015625,-17.493751525878906,80.94375610351562,7.875000476837158
1775728222871310800,1.849310791015625,-17.83125114440918,79.95000457763672,7.968750476837158
1775728222881310700,1.859310791015625,-17.118751525878906,83.36250305175781,9.168750762939453
1775728222891310800,1.869310791015625,-18.356250762939453,82.48125457763672,9.037500381469727
1775728222901310700,1.879310791015625,-20.212501525878906,82.3125,10.46250057220459
1775728222911310800,1.889310791015625,-17.981250762939453,80.2125015258789,8.86875057220459
1775728222921310700,1.899310791015625,-18.58125114440918,80.70000457763672,8.831250190734863
1775728222931310800,1.909310791015625,-16.78125,80.0625,8.662500381469727
1775728222941310700,1.919310791015625,-18.337501525878906,82.51875305175781,7.631250381469727
1775728222951310800,1.929310791015625,-20.08125114440918,81.31875610351562,8.71875
1775728222961310700,1.939310791015625,-18.225000381469727,81.9375,8.77500057220459
1775728222971310800,1.949310791015625,-18.431251525878906,80.45625305175781,7.931250095367432
1775728222981310700,1.959310791015625,-17.606250762939453,82.03125,8.49375057220459
1775728222991310800,1.969310791015625,-17.64375114440918,81.01875305175781,7.612500190734863
1775728223001310700,1.979310791015625,-17.64375114440918,81.01875305175781,7.612500190734863
1775728223011310800,1.989310791015625,-19.3125,80.7750015258789,6.750000476837158
1775728223021310700,1.999310791015625,-19.05000114440918,79.81875610351562,6.993750095367432
1775728223031310800,2.009310791015625,-17.92500114440918,81.6187515258789,7.443750381469727
1775728223041310700,2.019310791015625,-19.80000114440918,79.9312515258789,7.743750095367432
1775728223051310800,2.029310791015625,-18.95625114440918,82.96875,9
1775728223061310700,2.039310791015625,-20.0625,82.10625457763672,9.84375
1775728223071310800,2.049310791015625,-19.762500762939453,81.2437515258789,8.268750190734863
1775728223081310700,2.059310791015625,-18.993751525878906,81.09375,7.237500190734863
1775728223091310800,2.069310791015625,-18.225000381469727,82.48125457763672,9.881250381469727
1775728223101310700,2.079310791015625,-16.818750381469727,82.95000457763672,7.950000286102295
1775728223111310800,2.089310791015625,-17.64375114440918,81.09375,8.043750762939453
1775728223121310700,2.099310791015625,-17.943750381469727,81.3375015258789,8.100000381469727
1775728223131310800,2.109310791015625,-19.012500762939453,81.35625457763672,8.981250762939453
1775728223141310700,2.119310791015625,-21.337501525878906,81,10.800000190734863
1775728223151310800,2.129310791015625,-19.3125,81.41250610351562,9.412500381469727
1775728223161310700,2.139310791015625,-19.3125,81.35625457763672,8.981250762939453
1775728223171310800,2.149310791015625,-18.5625,81.1500015258789,9.356250762939453
1775728223181310700,2.159310791015625,-17.83125114440918,80.55000305175781,9.487500190734863
1775728223191310800,2.169310791015625,-20.193750381469727,82.85625457763672,9.862500190734863
1775728223201310700,2.179310791015625,-20.08125114440918,80.88750457763672,7.500000476837158
1775728223211310800,2.189310791015625,-17.53125,80.4375,8.756250381469727
1775728223221310700,2.199310791015625,-20.0625,82.06875610351562,9.5625
1775728223231310800,2.209310791015625,-18.375,81.67500305175781,7.743750095367432
1775728223241310700,2.219310791015625,-19.05000114440918,80.0625,8.737500190734863
1775728223251310800,2.229310791015625,-19.125,82.51875305175781,9.33750057220459
1775728223261310700,2.239310791015625,-18.412500381469727,80.4937515258789,6.543750286102295
1775728223271310800,2.249310791015625,-18.76875114440918,80.0250015258789,9.28125
1775728223281310700,2.259310791015625,-18.67500114440918,82.0875015258789,8.96250057220459
1775728223291310800,2.269310791015625,-20.493751525878906,82.70625305175781,9.693750381469727
1775728223301310700,2.279310791015625,-20.0625,81.2437515258789,8.268750190734863
1775728223311310800,2.289310791015625,-19.725000381469727,82.16250610351562,7.743750095367432
1775728223321310700,2.299310791015625,-20.512500762939453,81.1500015258789,7.556250095367432
1775728223331310800,2.309310791015625,-19.762500762939453,81.69375610351562,8.77500057220459
1775728223341310700,2.319310791015625,-19.931251525878906,80.75625610351562,8.325000762939453
1775728223351310800,2.329310791015625,-20.681251525878906,81.50625610351562,9.1875
1775728223361310700,2.339310791015625,-20.662500381469727,82.10625457763672,9.018750190734863
1775728223371310800,2.349310791015625,-18.693750381469727,81.39375305175781,8.40000057220459
1775728223381310700,2.359310791015625,-18.506250381469727,82.59375,8.90625
1775728223391310800,2.369310791015625,-18.356250762939453,82.2750015258789,7.575000286102295
1775728223401310700,2.379310791015625,-19.743751525878906,81.375,6.600000381469727
1775728223411310800,2.389310791015625,-18.65625,82.7437515258789,9.09375
1775728223421310700,2.399310791015625,-20.962501525878906,82.14375305175781,9.318750381469727
1775728223431310800,2.409310791015625,-18.67500114440918,81.91875457763672,7.800000190734863
1775728223441310700,2.419310791015625,-18.67500114440918,81.91875457763672,7.800000190734863
1775728223451310800,2.429310791015625,-17.90625,82.3687515258789,8.287500381469727
1775728223461310700,2.439310791015625,-19.293750762939453,81.63750457763672,8.325000762939453
1775728223471310800,2.449310791015625,-20.025001525878906,82.23750305175781,8.175000190734863
1775728223481310700,2.459310791015625,-19.762500762939453,81.69375610351562,8.77500057220459
1775728223491310800,2.469310791015625,-19.256250381469727,82.48125457763672,8.21250057220459
1775728223501310700,2.479310791015625,-20.625,82.57500457763672,7.987500190734863
1775728223511310800,2.489310791015625,-19.762500762939453,80.88750457763672,7.500000476837158
1775728223521310700,2.499310791015625,-24.900001525878906,83.2125015258789,10.612500190734863
1775728223531310800,2.509310791015625,-21.712501525878906,81.69375610351562,7.837500095367432
1775728223541310700,2.519310791015625,-22.162500381469727,83.45625305175781,11.4375
1775728223551310800,2.529310791015625,-21.806251525878906,79.33125305175781,7.106250286102295
1775728223561310700,2.539310791015625,-23.868751525878906,81.28125,8.381250381469727
1775728223571310800,2.549310791015625,-22.631250381469727,81.8062515258789,7.743750095367432
1775728223581310700,2.559310791015625,-22.21875,80.66250610351562,7.650000095367432
1775728223591310800,2.569310791015625,-23.700000762939453,81.65625,7.612500190734863
1775728223601310700,2.579310791015625,-24.95625114440918,81.2437515258789,9.80625057220459
1775728223611310800,2.589310791015625,-25.218751907348633,81.28125,7.575000286102295
1775728223621310700,2.599310791015625,-25.350000381469727,83.26875305175781,10.912500381469727
1775728223631310800,2.609310791015625,-25.23750114440918,81.4312515258789,8.58750057220459
1775728223651310800,2.629310791015625,-25.387500762939453,80.32500457763672,6.131250381469727
1775728223661310700,2.639310791015625,-23.83125114440918,80.32500457763672,3.543750047683716
1775728223671310800,2.649310791015625,-24.618751525878906,79.9312515258789,3.4875001907348633
1775728223681310700,2.659310791015625,-27.39375114440918,78.9937515258789,4.650000095367432
1775728223701310700,2.679310791015625,-26.775001525878906,79.80000305175781,5.925000190734863
1775728223711310800,2.689310791015625,-26.343751907348633,79.0875015258789,5.34375
1775728223721310700,2.699310791015625,-27.262500762939453,80.1187515258789,8.96250057220459
1775728223731310800,2.709310791015625,-27.806251525878906,81.78750610351562,8.4375
1775728223741310700,2.719310791015625,-27.843751907348633,80.55000305175781,8.49375057220459
1775728223751310800,2.729310791015625,-28.968751907348633,79.33125305175781,8.71875
1775728223761310700,2.739310791015625,-28.14375114440918,80.23125457763672,6.318750381469727
1775728223771310800,2.749310791015625,-30.11250114440918,80.4937515258789,6.431250095367432
1775728223781310700,2.759310791015625,-28.781251907348633,79.51875305175781,6.487500190734863
1775728223791310800,2.769310791015625,-27.993751525878906,80.66250610351562,8.381250381469727
1775728223801310700,2.779310791015625,-28.500001907348633,78.91875457763672,6.637500286102295
1775728223811310800,2.789310791015625,-28.481250762939453,79.06875610351562,5.962500095367432
1775728223821310700,2.799310791015625,-30.431251525878906,80.88750457763672,9.037500381469727
1775728223831310800,2.809310791015625,-29.531251907348633,80.94375610351562,10.3125
1775728223841310700,2.819310791015625,-28.950000762939453,80.08125305175781,9.5625
1775728223851310800,2.829310791015625,-30.918750762939453,80.28750610351562,9.225000381469727
1775728223861310700,2.839310791015625,-28.462501525878906,80.4000015258789,8.34375
1775728223871310800,2.849310791015625,-27.412500381469727,79.91250610351562,8.362500190734863
1775728223881310700,2.859310791015625,-28.837501525878906,78.9000015258789,9.1875
1775728223891310800,2.869310791015625,-28.837501525878906,78.9000015258789,9.1875
1775728223901310700,2.879310791015625,-26.36250114440918,79.51875305175781,8.25
1775728223911310800,2.889310791015625,-28.650001525878906,80.25,10.706250190734863
1775728223921310700,2.899310791015625,-30.168750762939453,79.59375,8.793750762939453
1775728223931310800,2.909310791015625,-30.168750762939453,79.59375,8.793750762939453
1775728223941310700,2.919310791015625,-28.931251525878906,80.88750457763672,10.83750057220459
1775728223951310800,2.929310791015625,-26.400001525878906,79.63125610351562,10.818750381469727
1775728223961310700,2.939310791015625,-27.150001525878906,79.80000305175781,10.162500381469727
1775728223971310800,2.949310791015625,-27.750001907348633,80.13750457763672,10.800000190734863
1775728223981310700,2.959310791015625,-25.781251907348633,79.78125,10.96875
1775728223991310800,2.969310791015625,-27.168750762939453,80.17500305175781,12.768750190734863
1775728224001310700,2.979310791015625,-26.83125114440918,80.34375,11.381250381469727
1775728224011310800,2.989310791015625,-27.000001907348633,79.5,10.668750762939453
1775728224021310700,2.999310791015625,-28.031251907348633,81.1875,12
1775728224031310800,3.009310791015625,-23.493751525878906,79.66875457763672,10.18125057220459
1775728224041310700,3.019310791015625,-23.043750762939453,79.70625305175781,9.61875057220459
1775728224051310800,3.029310791015625,-28.218751907348633,79.53750610351562,10.143750190734863
1775728224061310700,3.039310791015625,-26.887500762939453,79.7437515258789,14.100000381469727
1775728224071310800,3.049310791015625,-26.400001525878906,80.9625015258789,13.893750190734863
1775728224081310700,3.059310791015625,-23.8125,79.95000457763672,11.231250762939453
1775728224091310800,3.069310791015625,-23.850000381469727,79.20000457763672,12.075000762939453
1775728224101310700,3.079310791015625,-23.512500762939453,80.4375,12.862500190734863
1775728224111310800,3.089310791015625,-24.600000381469727,80.41875457763672,14.456250190734863
1775728224121310700,3.099310791015625,-24.787500381469727,79.40625,14.40000057220459
1775728224131310800,3.109310791015625,-24.787500381469727,78.76875305175781,12.581250190734863
1775728224141310700,3.119310791015625,-25.42500114440918,78.13125610351562,13.331250190734863
1775728224151310800,3.129310791015625,-21.65625,80.4000015258789,10.987500190734863
1775728224161310700,3.139310791015625,-21.86250114440918,79.44375610351562,12.075000762939453
1775728224171310800,3.149310791015625,-23.981250762939453,80.26875305175781,14.268750190734863
1775728224181310700,3.159310791015625,-21.431251525878906,79.53750610351562,13.631250381469727
1775728224191310800,3.169310791015625,-22.368751525878906,78.97500610351562,14.812500953674316
1775728224201310700,3.179310791015625,-20.756250381469727,80.8125,13.012500762939453
1775728224211310800,3.189310791015625,-21.75,78.86250305175781,13.237500190734863
1775728224221310700,3.199310791015625,-22.368751525878906,78.86250305175781,14.100000381469727
1775728224231310800,3.209310791015625,-22.443750381469727,80.94375610351562,14.625000953674316
1775728224241310700,3.219310791015625,-20.287500381469727,81.5250015258789,13.55625057220459
1775728224251310800,3.229310791015625,-20.90625,80.56875610351562,12.112500190734863
1775728224261310700,3.239310791015625,-18.01875114440918,80.55000305175781,11.193750381469727
1775728224271310800,3.249310791015625,-18.806251525878906,79.80000305175781,12.05625057220459
1775728224281310700,3.259310791015625,-16.80000114440918,79.40625,8.550000190734863
1775728224291310800,3.269310791015625,-15.750000953674316,79.3687515258789,9.075000762939453
1775728224301310700,3.279310791015625,-15.412500381469727,80.26875305175781,9.24375057220459
1775728224311310800,3.289310791015625,-14.081250190734863,80.2125015258789,11.456250190734863
1775728224321310700,3.299310791015625,-14.700000762939453,80.10000610351562,12.43125057220459
1775728224331310800,3.309310791015625,-14.343750953674316,81.16875457763672,11.21250057220459
1775728224341310700,3.319310791015625,-14.343750953674316,81.16875457763672,11.21250057220459
1775728224351310800,3.329310791015625,-11.737500190734863,81.22500610351562,9.881250381469727
1775728224361310700,3.339310791015625,-14.006250381469727,81.91875457763672,10.36875057220459
1775728224371310800,3.349310791015625,-12.393750190734863,80.7750015258789,12.787500381469727
1775728224381310700,3.359310791015625,-11.756250381469727,80.51250457763672,9.318750381469727
1775728224391310800,3.369310791015625,-10.875,80.28750610351562,11.231250762939453
1775728224401310700,3.379310791015625,-10.856250762939453,80.4375,10.55625057220459
1775728224411310800,3.389310791015625,-9.1875,81.35625457763672,13.36875057220459
1775728224421310700,3.399310791015625,-9.318750381469727,82.10625457763672,13.36875057220459
1775728224431310800,3.409310791015625,-9.168750762939453,81.63750457763672,12.71250057220459
1775728224441310700,3.419310791015625,-8.287500381469727,81.60000610351562,14.250000953674316
1775728224451310800,3.429310791015625,-6.750000476837158,80.75625610351562,10.237500190734863
1775728224461310700,3.439310791015625,-7.556250095367432,79.70625305175781,11.456250190734863
1775728224471310800,3.449310791015625,-6.018750190734863,79.78125,10.3125
1775728224481310700,3.459310791015625,-4.818750381469727,79.125,10.143750190734863
1775728224491310800,3.469310791015625,-5.287500381469727,79.23750305175781,10.893750190734863
1775728224501310700,3.479310791015625,-5.418750286102295,80.5875015258789,12.412500381469727
1775728224511310800,3.489310791015625,-5.625,78.41250610351562,11.15625
1775728224521310700,3.499310791015625,-5.568750381469727,80.36250305175781,11.8125
1775728224531310800,3.509310791015625,-4.425000190734863,77.90625,11.175000190734863
1775728224541310700,3.519310791015625,-5.362500190734863,77.90625,12.05625057220459
1775728224551310800,3.529310791015625,-4.725000381469727,78.69375610351562,12.318750381469727
1775728224561310700,3.539310791015625,-2.90625,77.6812515258789,9.675000190734863
1775728224571310800,3.549310791015625,-4.443750381469727,77.75625610351562,11.850000381469727
1775728224581310700,3.559310791015625,-3.168750047683716,79.66875457763672,12.187500953674316
1775728224591310800,3.569310791015625,-5.231250286102295,77.73750305175781,14.268750190734863
1775728224601310700,3.579310791015625,-3.356250047683716,78.63750457763672,12.843750953674316
1775728224611310800,3.589310791015625,-5.362500190734863,78.07500457763672,13.218750953674316
1775728224621310700,3.599310791015625,-4.425000190734863,78.4312515258789,12.262500762939453
1775728224631310800,3.609310791015625,-2.3062500953674316,78.03750610351562,11.287500381469727
1775728224641310700,3.619310791015625,-3.825000047683716,78.22500610351562,12.487500190734863
1775728224651310800,3.629310791015625,-1.3687500953674316,78.16875457763672,10.443750381469727
1775728224661310700,3.639310791015625,-1.9875000715255737,78.60000610351562,12.506250381469727
1775728224671310800,3.649310791015625,-3.750000238418579,76.33125305175781,13.256250381469727
1775728224681310700,3.659310791015625,-1.21875,78.88125610351562,12.825000762939453
1775728224691310800,3.669310791015625,-3.6937501430511475,77.4000015258789,12.05625057220459
1775728224701310700,3.679310791015625,-3.187500238418579,78.91875457763672,11.34375
1775728224711310800,3.689310791015625,-3.1500000953674316,79.85625457763672,11.793750762939453
1775728224721310700,3.699310791015625,-2.7375001907348633,78.78750610351562,12.15000057220459
1775728224731310800,3.709310791015625,-5.175000190734863,78.1875,10.537500381469727
1775728224741310700,3.719310791015625,-3.8062500953674316,78.3375015258789,10.668750762939453
1775728224751310800,3.729310791015625,-3.0187501907348633,78.86250305175781,10.050000190734863
1775728224761310700,3.739310791015625,-4.706250190734863,78.54375457763672,11.30625057220459
1775728224771310800,3.749310791015625,-2.793750047683716,77.2125015258789,11.568750381469727
1775728224781310700,3.759310791015625,-2.793750047683716,77.2125015258789,11.568750381469727
1775728224791310800,3.769310791015625,-3.8062500953674316,78.69375610351562,11.456250190734863
1775728224801310700,3.779310791015625,-6.168750286102295,80.0625,10.5
1775728224811310800,3.789310791015625,-6.168750286102295,80.0625,10.5
1775728224821310700,3.799310791015625,-7.087500095367432,80.38125610351562,11.850000381469727
1775728224831310800,3.809310791015625,-10.65000057220459,77.98125457763672,10.800000190734863
1775728224841310700,3.819310791015625,-11.77500057220459,81.1500015258789,11.981250762939453
1775728224851310800,3.829310791015625,-11.0625,80.00625610351562,12.750000953674316
1775728224861310700,3.839310791015625,-15.318750381469727,80.70000457763672,14.812500953674316
1775728224871310800,3.849310791015625,-18.5625,79.6500015258789,15.262500762939453
1775728224881310700,3.859310791015625,-21.150001525878906,78.95625305175781,14.793750762939453
1775728224891310800,3.869310791015625,-22.668750762939453,79.125,14.156250953674316
1775728224901310700,3.879310791015625,-21.787500381469727,78.375,14.11875057220459
1775728224911310800,3.889310791015625,-28.031251907348633,78.86250305175781,16.650001525878906
1775728224921310700,3.899310791015625,-28.912500381469727,78.95625305175781,15.562500953674316
1775728224931310800,3.909310791015625,-26.212501525878906,78.03750610351562,15.168750762939453
1775728224941310700,3.919310791015625,-28.387500762939453,77.79375457763672,17.868751525878906
1775728224951310800,3.929310791015625,-32.53125,75.97500610351562,16.350000381469727
1775728224961310700,3.939310791015625,-31.275001525878906,76.76250457763672,15.768750190734863
1775728224971310800,3.949310791015625,-31.968751907348633,75.1875,17.025001525878906
1775728224981310700,3.959310791015625,-31.33125114440918,74.6812515258789,14.381250381469727
1775728224991310800,3.969310791015625,-34.70625305175781,74.17500305175781,15.075000762939453
1775728225001310700,3.979310791015625,-34.44375228881836,72.63750457763672,13.08750057220459
1775728225011310800,3.989310791015625,-36.26250076293945,71.6812515258789,10.83750057220459
1775728225021310700,3.999310791015625,-39.07500076293945,70.875,13.856250762939453
1775728225031310800,4.009310791015625,-38.625,70.51875305175781,13.068750381469727
1775728225041310700,4.019310791015625,-39.337501525878906,72.01875305175781,14.793750762939453
1775728225051310800,4.029310791015625,-41.53125,70.4625015258789,14.418750762939453
1775728225061310700,4.039310791015625,-40.3125,70.16250610351562,14.043750762939453
1775728225071310800,4.049310791015625,-44.85000228881836,70.91250610351562,14.86875057220459
1775728225081310700,4.059310791015625,-43.837501525878906,69.54375457763672,14.006250381469727
1775728225091310800,4.069310791015625,-46.57500076293945,69.60000610351562,15.225000381469727
1775728225101310700,4.079310791015625,-47.868751525878906,67.6875,14.887500762939453
1775728225111310800,4.089310791015625,-44.23125076293945,66.4312515258789,12.300000190734863
1775728225121310700,4.099310791015625,-47.118751525878906,67.29375457763672,14.793750762939453
1775728225131310800,4.109310791015625,-48.806251525878906,66.6187515258789,13.593750953674316
1775728225141310700,4.119310791015625,-45.67500305175781,64.66875457763672,13.83750057220459
1775728225151310800,4.129310791015625,-48.07500076293945,65.8125,13.968750953674316
1775728225161310700,4.139310791015625,-46.21875,66.54375457763672,13.08750057220459
1775728225171310800,4.149310791015625,-46.57500076293945,65.41875457763672,13.856250762939453
1775728225181310700,4.159310791015625,-47.98125076293945,64.14375305175781,14.49375057220459
1775728225191310800,4.169310791015625,-47.51250076293945,64.89375305175781,15.33750057220459
1775728225201310700,4.179310791015625,-47.92500305175781,66.13125610351562,15.300000190734863
1775728225211310800,4.189310791015625,-48.54375076293945,65.34375,13.331250190734863
1775728225221310700,4.199310791015625,-48.54375076293945,65.34375,13.331250190734863
1775728225231310800,4.209310791015625,-47.8125,64.78125,13.781250953674316
1775728225241310700,4.219310791015625,-46.61250305175781,63.093753814697266,10.74375057220459
1775728225251310800,4.229310791015625,-48.11250305175781,63.88125228881836,11.925000190734863
1775728225261310700,4.239310791015625,-45.03750228881836,63.937503814697266,9.731250762939453
1775728225271310800,4.249310791015625,-47.00625228881836,65.66250610351562,12.937500953674316
1775728225281310700,4.259310791015625,-48.525001525878906,66.11250305175781,14.325000762939453
1775728225291310800,4.269310791015625,-46.57500076293945,65.15625,13.818750381469727
1775728225301310700,4.279310791015625,-44.08125305175781,65.85000610351562,10.912500381469727
1775728225311310800,4.289310791015625,-44.71875,66.46875,14.287500381469727
1775728225321310700,4.299310791015625,-44.118751525878906,65.53125,12.975000381469727
1775728225331310800,4.309310791015625,-43.3125,67.16250610351562,13.968750953674316
1775728225341310700,4.319310791015625,-42.60000228881836,64.98750305175781,11.831250190734863
1775728225351310800,4.329310791015625,-41.83125305175781,66.26250457763672,13.762500762939453
1775728225361310700,4.339310791015625,-40.38750076293945,63.900001525878906,12.99375057220459
1775728225371310800,4.349310791015625,-40.42500305175781,67.51875305175781,15.506250381469727
1775728225381310700,4.359310791015625,-38.45625305175781,67.8375015258789,16.087501525878906
1775728225391310800,4.369310791015625,-39.1875,69.48750305175781,18.825000762939453
1775728225401310700,4.379310791015625,-37.5,70.33125305175781,19.5
1775728225411310800,4.389310791015625,-38.56875228881836,71.4000015258789,22.556251525878906
1775728225421310700,4.399310791015625,-35.32500076293945,71.75625610351562,19.856250762939453
1775728225431310800,4.409310791015625,-33.82500076293945,71.75625610351562,21.65625
1775728225441310700,4.419310791015625,-33.900001525878906,73.1812515258789,20.231250762939453
1775728225451310800,4.429310791015625,-33,72.65625,19.256250381469727
1775728225461310700,4.439310791015625,-31.556251525878906,75.07500457763672,20.53125
1775728225471310800,4.449310791015625,-28.89375114440918,72.69375610351562,19.575000762939453
1775728225481310700,4.459310791015625,-29.64375114440918,73.2750015258789,19.293750762939453
1775728225491310800,4.469310791015625,-29.325000762939453,73.42500305175781,19.443750381469727
1775728225501310700,4.479310791015625,-28.350000381469727,73.53750610351562,15.075000762939453
1775728225511310800,4.489310791015625,-26.662500381469727,74.53125,16.762500762939453
1775728225521310700,4.499310791015625,-25.031251907348633,73.78125,16.856250762939453
1775728225531310800,4.509310791015625,-24.543750762939453,74.85000610351562,17.34375
1775728225541310700,4.519310791015625,-21.825000762939453,73.5562515258789,16.162500381469727
1775728225551310800,4.529310791015625,-21.95625114440918,74.25,15.731250762939453
1775728225561310700,4.539310791015625,-19.5,74.13750457763672,14.250000953674316
1775728225571310800,4.549310791015625,-19.61250114440918,75.84375,15.693750381469727
1775728225581310700,4.559310791015625,-19.80000114440918,74.8687515258789,14.96250057220459
1775728225591310800,4.569310791015625,-20.90625,75,18.39375114440918
1775728225601310700,4.579310791015625,-20.25,76.53750610351562,19.51875114440918
1775728225611310800,4.589310791015625,-18.881250381469727,76.3687515258789,19.3125
1775728225621310700,4.599310791015625,-18.543750762939453,77.70000457763672,19.837501525878906
1775728225631310800,4.609310791015625,-17.475000381469727,77.85000610351562,19.96875
1775728225641310700,4.619310791015625,-16.387500762939453,77.51250457763672,17.775001525878906
1775728225651310800,4.629310791015625,-18.20625114440918,77.79375457763672,17.868751525878906
1775728225661310700,4.639310791015625,-18.20625114440918,77.79375457763672,17.868751525878906
1775728225671310800,4.649310791015625,-16.162500381469727,79.03125,16.21875
1775728225681310700,4.659310791015625,-16.387500762939453,77.83125305175781,18.262500762939453
1775728225691310800,4.669310791015625,-17.118751525878906,78.26250457763672,16.950000762939453
1775728225701310700,4.679310791015625,-14.175000190734863,80.38125610351562,19.537500381469727
1775728225711310800,4.689310791015625,-14.68125057220459,78.8062515258789,18.95625114440918
1775728225721310700,4.699310791015625,-13.162500381469727,78.69375610351562,18.1875
1775728225731310800,4.709310791015625,-13.443750381469727,78.78750610351562,17.08125114440918
1775728225741310700,4.719310791015625,-12.33750057220459,80.0625,17.306251525878906
1775728225751310800,4.729310791015625,-13.18125057220459,77.56875610351562,17.26875114440918
1775728225761310700,4.739310791015625,-12.43125057220459,78.1500015258789,18.76875114440918
1775728225771310800,4.749310791015625,-10.875,78.50625610351562,16.96875
1775728225781310700,4.759310791015625,-13.481250762939453,78.84375,19.21875
1775728225791310800,4.769310791015625,-12.262500762939453,78.48750305175781,18.5625
1775728225801310700,4.779310791015625,-11.043750762939453,78.13125610351562,17.73750114440918
1775728225811310800,4.789310791015625,-13.218750953674316,77.625,19.40625
1775728225821310700,4.799310791015625,-13.781250953674316,78.09375,17.53125
1775728225831310800,4.809310791015625,-14.550000190734863,78.50625610351562,18.618751525878906
1775728225841310700,4.819310791015625,-11.793750762939453,78.97500610351562,19.33125114440918
1775728225851310800,4.829310791015625,-10.950000762939453,77.1187515258789,18.543750762939453
1775728225861310700,4.839310791015625,-12.300000190734863,77.7750015258789,19.537500381469727
1775728225871310800,4.849310791015625,-10.725000381469727,78.82500457763672,18.30000114440918
1775728225881310700,4.859310791015625,-9.075000762939453,77.4375,16.42500114440918
1775728225891310800,4.869310791015625,-9.600000381469727,75.65625,16.256250381469727
1775728225901310700,4.879310791015625,-10.800000190734863,76.42500305175781,17.137500762939453
1775728225911310800,4.889310791015625,-11.831250190734863,77.55000305175781,18.075000762939453
1775728225921310700,4.899310791015625,-10.27500057220459,78.45000457763672,18.20625114440918
1775728225931310800,4.909310791015625,-9.375,77.92500305175781,17.231250762939453
1775728225941310700,4.919310791015625,-11.0625,78.45000457763672,19.931251525878906
1775728225961310700,4.939310791015625,-11.8125,78.1875,18.20625114440918
1775728225971310800,4.949310791015625,-11.943750381469727,78.5250015258789,16.98750114440918
1775728225981310700,4.959310791015625,-11.0625,77.4375,17.325000762939453
1775728225991310800,4.969310791015625,-14.11875057220459,77.71875,19.162500381469727
1775728226001310700,4.979310791015625,-14.006250381469727,77.10000610351562,20.025001525878906
1775728226011310800,4.989310791015625,-15.33750057220459,77.56875610351562,18.168750762939453
1775728226021310700,4.999310791015625,-16.51875114440918,78.82500457763672,19.012500762939453
1775728226031310800,5.009310791015625,-17.306251525878906,77.32500457763672,17.34375
1775728226041310700,5.019310791015625,-19.762500762939453,77.0625,18.900001525878906
1775728226051310800,5.029310791015625,-22.068750381469727,76.44375610351562,18.84375
1775728226061310700,5.039310791015625,-21.225000381469727,77.5875015258789,16.5
1775728226071310800,5.049310791015625,-23.231250762939453,77.51250457763672,17.662500381469727
1775728226081310700,5.059310791015625,-25.23750114440918,76.35000610351562,17.36250114440918
1775728226091310800,5.069310791015625,-25.575000762939453,75.11250305175781,16.575000762939453
1775728226101310700,5.079310791015625,-26.681251525878906,75.65625,20.231250762939453
1775728226111310800,5.089310791015625,-26.681251525878906,75.65625,20.231250762939453
1775728226121310700,5.099310791015625,-26.64375114440918,75.26250457763672,17.606250762939453
1775728226131310800,5.109310791015625,-29.118751525878906,74.7750015258789,19.275001525878906
1775728226141310700,5.119310791015625,-29.006250381469727,74.1187515258789,20.006250381469727
1775728226151310800,5.129310791015625,-32.38125228881836,73.125,19.89375114440918
1775728226161310700,5.139310791015625,-31.687501907348633,71.625,19.875
1775728226171310800,5.149310791015625,-31.537500381469727,71.64375305175781,20.868751525878906
1775728226181310700,5.159310791015625,-36,70.25625610351562,21.5625
1775728226191310800,5.169310791015625,-35.34375,71.70000457763672,21.262500762939453
1775728226201310700,5.179310791015625,-35.53125,70.89375305175781,21.67500114440918
1775728226221310700,5.199310791015625,-35.55000305175781,68.8687515258789,18.037500381469727
1775728226231310800,5.209310791015625,-36.95625305175781,67.29375457763672,16.650001525878906
1775728226241310700,5.219310791015625,-39.5625,67.51875305175781,18.168750762939453
1775728226251310800,5.229310791015625,-39.39375305175781,67.4625015258789,16.875
1775728226261310700,5.239310791015625,-40.76250076293945,67.3125,16.743751525878906
1775728226271310800,5.249310791015625,-40.48125076293945,66.22500610351562,15.262500762939453
1775728226281310700,5.259310791015625,-42.50625228881836,65.66250610351562,17.325000762939453
1775728226291310800,5.269310791015625,-42,66.84375,16.837501525878906
1775728226301310700,5.279310791015625,-41.71875,64.7437515258789,13.612500190734863
1775728226311310800,5.289310791015625,-44.34375,64.2750015258789,14.568750381469727
1775728226321310700,5.299310791015625,-42.82500076293945,64.06875610351562,14.925000190734863
1775728226331310800,5.309310791015625,-40.29375076293945,62.70000076293945,14.156250953674316
1775728226341310700,5.319310791015625,-42.73125076293945,63.243751525878906,17.025001525878906
1775728226351310800,5.329310791015625,-41.66250228881836,62.66250228881836,14.756250381469727
1775728226361310700,5.339310791015625,-41.26875305175781,63.22500228881836,9.206250190734863
1775728226371310800,5.349310791015625,-44.28750228881836,60.806251525878906,13.068750381469727
1775728226381310700,5.359310791015625,-41.79375076293945,62.868751525878906,13.537500381469727
1775728226391310800,5.369310791015625,-45.16875076293945,63.468753814697266,17.681251525878906
1775728226401310700,5.379310791015625,-42.48750305175781,62.08125305175781,17.493751525878906
1775728226411310800,5.389310791015625,-42.01875305175781,61.500003814697266,15.24375057220459
1775728226421310700,5.399310791015625,-42.75,63.562503814697266,19.200000762939453
1775728226431310800,5.409310791015625,-42.63750076293945,61.81875228881836,16.59375
1775728226441310700,5.419310791015625,-42.50625228881836,62.025001525878906,18.900001525878906
1775728226451310800,5.429310791015625,-42.48750305175781,62.250003814697266,18.65625
1775728226461310700,5.439310791015625,-43.44375228881836,64.81875610351562,16.631250381469727
1775728226471310800,5.449310791015625,-44.04375076293945,65.98125457763672,19.556251525878906
1775728226481310700,5.459310791015625,-43.61250305175781,65.45625305175781,20.137500762939453
1775728226491310800,5.469310791015625,-44.400001525878906,64.33125305175781,19.23750114440918
1775728226501310700,5.479310791015625,-42.41250228881836,64.59375,19.387500762939453
1775728226511310800,5.489310791015625,-41.17500305175781,65.5875015258789,20.25
1775728226521310700,5.499310791015625,-41.025001525878906,65.70000457763672,20.118751525878906
1775728226531310800,5.509310791015625,-40.81875228881836,66.82500457763672,20.193750381469727
1775728226541310700,5.519310791015625,-36.41250228881836,66.41250610351562,18.30000114440918
1775728226551310800,5.529310791015625,-36.41250228881836,66.41250610351562,18.30000114440918
1775728226561310700,5.539310791015625,-39.03750228881836,69.69375610351562,19.42500114440918
1775728226571310800,5.549310791015625,-36.806251525878906,69.4312515258789,21.84375
1775728226581310700,5.559310791015625,-36.806251525878906,69.4312515258789,21.84375
1775728226591310800,5.569310791015625,-35.73750305175781,69.31875610351562,21.9375
1775728226601310700,5.579310791015625,-32.38125228881836,69.86250305175781,21.525001525878906
1775728226611310800,5.589310791015625,-30.20625114440918,70.85625457763672,21.525001525878906
1775728226621310700,5.599310791015625,-28.931251525878906,73.125,22.481250762939453
1775728226631310800,5.609310791015625,-28.912500381469727,73.20000457763672,21.375
1775728226641310700,5.619310791015625,-28.443750381469727,73.16250610351562,21.075000762939453
1775728226651310800,5.629310791015625,-26.212501525878906,71.8687515258789,20.756250381469727
1775728226661310700,5.639310791015625,-26.625001907348633,73.63125610351562,21.825000762939453
1775728226671310800,5.649310791015625,-26.812501907348633,72.5625,22.181251525878906
1775728226681310700,5.659310791015625,-27.281251907348633,72.67500305175781,22.931251525878906
1775728226691310800,5.669310791015625,-23.700000762939453,74.3062515258789,21.30000114440918
1775728226701310700,5.679310791015625,-23.100000381469727,74.19375610351562,21.412500381469727
1775728226711310800,5.689310791015625,-22.818750381469727,73.91250610351562,22.05000114440918
1775728226721310700,5.699310791015625,-21.825000762939453,75.9375,22.275001525878906
1775728226731310800,5.709310791015625,-20.943750381469727,75.03750610351562,21.225000381469727
1775728226741310700,5.719310791015625,-19.087501525878906,76.3125,22.275001525878906
1775728226751310800,5.729310791015625,-20.606250762939453,74.28750610351562,16.98750114440918
1775728226761310700,5.739310791015625,-19.818750381469727,75.9937515258789,20.118751525878906
1775728226771310800,5.749310791015625,-18.58125114440918,76.3687515258789,19.3125
1775728226781310700,5.759310791015625,-16.481250762939453,76.0875015258789,20.73750114440918
1775728226791310800,5.769310791015625,-15.99375057220459,76.61250305175781,20.118751525878906
1775728226801310700,5.779310791015625,-15.937500953674316,77.6812515258789,18.918750762939453
1775728226811310800,5.789310791015625,-15.356250762939453,77.34375,19.125
1775728226821310700,5.799310791015625,-13.800000190734863,78.31875610351562,18.975000381469727
1775728226831310800,5.809310791015625,-11.831250190734863,78.0562515258789,19.875
1775728226841310700,5.819310791015625,-14.606250762939453,76.53750610351562,17.962501525878906
1775728226851310800,5.829310791015625,-12.637500762939453,76.6875,18.918750762939453
1775728226861310700,5.839310791015625,-14.02500057220459,75.4312515258789,17.17500114440918
1775728226871310800,5.849310791015625,-12.412500381469727,77.83125305175781,16.59375
1775728226881310700,5.859310791015625,-10.481250762939453,75.9000015258789,14.475000381469727
1775728226891310800,5.869310791015625,-11.625,78.58125305175781,17.418750762939453
1775728226901310700,5.879310791015625,-8.475000381469727,77.2125015258789,15.80625057220459
1775728226911310800,5.889310791015625,-9.24375057220459,77.36250305175781,16.837501525878906
1775728226921310700,5.899310791015625,-11.043750762939453,78.375,17.793750762939453
1775728226931310800,5.909310791015625,-9.600000381469727,76.14375305175781,17.043750762939453
1775728226941310700,5.919310791015625,-10.800000190734863,76.4625015258789,17.418750762939453
1775728226951310800,5.929310791015625,-8.49375057220459,77.56875610351562,18.28125
1775728226961310700,5.939310791015625,-8.268750190734863,78.2437515258789,15.15000057220459
1775728226971310800,5.949310791015625,-8.58750057220459,78.86250305175781,17.681251525878906
1775728226981310700,5.959310791015625,-9.24375057220459,77.73750305175781,17.625
1775728226991310800,5.969310791015625,-9.24375057220459,77.73750305175781,17.625
1775728227001310700,5.979310791015625,-8.30625057220459,77.36250305175781,15.975000381469727
1775728227011310800,5.989310791015625,-7.856250286102295,77.25,15.24375057220459
1775728227021310700,5.999310791015625,-6.318750381469727,78.0562515258789,16.481250762939453
1775728227031310800,6.009310791015625,-7.575000286102295,77.41875457763672,18.075000762939453
1775728227041310700,6.019310791015625,-8.268750190734863,78.75,16.950000762939453
1775728227051310800,6.029310791015625,-9.075000762939453,77.4375,16.42500114440918
1775728227061310700,6.039310791015625,-7.987500190734863,78.7125015258789,17.493751525878906
1775728227071310800,6.049310791015625,-8.737500190734863,77.75625610351562,15.206250190734863
1775728227081310700,6.059310791015625,-8.77500057220459,77.26875305175781,16.106250762939453
1775728227091310800,6.069310791015625,-10.856250762939453,79.21875,17.53125
1775728227101310700,6.079310791015625,-8.606250762939453,76.85625457763672,14.193750381469727
1775728227111310800,6.089310791015625,-7.668750286102295,77.55000305175781,13.875000953674316
1775728227121310700,6.099310791015625,-9.487500190734863,77.51250457763672,13.500000953674316
1775728227131310800,6.109310791015625,-10.875,77.71875,15.825000762939453
1775728227141310700,6.119310791015625,-7.537500381469727,77.8125,16.462501525878906
1775728227151310800,6.129310791015625,-9.33750057220459,78.30000305175781,15.468750953674316
1775728227161310700,6.139310791015625,-10.256250381469727,77.60625457763672,14.231250762939453
1775728227171310800,6.149310791015625,-9.318750381469727,78.09375,14.175000190734863
1775728227181310700,6.159310791015625,-12.393750190734863,76.98750305175781,13.331250190734863
1775728227191310800,6.169310791015625,-11.831250190734863,76.01250457763672,14.40000057220459
1775728227201310700,6.179310791015625,-14.21250057220459,77.5875015258789,14.906250953674316
1775728227211310800,6.189310791015625,-15.71250057220459,78.50625610351562,15.112500190734863
1775728227221310700,6.199310791015625,-16.181251525878906,78.3375015258789,15.656250953674316
1775728227231310800,6.209310791015625,-18.20625114440918,76.78125,15.281250953674316
1775728227241310700,6.219310791015625,-20.15625,78.3375015258789,17.325000762939453
1775728227251310800,6.229310791015625,-20.90625,77.13750457763672,13.443750381469727
1775728227261310700,6.239310791015625,-22.818750381469727,75.75,16.61250114440918
1775728227271310800,6.249310791015625,-23.26875114440918,75.48750305175781,14.887500762939453
1775728227281310700,6.259310791015625,-23.8125,72.78750610351562,14.231250762939453
1775728227291310800,6.269310791015625,-24.337501525878906,75.54375457763672,15.206250190734863
1775728227301310700,6.279310791015625,-24.525001525878906,73.70625305175781,13.725000381469727
1775728227311310800,6.289310791015625,-26.55000114440918,73.80000305175781,16.912500381469727
1775728227321310700,6.299310791015625,-27.450000762939453,73.89375305175781,16.668750762939453
1775728227331310800,6.309310791015625,-27.67500114440918,71.625,16.51875114440918
1775728227341310700,6.319310791015625,-29.943750381469727,72.67500305175781,17.775001525878906
1775728227351310800,6.329310791015625,-30.562501907348633,72.1875,17.83125114440918
1775728227361310700,6.339310791015625,-31.293750762939453,73.1812515258789,17.756250381469727
1775728227371310800,6.349310791015625,-33.78750228881836,71.4937515258789,18.075000762939453
1775728227381310700,6.359310791015625,-33.5625,71.55000305175781,13.425000190734863
1775728227391310800,6.369310791015625,-34.5,71.71875,15.300000190734863
1775728227401310700,6.379310791015625,-34.81875228881836,71.45625305175781,15.262500762939453
1775728227411310800,6.389310791015625,-36.09375,69.0562515258789,14.137500762939453
1775728227421310700,6.399310791015625,-37.80000305175781,69.31875610351562,16.762500762939453
1775728227431310800,6.409310791015625,-37.80000305175781,69.31875610351562,16.762500762939453
1775728227441310700,6.419310791015625,-37.743751525878906,70.38750457763672,15.562500953674316
1775728227451310800,6.429310791015625,-38.681251525878906,69.91875457763672,15.787500381469727
1775728227461310700,6.439310791015625,-38.681251525878906,69.91875457763672,15.787500381469727
1775728227471310800,6.449310791015625,-39.39375305175781,65.83125305175781,12.468750953674316
1775728227481310700,6.459310791015625,-37.81875228881836,68.45625305175781,15.206250190734863
1775728227491310800,6.469310791015625,-40.91250228881836,66.50625610351562,14.625000953674316
1775728227501310700,6.479310791015625,-40.16250228881836,66.54375457763672,14.887500762939453
1775728227511310800,6.489310791015625,-43.03125,67.125,15.356250762939453
1775728227521310700,6.499310791015625,-40.20000076293945,64.38750457763672,12.937500953674316
1775728227531310800,6.509310791015625,-40.05000305175781,65.08125305175781,14.193750381469727
1775728227541310700,6.519310791015625,-40.743751525878906,66.50625610351562,13.781250953674316
1775728227551310800,6.529310791015625,-41.25,65.5875015258789,15.168750762939453
1775728227561310700,6.539310791015625,-41.10000228881836,65.23125457763672,13.537500381469727
1775728227571310800,6.549310791015625,-42.48750305175781,65.28750610351562,14.718750953674316
1775728227581310700,6.559310791015625,-44.73750305175781,65.4375,14.100000381469727
1775728227591310800,6.569310791015625,-44.88750076293945,65.73750305175781,14.437500953674316
1775728227601310700,6.579310791015625,-41.53125,66.50625610351562,15.487500190734863
1775728227611310800,6.589310791015625,-40.33125305175781,66.13125610351562,15.375000953674316
1775728227621310700,6.599310791015625,-39.45000076293945,65.53125,16.51875114440918
1775728227631310800,6.609310791015625,-41.19375228881836,67.40625,14.812500953674316
1775728227641310700,6.619310791015625,-41.98125076293945,66.5625,14.943750381469727
1775728227651310800,6.629310791015625,-39.993751525878906,66.20625305175781,13.406250953674316
1775728227661310700,6.639310791015625,-41.53125,66.6187515258789,16.21875
1775728227671310800,6.649310791015625,-41.15625,65.23125457763672,17.775001525878906
1775728227681310700,6.659310791015625,-39.525001525878906,67.4625015258789,16.05000114440918
1775728227691310800,6.669310791015625,-39.82500076293945,67.51875305175781,15.487500190734863
1775728227701310700,6.679310791015625,-35.681251525878906,69.26250457763672,17.26875114440918
1775728227711310800,6.689310791015625,-37.06875228881836,68.23125457763672,16.256250381469727
1775728227721310700,6.699310791015625,-35.15625,70.33125305175781,15.206250190734863
1775728227731310800,6.709310791015625,-35.32500076293945,70.33125305175781,16.05000114440918
1775728227741310700,6.719310791015625,-34.61250305175781,69.67500305175781,18.450000762939453
1775728227751310800,6.729310791015625,-32.868751525878906,71.6812515258789,18.506250381469727
1775728227761310700,6.739310791015625,-30.150001525878906,70.96875,18.01875114440918
1775728227771310800,6.749310791015625,-30.468751907348633,71.41875457763672,19.387500762939453
1775728227781310700,6.759310791015625,-27.881250381469727,71.00625610351562,18.243751525878906
1775728227791310800,6.769310791015625,-27.712501525878906,72.09375,19.725000381469727
1775728227801310700,6.779310791015625,-26.156251907348633,72.50625610351562,18.337501525878906
1775728227811310800,6.789310791015625,-27.225000381469727,71.8125,16.96875
1775728227821310700,6.799310791015625,-26.775001525878906,72.3375015258789,18.900001525878906
1775728227831310800,6.809310791015625,-26.756250381469727,72.97500610351562,19.012500762939453
1775728227841310700,6.819310791015625,-25.837501525878906,73.21875,18.900001525878906
1775728227851310800,6.829310791015625,-25.05000114440918,74.8125,21.30000114440918
1775728227861310700,6.839310791015625,-24.600000381469727,73.25625610351562,17.45625114440918
1775728227871310800,6.849310791015625,-22.89375114440918,74.41875457763672,17.775001525878906
1775728227881310700,6.859310791015625,-22.89375114440918,74.41875457763672,17.775001525878906
1775728227891310800,6.869310791015625,-23.325000762939453,74.45625305175781,16.387500762939453
1775728227901310700,6.879310791015625,-19.668750762939453,75.1875,17.981250762939453
1775728227911310800,6.889310791015625,-20.306251525878906,73.7437515258789,15.750000953674316
1775728227921310700,6.899310791015625,-19.125,72.50625610351562,15.90000057220459
1775728227931310800,6.909310791015625,-18.28125,75.01875305175781,15.937500953674316
1775728227941310700,6.919310791015625,-18.262500762939453,74.60625457763672,13.162500381469727
1775728227951310800,6.929310791015625,-17.043750762939453,74.55000305175781,13.687500953674316
1775728227961310700,6.939310791015625,-16.70625114440918,75.69375610351562,13.762500762939453
1775728227971310800,6.949310791015625,-13.518750190734863,74.9625015258789,12.262500762939453
1775728227981310700,6.959310791015625,-13.350000381469727,76.35000610351562,14.081250190734863
1775728227991310800,6.969310791015625,-13.46250057220459,76.98750305175781,13.350000381469727
1775728228001310700,6.979310791015625,-14.287500381469727,75.82500457763672,15.562500953674316
1775728228011310800,6.989310791015625,-13.83750057220459,76.06875610351562,16.443750381469727
1775728228021310700,6.999310791015625,-13.068750381469727,75.9000015258789,15.262500762939453
1775728228031310800,7.009310791015625,-13.481250762939453,77.4000015258789,16.125
1775728228041310700,7.019310791015625,-12.43125057220459,76.23750305175781,14.175000190734863
1775728228051310800,7.029310791015625,-10.875,77.8687515258789,15.15000057220459
1775728228061310700,7.039310791015625,-12.281250953674316,76.96875,16.575000762939453
1775728228071310800,7.049310791015625,-11.8125,77.4937515258789,15.956250190734863
1775728228081310700,7.059310791015625,-10.27500057220459,77.38125610351562,15.187500953674316
1775728228091310800,7.069310791015625,-11.512500762939453,76.70625305175781,14.812500953674316
1775728228101310700,7.079310791015625,-6.243750095367432,79.40625,14.606250762939453
1775728228111310800,7.089310791015625,-9.375,77.36250305175781,16.012500762939453
1775728228121310700,7.099310791015625,-9.15000057220459,78.1875,12.206250190734863
1775728228131310800,7.109310791015625,-9.018750190734863,78,13.425000190734863
1775728228141310700,7.119310791015625,-7.818750381469727,78.28125,15.43125057220459
1775728228151310800,7.129310791015625,-7.556250095367432,76.3687515258789,13.36875057220459
1775728228161310700,7.139310791015625,-7.856250286102295,76.14375305175781,11.925000190734863
1775728228171310800,7.149310791015625,-9.05625057220459,76.61250305175781,12.468750953674316
1775728228181310700,7.159310791015625,-5.681250095367432,77.15625,11.21250057220459
1775728228191310800,7.169310791015625,-8.006250381469727,76.06875610351562,12.187500953674316
1775728228201310700,7.179310791015625,-7.706250190734863,75.58125305175781,11.381250381469727
1775728228211310800,7.189310791015625,-7.537500381469727,76.70625305175781,13.143750190734863
1775728228221310700,7.199310791015625,-6.337500095367432,76.25625610351562,12.600000381469727
1775728228231310800,7.209310791015625,-7.500000476837158,77.4937515258789,12.581250190734863
1775728228241310700,7.219310791015625,-8.268750190734863,76.6875,11.325000762939453
1775728228251310800,7.229310791015625,-7.068750381469727,76.48125457763672,11.68125057220459
1775728228261310700,7.239310791015625,-8.287500381469727,76.42500305175781,11.287500381469727
1775728228271310800,7.249310791015625,-7.650000095367432,77.0625,10.537500381469727
1775728228281310700,7.259310791015625,-5.212500095367432,77.3062515258789,11.362500190734863
1775728228291310800,7.269310791015625,-7.237500190734863,76.3125,12.225000381469727
1775728228301310700,7.279310791015625,-7.237500190734863,77.17500305175781,13.800000190734863
1775728228311310800,7.289310791015625,-9.956250190734863,76.96875,12.412500381469727
1775728228321310700,7.299310791015625,-9.956250190734863,76.96875,12.412500381469727
1775728228331310800,7.309310791015625,-7.800000190734863,77.38125610351562,11.86875057220459
1775728228341310700,7.319310791015625,-7.800000190734863,77.38125610351562,11.86875057220459
1775728228351310800,7.329310791015625,-10.08750057220459,78.03750610351562,13.74375057220459
1775728228361310700,7.339310791015625,-11.625,77.3062515258789,12.937500953674316
1775728228371310800,7.349310791015625,-9.450000762939453,78.1500015258789,11.925000190734863
1775728228381310700,7.359310791015625,-14.643750190734863,77.2125015258789,12.300000190734863
1775728228391310800,7.369310791015625,-14.68125057220459,77.04375457763672,13.687500953674316
1775728228401310700,7.379310791015625,-15.731250762939453,76.72500610351562,11.53125
1775728228411310800,7.389310791015625,-17.100000381469727,76.70625305175781,12.131250381469727
1775728228421310700,7.399310791015625,-19.51875114440918,77.25,12.43125057220459
1775728228431310800,7.409310791015625,-18.806251525878906,76.42500305175781,13.668750762939453
1775728228441310700,7.419310791015625,-18.450000762939453,77.10000610351562,11.40000057220459
1775728228451310800,7.429310791015625,-21.806251525878906,76.40625,10.93125057220459
1775728228461310700,7.439310791015625,-23.231250762939453,76.125,15.000000953674316
1775728228471310800,7.449310791015625,-24.806251525878906,75.4312515258789,16.181251525878906
1775728228481310700,7.459310791015625,-26.006250381469727,75.9937515258789,16.61250114440918
1775728228491310800,7.469310791015625,-25.275001525878906,74.64375305175781,15.90000057220459
1775728228501310700,7.479310791015625,-25.687501907348633,76.1812515258789,16.21875
1775728228511310800,7.489310791015625,-29.17500114440918,72.28125,16.6875
1775728228521310700,7.499310791015625,-31.23750114440918,74.71875,18.056251525878906
1775728228531310800,7.509310791015625,-30.525001525878906,73.06875610351562,17.006250381469727
1775728228541310700,7.519310791015625,-32.400001525878906,72.20625305175781,17.887500762939453
1775728228551310800,7.529310791015625,-33.75,71.8125,16.012500762939453
1775728228561310700,7.539310791015625,-37.06875228881836,72.375,15.506250381469727
1775728228571310800,7.549310791015625,-35.90625,70.06875610351562,13.481250762939453
1775728228581310700,7.559310791015625,-37.42500305175781,70.48125457763672,14.58750057220459
1775728228591310800,7.569310791015625,-39.73125076293945,69.5625,14.193750381469727
1775728228601310700,7.579310791015625,-39.1875,67.53750610351562,13.93125057220459
1775728228611310800,7.589310791015625,-41.55000305175781,69.5250015258789,13.950000762939453
1775728228621310700,7.599310791015625,-41.775001525878906,67.91250610351562,14.77500057220459
1775728228631310800,7.609310791015625,-40.837501525878906,67.59375,11.71875
1775728228641310700,7.619310791015625,-42.73125076293945,66.375,13.668750762939453
1775728228651310800,7.629310791015625,-45.69375228881836,64.8375015258789,15.000000953674316
1775728228661310700,7.639310791015625,-45.806251525878906,65.51250457763672,14.568750381469727
1775728228671310800,7.649310791015625,-43.95000076293945,66.58125305175781,15.000000953674316
1775728228681310700,7.659310791015625,-43.53750228881836,64.57500457763672,12.356250762939453
1775728228691310800,7.669310791015625,-44.34375,63.281253814697266,12.131250381469727
1775728228701310700,7.679310791015625,-45.88125228881836,63.150001525878906,12.843750953674316
1775728228711310800,7.689310791015625,-45.525001525878906,64.4625015258789,13.36875057220459
1775728228721310700,7.699310791015625,-46.40625,65.23125457763672,13.387500762939453
1775728228731310800,7.709310791015625,-43.931251525878906,66.28125,12.975000381469727
1775728228741310700,7.719310791015625,-46.181251525878906,62.868751525878906,11.8125
1775728228751310800,7.729310791015625,-44.775001525878906,64.0875015258789,13.27500057220459
1775728228761310700,7.739310791015625,-44.775001525878906,64.0875015258789,13.27500057220459
1775728228771310800,7.749310791015625,-45.65625,65.90625,15.487500190734863
1775728228781310700,7.759310791015625,-42.806251525878906,64.7437515258789,15.318750381469727
1775728228791310800,7.769310791015625,-45.46875,65.79375457763672,12.206250190734863
1775728228801310700,7.779310791015625,-44.73750305175781,65.4375,14.100000381469727
1775728228811310800,7.789310791015625,-43.01250076293945,67.80000305175781,15.768750190734863
1775728228821310700,7.799310791015625,-41.962501525878906,67.40625,16.51875114440918
1775728228831310800,7.809310791015625,-42.78750228881836,65.60625457763672,15.206250190734863
1775728228841310700,7.819310791015625,-41.55000305175781,66.13125610351562,15.412500381469727
1775728228851310800,7.829310791015625,-42.69375228881836,68.26875305175781,16.42500114440918
1775728228861310700,7.839310791015625,-41.19375228881836,68.00625610351562,16.33125114440918
1775728228871310800,7.849310791015625,-39.16875076293945,69.13125610351562,16.350000381469727
1775728228881310700,7.859310791015625,-36.900001525878906,69.69375610351562,18.506250381469727
1775728228891310800,7.869310791015625,-36.88125228881836,70.01250457763672,18.150001525878906
1775728228901310700,7.879310791015625,-33.1875,71.26875305175781,17.4375
1775728228911310800,7.889310791015625,-34.837501525878906,71.28750610351562,16.650001525878906
1775728228921310700,7.899310791015625,-30.843751907348633,71.73750305175781,14.643750190734863
1775728228931310800,7.909310791015625,-33.73125076293945,72.48750305175781,16.42500114440918
1775728228941310700,7.919310791015625,-30.375001907348633,71.92500305175781,14.250000953674316
1775728228951310800,7.929310791015625,-29.625001907348633,72.35625457763672,15.581250190734863
1775728228961310700,7.939310791015625,-30.056251525878906,73.96875,18.86250114440918
1775728228971310800,7.949310791015625,-26.868751525878906,72.9937515258789,15.637500762939453
1775728228981310700,7.959310791015625,-26.36250114440918,75.1875,18.712501525878906
1775728228991310800,7.969310791015625,-26.418750762939453,73.35000610351562,17.231250762939453
1775728229001310700,7.979310791015625,-23.306251525878906,75.2437515258789,17.512500762939453
1775728229011310800,7.989310791015625,-22.875,75.5625,19.6875
1775728229021310700,7.999310791015625,-21.95625114440918,74.41875457763672,16.89375114440918
1775728229031310800,8.009310791015626,-23.287500381469727,75.60000610351562,17.306251525878906
1775728229041310700,8.019310791015625,-21.01875114440918,75.6187515258789,17.53125
1775728229051310800,8.029310791015625,-21.168750762939453,75.375,16.631250381469727
1775728229061310700,8.039310791015625,-21.262500762939453,76.76250457763672,16.762500762939453
1775728229071310800,8.049310791015625,-19.462501525878906,76.4625015258789,17.36250114440918
1775728229081310700,8.059310791015625,-18.975000381469727,77.00625610351562,16.743751525878906
1775728229091310800,8.069310791015624,-18.525001525878906,76.78125,16.125
1775728229101310700,8.079310791015626,-18.150001525878906,78.35625457763672,15.018750190734863
1775728229111310800,8.089310791015626,-20.4375,78.6187515258789,16.668750762939453
1775728229121310700,8.099310791015625,-17.868751525878906,77.75625610351562,15.168750762939453
1775728229131310800,8.109310791015625,-14.96250057220459,77.4375,13.762500762939453
1775728229141310700,8.119310791015625,-15.450000762939453,77.1187515258789,14.137500762939453
1775728229151310800,8.129310791015625,-14.943750381469727,77.4375,12.075000762939453
1775728229161310700,8.139310791015625,-13.443750381469727,77.38125610351562,13.425000190734863
1775728229171310800,8.149310791015624,-14.643750190734863,78.01875305175781,13.593750953674316
1775728229181310700,8.159310791015624,-12.281250953674316,76.85625457763672,15.843750953674316
1775728229191310800,8.169310791015626,-12.487500190734863,79.35000610351562,15.90000057220459
1775728229201310700,8.179310791015626,-12.487500190734863,79.35000610351562,15.90000057220459
1775728229211310800,8.189310791015625,-11.8125,76.5,13.36875057220459
1775728229221310700,8.199310791015625,-11.8125,76.5,13.36875057220459
1775728229241310700,8.219310791015625,-9.65625,76.80000305175781,12.093750953674316
1775728229251310800,8.229310791015624,-10.050000190734863,78.58125305175781,13.143750190734863
1775728229261310700,8.239310791015624,-10.36875057220459,78.58125305175781,13.162500381469727
1775728229271310800,8.249310791015626,-10.987500190734863,77.45625305175781,11.40000057220459
1775728229281310700,8.259310791015626,-9.65625,76.61250305175781,12.487500190734863
1775728229291310800,8.269310791015625,-11.193750381469727,77.19375610351562,14.756250381469727
1775728229301310700,8.279310791015625,-11.86875057220459,79.5,15.206250190734863
1775728229311310800,8.289310791015625,-10.21875,78.86250305175781,14.193750381469727
1775728229321310700,8.299310791015625,-7.668750286102295,78.03750610351562,15.52500057220459
1775728229331310800,8.309310791015625,-8.71875,78.69375610351562,15.675000190734863
1775728229341310700,8.319310791015624,-9.46875,78.50625610351562,14.381250381469727
1775728229351310800,8.329310791015626,-9.46875,78.20625305175781,14.043750762939453
1775728229361310700,8.339310791015626,-7.762500286102295,79.3125,13.93125057220459
1775728229371310800,8.349310791015625,-8.71875,78.20625305175781,14.02500057220459
1775728229381310700,8.359310791015625,-7.762500286102295,78.82500457763672,13.125000953674316
1775728229391310800,8.369310791015625,-8.96250057220459,78.9937515258789,11.793750762939453
1775728229401310700,8.379310791015625,-7.931250095367432,77.92500305175781,12.112500190734863
1775728229411310800,8.389310791015625,-7.050000190734863,77.0625,11.362500190734863
1775728229421310700,8.399310791015624,-7.106250286102295,79.6875,11.456250190734863
1775728229431310800,8.409310791015624,-7.912500381469727,78.63750457763672,12.675000190734863
1775728229441310700,8.419310791015626,-7.912500381469727,78.03750610351562,11.15625
1775728229451310800,8.429310791015626,-7.443750381469727,78.2437515258789,10.893750190734863
1775728229461310700,8.439310791015625,-8.49375057220459,80.17500305175781,13.83750057220459
1775728229471310800,8.449310791015625,-7.143750190734863,78.7125015258789,11.550000190734863
1775728229481310700,8.459310791015625,-9.393750190734863,79.42500305175781,12.168750762939453
1775728229491310800,8.469310791015625,-9.43125057220459,78.9000015258789,12.768750190734863
1775728229501310700,8.479310791015624,-10.78125,79.06875610351562,12.281250953674316
1775728229511310800,8.489310791015624,-11.8125,79.96875,12.468750953674316
1775728229521310700,8.499310791015626,-10.762500762939453,79.70625305175781,12.393750190734863
1775728229531310800,8.509310791015626,-12.487500190734863,78.76875305175781,13.537500381469727
1775728229541310700,8.519310791015625,-14.943750381469727,78.4312515258789,14.662500381469727
1775728229551310800,8.529310791015625,-15.506250381469727,78.50625610351562,11.71875
1775728229561310700,8.539310791015625,-18.412500381469727,78.88125610351562,13.425000190734863
1775728229571310800,8.549310791015625,-20.231250762939453,78.9937515258789,14.193750381469727
1775728229581310700,8.559310791015625,-19.3125,79.44375610351562,13.83750057220459
1775728229591310800,8.569310791015624,-22.875,77.4375,13.687500953674316
1775728229601310700,8.579310791015626,-23.17500114440918,77.64375305175781,14.30625057220459
1775728229611310800,8.589310791015626,-26.943750381469727,78.67500305175781,15.300000190734863
1775728229621310700,8.599310791015625,-25.950000762939453,76.4625015258789,13.875000953674316
1775728229631310800,8.609310791015625,-26.568750381469727,74.98125457763672,11.34375
1775728229641310700,8.619310791015625,-27.356250762939453,75.375,13.987500190734863
1775728229651310800,8.629310791015625,-27.356250762939453,75.375,13.987500190734863
1775728229661310700,8.639310791015625,-29.212501525878906,74.625,14.86875057220459
1775728229671310800,8.649310791015624,-30.337501525878906,73.6500015258789,15.843750953674316
1775728229681310700,8.659310791015624,-28.837501525878906,72.75,15.637500762939453
1775728229691310800,8.669310791015626,-30.318750381469727,74.25,15.675000190734863
1775728229701310700,8.679310791015626,-31.087501525878906,73.5,14.850000381469727
1775728229711310800,8.689310791015625,-31.593751907348633,72.16875457763672,15.037500381469727
1775728229721310700,8.699310791015625,-34.48125076293945,71.4937515258789,13.856250762939453
1775728229731310800,8.709310791015625,-36.03750228881836,71.45625305175781,15.300000190734863
1775728229741310700,8.719310791015625,-36.337501525878906,70.9312515258789,14.21250057220459
1775728229751310800,8.729310791015624,-36.20625305175781,70.06875610351562,13.481250762939453
1775728229761310700,8.739310791015624,-38.36250305175781,68.45625305175781,11.68125057220459
1775728229771310800,8.749310791015626,-38.23125076293945,68.26875305175781,12.206250190734863
1775728229781310700,8.759310791015626,-41.38125228881836,69.46875,12.656250953674316
1775728229791310800,8.769310791015625,-40.368751525878906,68.4375,13.293750762939453
1775728229801310700,8.779310791015625,-41.775001525878906,66.58125305175781,11.700000762939453
1775728229811310800,8.789310791015625,-42.22500228881836,67.80000305175781,14.062500953674316
1775728229821310700,8.799310791015625,-41.83125305175781,65.36250305175781,11.887500762939453
1775728229831310800,8.809310791015625,-40.25625228881836,67.01250457763672,12.862500190734863
1775728229841310700,8.819310791015624,-40.44375228881836,65.71875,11.77500057220459
1775728229851310800,8.829310791015626,-43.33125305175781,65.53125,11.25
1775728229861310700,8.839310791015626,-43.80000305175781,65.79375457763672,13.012500762939453
1775728229871310800,8.849310791015625,-41.13750076293945,63.000003814697266,10.987500190734863
1775728229881310700,8.859310791015625,-45.01875305175781,65.53125,12.15000057220459
1775728229891310800,8.869310791015625,-42.712501525878906,66.0562515258789,11.475000381469727
1775728229901310700,8.879310791015625,-42.618751525878906,64.875,12.80625057220459
1775728229911310800,8.889310791015625,-44.64375305175781,63.82500076293945,14.062500953674316
1775728229921310700,8.899310791015624,-43.98750305175781,64.4625015258789,11.643750190734863
1775728229931310800,8.909310791015624,-44.92500305175781,64.35000610351562,13.481250762939453
1775728229941310700,8.919310791015626,-43.556251525878906,63.97500228881836,12.52500057220459
1775728229951310800,8.929310791015626,-41.51250076293945,65.625,11.925000190734863
1775728229961310700,8.939310791015625,-41.75625228881836,67.29375457763672,12.262500762939453
1775728229971310800,8.949310791015625,-42.30000305175781,65.10000610351562,12.562500953674316
1775728229981310700,8.959310791015625,-43.53750228881836,64.70625305175781,13.36875057220459
1775728229991310800,8.969310791015625,-43.03125,66.26250457763672,13.781250953674316
1775728230001310700,8.979310791015624,-42.712501525878906,66.16875457763672,12.206250190734863
1775728230011310800,8.989310791015624,-40.368751525878906,68.13750457763672,12.937500953674316
1775728230021310700,8.999310791015626,-38.23125076293945,69.75,15.450000762939453
1775728230031310800,9.009310791015626,-39.13125228881836,69.01875305175781,13.93125057220459
1775728230041310700,9.019310791015625,-36.22500228881836,70.21875,14.512500762939453
1775728230051310800,9.029310791015625,-36.09375,69.78750610351562,14.981250762939453
1775728230061310700,9.039310791015625,-33.45000076293945,70.38750457763672,12.206250190734863
1775728230071310800,9.049310791015625,-33.97500228881836,69.22500610351562,14.531250953674316
1775728230081310700,9.059310791015625,-33.618751525878906,70.85625457763672,14.550000190734863
1775728230091310800,9.069310791015624,-34.61250305175781,72.35625457763672,14.58750057220459
1775728230101310700,9.079310791015626,-34.61250305175781,72.35625457763672,14.58750057220459
1775728230111310800,9.089310791015626,-32.587501525878906,74.36250305175781,16.462501525878906
1775728230121310700,9.099310791015625,-32.212501525878906,72.54375457763672,16.818750381469727
1775728230131310800,9.109310791015625,-32.00625228881836,72.97500610351562,14.643750190734863
1775728230141310700,9.119310791015625,-29.568750381469727,73.5,14.812500953674316
1775728230151310800,9.129310791015625,-27.750001907348633,73.29375457763672,14.30625057220459
1775728230161310700,9.139310791015625,-27.450000762939453,73.48125457763672,15.600000381469727
1775728230171310800,9.149310791015624,-28.575000762939453,71.75625610351562,14.86875057220459
1775728230181310700,9.159310791015624,-27.243751525878906,74.75625610351562,15.000000953674316
1775728230191310800,9.169310791015626,-27.093751907348633,75.0562515258789,16.181251525878906
1775728230201310700,9.179310791015626,-25.875001907348633,74.8687515258789,14.831250190734863
1775728230211310800,9.189310791015625,-25.218751907348633,76.57500457763672,16.275001525878906
1775728230221310700,9.199310791015625,-24.918750762939453,76.14375305175781,15.90000057220459
1775728230231310800,9.209310791015625,-24.39375114440918,77.66250610351562,15.187500953674316
1775728230241310700,9.219310791015625,-23.212501525878906,76.25625610351562,13.331250190734863
1775728230251310800,9.229310791015624,-22.575000762939453,76.51875305175781,11.68125057220459
1775728230261310700,9.239310791015624,-21.506250381469727,76.61250305175781,12.375000953674316
1775728230271310800,9.249310791015626,-19.42500114440918,75.75,12.43125057220459
1775728230281310700,9.259310791015626,-20.92500114440918,77.04375457763672,14.418750762939453
1775728230291310800,9.269310791015625,-20.137500762939453,77.56875610351562,13.781250953674316
1775728230301310700,9.279310791015625,-18.600000381469727,77.41875457763672,12.731250762939453
1775728230311310800,9.289310791015625,-17.700000762939453,76.7437515258789,11.58750057220459
1775728230321310700,9.299310791015625,-16.40625,74.8687515258789,12.468750953674316
1775728230331310800,9.309310791015625,-16.14375114440918,77.8687515258789,12.468750953674316
1775728230341310700,9.319310791015624,-17.26875114440918,76.6875,12.975000381469727
1775728230351310800,9.329310791015626,-15.393750190734863,77.92500305175781,12.881250381469727
1775728230361310700,9.339310791015626,-14.02500057220459,77.41875457763672,11.193750381469727
1775728230371310800,9.349310791015625,-14.643750190734863,76.48125457763672,9.768750190734863
1775728230381310700,9.359310791015625,-13.256250381469727,77.00625610351562,9.975000381469727
1775728230391310800,9.369310791015625,-12.506250381469727,75.375,5.681250095367432
1775728230401310700,9.379310791015625,-10.08750057220459,75.01875305175781,5.831250190734863
1775728230411310800,9.389310791015625,-14.49375057220459,76.6875,10.36875057220459
1775728230421310700,9.399310791015624,-13.237500190734863,79.03125,13.593750953674316
1775728230431310800,9.409310791015624,-13.706250190734863,77.32500457763672,10.46250057220459
1775728230441310700,9.419310791015626,-11.643750190734863,76.03125,11.006250381469727
1775728230451310800,9.429310791015626,-10.6875,77.3062515258789,12.075000762939453
1775728230461310700,9.439310791015625,-11.793750762939453,76.875,13.425000190734863
1775728230471310800,9.449310791015625,-12.393750190734863,76.875,12.600000381469727
1775728230481310700,9.459310791015625,-11.137500762939453,77.3062515258789,11.231250762939453
1775728230491310800,9.469310791015625,-12.675000190734863,76.57500457763672,10.425000190734863
1775728230501310700,9.479310791015624,-10.96875,77.73750305175781,10.74375057220459
1775728230511310800,9.489310791015624,-12.225000381469727,76.875,11.756250381469727
1775728230521310700,9.499310791015626,-11.643750190734863,77.0250015258789,13.593750953674316
1775728230531310800,9.509310791015626,-11.643750190734863,77.0250015258789,13.593750953674316
1775728230541310700,9.519310791015625,-11.475000381469727,76.5562515258789,11.25
1775728230551310800,9.529310791015625,-12.206250190734863,77.26875305175781,11.831250190734863
1775728230561310700,9.539310791015625,-9.46875,76.6500015258789,10.21875
1775728230571310800,9.549310791015625,-9.09375,75.26250457763672,11.77500057220459
1775728230581310700,9.559310791015625,-10.856250762939453,77.51250457763672,12.675000190734863
1775728230591310800,9.569310791015624,-9,76.72500610351562,8.943750381469727
1775728230601310700,9.579310791015626,-11.550000190734863,79.1812515258789,13.012500762939453
1775728230611310800,9.589310791015626,-12.356250762939453,77.45625305175781,12.281250953674316
1775728230621310700,9.599310791015625,-10.668750762939453,77.90625,11.90625
1775728230631310800,9.609310791015625,-11.90625,77.34375,11.550000190734863
1775728230641310700,9.619310791015625,-11.100000381469727,78.22500610351562,10.706250190734863
1775728230651310800,9.629310791015625,-10.893750190734863,75.375,10.856250762939453
1775728230661310700,9.639310791015625,-11.793750762939453,75.28125,9.318750381469727
1775728230671310800,9.649310791015624,-13.068750381469727,78.16875457763672,10.331250190734863
1775728230681310700,9.659310791015624,-14.850000381469727,75.9937515258789,11.643750190734863
1775728230691310800,9.669310791015626,-15.600000381469727,76.3125,12.018750190734863
1775728230701310700,9.679310791015626,-14.925000190734863,77.1187515258789,9.90000057220459
1775728230711310800,9.689310791015625,-17.83125114440918,77.4937515258789,11.58750057220459
1775728230721310700,9.699310791015625,-18.450000762939453,75.69375610351562,8.58750057220459
1775728230731310800,9.709310791015625,-18.46875,75.48750305175781,8.96250057220459
1775728230741310700,9.719310791015625,-21.65625,75.65625,9.225000381469727
1775728230751310800,9.729310791015624,-19.21875,74.5875015258789,5.287500381469727
1775728230761310700,9.739310791015624,-22.087501525878906,74.88750457763672,4.706250190734863
1775728230771310800,9.749310791015626,-24.131250381469727,74.28750610351562,9.168750762939453
1775728230781310700,9.759310791015626,-25.950000762939453,75.1500015258789,10.800000190734863
1775728230791310800,9.769310791015625,-27.281251907348633,73.875,14.812500953674316
1775728230801310700,9.779310791015625,-27.168750762939453,72.16875457763672,13.36875057220459
1775728230811310800,9.789310791015625,-28.275001525878906,71.08125305175781,14.456250190734863
1775728230821310700,9.799310791015625,-28.387500762939453,71.73750305175781,13.031250953674316
1775728230831310800,9.809310791015625,-29.193750381469727,70.72500610351562,12.862500190734863
1775728230841310700,9.819310791015624,-32.08125305175781,71.00625610351562,13.987500190734863
1775728230851310800,9.829310791015626,-29.92500114440918,71.0625,12.656250953674316
1775728230861310700,9.839310791015626,-32.73750305175781,69.16875457763672,12.375000953674316
1775728230871310800,9.849310791015625,-34.087501525878906,69.26250457763672,11.30625057220459
1775728230881310700,9.859310791015625,-35.13750076293945,69.95625305175781,12.731250762939453
1775728230891310800,9.869310791015625,-35.47500228881836,69.54375457763672,14.062500953674316
1775728230901310700,9.879310791015625,-35.34375,67.9312515258789,10.800000190734863
1775728230911310800,9.889310791015625,-38.71875,66.50625610351562,9.487500190734863
1775728230921310700,9.899310791015624,-36.88125228881836,67.40625,11.4375
1775728230931310800,9.909310791015624,-38.56875228881836,66.31875610351562,9.018750190734863
1775728230941310700,9.919310791015626,-38.45625305175781,66.13125610351562,11.25
1775728230951310800,9.929310791015626,-40.91250228881836,64.91250610351562,10.518750190734863
1775728230961310700,9.939310791015625,-40.462501525878906,66.45000457763672,14.175000190734863
1775728230971310800,9.949310791015625,-43.06875228881836,64.7437515258789,11.8125
1775728230981310700,9.959310791015625,-40.76250076293945,65.15625,10.40625
1775728230991310800,9.969310791015625,-40.76250076293945,65.15625,10.40625
1775728231001310700,9.979310791015624,-41.681251525878906,64.76250457763672,11.21250057220459
1775728231011310800,9.989310791015624,-42.31875228881836,63.88125228881836,10.200000762939453
1775728231021310700,9.999310791015626,-43.85625076293945,63.35625076293945,10.856250762939453
1775728231031310800,10.009310791015626,-42.48750305175781,63.63750076293945,10.3125
1775728231041310700,10.019310791015625,-43.85625076293945,63.35625076293945,10.856250762939453
1775728231051310800,10.029310791015625,-43.125,62.531253814697266,9.543750762939453
1775728231061310700,10.039310791015625,-43.087501525878906,63.54375076293945,10.443750381469727
1775728231071310800,10.049310791015625,-44.025001525878906,63.187503814697266,11.40000057220459
1775728231081310700,10.059310791015625,-45.375,63.50625228881836,10.21875
1775728231091310800,10.069310791015624,-43.275001525878906,62.812503814697266,10.59375
1775728231101310700,10.079310791015626,-41.587501525878906,63.281253814697266,10.350000381469727
1775728231111310800,10.089310791015626,-45.09375,63.07500076293945,10.6875
1775728231121310700,10.099310791015625,-43.89375305175781,63.07500076293945,11.512500762939453
1775728231131310800,10.109310791015625,-42.28125,65.3062515258789,11.475000381469727
1775728231141310700,10.119310791015625,-41.25,64.0875015258789,10.78125
1775728231151310800,10.129310791015625,-41.56875228881836,64.35000610351562,11.68125057220459
1775728231161310700,10.139310791015625,-41.53125,64.44375610351562,9.881250381469727
1775728231171310800,10.149310791015624,-40.875,66.1500015258789,10.46250057220459
1775728231181310700,10.159310791015624,-39.86250305175781,65.60625457763672,12.731250762939453
1775728231191310800,10.169310791015626,-38.60625076293945,66.13125610351562,12.093750953674316
1775728231201310700,10.179310791015626,-37.81875228881836,67.48125457763672,12.750000953674316
1775728231211310800,10.189310791015625,-37.03125,67.40625,10.59375
1775728231221310700,10.199310791015625,-34.16250228881836,66.69375610351562,10.818750381469727
1775728231231310800,10.209310791015625,-35.66250228881836,67.78125,11.475000381469727
1775728231241310700,10.219310791015625,-33.16875076293945,70.05000305175781,13.406250953674316
1775728231251310800,10.229310791015624,-33.16875076293945,69.0562515258789,10.818750381469727
1775728231261310700,10.239310791015624,-30.843751907348633,70.33125305175781,10.987500190734863
1775728231271310800,10.249310791015626,-30.39375114440918,69.6187515258789,9.581250190734863
1775728231281310700,10.259310791015626,-30.075000762939453,70.05000305175781,9.09375
1775728231291310800,10.269310791015625,-30.11250114440918,69.13125610351562,9.61875057220459
1775728231301310700,10.279310791015625,-30.881250381469727,69.03750610351562,10.74375057220459
1775728231311310800,10.289310791015625,-29.587501525878906,71.85000610351562,12.093750953674316
1775728231321310700,10.299310791015625,-25.387500762939453,69.73125457763672,10.46250057220459
1775728231331310800,10.309310791015625,-28.312501907348633,69.60000610351562,12.90000057220459
1775728231341310700,10.319310791015624,-26.662500381469727,69.67500305175781,14.287500381469727
1775728231351310800,10.329310791015626,-26.006250381469727,71.17500305175781,15.112500190734863
1775728231361310700,10.339310791015626,-24.637500762939453,71.00625610351562,14.906250953674316
1775728231371310800,10.349310791015625,-26.45625114440918,71.55000305175781,15.206250190734863
1775728231381310700,10.359310791015625,-25.05000114440918,72.3375015258789,15.450000762939453
1775728231391310800,10.369310791015625,-26.043750762939453,73.91250610351562,13.387500762939453
1775728231401310700,10.379310791015625,-24.543750762939453,72.95625305175781,12.881250381469727
1775728231411310800,10.389310791015625,-22.537500381469727,73.80000305175781,13.55625057220459
1775728231421310700,10.399310791015624,-22.537500381469727,73.80000305175781,13.55625057220459
1775728231431310800,10.409310791015624,-24.075000762939453,73.3125,12.80625057220459
1775728231441310700,10.419310791015626,-22.23750114440918,73.78125,12.562500953674316
1775728231451310800,10.429310791015626,-21.806251525878906,72.48750305175781,11.456250190734863
1775728231461310700,10.439310791015625,-20.287500381469727,72.97500610351562,12.206250190734863
1775728231471310800,10.449310791015625,-22.725000381469727,73.35000610351562,13.893750190734863
1775728231481310700,10.459310791015625,-21.918750762939453,74.73750305175781,14.850000381469727
1775728231491310800,10.469310791015625,-20.55000114440918,73.98750305175781,13.106250762939453
1775728231501310700,10.479310791015624,-21.58125114440918,74.64375305175781,11.71875
1775728231511310800,10.489310791015624,-19.59375,74.56875610351562,11.231250762939453
1775728231521310700,10.499310791015626,-18.543750762939453,74.19375610351562,11.11875057220459
1775728231531310800,10.509310791015626,-17.17500114440918,74.34375,11.40000057220459
1775728231541310700,10.519310791015625,-18.037500381469727,75.91875457763672,11.86875057220459
1775728231551310800,10.529310791015625,-17.8125,74.56875610351562,13.706250190734863
1775728231561310700,10.539310791015625,-18.600000381469727,73.9312515258789,13.612500190734863
1775728231571310800,10.549310791015625,-18.712501525878906,74.2125015258789,12.112500190734863
1775728231581310700,10.559310791015625,-17.775001525878906,75.09375,13.106250762939453
1775728231591310800,10.569310791015624,-17.775001525878906,75.84375,13.950000762939453
1775728231601310700,10.579310791015626,-19.762500762939453,74.9625015258789,12.99375057220459
1775728231611310800,10.589310791015626,-18.84375,74.6812515258789,11.925000190734863
1775728231621310700,10.599310791015625,-17.006250381469727,75.84375,13.93125057220459
1775728231631310800,10.609310791015625,-15.506250381469727,74.60625457763672,11.550000190734863
1775728231641310700,10.619310791015625,-15.675000190734863,73.70625305175781,11.231250762939453
1775728231651310800,10.629310791015625,-16.725000381469727,74.8687515258789,12.468750953674316
1775728231661310700,10.639310791015625,-15.037500381469727,74.8687515258789,11.58750057220459
1775728231671310800,10.649310791015624,-17.006250381469727,74.51250457763672,10.856250762939453
1775728231681310700,10.659310791015624,-14.718750953674316,75.35625457763672,12.375000953674316
1775728231691310800,10.669310791015626,-16.743751525878906,73.6500015258789,10.83750057220459
1775728231701310700,10.679310791015626,-15.450000762939453,75.82500457763672,11.362500190734863
1775728231711310800,10.689310791015625,-15.356250762939453,74.08125305175781,11.30625057220459
1775728231721310700,10.699310791015625,-14.925000190734863,73.7437515258789,11.512500762939453
1775728231731310800,10.709310791015625,-15.656250953674316,74.17500305175781,10.200000762939453
1775728231741310700,10.719310791015625,-14.11875057220459,73.76250457763672,9.09375
1775728231751310800,10.729310791015624,-15.787500381469727,74.51250457763672,10.83750057220459
1775728231761310700,10.739310791015624,-14.850000381469727,75.45000457763672,10.425000190734863
1775728231771310800,10.749310791015626,-15.487500190734863,74.98125457763672,12.318750381469727
1775728231781310700,10.759310791015626,-15.356250762939453,75.03750610351562,13.593750953674316
1775728231791310800,10.769310791015625,-15.750000953674316,76.6500015258789,12.637500762939453
1775728231801310700,10.779310791015625,-15.018750190734863,74.75625610351562,10.856250762939453
1775728231811310800,10.789310791015625,-14.11875057220459,74.71875,11.381250381469727
1775728231821310700,10.799310791015625,-14.550000190734863,75.35625457763672,11.53125
1775728231831310800,10.809310791015625,-16.23750114440918,74.3062515258789,9.393750190734863
1775728231841310700,10.819310791015624,-17.90625,74.92500305175781,11.100000381469727
1775728231851310800,10.829310791015626,-18.09375,74.17500305175781,11.11875057220459
1775728231861310700,10.839310791015626,-19.70625114440918,76.14375305175781,12.506250381469727
1775728231871310800,10.849310791015625,-19.70625114440918,76.14375305175781,12.506250381469727
1775728231881310700,10.859310791015625,-18.225000381469727,74.73750305175781,11.49375057220459
1775728231891310800,10.869310791015625,-21.5625,74.47500610351562,10.55625057220459
1775728231901310700,10.879310791015625,-20.793750762939453,74.5875015258789,9.5625
1775728231911310800,10.889310791015625,-21.262500762939453,74.70000457763672,11.15625
1775728231921310700,10.899310791015624,-21.900001525878906,74.3062515258789,11.943750381469727
1775728231931310800,10.909310791015624,-24.95625114440918,73.57500457763672,11.175000190734863
1775728231941310700,10.919310791015626,-25.743751525878906,73.61250305175781,13.031250953674316
1775728231951310800,10.929310791015626,-28.256250381469727,71.56875610351562,13.55625057220459
1775728231961310700,10.939310791015625,-28.406251907348633,71.0625,12.61875057220459
1775728231971310800,10.949310791015625,-27.318750381469727,71.70000457763672,12.71250057220459
1775728231981310700,10.959310791015625,-30.825000762939453,72.3375015258789,14.475000381469727
1775728231991310800,10.969310791015625,-30.562501907348633,70.78125,14.175000190734863
1775728232001310700,10.979310791015624,-30.150001525878906,69.54375457763672,14.21250057220459
1775728232011310800,10.989310791015624,-32.4375,68.98125457763672,12.90000057220459
1775728232021310700,10.999310791015626,-32.51250076293945,66.75,12.05625057220459
1775728232031310800,11.009310791015626,-34.96875,66.4312515258789,13.331250190734863
1775728232041310700,11.019310791015625,-33.88125228881836,67.01250457763672,12.975000381469727
1775728232051310800,11.029310791015625,-34.05000305175781,66.07500457763672,11.68125057220459
1775728232061310700,11.039310791015625,-36.28125,67.66875457763672,12.318750381469727
1775728232071310800,11.049310791015625,-37.23750305175781,66.13125610351562,11.21250057220459
1775728232081310700,11.059310791015625,-38.0625,64.81875610351562,12.393750190734863
1775728232091310800,11.069310791015624,-40.931251525878906,64.8375015258789,11.625
1775728232101310700,11.079310791015626,-39.45000076293945,63.431251525878906,10.612500190734863
1775728232111310800,11.089310791015626,-42.46875,63.431251525878906,8.850000381469727
1775728232121310700,11.099310791015625,-41.10000228881836,64.125,10.21875
1775728232131310800,11.109310791015625,-41.56875228881836,62.962501525878906,8.175000190734863
1775728232141310700,11.119310791015625,-44.400001525878906,60.30000305175781,8.737500190734863
1775728232151310800,11.129310791015625,-43.16250228881836,60.187503814697266,6.281250476837158
1775728232161310700,11.139310791015625,-44.025001525878906,62.062503814697266,7.931250095367432
1775728232171310800,11.149310791015624,-44.71875,59.23125076293945,6.562500476837158
1775728232181310700,11.159310791015624,-44.23125076293945,59.812503814697266,6.243750095367432
1775728232191310800,11.169310791015626,-46.5,60.31875228881836,7.106250286102295
1775728232201310700,11.179310791015626,-45,59.56875228881836,6.206250190734863
1775728232211310800,11.189310791015625,-44.90625,59.025001525878906,8.512500762939453
1775728232221310700,11.199310791015625,-45.78750228881836,59.343753814697266,7.312500476837158
1775728232231310800,11.209310791015625,-45.82500076293945,58.593753814697266,8.15625
1775728232241310700,11.219310791015625,-46.91250228881836,58.218753814697266,8.11875057220459
1775728232251310800,11.229310791015624,-44.32500076293945,57.000003814697266,5.700000286102295
1775728232261310700,11.239310791015624,-45.54375076293945,57.806251525878906,7.012500286102295
1775728232271310800,11.249310791015626,-46.76250076293945,58.06875228881836,7.950000286102295
1775728232281310700,11.259310791015626,-46.72500228881836,58.57500076293945,7.050000190734863
1775728232291310800,11.269310791015625,-45.243751525878906,57.525001525878906,6.825000286102295
1775728232301310700,11.279310791015625,-45.243751525878906,57.525001525878906,6.825000286102295
1775728232311310800,11.289310791015625,-44.41875076293945,59.55000305175781,7.893750190734863
1775728232321310700,11.299310791015625,-45.900001525878906,59.98125076293945,6.450000286102295
1775728232331310800,11.309310791015625,-43.98750305175781,58.38750076293945,6.656250476837158
1775728232341310700,11.319310791015624,-45.056251525878906,59.306251525878906,8.700000762939453
1775728232351310800,11.329310791015626,-44.025001525878906,58.20000076293945,8.043750762939453
1775728232361310700,11.339310791015626,-46.72500228881836,60.000003814697266,10.856250762939453
1775728232371310800,11.349310791015625,-44.868751525878906,61.10625076293945,11.71875
1775728232381310700,11.359310791015625,-43.51875305175781,60.243751525878906,10.96875
1775728232391310800,11.369310791015625,-43.5,60.82500076293945,10.65000057220459
1775728232401310700,11.379310791015625,-41.08125305175781,60.54375076293945,10.387500762939453
1775728232411310800,11.389310791015625,-40.16250228881836,60.91875076293945,11.287500381469727
1775728232421310700,11.399310791015624,-40.556251525878906,62.156253814697266,10.40625
1775728232431310800,11.409310791015624,-39.9375,63.056251525878906,12.24375057220459
1775728232441310700,11.419310791015626,-40.81875228881836,64.33125305175781,13.36875057220459
1775728232451310800,11.429310791015626,-37.20000076293945,63.281253814697266,12.225000381469727
1775728232461310700,11.439310791015625,-38.85000228881836,64.3687515258789,13.593750953674316
1775728232471310800,11.449310791015625,-37.10625076293945,66.63750457763672,13.83750057220459
1775728232481310700,11.459310791015625,-35.306251525878906,65.83125305175781,14.343750953674316
1775728232491310800,11.469310791015625,-34.03125,67.3125,14.175000190734863
1775728232501310700,11.479310791015624,-35.23125076293945,67.95000457763672,14.325000762939453
1775728232511310800,11.489310791015624,-33.9375,66.5250015258789,15.71250057220459
1775728232521310700,11.499310791015626,-32.00625228881836,68.8125,14.268750190734863
1775728232531310800,11.509310791015626,-31.33125114440918,66.5625,14.250000953674316
1775728232541310700,11.519310791015625,-32.32500076293945,68.4375,14.193750381469727
1775728232551310800,11.529310791015625,-32.17500305175781,68.79375457763672,15.825000762939453
1775728232561310700,11.539310791015625,-30.937501907348633,68.8687515258789,13.818750381469727
1775728232571310800,11.549310791015625,-29.718751907348633,69.60000610351562,15.487500190734863
1775728232581310700,11.559310791015625,-29.231250762939453,69.54375457763672,13.350000381469727
1775728232591310800,11.569310791015624,-26.64375114440918,70.125,14.793750762939453
1775728232601310700,11.579310791015626,-27.881250381469727,69.48750305175781,13.856250762939453
1775728232611310800,11.589310791015626,-25.443750381469727,69.73125457763672,14.68125057220459
1775728232621310700,11.599310791015625,-25.106250762939453,70.76250457763672,14.86875057220459
1775728232631310800,11.609310791015625,-27.86250114440918,69.63750457763672,13.18125057220459
1775728232641310700,11.619310791015625,-28.275001525878906,70.81875610351562,12.71250057220459
1775728232651310800,11.629310791015625,-27.525001525878906,71.0625,14.437500953674316
1775728232661310700,11.639310791015625,-26.92500114440918,70.61250305175781,13.912500381469727
1775728232671310800,11.649310791015624,-25.856250762939453,70.95000457763672,14.512500762939453
1775728232681310700,11.659310791015624,-27.318750381469727,72.16875457763672,14.21250057220459
1775728232691310800,11.669310791015626,-25.031251907348633,71.94375610351562,12.693750381469727
1775728232701310700,11.679310791015626,-25.181251525878906,72.09375,12.881250381469727
1775728232711310800,11.689310791015625,-22.23750114440918,73.42500305175781,11.77500057220459
1775728232721310700,11.699310791015625,-25.312501907348633,73.06875610351562,13.631250381469727
1775728232731310800,11.709310791015625,-21.993751525878906,72.50625610351562,14.137500762939453
1775728232741310700,11.719310791015625,-21.037500381469727,72.48750305175781,11.4375
1775728232751310800,11.729310791015624,-21.037500381469727,72.48750305175781,11.4375
1775728232761310700,11.739310791015624,-21.600000381469727,74.04375457763672,11.887500762939453
1775728232771310800,11.749310791015626,-23.006250381469727,72.9937515258789,11.4375
1775728232781310700,11.759310791015626,-21.1875,73.23750305175781,13.125000953674316
1775728232791310800,11.769310791015625,-21.168750762939453,73.8375015258789,12.956250190734863
1775728232801310700,11.779310791015625,-19.743751525878906,73.66875457763672,8.381250381469727
1775728232811310800,11.789310791015625,-18.543750762939453,74.13750457763672,10.83750057220459
1775728232821310700,11.799310791015625,-17.83125114440918,73.01250457763672,11.58750057220459
1775728232831310800,11.809310791015625,-20.83125114440918,73.89375305175781,10.83750057220459
1775728232841310700,11.819310791015624,-18.11250114440918,74.10000610351562,12.225000381469727
1775728232851310800,11.829310791015626,-16.96875,74.94375610351562,9.52500057220459
1775728232861310700,11.839310791015626,-18.28125,73.9312515258789,12.750000953674316
1775728232871310800,11.849310791015625,-17.212501525878906,73.59375,12.24375057220459
1775728232881310700,11.859310791015625,-17.475000381469727,73.21875,7.950000286102295
1775728232891310800,11.869310791015625,-17.981250762939453,72.8062515258789,11.11875057220459
1775728232901310700,11.879310791015625,-17.34375,74.45625305175781,12.975000381469727
1775728232911310800,11.889310791015625,-17.850000381469727,72.75,11.53125
1775728232921310700,11.899310791015624,-17.53125,72.8062515258789,11.11875057220459
1775728232931310800,11.909310791015624,-17.475000381469727,74.7750015258789,11.77500057220459
1775728232941310700,11.919310791015626,-16.23750114440918,75.65625,12.750000953674316
1775728232951310800,11.929310791015626,-17.0625,73.35000610351562,11.34375
1775728232961310700,11.939310791015625,-17.45625114440918,74.66250610351562,11.043750762939453
1775728232971310800,11.949310791015625,-17.08125114440918,72.63750457763672,10.78125
1775728232981310700,11.959310791015625,-15.468750953674316,74.66250610351562,10.143750190734863
1775728232991310800,11.969310791015625,-15.80625057220459,74.17500305175781,11.043750762939453
1775728233001310700,11.979310791015624,-16.96875,75.20625305175781,9.581250190734863
1775728233011310800,11.989310791015624,-18.11250114440918,73.53750610351562,10.987500190734863
1775728233021310700,11.999310791015626,-16.42500114440918,74.08125305175781,11.325000762939453
1775728233031310800,12.009310791015626,-14.606250762939453,73.51875305175781,10.050000190734863
1775728233041310700,12.019310791015625,-15.487500190734863,74.8687515258789,11.58750057220459
1775728233051310800,12.029310791015625,-16.443750381469727,73.33125305175781,10.481250762939453
1775728233061310700,12.039310791015625,-13.537500381469727,73.3125,9.412500381469727
1775728233071310800,12.049310791015625,-15.956250190734863,73.98750305175781,10.59375
1775728233081310700,12.059310791015625,-15.656250953674316,74.17500305175781,10.200000762939453
1775728233091310800,12.069310791015624,-15.356250762939453,74.38125610351562,11.643750190734863
1775728233101310700,12.079310791015626,-16.387500762939453,74.55000305175781,10.293750762939453
1775728233111310800,12.089310791015626,-14.49375057220459,76.20000457763672,8.71875
1775728233121310700,12.099310791015625,-15.375000953674316,74.23125457763672,12.318750381469727
1775728233131310800,12.109310791015625,-14.718750953674316,74.23125457763672,8.90625
1775728233141310700,12.119310791015625,-16.181251525878906,75.88125610351562,9.975000381469727
1775728233151310800,12.129310791015625,-19.556251525878906,75.91875457763672,11.90625
1775728233161310700,12.139310791015625,-18.543750762939453,74.08125305175781,10.387500762939453
1775728233171310800,12.149310791015624,-19.42500114440918,74.79375457763672,10.125
1775728233181310700,12.159310791015624,-19.256250381469727,75.31875610351562,10.36875057220459
1775728233191310800,12.169310791015626,-19.256250381469727,75.31875610351562,10.36875057220459
1775728233201310700,12.179310791015626,-21.86250114440918,74.34375,9.543750762939453
1775728233211310800,12.189310791015625,-19.6875,74.83125305175781,7.893750190734863
1775728233221310700,12.199310791015625,-20.025001525878906,74.51250457763672,9.112500190734863
1775728233231310800,12.209310791015625,-22.481250762939453,74.10000610351562,9.65625
1775728233241310700,12.219310791015625,-22.931251525878906,74.45625305175781,10.293750762939453
1775728233251310800,12.229310791015624,-24.037500381469727,73.57500457763672,10.3125
1775728233271310800,12.249310791015626,-22.068750381469727,73.2750015258789,9.918750762939453
1775728233281310700,12.259310791015626,-24.975000381469727,72.69375610351562,11.006250381469727
1775728233291310800,12.269310791015625,-25.293750762939453,73.10625457763672,12.225000381469727
1775728233301310700,12.279310791015625,-24.225000381469727,72.9937515258789,11.475000381469727
1775728233311310800,12.289310791015625,-28.068750381469727,71.85000610351562,12.05625057220459
1775728233321310700,12.299310791015625,-28.312501907348633,73.40625,11.662500381469727
1775728233331310800,12.309310791015625,-27.712501525878906,72.76875305175781,10.668750762939453
1775728233341310700,12.319310791015624,-29.137500762939453,71.79375457763672,11.643750190734863
1775728233351310800,12.329310791015626,-28.556251525878906,70.3125,10.93125057220459
1775728233361310700,12.339310791015626,-33.73125076293945,71.0250015258789,12.33750057220459
1775728233371310800,12.349310791015625,-31.837501525878906,72.30000305175781,10.83750057220459
1775728233381310700,12.359310791015625,-31.275001525878906,70.3687515258789,9.600000381469727
1775728233401310700,12.379310791015625,-28.275001525878906,68.88750457763672,-2.34375
1775728233411310800,12.389310791015625,-27.543750762939453,69.13125610351562,-0.6187500357627869
1775728233421310700,12.399310791015624,-31.275001525878906,67.70625305175781,1.6125000715255737
1775728233431310800,12.409310791015624,-27.412500381469727,69.65625,2.15625
1775728233441310700,12.419310791015626,-32.83125305175781,68.92500305175781,8.231250762939453
1775728233451310800,12.429310791015626,-34.51875305175781,69.11250305175781,10.293750762939453
1775728233461310700,12.439310791015625,-35.26875305175781,69.4312515258789,9.956250190734863
1775728233471310800,12.449310791015625,-33.75,69.75,10.387500762939453
1775728233481310700,12.459310791015625,-34.38750076293945,68.36250305175781,8.58750057220459
1775728233491310800,12.469310791015625,-35.118751525878906,69.54375457763672,9.825000762939453
1775728233501310700,12.479310791015624,-34.78125,70.38750457763672,10.537500381469727
1775728233511310800,12.489310791015624,-35.10000228881836,69.3375015258789,8.381250381469727
1775728233521310700,12.499310791015626,-35.41875076293945,69.11250305175781,9.46875
1775728233531310800,12.509310791015626,-34.85625076293945,68.625,11.193750381469727
1775728233541310700,12.519310791015625,-36.03750228881836,69.97500610351562,11.90625
1775728233551310800,12.529310791015625,-32.26875305175781,69.30000305175781,11.68125057220459
1775728233561310700,12.539310791015625,-34.837501525878906,69.22500610351562,11.02500057220459
1775728233571310800,12.549310791015625,-34.76250076293945,72,12.975000381469727
1775728233581310700,12.559310791015625,-33.48750305175781,68.9625015258789,10.950000762939453
1775728233591310800,12.569310791015624,-33.60000228881836,69.8062515258789,11.68125057220459
1775728233601310700,12.579310791015626,-33.16875076293945,69.5625,12.600000381469727
1775728233611310800,12.589310791015626,-31.912500381469727,70.48125457763672,11.193750381469727
1775728233621310700,12.599310791015625,-35.56875228881836,70.70625305175781,12.750000953674316
1775728233631310800,12.609310791015625,-33.63750076293945,69.82500457763672,14.362500190734863
1775728233641310700,12.619310791015625,-33.63750076293945,69.82500457763672,14.362500190734863
1775728233651310800,12.629310791015625,-34.5,70.70625305175781,12.71250057220459
1775728233661310700,12.639310791015625,-33.46875,69.84375,12.80625057220459
1775728233671310800,12.649310791015624,-30.67500114440918,70.3687515258789,10.425000190734863
1775728233681310700,12.659310791015624,-32.400001525878906,70.3687515258789,13.875000953674316
1775728233691310800,12.669310791015626,-31.106250762939453,71.55000305175781,11.662500381469727
1775728233701310700,12.679310791015626,-32.08125305175781,70.10625457763672,11.96250057220459
1775728233711310800,12.689310791015625,-32.118751525878906,69.5625,12.581250190734863
1775728233721310700,12.699310791015625,-31.950000762939453,69.73125457763672,12.037500381469727
1775728233731310800,12.709310791015625,-32.25,70.2750015258789,13.987500190734863
1775728233741310700,12.719310791015625,-30.881250381469727,70.29375457763672,13.387500762939453
1775728233751310800,12.729310791015624,-28.575000762939453,70.57500457763672,12.675000190734863
1775728233761310700,12.739310791015624,-29.906251907348633,71.9625015258789,12.825000762939453
1775728233771310800,12.749310791015626,-29.025001525878906,70.4625015258789,11.96250057220459
1775728233781310700,12.759310791015626,-29.587501525878906,72.60000610351562,14.643750190734863
1775728233791310800,12.769310791015625,-29.062501907348633,70.38750457763672,14.062500953674316
1775728233801310700,12.779310791015625,-28.406251907348633,71.36250305175781,12.956250190734863
1775728233811310800,12.789310791015625,-30.11250114440918,71.13750457763672,14.793750762939453
1775728233821310700,12.799310791015625,-26.625001907348633,70.61250305175781,13.893750190734863
1775728233831310800,12.809310791015625,-26.868751525878906,72.0562515258789,13.481250762939453
1775728233841310700,12.819310791015624,-25.33125114440918,72.4312515258789,13.500000953674316
1775728233851310800,12.829310791015626,-26.92500114440918,71.0250015258789,14.981250762939453
1775728233861310700,12.839310791015626,-26.906251907348633,72.20625305175781,16.181251525878906
1775728233871310800,12.849310791015625,-25.087501525878906,70.40625,12.412500381469727
1775728233881310700,12.859310791015625,-24.337501525878906,70.10625457763672,13.031250953674316
1775728233891310800,12.869310791015625,-24.600000381469727,72.03750610351562,15.112500190734863
1775728233901310700,12.879310791015625,-24.30000114440918,70.85625457763672,11.34375
1775728233911310800,12.889310791015625,-25.181251525878906,71.1187515258789,10.575000762939453
1775728233921310700,12.899310791015624,-23.64375114440918,70.80000305175781,8.34375
1775728233931310800,12.909310791015624,-24.262500762939453,71.83125305175781,11.943750381469727
1775728233941310700,12.919310791015626,-24.431251525878906,70.72500610351562,9.487500190734863
1775728233951310800,12.929310791015626,-23.606250762939453,72.78750610351562,10.856250762939453
1775728233961310700,12.939310791015625,-20.36250114440918,73.125,8.137500762939453
1775728233971310800,12.949310791015625,-22.125,70.85625457763672,8.737500190734863
1775728233981310700,12.959310791015625,-18.86250114440918,72.3375015258789,6.975000381469727
1775728233991310800,12.969310791015625,-20.118751525878906,71.9625015258789,8.625
1775728234001310700,12.979310791015624,-21.75,73.16250610351562,9.168750762939453
1775728234011310800,12.989310791015624,-19.368751525878906,71.75625610351562,8.981250762939453
1775728234021310700,12.999310791015626,-21.900001525878906,73.35000610351562,9.637500762939453
1775728234031310800,13.009310791015626,-20.850000381469727,73.51875305175781,10.78125
1775728234041310700,13.019310791015625,-21.600000381469727,74.04375457763672,11.887500762939453
1775728234051310800,13.029310791015625,-21.95625114440918,72.2437515258789,10.55625057220459
1775728234061310700,13.039310791015625,-20.400001525878906,73.25625610351562,10.706250190734863
1775728234071310800,13.049310791015625,-20.4375,72.82500457763672,12.037500381469727
1775728234081310700,13.059310791015625,-20.4375,72.82500457763672,12.037500381469727
1775728234091310800,13.069310791015624,-19.33125114440918,73.29375457763672,10.96875
1775728234101310700,13.079310791015626,-21.637500762939453,73.0875015258789,12.131250381469727
1775728234111310800,13.089310791015626,-20.193750381469727,74.64375305175781,10.83750057220459
1775728234121310700,13.099310791015625,-20.025001525878906,74.47500610351562,8.8125
1775728234131310800,13.109310791015625,-20.08125114440918,73.9312515258789,11.11875057220459
1775728234141310700,13.119310791015625,-20.17500114440918,75.39375305175781,11.68125057220459
1775728234151310800,13.129310791015625,-19.725000381469727,75.63750457763672,11.71875
1775728234161310700,13.139310791015625,-19.443750381469727,75.03750610351562,11.86875057220459
1775728234171310800,13.149310791015624,-20.17500114440918,75.22500610351562,10.518750190734863
1775728234181310700,13.159310791015624,-17.793750762939453,73.29375457763672,9.24375057220459
1775728234191310800,13.169310791015626,-16.950000762939453,75.58125305175781,9.65625
1775728234201310700,13.179310791015626,-17.006250381469727,73.81875610351562,8.606250762939453
1775728234211310800,13.189310791015625,-18.75,76.14375305175781,9.09375
1775728234221310700,13.199310791015625,-18.95625114440918,75.28125,10.912500381469727
1775728234231310800,13.209310791015625,-18.525001525878906,74.25,9.018750190734863
1775728234241310700,13.219310791015625,-19.556251525878906,75.1500015258789,9.225000381469727
1775728234251310800,13.229310791015624,-16.33125114440918,74.92500305175781,6.825000286102295
1775728234261310700,13.239310791015624,-17.92500114440918,73.2750015258789,8.25
1775728234271310800,13.249310791015626,-18.65625,74.6812515258789,9.393750190734863
1775728234281310700,13.259310791015626,-20.0625,73.72500610351562,9.65625
1775728234291310800,13.269310791015625,-18.11250114440918,76.7437515258789,8.21250057220459
1775728234301310700,13.279310791015625,-20.700000762939453,76.23750305175781,8.043750762939453
1775728234311310800,13.289310791015625,-19.537500381469727,75.60000610351562,9.731250762939453
1775728234321310700,13.299310791015625,-20.118751525878906,75.69375610351562,7.781250476837158
1775728234331310800,13.309310791015625,-17.943750381469727,77.3062515258789,8.58750057220459
1775728234341310700,13.319310791015624,-21.46875,76.35000610351562,8.793750762939453
1775728234351310800,13.329310791015626,-19.98750114440918,75.3375015258789,7.856250286102295
1775728234361310700,13.339310791015626,-21.20625114440918,74.85000610351562,7.931250095367432
1775728234371310800,13.349310791015625,-21.431251525878906,77.1187515258789,7.237500190734863
1775728234381310700,13.359310791015625,-19.368751525878906,74.625,6.431250095367432
1775728234391310800,13.369310791015625,-18.881250381469727,75.86250305175781,6.375000476837158
1775728234401310700,13.379310791015625,-21.900001525878906,75.67500305175781,5.006250381469727
1775728234411310800,13.389310791015625,-19.443750381469727,76.14375305175781,4.893750190734863
1775728234421310700,13.399310791015624,-21.20625114440918,74.9625015258789,6.956250190734863
1775728234431310800,13.409310791015624,-22.350000381469727,76.06875610351562,6.075000286102295
1775728234441310700,13.419310791015626,-24.618751525878906,76.80000305175781,6.693750381469727
1775728234451310800,13.429310791015626,-22.762500762939453,77.9625015258789,7.012500286102295
1775728234461310700,13.439310791015625,-23.287500381469727,74.66250610351562,3.1500000953674316
1775728234471310800,13.449310791015625,-24.168750762939453,75.58125305175781,4.331250190734863
1775728234481310700,13.459310791015625,-22.631250381469727,75.9937515258789,2.9625000953674316
1775728234491310800,13.469310791015625,-24.281251907348633,77.00625610351562,4.762500286102295
1775728234501310700,13.479310791015624,-23.193750381469727,76.72500610351562,2.8312501907348633
1775728234511310800,13.489310791015624,-23.793750762939453,76.6875,1.725000023841858
1775728234521310700,13.499310791015626,-23.793750762939453,76.6875,1.725000023841858
1775728234531310800,13.509310791015626,-23.92500114440918,77.15625,1.537500023841858
1775728234541310700,13.519310791015625,-25.33125114440918,76.91250610351562,3.2062501907348633
1775728234551310800,13.529310791015625,-23.92500114440918,77.71875,2.7562501430511475
1775728234561310700,13.539310791015625,-24.093751907348633,77.5875015258789,3.5812501907348633
1775728234571310800,13.549310791015625,-23.756250381469727,76.6875,-0.8250000476837158
1775728234581310700,13.559310791015625,-21.95625114440918,77.25,2.1937501430511475
1775728234591310800,13.569310791015624,-22.5,78.50625610351562,1.3312500715255737
1775728234601310700,13.579310791015626,-24.056251525878906,78.07500457763672,2.700000047683716
1775728234611310800,13.589310791015626,-23.45625114440918,78.35625457763672,2.8687500953674316
1775728234621310700,13.599310791015625,-23.45625114440918,77.75625610351562,1.350000023841858
