time,seconds_elapsed,z,y,x
1775728221171890000,0.149889892578125,2.770888566970825,-9.53779125213623,-1.7276179790496826
1775728221190418700,0.168418701171875,2.115255117416382,-9.068798065185547,-1.9836499691009521
1775728221208947500,0.186947509765625,1.667797327041626,-8.556734085083008,-2.7804598808288574
1775728221227476200,0.205476318359375,2.0961127281188965,-10.066604614257812,-2.4095723628997803
1775728221246005000,0.2240048828125,2.3976082801818848,-9.863214492797852,-1.919043779373169
1775728221264533800,0.24253369140625,2.1056840419769287,-9.114261627197266,-1.8472590446472168
1775728221283062500,0.2610625,2.548356056213379,-8.855836868286133,-2.2636101245880127
1775728221301591000,0.279591064453125,3.074777126312256,-8.951549530029297,-2.6632115840911865
1775728221320119800,0.298119873046875,3.160918712615967,-8.906085968017578,-2.306680917739868
1775728221338648600,0.316648681640625,3.108276605606079,-10.183853149414062,-2.2301106452941895
1775728221357177300,0.33517724609375,2.823530673980713,-9.640682220458984,-1.5433706045150757
1775728221375706000,0.3537060546875,1.9645073413848877,-8.80798053741455,-2.4430718421936035
1775728221394234600,0.372234619140625,1.2945170402526855,-9.58325481414795,-2.775674343109131
1775728221412763400,0.390763427734375,2.562713146209717,-9.008976936340332,-2.03629207611084
1775728221431292200,0.409292236328125,2.445464849472046,-8.95394229888916,-1.8687944412231445
1775728221449821000,0.427821044921875,2.1894326210021973,-9.257830619812012,-2.2468605041503906
1775728221468349700,0.446349609375,2.4885356426239014,-9.291330337524414,-2.392822742462158
1775728221486878500,0.46487841796875,2.313859462738037,-9.198010444641113,-2.620140790939331
1775728221505407000,0.483406982421875,2.170290231704712,-9.399007797241211,-2.368894338607788
1775728221523935700,0.501935791015625,2.2540390491485596,-9.138189315795898,-2.163111686706543
1775728221542464500,0.520464599609375,1.8975083827972412,-9.384650230407715,-2.359323024749756
1775728221560993300,0.5389931640625,2.3186452388763428,-9.219545364379883,-2.234896421432495
1775728221579522000,0.55752197265625,2.062613010406494,-9.269794464111328,-2.2540390491485596
1775728221598050800,0.57605078125,2.400001049041748,-9.257830619812012,-2.194218397140503
1775728221616579300,0.594579345703125,2.579462766647339,-9.353543281555176,-2.172683000564575
1775728221635108000,0.613108154296875,2.1990039348602295,-9.126225471496582,-2.297109842300415
1775728221653636900,0.631636962890625,2.0171494483947754,-9.200403213500977,-2.1822543144226074
1775728221672165600,0.65016552734375,2.366501569747925,-9.403793334960938,-2.2995026111602783
1775728221690694400,0.6686943359375,2.122433662414551,-9.214759826660156,-2.4598217010498047
1775728221709223000,0.687222900390625,1.8640087842941284,-9.238688468933105,-2.012363910675049
1775728221727751700,0.705751708984375,1.950150489807129,-9.250652313232422,-1.7084753513336182
1775728221746280400,0.724280517578125,2.50289249420166,-9.281759262084961,-2.076970100402832
1775728221764809200,0.742809326171875,3.16331148147583,-9.499505996704102,-2.5196423530578613
1775728221783337700,0.761337646484375,2.6608188152313232,-9.221938133239746,-2.273181438446045
1775728221801866500,0.779866455078125,1.9573289155960083,-9.358329772949219,-2.4095723628997803
1775728221820395300,0.798395263671875,2.2061824798583984,-9.317651748657227,-2.366501569747925
1775728221838924000,0.816924072265625,1.8376877307891846,-9.166903495788574,-1.9334007501602173
1775728221857452800,0.835452880859375,1.7467604875564575,-9.028120040893555,-1.9764715433120728
1775728221875981300,0.853981201171875,2.6009981632232666,-9.061619758605957,-1.8065811395645142
1775728221894510000,0.872510009765625,2.7326035499572754,-9.205188751220703,-1.97407865524292
1775728221913038800,0.891038818359375,2.557927370071411,-9.891928672790527,-2.069791555404663
1775728221931567600,0.909567626953125,2.8043880462646484,-9.789037704467773,-2.3952155113220215
1775728221950096400,0.928096435546875,1.5290136337280273,-8.693124771118164,-1.8185452222824097
1775728221968625000,0.946625,1.4931213855743408,-9.104690551757812,-1.7802600860595703
1775728221987153700,0.965153564453125,2.589034080505371,-9.480362892150879,-1.8711873292922974
1775728222005682400,0.983682373046875,3.7232320308685303,-9.403793334960938,-1.825723648071289
1775728222024211000,1.0022109375,4.481756687164307,-9.018548965454102,-1.3184453248977661
1775728222042739700,1.02073974609375,3.1250264644622803,-8.434700012207031,-0.7872386574745178
1775728222061268500,1.0392685546875,0.8901300430297852,-9.343972206115723,-3.390629768371582
1775728222079797200,1.05779736328125,2.060220241546631,-8.85344409942627,-1.2873386144638062
1775728222098325800,1.07632568359375,3.7639100551605225,-9.121439933776855,-1.2562319040298462
1775728222116854500,1.0948544921875,3.249453067779541,-9.28893756866455,-2.172683000564575
1775728222135383300,1.11338330078125,4.371686935424805,-9.243474006652832,-1.2323036193847656
1775728222153912000,1.131912109375,4.371686935424805,-9.69093132019043,-0.3924229145050049
1775728222172440600,1.150440673828125,4.816751956939697,-9.418149948120117,-3.0723843574523926
1775728222190969300,1.16896923828125,1.4811571836471558,-10.671989440917969,-4.359723091125488
1775728222209498000,1.187498046875,0.10767702013254166,-9.628718376159668,-2.9551360607147217
1775728222228027000,1.20602685546875,1.7443677186965942,-8.382058143615723,-0.7585247755050659
1775728222246555400,1.224555419921875,2.3330020904541016,-8.614161491394043,-0.9236295223236084
1775728222265084200,1.243084228515625,3.297309637069702,-8.513663291931152,-2.3401806354522705
1775728222283613000,1.261613037109375,4.429114818572998,-8.57348346710205,-1.8735800981521606
1775728222302141700,1.2801416015625,5.3312087059021,-8.437092781066895,-0.9762716293334961
1775728222320670200,1.298670166015625,4.505684852600098,-9.159725189208984,-0.13160525262355804
1775728222339199000,1.317198974609375,2.792423963546753,-9.501898765563965,-2.273181438446045
1775728222357727700,1.335727783203125,1.3950155973434448,-8.542376518249512,-2.1415762901306152
1775728222376256300,1.35425634765625,2.840280532836914,-8.93958568572998,-2.801995277404785
1775728222394785000,1.372784912109375,4.675575256347656,-9.473184585571289,-2.5938198566436768
1775728222413313800,1.391313720703125,5.340780258178711,-9.023334503173828,-1.892722725868225
1775728222431842300,1.40984228515625,3.90987229347229,-9.475577354431152,-1.9812572002410889
1775728222450371000,1.42837109375,2.0410776138305664,-8.329415321350098,-1.4859428405761719
1775728222468899800,1.44689990234375,2.155933141708374,-7.618747234344482,-2.021935224533081
1775728222487428600,1.4654287109375,3.2997024059295654,-9.028120040893555,-2.644068956375122
1775728222505957000,1.48395703125,4.42193603515625,-9.664610862731934,-1.887937068939209
1775728222524486000,1.50248583984375,4.450650215148926,-9.32722282409668,-1.674975872039795
1775728222543014700,1.5210146484375,2.7421748638153076,-9.020941734313965,-1.789831280708313
1775728222561543200,1.539543212890625,0.8949156403541565,-8.85344409942627,-1.789831280708313
1775728222580072000,1.558072021484375,3.105883836746216,-8.941978454589844,-2.007578134536743
1775728222598600700,1.5766005859375,4.804787635803223,-9.44447135925293,-2.225325107574463
1775728222617129200,1.595129150390625,4.046263217926025,-8.824729919433594,-2.3330020904541016
1775728222635658000,1.613657958984375,3.541377544403076,-8.8438720703125,-2.1894326210021973
1775728222654186800,1.632186767578125,3.218346357345581,-8.908478736877441,-1.8161523342132568
1775728222672715500,1.650715576171875,2.7828526496887207,-9.004191398620605,-2.4358935356140137
1775728222691244000,1.669244140625,2.991028308868408,-8.863015174865723,-2.366501569747925
1775728222709772800,1.687772705078125,3.3379876613616943,-9.068798065185547,-2.218146562576294
1775728222728301600,1.706301513671875,3.5676984786987305,-9.20279598236084,-1.7778671979904175
1775728222746830000,1.724830078125,3.4576287269592285,-9.090332984924316,-1.6869399547576904
1775728222765358800,1.74335888671875,3.3403804302215576,-8.9850492477417,-1.9645073413848877
1775728222783887600,1.7618876953125,2.9599215984344482,-8.874979019165039,-1.9573289155960083
1775728222802416000,1.780416015625,3.273381471633911,-8.874979019165039,-1.7826528549194336
1775728222820945000,1.79894482421875,3.4719855785369873,-9.073583602905273,-1.6247265338897705
1775728222839473700,1.8174736328125,3.0652058124542236,-9.075976371765137,-2.3258235454559326
1775728222858002400,1.83600244140625,3.10109806060791,-8.994620323181152,-1.9692929983139038
1775728222876531000,1.854531005859375,3.1202406883239746,-9.183652877807617,-2.0243279933929443
1775728222895059700,1.873059814453125,3.266202926635742,-9.059226989746094,-2.234896421432495
1775728222913588200,1.891588134765625,3.3332018852233887,-8.963513374328613,-2.187039852142334
1775728222932117000,1.910116943359375,3.2709884643554688,-9.049654960632324,-2.0554347038269043
1775728222950645800,1.928645751953125,3.211168050765991,-9.023334503173828,-1.5864413976669312
1775728222969174300,1.94717431640625,3.366701364517212,-8.896514892578125,-1.6654045581817627
1775728222987703000,1.965703125,3.4911282062530518,-9.377471923828125,-2.218146562576294
1775728223006231800,1.984231689453125,1.3423734903335571,-8.86780071258545,-2.163111686706543
1775728223024760300,2.00276025390625,4.4961137771606445,-9.281759262084961,-1.5194423198699951
1775728223043289000,2.0212890625,5.0703911781311035,-8.841479301452637,-1.7802600860595703
1775728223061817900,2.03981787109375,4.2592244148254395,-9.324830055236816,-2.59621262550354
1775728223080346400,2.058346435546875,3.4432718753814697,-9.250652313232422,-2.266003131866455
1775728223098875100,2.076875244140625,2.438286304473877,-9.140582084655762,-2.117648124694824
1775728223117404000,2.09540380859375,3.1250264644622803,-9.205188751220703,-1.923829436302185
1775728223135932400,2.113932373046875,3.136990547180176,-8.93958568572998,-2.4598217010498047
1775728223154461200,2.132461181640625,3.2350962162017822,-8.819944381713867,-1.950150489807129
1775728223172990000,2.150989990234375,3.390629768371582,-8.408378601074219,-1.4787644147872925
1775728223191518700,2.169518798828125,3.6634113788604736,-8.535198211669922,-1.3519448041915894
1775728223210047200,2.188047119140625,3.562912940979004,-8.583054542541504,-1.6151553392410278
1775728223228576000,2.206575927734375,3.3547372817993164,-9.040083885192871,-1.8305093050003052
1775728223247104800,2.225104736328125,3.208775281906128,-9.123832702636719,-2.311466693878174
1775728223265633300,2.24363330078125,3.1417760848999023,-9.078369140625,-2.289931297302246
1775728223284162000,2.262162109375,3.572484254837036,-8.817551612854004,-2.3258235454559326
1775728223302690800,2.28069091796875,3.7806596755981445,-8.528019905090332,-1.5672988891601562
1775728223321219300,2.29921923828125,3.421736478805542,-8.353343963623047,-1.5601203441619873
1775728223339748000,2.317748046875,3.493520975112915,-8.908478736877441,-1.8807586431503296
1775728223358276900,2.33627685546875,4.122833251953125,-8.717052459716797,-1.8472590446472168
1775728223376805400,2.354805419921875,4.809573650360107,-8.879764556884766,-2.00518536567688
1775728223395334100,2.373334228515625,5.008177757263184,-9.008976936340332,-2.60339093208313
1775728223413862700,2.391862548828125,5.221138954162598,-8.623732566833496,-2.3784656524658203
1775728223432391400,2.410391357421875,5.405386447906494,-8.427521705627441,-2.720639228820801
1775728223450920200,2.428920166015625,5.66620397567749,-8.571090698242188,-2.610569477081299
1775728223469448700,2.44744873046875,5.934200286865234,-9.42054271697998,-2.8666014671325684
1775728223487977500,2.4659775390625,5.656632900238037,-10.045069694519043,-3.3092737197875977
1775728223506506200,2.48450634765625,5.694917678833008,-9.712467193603516,-2.407179594039917
1775728223525034800,2.50303466796875,5.627918720245361,-8.504091262817383,-2.4717857837677
1775728223543563500,2.5215634765625,6.1950178146362305,-7.690532207489014,-3.1178479194641113
1775728223562092300,2.54009228515625,7.372286796569824,-8.147561073303223,-3.022135019302368
1775728223580620800,2.558620849609375,4.986642360687256,-9.06401252746582,-2.1822543144226074
1775728223599149600,2.577149658203125,2.0506489276885986,-8.327022552490234,-2.0817556381225586
1775728223617678300,2.59567822265625,2.699103832244873,-7.913064479827881,-2.825923442840576
1775728223645471200,2.62347119140625,6.022734642028809,-7.6737823486328125,-2.761317253112793
1775728223664000000,2.642,5.458028316497803,-6.922435760498047,-1.2203395366668701
1775728223691793000,2.66979296875,3.981656789779663,-7.101897716522217,-0.9882357716560364
1775728223710321700,2.68832177734375,4.515256404876709,-6.6352972984313965,-1.057627558708191
1775728223728850400,2.706850341796875,5.326423168182373,-6.486942291259766,-1.31365966796875
1775728223747379000,2.72537890625,5.613562107086182,-6.745367050170898,-1.4572290182113647
1775728223765907700,2.74390771484375,5.551348686218262,-6.647261142730713,-1.4476577043533325
1775728223784436500,2.7624365234375,5.749952793121338,-6.608976364135742,-1.5792629718780518
1775728223802965000,2.780965087890625,6.3601226806640625,-6.786045074462891,-1.6079767942428589
1775728223821493800,2.79949365234375,6.673582553863525,-6.867401123046875,-1.4691931009292603
1775728223840022500,2.8180224609375,6.510870456695557,-6.757331371307373,-1.1485549211502075
1775728223858551000,2.836551025390625,6.2189459800720215,-6.5419769287109375,-1.1222338676452637
1775728223877079800,2.855079833984375,5.92223596572876,-6.589833736419678,-1.7252250909805298
1775728223895608600,2.873608642578125,5.876772403717041,-6.8171515464782715,-2.201396942138672
1775728223914137000,2.89213720703125,5.989234924316406,-6.647261142730713,-1.5744773149490356
1775728223932665900,2.910665771484375,6.238088607788086,-6.561119556427002,-0.8087740540504456
1775728223951194600,2.929194580078125,6.695117950439453,-6.8865437507629395,-0.9020941257476807
1775728223969723100,2.94772314453125,6.776473522186279,-6.977470874786377,-1.1174482107162476
1775728223988252000,2.966251953125,6.283552169799805,-7.460821151733398,-2.4095723628997803
1775728224006780400,2.984780517578125,5.979663848876953,-7.427321434020996,-3.548556089401245
1775728224025309200,3.00330908203125,7.381857872009277,-7.3292155265808105,-2.579462766647339
1775728224043838000,3.021837890625,9.42054271697998,-6.790830612182617,-0.5000999569892883
1775728224062366500,3.040366455078125,9.542576789855957,-7.317251682281494,-0.8709874153137207
1775728224080895200,3.058895263671875,8.884550094604492,-8.616554260253906,-1.9573289155960083
1775728224099424000,3.077424072265625,8.733802795410156,-10.427921295166016,-1.5984054803848267
1775728224117952800,3.095952880859375,7.479963779449463,-11.172088623046875,-1.7874385118484497
1775728224136481300,3.114481201171875,2.809173822402954,-11.676974296569824,-2.830709218978882
1775728224155010000,3.133010009765625,-0.4833501875400543,-11.131410598754883,-2.50289249420166
1775728224173538800,3.151538818359375,-2.9072794914245605,-8.563912391662598,1.4069796800613403
1775728224192067300,3.1700673828125,2.3401806354522705,-6.563512325286865,2.6392834186553955
1775728224210596000,3.18859619140625,2.132004976272583,-8.571090698242188,-0.519242525100708
1775728224229124900,3.207124755859375,-1.3663017749786377,-9.592825889587402,-2.9001009464263916
1775728224247653400,3.2256533203125,0.07178468257188797,-10.001998901367188,-4.108476638793945
1775728224266182100,3.24418212890625,2.974278450012207,-10.561919212341309,-3.476771354675293
1775728224284711000,3.2627109375,2.414358139038086,-10.837093353271484,-4.510470867156982
1775728224303239400,3.281239501953125,1.129412293434143,-10.638489723205566,-5.230710506439209
1775728224321768200,3.299768310546875,0.885344386100769,-9.975677490234375,-4.867001056671143
1775728224340297000,3.318296875,1.2418749332427979,-9.131011009216309,-3.775874137878418
1775728224358825500,3.336825439453125,1.0193424224853516,-8.492127418518066,-2.7278177738189697
1775728224377354200,3.355354248046875,1.2610175609588623,-8.468199729919434,-2.4813570976257324
1775728224395883000,3.373883056640625,1.6534404754638672,-8.432307243347168,-3.359523057937622
1775728224414411500,3.39241162109375,1.710868239402771,-8.733802795410156,-4.682754039764404
1775728224432940300,3.410940185546875,0.9858429431915283,-9.308079719543457,-4.675575256347656
1775728224451469000,3.429468994140625,0.39960137009620667,-8.997013092041016,-2.6775684356689453
1775728224469997600,3.44799755859375,0.9762716293334961,-8.599804878234863,-1.6510475873947144
1775728224488526300,3.4665263671875,1.3304094076156616,-9.44447135925293,-2.196611166000366
1775728224507055000,3.48505517578125,1.5553346872329712,-9.757930755615234,-2.3186452388763428
1775728224525583600,3.50358349609375,1.337587833404541,-9.743574142456055,-2.9455647468566895
1775728224544112400,3.5221123046875,1.7539390325546265,-9.803394317626953,-2.6847469806671143
1775728224562641200,3.54064111328125,2.0410776138305664,-9.7938232421875,-2.1439690589904785
1775728224581169700,3.559169677734375,1.5409778356552124,-9.480362892150879,-1.3088740110397339
1775728224599698400,3.577698486328125,1.5744773149490356,-9.401400566101074,-1.1126625537872314
1775728224618227200,3.596227294921875,2.53399920463562,-9.645467758178711,-2.218146562576294
1775728224636755700,3.614755615234375,2.9144580364227295,-10.066604614257812,-3.452843189239502
1775728224655284500,3.633284423828125,1.9597218036651611,-10.693524360656738,-3.201596736907959
1775728224673813200,3.651813232421875,1.2729816436767578,-11.076375961303711,-1.7395820617675781
1775728224692341800,3.670341796875,2.1200408935546875,-12.382857322692871,-2.6488547325134277
1775728224710870500,3.68887060546875,1.97407865524292,-14.380864143371582,-4.185046672821045
1775728224729399300,3.7073994140625,0.18903298676013947,-16.063018798828125,-3.845266103744507
1775728224747927800,3.725927734375,1.2346965074539185,-17.07518196105957,-3.6705899238586426
1775728224766456600,3.74445654296875,7.688138961791992,-16.637296676635742,-4.4961137771606445
1775728224784985300,3.7629853515625,12.239287376403809,-14.60339641571045,-4.890929698944092
1775728224803513900,3.781513916015625,11.081161499023438,-13.124631881713867,-5.357530117034912
1775728224822042600,3.800042724609375,7.058826923370361,-13.897514343261719,-4.680361270904541
1775728224840571400,3.8185712890625,2.9216363430023193,-14.615360260009766,-4.689932346343994
1775728224859100000,3.837099853515625,2.957528829574585,-12.866207122802734,-4.505684852600098
1775728224877628700,3.855628662109375,4.4650068283081055,-10.853843688964844,-5.481956481933594
1775728224896157400,3.874157470703125,2.3258235454559326,-12.160325050354004,-6.740581512451172
1775728224914686000,3.89268603515625,-1.5337992906570435,-12.758530616760254,-4.713860511779785
1775728224933214700,3.911214599609375,-3.4911282062530518,-9.207581520080566,-1.0671988725662231
1775728224951743500,3.929743408203125,1.5433706045150757,-7.3746795654296875,0.2584248483181
1775728224970272000,3.94827197265625,4.855037212371826,-6.206982135772705,0.7704889178276062
1775728224988800800,3.96680078125,3.8979079723358154,-4.941178798675537,0.5072783827781677
1775728225007329500,3.98532958984375,3.8668015003204346,-4.838287353515625,-0.31106695532798767
1775728225025858000,4.003858154296875,4.744967460632324,-5.936593055725098,-1.0767701864242554
1775728225044386800,4.02238671875,4.0079779624938965,-5.8337016105651855,-1.1437692642211914
1775728225062915600,4.04091552734375,2.943171739578247,-4.644468784332275,-1.2418749332427979
1775728225081444000,4.059444091796875,1.97407865524292,-3.9457645416259766,-1.8903298377990723
1775728225099972900,4.077972900390625,1.6534404754638672,-4.3788652420043945,-1.9836499691009521
1775728225118501600,4.096501708984375,1.2394821643829346,-4.058227062225342,-1.0839486122131348
1775728225137030400,4.115030517578125,1.8496519327163696,-2.885744094848633,0.07417750358581543
1775728225155559000,4.133558837890625,2.7661030292510986,-1.4835500717163086,0.5240281820297241
1775728225174087700,4.152087646484375,4.158725738525391,-0.9858429431915283,1.0265209674835205
1775728225192616400,4.170616455078125,5.144568920135498,-1.2993026971817017,0.6915257573127747
1775728225211145000,4.18914501953125,5.465207099914551,-2.4909284114837646,0.9379864931106567
1775728225229673700,4.207673828125,5.247459888458252,-3.177668571472168,0.7441678643226624
1775728225248202500,4.226202392578125,6.664011001586914,-2.7086751461029053,0.35413774847984314
1775728225266731000,4.24473095703125,10.432706832885742,-1.8903298377990723,-0.03349951654672623
1775728225285259800,4.263259765625,15.189638137817383,-3.1585259437561035,-0.34695929288864136
1775728225303788500,4.28178857421875,22.918455123901367,-3.28773832321167,1.2131611108779907
1775728225322317000,4.300317138671875,9.087940216064453,-9.767501831054688,3.462414264678955
1775728225340845800,4.318845703125,2.6727828979492188,-9.083154678344727,-0.16031911969184875
1775728225359374600,4.33737451171875,0.6436693072319031,-13.220345497131348,-4.137190341949463
1775728225377903000,4.355903076171875,5.166104316711426,-11.758330345153809,-2.3569302558898926
1775728225396432000,4.374431884765625,11.755937576293945,-11.140982627868652,-1.672582983970642
1775728225414960600,4.392960693359375,3.720839262008667,-10.882556915283203,-5.855237007141113
1775728225433489400,4.411489501953125,-0.4163511395454407,-9.600004196166992,-8.169096946716309
1775728225452018000,4.430017822265625,2.7349963188171387,-9.781859397888184,-4.268795490264893
1775728225470546700,4.448546630859375,5.556134223937988,-8.841479301452637,-0.16031911969184875
1775728225489075500,4.467075439453125,5.058426856994629,-8.030312538146973,-0.7800601720809937
1775728225507604000,4.48560400390625,2.297109842300415,-9.018548965454102,-4.855037212371826
1775728225526132700,4.5041328125,1.7491533756256104,-8.118846893310547,-4.646861553192139
1775728225544661200,4.5226611328125,5.079962253570557,-6.879364967346191,-1.6462619304656982
1775728225563190000,4.54118994140625,4.199403762817383,-7.197610378265381,-0.5623133182525635
1775728225581718800,4.55971875,1.4835500717163086,-7.441678524017334,-0.7082754969596863
1775728225600247600,4.57824755859375,2.0482561588287354,-8.02074146270752,-1.8185452222824097
1775728225618776000,4.596776123046875,3.6299118995666504,-8.86062240600586,-4.500899314880371
1775728225637304800,4.615304931640625,2.6392834186553955,-8.872586250305176,-6.477370738983154
1775728225655833600,4.63383349609375,1.6151553392410278,-8.865407943725586,-6.419943332672119
1775728225674362000,4.652362060546875,1.9980069398880005,-8.508877754211426,-4.321437835693359
1775728225692891000,4.670890869140625,3.5916268825531006,-8.183453559875488,-3.428914785385132
1775728225711419600,4.689419677734375,3.0891339778900146,-8.200202941894531,-4.716253280639648
1775728225729948200,4.7079482421875,1.8424733877182007,-8.420342445373535,-4.792823791503906
1775728225748477000,4.726476806640625,1.852044701576233,-8.669196128845215,-4.113262176513672
1775728225767005700,4.745005615234375,1.4189438819885254,-8.841479301452637,-3.5676984786987305
1775728225785534500,4.763534423828125,1.179661512374878,-9.006584167480469,-3.5341989994049072
1775728225804063000,4.78206298828125,2.124826431274414,-8.989834785461426,-2.857030153274536
1775728225822591700,4.800591796875,2.9144580364227295,-8.851051330566406,-1.674975872039795
1775728225841120500,4.81912060546875,4.098905086517334,-10.26760196685791,-1.5553346872329712
1775728225859649000,4.83764892578125,3.9146578311920166,-12.150753021240234,-2.9551360607147217
1775728225878177800,4.856177734375,2.447857618331909,-12.624532699584961,-4.1347975730896
1775728225896706600,4.87470654296875,2.847458839416504,-12.502498626708984,-4.704289436340332
1775728225915235000,4.893235107421875,3.7423746585845947,-13.7108736038208,-4.565505504608154
1775728225933763800,4.911763916015625,3.436093330383301,-15.55334758758545,-3.1345977783203125
1775728225952292600,4.930292724609375,3.1513473987579346,-14.47179126739502,-0.5024927258491516
1775728225970821400,4.9488212890625,3.7399818897247314,-12.667603492736816,-1.9166508913040161
1775728225989350000,4.967349853515625,6.269195556640625,-11.26062297821045,-2.7278177738189697
1775728226007878700,4.985878662109375,8.520841598510742,-11.665010452270508,-2.4765713214874268
1775728226026407400,5.004407470703125,10.193424224853516,-12.550354957580566,-2.66560435295105
1775728226044936000,5.02293603515625,10.581061363220215,-12.713067054748535,-4.555934429168701
1775728226063464700,5.041464599609375,7.752745151519775,-12.06939697265625,-4.752145767211914
1775728226081993500,5.059993408203125,2.579462766647339,-12.358928680419922,-3.713660717010498
1775728226100522000,5.07852197265625,-1.923829436302185,-14.23011589050293,-3.8524444103240967
1775728226119050800,5.09705078125,-2.981456995010376,-10.193424224853516,-2.2085752487182617
1775728226137579500,5.11557958984375,-1.4883357286453247,-6.999006271362305,-0.9595218896865845
1775728226156108000,5.13410791015625,-0.46899324655532837,-5.304887771606445,0.672383189201355
1775728226174636800,5.15263671875,1.4404792785644531,-5.37906551361084,1.2035897970199585
1775728226193165600,5.17116552734375,5.008177757263184,-4.845465660095215,-0.2632105052471161
1775728226211694300,5.1896943359375,7.539783954620361,-6.393621921539307,-2.2540390491485596
1775728226230222800,5.208222900390625,6.104090690612793,-5.855237007141113,-1.6007983684539795
1775728226248751600,5.226751708984375,3.13220477104187,-5.5106706619262695,-2.699103832244873
1775728226267280400,5.2452802734375,1.1629117727279663,-6.159125328063965,-3.9601213932037354
1775728226285809000,5.263808837890625,1.1892328262329102,-5.706881999969482,-3.4337005615234375
1775728226304337700,5.282337646484375,1.0504491329193115,-4.433900356292725,-1.667797327041626
1775728226322866400,5.300866455078125,1.8305093050003052,-4.074976921081543,-0.7657032608985901
1775728226341395000,5.31939501953125,3.081955671310425,-3.9696927070617676,-0.8446664214134216
1775728226359923700,5.337923828125,3.1992039680480957,-3.297309637069702,-1.373480200767517
1775728226378452500,5.356452392578125,3.759124279022217,-2.4095723628997803,-1.3495519161224365
1775728226396981200,5.374981201171875,4.680361270904541,-3.572484254837036,-1.2634103298187256
1775728226415509800,5.393509765625,4.40757942199707,-4.168296813964844,-0.22013968229293823
1775728226434038500,5.41203857421875,5.795416355133057,-3.067598581314087,-0.4331009089946747
1775728226452567300,5.4305673828125,13.25862979888916,-1.2442678213119507,-1.495514154434204
1775728226471095800,5.449095703125,24.567110061645508,-1.8592232465744019,0.4666004180908203
1775728226489624600,5.46762451171875,6.329015731811523,-9.032905578613281,3.768695592880249
1775728226508153300,5.4861533203125,-3.0245277881622314,-7.759923934936523,1.9262222051620483
1775728226526681900,5.504681884765625,10.49252700805664,-10.243673324584961,-4.527220249176025
1775728226545210600,5.523210693359375,9.81535816192627,-12.016755104064941,-3.864408493041992
1775728226563739400,5.541739501953125,1.9669002294540405,-12.839886665344238,-2.964707374572754
1775728226582268200,5.56026806640625,1.6151553392410278,-13.514662742614746,-5.362315654754639
1775728226600796700,5.578796630859375,4.208974838256836,-11.241480827331543,-7.9250288009643555
1775728226619325400,5.597325439453125,5.395814895629883,-10.066604614257812,-7.137789726257324
1775728226637854200,5.615854248046875,2.8211379051208496,-8.846264839172363,-2.864208698272705
1775728226656382700,5.6343828125,0.9906286001205444,-8.922835350036621,-0.4737788736820221
1775728226674911500,5.652911376953125,1.7395820617675781,-8.48734188079834,-0.6819544434547424
1775728226693440300,5.671440185546875,2.902493953704834,-8.571090698242188,-1.6295121908187866
1775728226711968800,5.68996875,3.3068809509277344,-8.305487632751465,-1.7204394340515137
1775728226730497500,5.70849755859375,2.117648124694824,-9.037691116333008,-3.2685956954956055
1775728226749026300,5.7270263671875,1.3615161180496216,-8.82233715057373,-3.8428730964660645
1775728226767554800,5.745554931640625,1.1413763761520386,-8.25523853302002,-3.5581271648406982
1775728226786083600,5.76408349609375,1.856830358505249,-8.087740898132324,-3.5126636028289795
1775728226804612400,5.7826123046875,2.1918256282806396,-8.240880966186523,-4.577469825744629
1775728226823141000,5.80114111328125,2.469393014907837,-7.336394309997559,-4.965106964111328
1775728226841669600,5.819669677734375,2.8522446155548096,-7.027719974517822,-3.94815731048584
1775728226860198400,5.838198486328125,3.294916868209839,-6.441478729248047,-2.053041934967041
1775728226878727200,5.85672705078125,4.0797624588012695,-6.620940208435059,-1.954936146736145
1775728226897255700,5.875255615234375,3.8500516414642334,-7.106683254241943,-3.383451223373413
1775728226915784400,5.893784423828125,2.029113531112671,-8.164310455322266,-3.94815731048584
1775728226934313200,5.912313232421875,0.11724831163883209,-9.291330337524414,-3.266202926635742
1775728226952841700,5.930841796875,-0.4450650215148926,-11.021341323852539,-3.9074792861938477
1775728226971370500,5.94937060546875,0.32303106784820557,-11.576476097106934,-5.149354457855225
1775728226989899300,5.967899169921875,2.5124638080596924,-10.992627143859863,-3.672982692718506
1775728227008428000,5.986427978515625,3.3403804302215576,-11.052447319030762,-3.5198421478271484
1775728227026956500,6.00495654296875,3.0005996227264404,-11.291729927062988,-3.2303106784820557
1775728227045485300,6.0234853515625,2.517249345779419,-12.268001556396484,-3.105883836746216
1775728227064014000,6.04201416015625,2.251646041870117,-12.88774299621582,-3.136990547180176
1775728227082542600,6.06054248046875,2.2444677352905273,-13.62473201751709,-4.3549370765686035
1775728227101071400,6.0790712890625,2.2157537937164307,-14.431113243103027,-4.527220249176025
1775728227119600000,6.09760009765625,1.6366907358169556,-14.254044532775879,-4.07258415222168
1775728227138129000,6.11612890625,2.794816732406616,-13.560126304626465,-3.445664644241333
1775728227156657400,6.134657470703125,5.4556355476379395,-12.21057415008545,-2.4885356426239014
1775728227175186200,6.153186279296875,8.082955360412598,-12.344572067260742,-3.177668571472168
1775728227193714700,6.171714599609375,10.664810180664062,-12.42832088470459,-4.07258415222168
1775728227212243500,6.190243408203125,9.944570541381836,-12.547962188720703,-5.465207099914551
1775728227230772200,6.208772216796875,6.999006271362305,-13.545768737792969,-5.2737812995910645
1775728227249301000,6.227301025390625,1.7730815410614014,-13.162917137145996,-3.627519130706787
1775728227267829500,6.24582958984375,-2.100898265838623,-12.914063453674316,-3.735196113586426
1775728227286358300,6.264358154296875,-1.2993026971817017,-12.531211853027344,-3.6394832134246826
1775728227304887000,6.282886962890625,-1.0336993932724,-9.686145782470703,-0.44027936458587646
1775728227323415600,6.30141552734375,-1.7132610082626343,-7.4464640617370605,2.60339093208313
1775728227341944300,6.3199443359375,0.059820566326379776,-5.529813289642334,1.9716858863830566
1775728227360473000,6.33847314453125,5.690132141113281,-5.036891460418701,-0.5742774605751038
1775728227379001900,6.357001953125,8.324629783630371,-5.79780912399292,-2.148754835128784
1775728227397530400,6.3755302734375,4.230510234832764,-6.199803352355957,-3.830909013748169
1775728227416059100,6.39405908203125,0.3900300860404968,-5.838487148284912,-3.036491870880127
1775728227434588000,6.412587890625,0.45224347710609436,-5.245067119598389,-1.4859428405761719
1775728227453116400,6.431116455078125,1.7084753513336182,-4.713860511779785,-1.9070796966552734
1775728227471645200,6.449645263671875,1.8472590446472168,-3.838087558746338,-2.155933141708374
1775728227490174000,6.468174072265625,1.031306505203247,-3.3020951747894287,-0.6436693072319031
1775728227508702700,6.48670263671875,0.5694918036460876,-3.1561331748962402,0.39481574296951294
1775728227527231200,6.505231201171875,1.545763373374939,-2.612962245941162,-0.33738797903060913
1775728227545760000,6.523760009765625,3.2518460750579834,-2.550748825073242,-1.6079767942428589
1775728227564288800,6.542288818359375,4.847858905792236,-2.885744094848633,-0.794417142868042
1775728227582817300,6.5608173828125,5.084748268127441,-3.4504501819610596,-0.32303106784820557
1775728227601346000,6.579345947265625,5.309673309326172,-4.146761417388916,-1.0528420209884644
1775728227619874800,6.597874755859375,10.009177207946777,-3.682554006576538,0.02632104977965355
1775728227638403600,6.616403564453125,24.557538986206055,-3.3020951747894287,2.56510591506958
1775728227656932000,6.63493212890625,10.736595153808594,-10.205389022827148,2.9072794914245605
1775728227675460900,6.6534609375,-4.163511276245117,-9.736394882202148,-0.36610186100006104
1775728227693989600,6.67198974609375,8.920442581176758,-9.657432556152344,-3.751945972442627
1775728227712518100,6.69051806640625,14.285151481628418,-13.174881935119629,-5.9198431968688965
1775728227731047000,6.709046875,-0.397208571434021,-12.519248008728027,-3.1274192333221436
1775728227749575700,6.72757568359375,2.172683000564575,-12.323036193847656,-4.972285270690918
1775728227768104200,6.746104248046875,5.493920803070068,-9.834501266479492,-7.295716285705566
1775728227786633000,6.764633056640625,3.713660717010498,-8.458627700805664,-5.723631858825684
1775728227805161700,6.78316162109375,2.3784656524658203,-8.453842163085938,-3.972085475921631
1775728227823690500,6.8016904296875,2.2396819591522217,-8.453842163085938,-2.9312076568603516
1775728227842219000,6.820218994140625,2.0267207622528076,-9.056833267211914,-1.7994025945663452
1775728227860747800,6.838747802734375,1.9764715433120728,-8.683553695678711,-2.179861545562744
1775728227879276500,6.857276611328125,3.0412776470184326,-8.61176872253418,-2.943171739578247
1775728227897805300,6.875805419921875,3.1513473987579346,-8.051848411560059,-3.0077781677246094
1775728227916333800,6.894333740234375,2.038684844970703,-8.243273735046387,-3.2039895057678223
1775728227934862600,6.912862548828125,2.0817556381225586,-7.8556365966796875,-2.2851455211639404
1775728227953391000,6.93139111328125,2.273181438446045,-7.475177764892578,-1.399801254272461
1775728227971920000,6.949919921875,1.9692929983139038,-7.968099594116211,-2.060220241546631
1775728227990448600,6.96844873046875,1.4524433612823486,-8.403593063354492,-2.562713146209717
1775728228008977400,6.986977294921875,1.6917256116867065,-8.070990562438965,-2.9001009464263916
1775728228027506200,7.005506103515625,2.651247501373291,-7.585247993469238,-3.5676984786987305
1775728228046034700,7.02403466796875,3.469592809677124,-7.293323516845703,-3.3954153060913086
1775728228064563500,7.0425634765625,3.3020951747894287,-7.594819068908691,-3.78544545173645
1775728228083092200,7.06109228515625,2.139183521270752,-8.482556343078613,-4.847858905792236
1775728228101620700,7.079620849609375,1.3950155973434448,-8.989834785461426,-4.170690059661865
1775728228120149500,7.0981494140625,1.4811571836471558,-8.508877754211426,-3.8739798069000244
1775728228138678300,7.11667822265625,1.8759729862213135,-8.812766075134277,-4.185046672821045
1775728228157207000,7.13520703125,2.3856441974639893,-10.191031455993652,-4.503292083740234
1775728228175735600,7.153735595703125,1.2418749332427979,-11.169695854187012,-5.240281581878662
1775728228194264300,7.172264404296875,0.4043870270252228,-12.478569984436035,-5.927021503448486
1775728228212793000,7.19079296875,0.4378865361213684,-14.380864143371582,-5.481956481933594
1775728228231321900,7.20932177734375,1.1892328262329102,-14.31625747680664,-3.625126361846924
1775728228249850400,7.227850341796875,2.644068956375122,-14.366507530212402,-2.3569302558898926
1775728228268379100,7.246379150390625,3.211168050765991,-14.249258995056152,-0.42352959513664246
1775728228286908000,7.264907958984375,3.014956474304199,-13.969298362731934,-1.1174482107162476
1775728228305436700,7.283436767578125,3.570091485977173,-13.746766090393066,-2.8283164501190186
1775728228323965200,7.301965087890625,4.639683246612549,-13.048062324523926,-4.113262176513672
1775728228342494000,7.320493896484375,5.843272686004639,-11.296515464782715,-4.756931304931641
1775728228361022700,7.339022705078125,7.946564197540283,-10.600204467773438,-3.8213376998901367
1775728228379551500,7.357551513671875,9.872786521911621,-10.918449401855469,-3.0484559535980225
1775728228398080000,7.376080078125,10.916056632995605,-11.992827415466309,-2.8905298709869385
1775728228416608800,7.39460888671875,7.8317084312438965,-12.954741477966309,-4.366901397705078
1775728228435137500,7.413137451171875,1.6103696823120117,-15.019747734069824,-5.623133182525635
1775728228453666000,7.431666015625,-2.6464617252349854,-14.462220191955566,-4.261617183685303
1775728228472194800,7.45019482421875,-3.783052682876587,-11.882757186889648,-2.132004976272583
1775728228490723600,7.4687236328125,-5.082355499267578,-8.71226692199707,0.794417142868042
1775728228509252400,7.48725244140625,-3.6323046684265137,-6.38165807723999,2.9479575157165527
1775728228527781000,7.505781005859375,2.8737800121307373,-5.539384365081787,1.7180466651916504
1775728228546309600,7.5243095703125,9.243474006652832,-5.283352375030518,-0.48095735907554626
1775728228564838400,7.54283837890625,8.037490844726562,-4.7401814460754395,-2.2779672145843506
1775728228583367200,7.5613671875,2.926422119140625,-6.065805435180664,-2.895315408706665
1775728228601896000,7.57989599609375,-0.4211367964744568,-5.123033046722412,-1.5720844268798828
1775728228620424400,7.598424560546875,0.7250252366065979,-4.457828521728516,-1.7850457429885864
1775728228638953200,7.616953125,1.9621145725250244,-3.81655216217041,-1.5314065217971802
1775728228657482000,7.63548193359375,1.4691931009292603,-2.3712873458862305,-0.3732803463935852
1775728228676010800,7.6540107421875,1.2346965074539185,-2.9359934329986572,0.016749758273363113
1775728228694539300,7.672539306640625,1.0336993932724,-3.8835511207580566,0.5910272002220154
1775728228713068000,7.691068115234375,2.620140790939331,-3.1968109607696533,-0.6245267391204834
1775728228731596800,7.7095966796875,3.88594388961792,-3.4480574131011963,-2.1056840419769287
1775728228750125300,7.728125244140625,4.510470867156982,-3.9672999382019043,-1.9070796966552734
1775728228768654000,7.746654052734375,6.754938125610352,-3.8285162448883057,-1.0791629552841187
1775728228787182800,7.765182861328125,18.393627166748047,-2.4430718421936035,1.6031911373138428
1775728228805711600,7.783711669921875,19.144973754882812,-6.271588325500488,3.538984775543213
1775728228824240400,7.802240478515625,-3.675375461578369,-9.619147300720215,2.007578134536743
1775728228842769000,7.820768798828125,-1.1078768968582153,-6.649653911590576,0.29431718587875366
1775728228861297700,7.839297607421875,11.911471366882324,-11.660224914550781,-2.9048867225646973
1775728228879826400,7.857826416015625,9.174081802368164,-12.935599327087402,-3.3236305713653564
1775728228898355200,7.876355224609375,4.716253280639648,-14.880964279174805,-5.453242778778076
1775728228916883700,7.8948837890625,2.682354211807251,-14.268401145935059,-8.365307807922363
1775728228935412500,7.91341259765625,2.1296122074127197,-12.935599327087402,-9.643074989318848
1775728228953941200,7.931941162109375,3.431307554244995,-10.693524360656738,-6.905686378479004
1775728228972470000,7.950469970703125,4.883750915527344,-8.896514892578125,-2.8498518466949463
1775728228990998800,7.968998779296875,3.9385859966278076,-7.82692289352417,0.2632105052471161
1775728229009527300,7.98752734375,2.5363919734954834,-6.788437843322754,1.4189438819885254
1775728229028056000,8.00605615234375,2.163111686706543,-7.637889862060547,0.18903298676013947
1775728229046584800,8.024584716796875,2.6273193359375,-8.008777618408203,-1.6055840253829956
1775728229065113300,8.04311328125,2.5770699977874756,-8.898907661437988,-3.469592809677124
1775728229083642000,8.06164208984375,0.6556333899497986,-8.762516975402832,-5.438885688781738
1775728229102171000,8.0801708984375,1.399801254272461,-8.937192916870117,-6.666403770446777
1775728229120699600,8.09869970703125,2.8043880462646484,-8.85344409942627,-5.998806476593018
1775728229139228400,8.117228515625,2.4023938179016113,-8.267202377319336,-3.053241729736328
1775728229157757000,8.1357568359375,1.0265209674835205,-8.02074146270752,-1.978864312171936
1775728229176285700,8.15428564453125,0.6221339106559753,-7.176074981689453,-1.8831514120101929
1775728229194814500,8.172814453125,1.2658032178878784,-6.994220733642578,-2.5435705184936523
1775728229213343200,8.19134326171875,1.856830358505249,-7.3292155265808105,-4.084548473358154
1775728229231872000,8.2098720703125,1.0480563640594482,-7.625925540924072,-3.517449378967285
1775728229250400500,8.228400390625,0.41156548261642456,-7.489534854888916,-2.0889341831207275
1775728229268929300,8.24692919921875,1.2801600694656372,-8.336593627929688,-2.225325107574463
1775728229287458000,8.2654580078125,1.9070796966552734,-9.095118522644043,-2.4741785526275635
1775728229305986600,8.283986572265626,1.8616160154342651,-9.425328254699707,-2.9934210777282715
1775728229324515300,8.302515380859376,1.7204394340515137,-9.906285285949707,-3.407379388809204
1775728229343044000,8.321044189453126,2.6703901290893555,-10.504491806030273,-2.8594231605529785
1775728229361572900,8.33957275390625,4.1491546630859375,-11.607583045959473,-3.469592809677124
1775728229380101600,8.3581015625,3.5198421478271484,-12.468998908996582,-5.221138954162598
1775728229398630100,8.376630126953126,2.723032236099243,-13.304094314575195,-5.7786664962768555
1775728229417159000,8.395158935546876,2.1774685382843018,-15.450455665588379,-4.792823791503906
1775728229435687700,8.413687744140624,0.914058268070221,-15.672987937927246,-2.234896421432495
1775728229454216400,8.432216552734374,0.32303106784820557,-14.687145233154297,-2.2540390491485596
1775728229472745200,8.4507451171875,1.856830358505249,-13.61037540435791,-3.4791641235351562
1775728229491273700,8.469273681640624,4.0319061279296875,-12.445070266723633,-4.110869407653809
1775728229509802500,8.487802490234374,6.92482852935791,-11.667403221130371,-3.452843189239502
1775728229537595600,8.515595703125,12.011969566345215,-11.626725196838379,-2.8905298709869385
1775728229556124400,8.53412451171875,11.394621849060059,-12.988241195678711,-6.687939167022705
1775728229574653000,8.55265283203125,5.654240131378174,-14.43350601196289,-8.673981666564941
1775728229593181700,8.571181640625,-1.8999011516571045,-14.088939666748047,-7.226324558258057
1775728229611710500,8.58971044921875,-3.900300979614258,-13.600804328918457,-4.563112735748291
1775728229630239200,8.6082392578125,-4.053441524505615,-11.997612953186035,-2.7828526496887207
1775728229648767700,8.626767822265625,-4.783252239227295,-8.09970474243164,0.7704889178276062
1775728229667296500,8.645296630859375,-1.9310078620910645,-5.168497085571289,3.043670415878296
1775728229685825300,8.6638251953125,3.9457645416259766,-5.252245903015137,2.0793628692626953
1775728229704354000,8.68235400390625,7.511070251464844,-6.096911907196045,0.7776673436164856
1775728229722882800,8.7008828125,4.924428939819336,-6.4701924324035645,-0.9355936646461487
1775728229741411600,8.71941162109375,1.5936198234558105,-6.340980052947998,-2.6775684356689453
1775728229759940000,8.737940185546876,0.2560320198535919,-6.149554252624512,-3.3236305713653564
1775728229778468900,8.75646875,-0.1818545162677765,-6.013163089752197,-3.4576287269592285
1775728229796997600,8.77499755859375,0.9930213689804077,-4.835894584655762,-2.2923240661621094
1775728229815526100,8.793526123046876,2.0171494483947754,-4.0797624588012695,-0.6245267391204834
1775728229834055000,8.812054931640626,1.4141582250595093,-3.6610186100006104,0.45942193269729614
1775728229852583700,8.830583740234376,0.5335994362831116,-4.122833251953125,-0.4211367964744568
1775728229871112400,8.849112548828124,1.1988041400909424,-4.175475597381592,-1.1389836072921753
1775728229889641200,8.86764111328125,3.2685956954956055,-3.242274761199951,-1.3663017749786377
1775728229908169700,8.886169677734374,4.6372904777526855,-3.1896326541900635,-1.4763715267181396
1775728229926698500,8.904698486328124,6.080162525177002,-3.7232320308685303,-1.1198409795761108
1775728229945227300,8.923227294921874,12.732209205627441,-3.5581271648406982,0.33738797903060913
1775728229963756000,8.941756103515624,17.38385581970215,-5.836094379425049,4.3549370765686035
1775728229982284800,8.960284912109374,1.5792629718780518,-8.13081169128418,2.871387243270874
1775728230000813600,8.9788134765625,3.7160534858703613,-9.580862045288086,-3.8572301864624023
1775728230019342000,8.997342041015624,11.743973731994629,-11.97607707977295,-5.67338228225708
1775728230037870800,9.015870849609374,10.231709480285645,-13.607982635498047,-4.48414945602417
1775728230056399600,9.034399658203125,-0.763310432434082,-14.536397933959961,-4.766502857208252
1775728230074928000,9.05292822265625,-1.1772687435150146,-12.260823249816895,-6.7070817947387695
1775728230093457000,9.071456787109375,5.07517671585083,-9.937392234802246,-6.446264266967773
1775728230111985700,9.089985595703125,5.608776092529297,-8.082955360412598,-3.5222349166870117
1775728230130514400,9.108514404296875,1.6941183805465698,-8.10688304901123,-0.8805587291717529
1775728230149043200,9.127043212890625,0.8901300430297852,-9.090332984924316,-0.49292147159576416
1775728230167572000,9.145572021484375,2.744567632675171,-9.250652313232422,-1.0432707071304321
1775728230186100500,9.1641005859375,3.1680972576141357,-8.901300430297852,-2.335394859313965
1775728230204629200,9.182629150390625,3.043670415878296,-9.32722282409668,-3.7567315101623535
1775728230223158000,9.201157958984375,1.9645073413848877,-8.93240737915039,-4.182653903961182
1775728230241686800,9.219686767578125,2.469393014907837,-8.221738815307617,-3.359523057937622
1775728230260215600,9.238215576171875,2.6608188152313232,-8.097311973571777,-3.8213376998901367
1775728230278744000,9.256744140625,2.4574289321899414,-7.592426300048828,-4.1730828285217285
1775728230297272800,9.27527294921875,2.4095723628997803,-7.154539585113525,-3.783052682876587
1775728230315801600,9.293801513671875,1.2251251935958862,-6.9822564125061035,-3.2374889850616455
1775728230334330400,9.312330322265625,0.8757730722427368,-6.8865437507629395,-2.3234307765960693
1775728230352859000,9.33085888671875,1.8041882514953613,-6.786045074462891,-1.852044701576233
1775728230380652000,9.358652099609374,3.0963125228881836,-7.013363361358643,-3.1034910678863525
1775728230399180800,9.377180908203124,2.455035924911499,-7.491927623748779,-3.672982692718506
1775728230417709600,9.39570947265625,0.9260223507881165,-8.944371223449707,-4.508078098297119
1775728230436238300,9.41423828125,0.23449662327766418,-10.52363395690918,-4.797609329223633
1775728230454766800,9.432766845703124,1.2681959867477417,-10.346565246582031,-3.761517286300659
1775728230473295600,9.451295654296874,2.251646041870117,-10.949556350708008,-4.218546390533447
1775728230491824400,9.469824462890625,2.2396819591522217,-11.394621849060059,-4.443471431732178
1775728230510353200,9.488353271484375,2.9168508052825928,-11.956934928894043,-4.412364959716797
1775728230528881700,9.506881591796875,2.5076780319213867,-12.839886665344238,-4.409972190856934
1775728230547410400,9.525410400390625,1.1198409795761108,-14.000405311584473,-3.783052682876587
1775728230565939200,9.543939208984375,0.2919243574142456,-14.608181953430176,-2.888136863708496
1775728230584468000,9.562468017578125,0.1746760457754135,-15.215959548950195,-2.6177480220794678
1775728230602996700,9.580996826171875,0.12442677468061447,-14.802000999450684,-3.8883368968963623
1775728230621525200,9.599525146484375,0.7872386574745178,-13.28255844116211,-4.591826438903809
1775728230640054000,9.618053955078125,2.9288148880004883,-12.39721393585205,-4.634897232055664
1775728230658582800,9.636582763671875,6.467799663543701,-11.452049255371094,-4.06540584564209
1775728230677111600,9.655111572265625,10.351350784301758,-11.411371231079102,-2.0195422172546387
1775728230695640300,9.673640380859375,12.461820602416992,-11.138589859008789,-2.7182464599609375
1775728230714168800,9.6921689453125,10.358529090881348,-12.789636611938477,-7.058826923370361
1775728230732697600,9.710697509765625,3.8835511207580566,-14.19422435760498,-8.941978454589844
1775728230751226400,9.729226318359375,-1.825723648071289,-13.938192367553711,-5.776273727416992
1775728230769755100,9.747755126953125,-3.4193434715270996,-12.569497108459473,-2.878565549850464
1775728230788283600,9.76628369140625,-3.1250264644622803,-10.947163581848145,-0.8183453679084778
1775728230806812400,9.7848125,-4.883750915527344,-7.668996810913086,1.7754744291305542
1775728230825341200,9.803341064453125,-3.689732551574707,-4.972285270690918,3.077169895172119
1775728230843870000,9.821869873046875,2.273181438446045,-4.508078098297119,0.8685946464538574
1775728230862398700,9.840398681640625,9.044869422912598,-4.792823791503906,-2.0650060176849365
1775728230880927200,9.85892724609375,9.107083320617676,-5.477170944213867,-2.4717857837677
1775728230899456000,9.8774560546875,4.024727821350098,-6.843472957611084,-2.6799614429473877
1775728230917984800,9.89598486328125,-0.6819544434547424,-6.991827964782715,-2.801995277404785
1775728230936513500,9.914513427734375,-1.8664016723632812,-5.654240131378174,-1.911865234375
1775728230955042300,9.933042236328125,0.8566305041313171,-4.642076015472412,-2.007578134536743
1775728230973570800,9.95157080078125,3.273381471633911,-3.6155550479888916,-1.6630117893218994
1775728230992099600,9.970099609375,2.4885356426239014,-4.42193603515625,-1.4931213855743408
1775728231010628400,9.98862841796875,0.7657032608985901,-4.73300313949585,-0.4618147611618042
1775728231029157000,10.0071572265625,0.9523434042930603,-4.381258487701416,-0.17228323221206665
1775728231047685600,10.025685546875,1.911865234375,-4.42193603515625,-1.2681959867477417
1775728231066214400,10.04421435546875,3.2925238609313965,-4.244867324829102,-1.7228323221206665
1775728231084743200,10.0627431640625,5.0703911781311035,-4.101297855377197,-1.1509476900100708
1775728231103272000,10.08127197265625,8.949156761169434,-4.070191383361816,-0.5144568681716919
1775728231121800400,10.099800537109376,26.06980323791504,-2.1750757694244385,2.667997360229492
1775728231140329200,10.1183291015625,8.054241180419922,-8.597412109375,5.010570526123047
1775728231158858000,10.13685791015625,-7.733603000640869,-10.954341888427734,-2.407179594039917
1775728231177386800,10.15538671875,5.8719868659973145,-8.111668586730957,-5.826523303985596
1775728231195915300,10.173915283203126,16.816757202148438,-13.141382217407227,-4.5200419425964355
1775728231214444000,10.192444091796874,1.3878371715545654,-13.253844261169434,-2.4981069564819336
1775728231232972800,10.210972900390624,-0.2871387302875519,-14.701501846313477,-6.197410583496094
1775728231251501600,10.22950146484375,4.213760852813721,-11.478370666503906,-9.131011009216309
1775728231270030300,10.2480302734375,6.2668023109436035,-9.877572059631348,-7.314858913421631
1775728231288559000,10.26655908203125,3.4002010822296143,-9.667003631591797,-3.579662561416626
1775728231307087600,10.285087646484374,1.7276179790496826,-9.025727272033691,-1.7778671979904175
1775728231325616400,10.303616455078124,2.7493531703948975,-7.886743545532227,-1.3591232299804688
1775728231344145200,10.322145263671874,3.1561331748962402,-7.867600917816162,-1.0169496536254883
1775728231362673700,10.340673583984374,2.7110681533813477,-7.946564197540283,-1.3399807214736938
1775728231381202400,10.359202392578124,2.713460922241211,-8.434700012207031,-3.0005996227264404
1775728231399731200,10.377731201171875,2.311466693878174,-8.595019340515137,-4.046263217926025
1775728231418260000,10.396260009765625,2.194218397140503,-8.523234367370605,-4.335794448852539
1775728231436788500,10.41478857421875,1.8640087842941284,-8.793622970581055,-4.570291042327881
1775728231455317200,10.433317138671875,1.1318050622940063,-8.884550094604492,-4.467400074005127
1775728231473846000,10.451845947265625,1.1054840087890625,-8.50169849395752,-4.266402721405029
1775728231492374800,10.470374755859375,1.2418749332427979,-8.01356315612793,-3.7806596755981445
1775728231510903300,10.4889033203125,1.210768222808838,-7.334001541137695,-3.359523057937622
1775728231529432000,10.50743212890625,1.3710874319076538,-6.649653911590576,-3.4791641235351562
1775728231547960800,10.5259609375,1.2873386144638062,-6.400800704956055,-3.28773832321167
1775728231566489600,10.544489501953125,0.729810893535614,-7.259823799133301,-3.6227335929870605
1775728231585018400,10.563018310546875,0.32542386651039124,-7.475177764892578,-3.6921253204345703
1775728231603547000,10.581546875,1.3639088869094849,-7.858029365539551,-2.825923442840576
1775728231622075600,10.60007568359375,2.2707886695861816,-8.02074146270752,-1.9046868085861206
1775728231640604400,10.6186044921875,2.713460922241211,-9.107083320617676,-2.2133610248565674
1775728231659133000,10.6371328125,3.761517286300659,-10.449456214904785,-3.5533416271209717
1775728231677661700,10.65566162109375,4.256831645965576,-11.050054550170898,-4.668396949768066
1775728231696190500,10.6741904296875,2.3162522315979004,-10.954341888427734,-5.5728840827941895
1775728231714719200,10.69271923828125,1.124626636505127,-11.95454216003418,-5.436492919921875
1775728231733247700,10.711247802734375,1.373480200767517,-12.928421020507812,-3.7399818897247314
1775728231751776500,10.729776611328125,1.5625132322311401,-13.919049263000488,-2.7182464599609375
1775728231770305300,10.74830517578125,1.3280165195465088,-15.043676376342773,-1.6893328428268433
1775728231788834000,10.766833984375,0.7872386574745178,-15.589239120483398,-1.648654818534851
1775728231807362600,10.785362548828125,2.249253273010254,-14.634503364562988,-2.8139593601226807
1775728231825891300,10.803891357421875,4.855037212371826,-12.605389595031738,-4.170690059661865
1775728231844420000,10.822420166015625,6.92482852935791,-11.626725196838379,-4.498506546020508
1775728231862948900,10.840948974609375,8.00638484954834,-11.794222831726074,-4.357329845428467
1775728231881477400,10.859477294921875,9.131011009216309,-11.667403221130371,-4.101297855377197
1775728231900006100,10.878006103515625,9.93260669708252,-12.3278226852417,-4.807180881500244
1775728231918535000,10.896534912109376,6.955935478210449,-13.416556358337402,-6.661618232727051
1775728231937063700,10.915063720703126,0.4546363055706024,-13.95972728729248,-6.185446739196777
1775728231955592200,10.93359228515625,-3.06999135017395,-12.64606761932373,-4.4650068283081055
1775728231974121000,10.952120849609376,-3.263810157775879,-11.818151473999023,-3.658625841140747
1775728231992649700,10.970649658203126,-2.1774685382843018,-9.56650447845459,-2.234896421432495
1775728232011178200,10.98917822265625,-2.66560435295105,-7.726424217224121,-0.1698904037475586
1775728232029707000,11.00770703125,-0.7226324677467346,-5.840879917144775,3.10109806060791
1775728232048235800,11.02623583984375,3.792623996734619,-4.991427898406982,3.7088751792907715
1775728232066764300,11.044764404296876,7.269395351409912,-4.591826438903809,2.416750907897949
1775728232085293000,11.06329296875,6.874579429626465,-5.063212871551514,-0.6891329288482666
1775728232103821800,11.08182177734375,3.5437703132629395,-6.032305717468262,-3.098705291748047
1775728232122350600,11.1003505859375,0.7680960893630981,-5.577669620513916,-3.108276605606079
1775728232140879000,11.118879150390624,0.8709874153137207,-4.768895626068115,-1.5984054803848267
1775728232159407900,11.137407958984374,2.7326035499572754,-4.254438877105713,-0.48574298620224
1775728232177936600,11.1559365234375,4.249652862548828,-4.326223373413086,-1.2346965074539185
1775728232196465200,11.174465087890624,3.7232320308685303,-4.922036170959473,-2.3976082801818848
1775728232214994000,11.192993896484374,2.4837498664855957,-4.419543266296387,-2.328216314315796
1775728232233522700,11.211522705078124,1.6941183805465698,-3.2853455543518066,-1.490728497505188
1775728232252051200,11.23005126953125,2.1750757694244385,-2.610569477081299,-1.057627558708191
1775728232270580000,11.248580078125,3.8835511207580566,-2.4023938179016113,-1.1892328262329102
1775728232289108700,11.267108642578124,4.8502516746521,-2.9072794914245605,-1.4333007335662842
1775728232307637500,11.285637451171874,6.994220733642578,-2.4981069564819336,-1.1437692642211914
1775728232326166300,11.304166259765625,17.666210174560547,-1.1198409795761108,-0.1339980661869049
1775728232344694800,11.32269482421875,24.033510208129883,-4.350151538848877,1.9669002294540405
1775728232363223600,11.3412236328125,-0.576670229434967,-10.255638122558594,4.101297855377197
1775728232381752300,11.35975244140625,1.2346965074539185,-7.384250640869141,-2.100898265838623
1775728232400280800,11.37828076171875,9.032905578613281,-12.815958023071289,-8.733802795410156
1775728232418809600,11.3968095703125,4.376472473144531,-10.935199737548828,-4.613361835479736
1775728232437338400,11.41533837890625,5.9198431968688965,-12.0933256149292,-1.9022940397262573
1775728232455867000,11.433866943359375,6.472585201263428,-11.277373313903809,-4.113262176513672
1775728232474395600,11.452395751953125,4.350151538848877,-11.82293701171875,-7.420143127441406
1775728232492924400,11.47092431640625,2.1678972244262695,-11.526226997375488,-6.812366008758545
1775728232511453000,11.489452880859375,2.65842604637146,-10.092926025390625,-5.426921844482422
1775728232529981700,11.507981689453125,2.933600664138794,-8.781659126281738,-4.505684852600098
1775728232548510500,11.526510498046875,2.0961127281188965,-8.068597793579102,-3.6705899238586426
1775728232567039200,11.545039306640625,2.9694929122924805,-7.45364236831665,-3.4241292476654053
1775728232585567700,11.563567626953125,3.091526746749878,-7.590033531188965,-3.239881753921509
1775728232604096500,11.582096435546875,2.825923442840576,-7.070790767669678,-2.706282377243042
1775728232622625300,11.600625244140625,3.696911096572876,-6.477370738983154,-2.0171494483947754
1775728232641153800,11.61915380859375,4.077369689941406,-6.91765022277832,-2.957528829574585
1775728232659682600,11.6376826171875,2.3306093215942383,-7.171289443969727,-4.074976921081543
1775728232678211300,11.65621142578125,1.3830515146255493,-7.252645492553711,-3.728017568588257
1775728232696739800,11.67473974609375,1.0600204467773438,-7.685746192932129,-2.974278450012207
1775728232715268600,11.6932685546875,1.5290136337280273,-7.403393268585205,-2.416750907897949
1775728232733797400,11.71179736328125,2.6392834186553955,-7.130611419677734,-2.225325107574463
1775728232752326000,11.730325927734375,3.177668571472168,-7.51585578918457,-3.2231321334838867
1775728232770854700,11.748854736328125,2.7732813358306885,-8.403593063354492,-4.388436794281006
1775728232789383400,11.767383544921875,2.069791555404663,-8.755337715148926,-4.8502516746521
1775728232807912000,11.785911865234375,1.6295121908187866,-8.70508861541748,-4.785645484924316
1775728232826440700,11.804440673828125,1.2442678213119507,-9.231510162353516,-5.472385406494141
1775728232844969500,11.822969482421875,1.0480563640594482,-9.903892517089844,-5.6685967445373535
1775728232863498200,11.841498291015625,1.3806586265563965,-9.250652313232422,-3.634697675704956
1775728232882026800,11.86002685546875,1.588834285736084,-8.980263710021973,-2.6967110633850098
1775728232900555500,11.878555419921875,1.8496519327163696,-8.812766075134277,-1.9262222051620483
1775728232919084300,11.897084228515626,1.2969099283218384,-9.236295700073242,-2.115255117416382
1775728232937612800,11.91561279296875,0.9236295223236084,-9.454042434692383,-3.160918712615967
1775728232956141600,11.9341416015625,1.00259268283844,-9.724431037902832,-4.505684852600098
1775728232974670300,11.95267041015625,1.2011969089508057,-9.949356079101562,-5.5345988273620605
1775728232993198800,11.97119873046875,1.1940184831619263,-11.251051902770996,-5.740381717681885
1775728233011727600,11.9897275390625,1.0719845294952393,-12.380464553833008,-4.113262176513672
1775728233030256400,12.00825634765625,0.9044869542121887,-13.060026168823242,-2.7349963188171387
1775728233048785000,12.026784912109376,2.007578134536743,-14.47896957397461,-2.706282377243042
1775728233067313700,12.045313720703126,2.342573404312134,-15.357135772705078,-2.9551360607147217
1775728233085842400,12.063842529296876,0.9236295223236084,-15.275779724121094,-2.9694929122924805
1775728233104371000,12.082370849609376,0.5240281820297241,-14.758930206298828,-3.436093330383301
1775728233122899700,12.100899658203126,1.332802176475525,-13.481163024902344,-4.101297855377197
1775728233141428200,12.11942822265625,1.734796404838562,-11.507083892822266,-4.0079779624938965
1775728233159957000,12.13795703125,1.8711873292922974,-9.805787086486816,-3.297309637069702
1775728233178485800,12.15648583984375,3.1130621433258057,-9.075976371765137,-2.0338993072509766
1775728233197014300,12.17501416015625,5.517848968505859,-8.894122123718262,-1.7611174583435059
1775728233215543000,12.19354296875,7.255038261413574,-9.269794464111328,-3.594019651412964
1775728233234071800,12.21207177734375,6.735795974731445,-10.188638687133789,-5.443671703338623
1775728233261864700,12.23986474609375,1.648654818534851,-9.611968994140625,-2.541177749633789
1775728233280393500,12.2583935546875,-1.825723648071289,-9.707681655883789,-0.17228323221206665
1775728233298922200,12.276922119140625,-3.428914785385132,-10.255638122558594,1.4452649354934692
1775728233317450800,12.29545068359375,-4.668396949768066,-8.61176872253418,1.5385849475860596
1775728233335979500,12.3139794921875,-3.129812002182007,-7.379465103149414,-0.39481574296951294
1775728233354508300,12.33250830078125,-0.24406790733337402,-5.749952793121338,-2.792423963546753
1775728233382301200,12.36030126953125,6.532405853271484,-5.6207404136657715,-2.5531418323516846
1775728233400830000,12.378829833984375,6.723831653594971,-5.903093338012695,-0.1986042857170105
1775728233419358500,12.3973583984375,2.6943182945251465,-6.845865726470947,0.45942193269729614
1775728233437887200,12.41588720703125,0.34695929288864136,-6.771687984466553,0.5048855543136597
1775728233456416000,12.434416015625,1.0504491329193115,-6.238088607788086,-0.6269195079803467
1775728233474944500,12.452944580078125,2.4765713214874268,-6.742974281311035,-3.0484559535980225
1775728233493473300,12.471473388671875,2.3808584213256836,-6.597012042999268,-3.649054527282715
1775728233512002000,12.490001953125,1.6175481081008911,-6.620940208435059,-2.816352367401123
1775728233530530600,12.508530517578125,1.672582983970642,-6.608976364135742,-1.4093725681304932
1775728233549059300,12.527059326171875,2.1128623485565186,-6.45822811126709,-0.727418065071106
1775728233567588000,12.545588134765625,2.500499725341797,-6.5180487632751465,-0.763310432434082
1775728233586116600,12.56411669921875,3.0652058124542236,-6.64486837387085,-1.1581261157989502
1775728233604645400,12.582645263671875,3.596412420272827,-6.285944938659668,-1.062413215637207
1775728233623174100,12.601174072265625,4.6061835289001465,-6.532405853271484,-0.6771687865257263
1775728233641702700,12.61970263671875,5.302495002746582,-7.10429048538208,-1.0839486122131348
1775728233660231400,12.6382314453125,6.185446739196777,-7.118647575378418,-1.9932212829589844
1775728233678760200,12.65676025390625,8.221738815307617,-6.9344000816345215,-2.421536445617676
1775728233697288700,12.675288818359375,9.872786521911621,-7.125825881958008,-2.59621262550354
1775728233715817500,12.6938173828125,8.992227554321289,-8.025527000427246,-3.0580272674560547
1775728233734346200,12.71234619140625,7.774280548095703,-8.700303077697754,-4.199403762817383
1775728233752874800,12.730874755859375,5.91505765914917,-9.422935485839844,-4.838287353515625
1775728233771403500,12.749403564453125,1.5649060010910034,-9.561718940734863,-4.773681163787842
1775728233789932000,12.76793212890625,2.1655044555664062,-10.837093353271484,-4.687539577484131
1775728233808460800,12.786460693359375,2.9934210777282715,-11.313265800476074,-5.106283664703369
1775728233826989600,12.804989501953125,1.1988041400909424,-11.583654403686523,-2.5938198566436768
1775728233845518000,12.82351806640625,-2.060220241546631,-11.251051902770996,1.3160524368286133
1775728233864046800,12.842046875,1.34476637840271,-9.958928108215332,0.7968099117279053
1775728233882575400,12.860575439453125,4.120440483093262,-9.547362327575684,-2.407179594039917
1775728233901104000,12.879104248046875,2.8115665912628174,-9.19561767578125,-2.9527430534362793
1775728233919633000,12.8976328125,0.3852444589138031,-9.317651748657227,-2.282752752304077
1775728233938161700,12.91616162109375,-0.7657032608985901,-9.604789733886719,-1.0169496536254883
1775728233956690200,12.934690185546875,0.3732803463935852,-10.262816429138184,-2.03629207611084
1775728233975219000,12.953218994140625,2.699103832244873,-10.451848983764648,-3.2039895057678223
1775728233993747500,12.97174755859375,3.6442689895629883,-10.155138969421387,-3.517449378967285
1775728234012276200,12.990276123046876,2.63449764251709,-9.623932838439941,-3.232703447341919
1775728234030805000,13.008804931640626,0.849452018737793,-9.896714210510254,-4.264009952545166
1775728234049333500,13.02733349609375,0.31345975399017334,-9.76989459991455,-4.431507587432861
1775728234067862300,13.0458623046875,0.8374879360198975,-8.886942863464355,-3.7471601963043213
1775728234086391000,13.06439111328125,2.3401806354522705,-8.233702659606934,-3.1896326541900635
1775728234104919600,13.08291943359375,2.4909284114837646,-8.264809608459473,-3.10109806060791
1775728234123448300,13.1014482421875,1.428515076637268,-8.752944946289062,-3.4719855785369873
1775728234141977000,13.11997705078125,0.9475577473640442,-9.166903495788574,-4.515256404876709
1775728234160505600,13.138505615234376,1.8113667964935303,-9.317651748657227,-5.72841739654541
1775728234179034400,13.157034423828126,2.510071039199829,-8.987442016601562,-5.582455158233643
1775728234197563000,13.17556298828125,4.022335052490234,-8.542376518249512,-3.656233072280884
1775728234216091600,13.194091552734376,4.567898273468018,-8.738588333129883,-2.495713949203491
1775728234234620400,13.212620361328124,3.160918712615967,-8.944371223449707,-2.3856441974639893
1775728234253149200,13.231149169921874,0.4139583110809326,-9.351150512695312,-2.6560330390930176
1775728234271677700,13.249677734375,-1.5649060010910034,-10.01156997680664,-2.6943182945251465
1775728234290206500,13.26820654296875,-1.7563318014144897,-10.061819076538086,-2.0243279933929443
1775728234308735000,13.28673486328125,0.5886343717575073,-9.93260669708252,-1.4380863904953003
1775728234327263700,13.305263671875,2.691925525665283,-10.226923942565918,-2.091326951980591
1775728234345792500,13.32379248046875,3.4025938510894775,-10.06421184539795,-2.3569302558898926
1775728234364321000,13.342321044921874,3.280559778213501,-9.724431037902832,-2.306680917739868
1775728234382849800,13.360849853515624,3.572484254837036,-10.04267692565918,-2.9479575157165527
1775728234401378600,13.379378662109374,3.510270833969116,-9.422935485839844,-3.2063822746276855
1775728234419907000,13.397906982421874,2.6297121047973633,-8.776873588562012,-2.5124638080596924
1775728234438435800,13.416435791015624,2.038684844970703,-7.934599876403809,-1.2131611108779907
1775728234456964600,13.434964599609375,2.4263222217559814,-7.75753116607666,-0.15553347766399384
1775728234475493000,13.4534931640625,2.8737800121307373,-7.343572616577148,-0.2679961323738098
1775728234494022000,13.47202197265625,2.9766714572906494,-7.04207706451416,-0.8159525394439697
1775728234512550700,13.490550537109375,3.146561861038208,-7.566105365753174,-2.0793628692626953
1775728234531079200,13.5090791015625,2.9599215984344482,-8.74337387084961,-3.4002010822296143
1775728234549608000,13.52760791015625,1.7156537771224976,-9.738788604736328,-4.9052863121032715
1775728234568136700,13.54613671875,0.9260223507881165,-10.03310489654541,-5.3312087059021
1775728234586665200,13.564665283203125,1.8759729862213135,-9.748359680175781,-5.79780912399292
1775728234605194000,13.583194091796875,3.4408788681030273,-8.999405860900879,-5.821737289428711
1775728234623722500,13.601722412109375,3.8668015003204346,-8.470592498779297,-4.225724697113037
1775728234642251300,13.620251220703125,2.7014968395233154,-8.240880966186523,-3.108276605606079
1775728234660780000,13.638780029296875,1.8616160154342651,-7.963313579559326,-2.6392834186553955
1775728234679308500,13.65730859375,2.416750907897949,-7.692924976348877,-2.9001009464263916
1775728234697837300,13.67583740234375,3.6634113788604736,-7.558926582336426,-3.014956474304199
1775728234716366000,13.694365966796875,4.761716842651367,-7.740781307220459,-2.438286304473877
1775728234734894600,13.71289453125,4.541577339172363,-8.056633949279785,-3.129812002182007
1775728234753423400,13.73142333984375,3.9696927070617676,-7.956135272979736,-3.735196113586426
1775728234771951900,13.749951904296875,4.436293125152588,-8.142775535583496,-3.342773199081421
1775728234790480600,13.768480712890625,4.907679080963135,-8.34855842590332,-3.2590243816375732
1775728234809009400,13.787009521484375,5.54177713394165,-8.382058143615723,-3.7423746585845947
1775728234827538000,13.805537841796875,6.654439926147461,-8.571090698242188,-4.115654945373535
1775728234846066700,13.824066650390625,6.120840549468994,-8.817551612854004,-4.216153621673584
1775728234864595500,13.842595458984375,5.556134223937988,-8.772088050842285,-3.9936211109161377
1775728234883124000,13.8611240234375,6.3122663497924805,-9.047262191772461,-4.280759811401367
1775728234901652700,13.87965283203125,4.340580463409424,-9.657432556152344,-4.754538536071777
1775728234920181200,13.89818115234375,1.2705888748168945,-9.820143699645996,-3.0173492431640625
1775728234938710000,13.9167099609375,-1.4333007335662842,-9.56889820098877,-1.3543375730514526
1775728234957238800,13.93523876953125,-1.0097711086273193,-8.118846893310547,-0.4737788736820221
1775728234975767300,13.953767333984375,2.2085752487182617,-8.310273170471191,-0.33738797903060913
1775728234994296000,13.972296142578125,4.029513359069824,-8.389236450195312,-1.1054840087890625
1775728235012824800,13.990824951171875,3.665804386138916,-9.248259544372559,-2.4598217010498047
1775728235031353300,14.009353271484375,3.1824541091918945,-9.743574142456055,-3.22552490234375
1775728235049882000,14.027882080078125,2.3186452388763428,-9.332008361816406,-3.4576287269592285
1775728235068411000,14.046410888671875,1.576870083808899,-9.233902931213379,-3.90987229347229
1775728235086939400,14.064939453125,1.3591232299804688,-9.738788604736328,-4.204189300537109
1775728235105468200,14.08346826171875,1.8352949619293213,-9.573683738708496,-4.230510234832764
1775728235123997000,14.101996826171876,1.9214365482330322,-9.109476089477539,-4.802394866943359
1775728235142525400,14.120525390625,1.2538390159606934,-9.329615592956543,-5.264209747314453
1775728235161054200,14.13905419921875,1.7084753513336182,-9.166903495788574,-3.902693748474121
1775728235179583000,14.1575830078125,3.3619158267974854,-8.934800148010254,-2.912065267562866
1775728235198111500,14.176111572265626,3.759124279022217,-8.559126853942871,-3.0723843574523926
1775728235216640300,14.19464013671875,2.744567632675171,-8.398807525634766,-3.775874137878418
1775728235235168800,14.213168701171876,2.1511476039886475,-8.374878883361816,-4.316651821136475
1775728235253697500,14.231697509765626,1.8376877307891846,-8.518448829650879,-4.316651821136475
1775728235272226300,14.250226318359376,2.469393014907837,-8.642875671386719,-3.759124279022217
1775728235290754800,14.2687548828125,3.0723843574523926,-8.614161491394043,-3.2518460750579834
1775728235309283600,14.28728369140625,3.3954153060913086,-8.606983184814453,-3.2757742404937744
1775728235327812400,14.305812255859376,3.783052682876587,-8.609375953674316,-2.833101987838745
1775728235346340900,14.3243408203125,3.3858439922332764,-8.403593063354492,-2.4813570976257324
1775728235364869600,14.34286962890625,2.3880369663238525,-9.001798629760742,-2.981456995010376
1775728235383398400,14.3613984375,1.576870083808899,-9.324830055236816,-3.4576287269592285
1775728235401927000,14.379927001953124,2.043470621109009,-9.456435203552246,-3.1896326541900635
1775728235420455700,14.39845556640625,2.5076780319213867,-9.631111145019531,-3.3858439922332764
1775728235438984400,14.416984375,2.1367905139923096,-9.176474571228027,-3.3403804302215576
1775728235457513000,14.435512939453124,2.4526431560516357,-8.709874153137207,-3.0245277881622314
1775728235476041700,14.454041748046874,2.785245656967163,-8.264809608459473,-2.7182464599609375
1775728235494570500,14.472570556640624,2.6847469806671143,-8.48016357421875,-3.1585259437561035
1775728235513099000,14.49109912109375,2.4598217010498047,-8.9850492477417,-3.153740167617798
1775728235531627800,14.509627685546874,3.273381471633911,-8.796015739440918,-2.4813570976257324
1775728235550156500,14.528156494140624,4.041477680206299,-8.695517539978027,-2.469393014907837
1775728235568685000,14.54668505859375,3.9361932277679443,-8.784051895141602,-2.3880369663238525
1775728235587213800,14.5652138671875,3.4743785858154297,-8.673981666564941,-1.9716858863830566
1775728235605742600,14.58374267578125,2.912065267562866,-9.001798629760742,-1.832902193069458
1775728235624271000,14.60227099609375,2.66560435295105,-9.068798065185547,-2.5435705184936523
1775728235642799900,14.6207998046875,3.2303106784820557,-9.279366493225098,-2.957528829574585
1775728235661328400,14.639328369140625,3.6155550479888916,-8.93240737915039,-2.644068956375122
1775728235679857200,14.657857177734375,4.110869407653809,-8.647661209106445,-2.3880369663238525
1775728235698386000,14.676385986328125,4.091726779937744,-8.788837432861328,-2.2444677352905273
1775728235716914400,14.69491455078125,3.8333017826080322,-8.85344409942627,-2.7804598808288574
1775728235735443200,14.713443115234375,3.704089403152466,-8.846264839172363,-2.830709218978882
1775728235753972000,14.731971923828125,3.0723843574523926,-9.19561767578125,-2.768495798110962
1775728235772500500,14.75050048828125,2.6249263286590576,-9.214759826660156,-2.8354947566986084
1775728235791029200,14.769029296875,3.153740167617798,-8.922835350036621,-2.6464617252349854
1775728235809558000,14.78755810546875,3.541377544403076,-8.551948547363281,-2.768495798110962
1775728235828086500,14.80608642578125,3.3332018852233887,-8.415556907653809,-2.6799614429473877
1775728235846615300,14.824615234375,2.785245656967163,-8.714659690856934,-2.0554347038269043
1775728235865144000,14.84314404296875,2.03629207611084,-9.243474006652832,-2.093719720840454
1775728235883672600,14.861672607421875,2.0410776138305664,-9.399007797241211,-2.761317253112793
1775728235902201300,14.880201416015625,2.4430718421936035,-9.33440113067627,-2.9216363430023193
1775728235920729900,14.898729736328125,3.290131092071533,-9.09990406036377,-2.227717876434326
1775728235939258600,14.917258544921875,3.3714871406555176,-8.870193481445312,-1.648654818534851
1775728235957787400,14.935787353515625,3.211168050765991,-9.1716890335083,-2.3018953800201416
1775728235976316000,14.95431591796875,2.524427890777588,-9.286544799804688,-2.6632115840911865
1775728235994844700,14.9728447265625,2.4406790733337402,-9.279366493225098,-2.9599215984344482
1775728236013373400,14.99137353515625,3.129812002182007,-8.685946464538574,-2.313859462738037
1775728236031902000,15.00990185546875,3.3643085956573486,-8.896514892578125,-2.493321180343628
1775728236050430700,15.0284306640625,2.6081767082214355,-9.166903495788574,-2.7326035499572754
1775728236068959500,15.04695947265625,1.9836499691009521,-9.073583602905273,-2.392822742462158
1775728236087488000,15.065488037109375,2.3712873458862305,-9.09272575378418,-2.9359934329986572
1775728236106016800,15.084016845703125,2.833101987838745,-8.903693199157715,-2.861815929412842
1775728236124545500,15.102545654296875,2.691925525665283,-8.872586250305176,-2.5770699977874756
1775728236143074000,15.121073974609375,2.242074728012085,-9.080761909484863,-2.4670002460479736
1775728236161602800,15.139602783203125,2.282752752304077,-9.090332984924316,-2.2923240661621094
1775728236180131600,15.158131591796876,2.423929452896118,-9.274580955505371,-2.854637384414673
1775728236198660000,15.17666015625,2.8115665912628174,-9.013762474060059,-2.4526431560516357
1775728236217188900,15.19518896484375,3.0101709365844727,-8.994620323181152,-2.0099709033966064
1775728236235717400,15.21371728515625,0.5838487148284912,-9.07119083404541,-2.0195422172546387
1775728236254246100,15.23224609375,2.562713146209717,-8.95394229888916,-2.2396819591522217
1775728236272775000,15.25077490234375,3.706482172012329,-9.133403778076172,-2.423929452896118
1775728236291303400,15.269303466796876,4.012763500213623,-9.480362892150879,-3.2685956954956055
1775728236309832200,15.287832275390626,3.390629768371582,-9.41336441040039,-3.1345977783203125
1775728236328361000,15.30636083984375,3.3882367610931396,-8.93240737915039,-1.8687944412231445
1775728236346889500,15.324889404296876,1.6965112686157227,-9.269794464111328,-2.194218397140503
1775728236365418200,15.343418212890626,1.5649060010910034,-9.56889820098877,-3.0077781677246094
1775728236383946800,15.36194677734375,3.091526746749878,-8.994620323181152,-2.2779672145843506
1775728236402475500,15.3804755859375,3.0412776470184326,-8.71226692199707,-2.342573404312134
1775728236421004300,15.39900439453125,2.9958138465881348,-8.647661209106445,-2.359323024749756
1775728236439532800,15.41753271484375,2.806781053543091,-8.841479301452637,-1.7228323221206665
1775728236458061600,15.4360615234375,2.3617160320281982,-9.104690551757812,-2.304288148880005
1775728236476590300,15.45459033203125,2.297109842300415,-9.061619758605957,-2.7493531703948975
1775728236495118800,15.473118896484374,2.699103832244873,-8.884550094604492,-3.0867412090301514
1775728236513647600,15.491647705078124,3.383451223373413,-8.908478736877441,-2.7804598808288574
1775728236532176400,15.51017626953125,2.770888566970825,-8.987442016601562,-2.6608188152313232
1775728236550705000,15.528704833984374,2.830709218978882,-9.004191398620605,-2.644068956375122
1775728236569233700,15.547233642578124,2.825923442840576,-8.982656478881836,-2.526820659637451
1775728236587762400,15.565762451171874,2.6632115840911865,-9.056833267211914,-2.60339093208313
1775728236606291000,15.584291015625,2.7637102603912354,-9.157332420349121,-2.3808584213256836
1775728236624819700,15.60281982421875,3.2374889850616455,-9.061619758605957,-2.1415762901306152
1775728236643348200,15.62134814453125,3.625126361846924,-8.848658561706543,-2.541177749633789
1775728236661877000,15.639876953125,3.9290146827697754,-8.791230201721191,-2.8689942359924316
1775728236680405800,15.65840576171875,4.000799655914307,-8.927620887756348,-2.8833513259887695
1775728236698934300,15.676934326171875,3.799802303314209,-9.075976371765137,-2.9766714572906494
1775728236717463000,15.695463134765625,3.792623996734619,-8.889336585998535,-3.1561331748962402
1775728236735991800,15.71399169921875,3.871587038040161,-8.812766075134277,-3.3619158267974854
1775728236754520300,15.732520263671875,3.9792640209198,-9.018548965454102,-3.1250264644622803
1775728236773049000,15.751049072265625,4.108476638793945,-9.104690551757812,-2.8809585571289062
1775728236791577600,15.76957763671875,4.874179840087891,-8.786444664001465,-3.16331148147583
1775728236810106400,15.7881064453125,5.8959150314331055,-8.666803359985352,-3.4265220165252686
1775728236828635100,15.80663525390625,6.424728870391846,-8.803194046020508,-3.304488182067871
1775728236847163600,15.82516357421875,6.372086524963379,-9.422935485839844,-3.177668571472168
1775728236865692400,15.8436923828125,6.123233318328857,-9.7005033493042,-3.2207393646240234
1775728236884221200,15.86222119140625,6.412764549255371,-9.903892517089844,-3.0029923915863037
1775728236902749700,15.880749755859375,5.544169902801514,-9.640682220458984,-2.8450660705566406
1775728236921278500,15.899278564453125,2.792423963546753,-8.188239097595215,-2.3545374870300293
1775728236939807000,15.917806884765625,0.7441678643226624,-7.798209190368652,-3.3403804302215576
1775728236958335700,15.936335693359375,0.7680960893630981,-7.645068168640137,-3.4983067512512207
1775728236976864500,15.954864501953125,2.225325107574463,-7.891529083251953,-2.531606435775757
1775728236995393000,15.97339306640625,2.0961127281188965,-7.618747234344482,-0.4498506486415863
1775728237013921800,15.991921875,2.447857618331909,-7.326822757720947,0.02392822690308094
1775728237032450300,16.0104501953125,3.1968109607696533,-7.015756130218506,-1.3040883541107178
1775728237050979000,16.02897900390625,3.972085475921631,-6.903293132781982,-2.7517459392547607
1775728237069507800,16.0475078125,4.304687976837158,-6.735795974731445,-2.998206853866577
1775728237088036400,16.066036376953125,3.8524444103240967,-7.018148899078369,-2.8809585571289062
1775728237106565000,16.084565185546875,3.249453067779541,-6.994220733642578,-2.7038896083831787
1775728237125093600,16.10309375,3.603590965270996,-7.058826923370361,-2.0817556381225586
1775728237143622400,16.121622314453123,4.991427898406982,-7.377072334289551,-1.6869399547576904
1775728237162151200,16.140151123046873,6.929614543914795,-7.149754047393799,-2.3473589420318604
1775728237180679700,16.1586796875,8.178668022155762,-7.64028263092041,-3.304488182067871
1775728237199208400,16.17720849609375,7.499105930328369,-8.477770805358887,-3.996013879776001
1775728237217737000,16.195737060546875,5.831308841705322,-8.575876235961914,-4.0319061279296875
1775728237236265700,16.214265625,4.613361835479736,-7.903493404388428,-3.1178479194641113
1775728237254794500,16.23279443359375,5.544169902801514,-6.798008918762207,-2.7589244842529297
1775728237273323000,16.251322998046874,7.460821151733398,-7.429714202880859,-2.541177749633789
1775728237291851800,16.269851806640624,7.405786037445068,-8.568697929382324,-1.8424733877182007
1775728237310380300,16.28838037109375,2.610569477081299,-9.66221809387207,-1.4715858697891235
1775728237328909000,16.306908935546875,-1.5026925802230835,-11.052447319030762,-2.306680917739868
1775728237347437800,16.325437744140626,-1.179661512374878,-10.882556915283203,-3.3643085956573486
1775728237365966300,16.34396630859375,2.3976082801818848,-9.865608215332031,-3.0317063331604004
1775728237384495000,16.3624951171875,4.314259052276611,-9.047262191772461,-0.9212366938591003
1775728237403023600,16.381023681640624,3.996013879776001,-9.633503913879395,-0.794417142868042
1775728237421552400,16.399552490234374,0.4785645306110382,-9.516255378723145,-2.833101987838745
1775728237440081000,16.418080810546876,-0.4019941985607147,-9.233902931213379,-3.5150563716888428
1775728237458609700,16.436609619140626,1.9334007501602173,-8.405985832214355,-2.610569477081299
1775728237477138400,16.455138427734376,3.730410575866699,-7.853243827819824,-2.390429735183716
1775728237495667000,16.4736669921875,3.964907169342041,-8.760123252868652,-3.4002010822296143
1775728237514195700,16.49219580078125,2.1846470832824707,-9.492327690124512,-3.8117663860321045
1775728237532724200,16.51072412109375,1.8951154947280884,-9.267401695251465,-3.6370904445648193
1775728237551253000,16.5292529296875,2.517249345779419,-8.839086532592773,-3.996013879776001
1775728237569781800,16.54778173828125,2.8977081775665283,-8.542376518249512,-4.328616142272949
1775728237588310300,16.566310302734376,2.9359934329986572,-8.374878883361816,-4.46979284286499
1775728237606839000,16.584839111328126,3.3379876613616943,-8.7505521774292,-4.113262176513672
1775728237625367600,16.603367431640624,3.098705291748047,-8.147561073303223,-3.9290146827697754
1775728237643896300,16.621896240234374,3.8979079723358154,-7.4847493171691895,-3.7734813690185547
1775728237662425000,16.640425048828124,4.967499732971191,-7.302894592285156,-3.8428730964660645
1775728237690218000,16.668218017578123,3.2829527854919434,-7.518248558044434,-3.0245277881622314
1775728237708746500,16.68674658203125,2.871387243270874,-6.398407936096191,-2.9479575157165527
1775728237727275300,16.705275146484375,3.9457645416259766,-5.8959150314331055,-4.304687976837158
1775728237745804000,16.723803955078125,5.2977094650268555,-6.118447303771973,-4.1491546630859375
1775728237764332500,16.74233251953125,3.895515203475952,-5.362315654754639,-2.6392834186553955
1775728237782861300,16.760861328125,0.6699903607368469,-5.5106706619262695,-1.8448662757873535
1775728237801389800,16.779389892578124,0.8638089895248413,-4.886143684387207,-1.892722725868225
1775728237819918600,16.797918701171874,2.6368906497955322,-4.823930263519287,-2.5746772289276123
1775728237838447000,16.816447021484375,2.4358935356140137,-5.548955917358398,-1.679761528968811
1775728237856976000,16.834975830078125,3.263810157775879,-6.262016773223877,-0.2153540402650833
1775728237875504600,16.853504638671875,4.199403762817383,-7.733603000640869,-0.698704183101654
1775728237894033200,16.872033203125,5.340780258178711,-8.059026718139648,-3.4576287269592285
1775728237912561700,16.890561767578124,3.7160534858703613,-9.480362892150879,-6.752545356750488
1775728237931090400,16.90909033203125,5.185246467590332,-8.221738815307617,-5.422136306762695
1775728237949619200,16.927619140625,13.88794231414795,-10.15753173828125,-2.469393014907837
1775728237968147700,16.946147705078126,14.567503929138184,-15.438491821289062,-3.2303106784820557
1775728237986676500,16.964676513671876,6.9104719161987305,-15.026926040649414,-7.599604606628418
1775728238005205200,16.983205322265626,2.6297121047973633,-14.009976387023926,-10.313065528869629
1775728238023733800,17.001733642578124,2.1511476039886475,-14.378471374511719,-6.628118515014648
1775728238042262500,17.020262451171874,-0.7345965504646301,-12.868599891662598,-1.0671988725662231
1775728238060791000,17.038791015625,0.11006984114646912,-8.441878318786621,0.973878800868988
1775728238079319800,17.05731982421875,4.560719966888428,-5.161318302154541,0.8709874153137207
1775728238097848300,17.075848388671876,5.410171985626221,-4.675575256347656,2.9455647468566895
1775728238116377000,17.094377197265626,2.878565549850464,-5.7619171142578125,3.735196113586426
1775728238134905600,17.112905517578124,0.2560320198535919,-8.413164138793945,1.1389836072921753
1775728238153434400,17.131434326171874,-1.3208380937576294,-8.327022552490234,-2.2779672145843506
1775728238171963000,17.149962890625,0.5240281820297241,-6.463014125823975,-3.421736478805542
1775728238190491600,17.16849169921875,3.6442689895629883,-4.364508628845215,-2.7828526496887207
1775728238209020200,17.187020263671876,5.3934221267700195,-3.098705291748047,-0.47617170214653015
1775728238227549000,17.205548828125,6.240481376647949,-2.526820659637451,1.552941918373108
1775728238246077700,17.22407763671875,7.463213920593262,-2.837887763977051,1.1892328262329102
1775728238264606200,17.242606201171874,6.955935478210449,-4.101297855377197,-0.8949156403541565
1775728238283135000,17.261135009765624,4.677968502044678,-4.744967460632324,-3.838087558746338
1775728238301663500,17.27966357421875,2.4909284114837646,-6.558726787567139,-5.8097734451293945
1775728238320192300,17.298192138671876,2.5938198566436768,-6.417550563812256,-5.812166213989258
1775728238338720800,17.316720703125,5.529813289642334,-6.369693756103516,-6.025127410888672
1775728238357249500,17.33524951171875,7.795815944671631,-7.999206066131592,-6.034698486328125
1775728238375778000,17.353778076171874,7.795815944671631,-8.752944946289062,-4.340580463409424
1775728238394306800,17.372306884765624,8.26241683959961,-9.561718940734863,-2.445464849472046
1775728238412835300,17.39083544921875,6.276373863220215,-12.260823249816895,-3.5198421478271484
1775728238431364000,17.409364013671876,-0.2727817893028259,-14.244473457336426,-5.357530117034912
1775728238449892600,17.427892578125,-4.18983268737793,-14.914463996887207,-6.204588890075684
1775728238468421400,17.44642138671875,6.25723123550415,-15.206387519836426,-5.197210788726807
1775728238486950100,17.4649501953125,12.648460388183594,-17.276180267333984,-4.7401814460754395
1775728238505478700,17.483478759765624,3.328416347503662,-15.349957466125488,-2.768495798110962
1775728238524007400,17.50200732421875,-2.902493953704834,-14.955141067504883,-3.4911282062530518
1775728238542536000,17.520535888671876,-7.707281589508057,-12.988241195678711,-3.6227335929870605
1775728238561064700,17.539064697265626,-2.4095723628997803,-9.729216575622559,-1.9381862878799438
1775728238579593200,17.55759326171875,8.894122123718262,-9.355937004089355,-0.9786644577980042
1775728238598122000,17.5761220703125,7.542177200317383,-9.454042434692383,-1.5649060010910034
1775728238616650500,17.594650390625,0.6819544434547424,-8.267202377319336,-2.6297121047973633
1775728238635179300,17.61317919921875,0.5599204897880554,-8.118846893310547,-4.019941806793213
1775728238653707800,17.631707763671876,3.407379388809204,-7.010970115661621,-3.4025938510894775
1775728238672236500,17.650236572265626,5.254638671875,-5.099104881286621,-2.4095723628997803
1775728238690765000,17.66876513671875,5.651846885681152,-5.4173502922058105,-2.7182464599609375
1775728238709293800,17.6872939453125,4.252045631408691,-5.5034918785095215,-2.1415762901306152
1775728238727822300,17.705822265625,4.01037073135376,-5.096712112426758,-1.5649060010910034
1775728238746351000,17.72435107421875,2.1367905139923096,-6.192625045776367,-2.895315408706665
1775728238764879600,17.742879638671877,2.9862427711486816,-6.45822811126709,-3.524627685546875
1775728238783408400,17.761408447265627,4.185046672821045,-6.5491557121276855,-3.1728827953338623
1775728238801937000,17.77993701171875,4.2209391593933105,-7.331608772277832,-2.2133610248565674
1775728238820465700,17.798465576171875,5.120640277862549,-6.7932233810424805,-1.3112667798995972
1775728238838994200,17.816994140625,5.804987907409668,-7.69531774520874,-1.6606189012527466
1775728238857523000,17.83552294921875,3.9074792861938477,-9.650253295898438,-4.201796531677246
1775728238876051500,17.854051513671877,7.494320392608643,-7.267002582550049,-5.31685209274292
1775728238894580200,17.872580322265627,11.365907669067383,-13.39980697631836,-5.714060306549072
1775728238913108700,17.891108642578125,6.0777692794799805,-14.151153564453125,-3.8285162448883057
1775728238931637500,17.909637451171875,3.5676984786987305,-13.926227569580078,-3.9840497970581055
1775728238950166000,17.928166015625,4.398007869720459,-14.09133243560791,-6.2428741455078125
1775728238968694800,17.94669482421875,5.20678186416626,-14.68235969543457,-6.640082836151123
1775728238987223300,17.965223388671873,3.4552359580993652,-14.514862060546875,-5.584847927093506
1775728239005752000,17.983751953125,0.9619147181510925,-11.045269012451172,-4.651647090911865
1775728239024280600,18.002280517578125,1.5720844268798828,-7.403393268585205,-3.074777126312256
1775728239042809300,18.020809326171875,2.9934210777282715,-5.381458282470703,-0.7082754969596863
1775728239061337900,18.039337890625,1.9836499691009521,-5.319244861602783,2.043470621109009
1775728239079866600,18.05786669921875,0.7800601720809937,-5.60399055480957,4.084548473358154
1775728239098395100,18.07639501953125,0.11485548317432404,-6.087340831756592,2.416750907897949
1775728239116924000,18.094923828125,0.18903298676013947,-5.994020938873291,-0.2512463629245758
1775728239135452400,18.113452392578125,1.3854442834854126,-4.8502516746521,-0.8159525394439697
1775728239153981200,18.131981201171875,2.9790642261505127,-4.022335052490234,-0.7250252366065979
1775728239172509700,18.150509765625,3.9840497970581055,-3.548556089401245,-0.5096712112426758
1775728239191038500,18.16903857421875,4.429114818572998,-2.9216363430023193,0.5288137793540955
1775728239209566700,18.187566650390625,5.072783946990967,-2.964707374572754,1.4524433612823486
1775728239228095500,18.206095458984375,5.678168296813965,-4.122833251953125,0.064606212079525
1775728239246624300,18.224624267578125,6.98704195022583,-5.1182475090026855,-2.792423963546753
1775728239265152800,18.24315283203125,7.118647575378418,-6.2500529289245605,-5.489135265350342
1775728239283681500,18.261681640625,5.838487148284912,-6.7310099601745605,-6.51326322555542
1775728239302210000,18.2802099609375,5.077569484710693,-8.212167739868164,-6.69990348815918
1775728239320738800,18.29873876953125,4.668396949768066,-8.683553695678711,-5.965306758880615
1775728239339267300,18.317267333984375,5.989234924316406,-7.939385414123535,-5.20678186416626
1775728239357796000,18.335796142578126,14.09133243560791,-8.37727165222168,-3.9864425659179688
1775728239376324600,18.35432470703125,11.985648155212402,-13.84247875213623,-4.201796531677246
1775728239394853400,18.372853271484374,-4.034298896789551,-15.034104347229004,-4.661218643188477
1775728239413382000,18.3913818359375,-12.533604621887207,-14.524433135986328,-3.25663161277771
1775728239431910700,18.40991064453125,-2.163111686706543,-14.062618255615234,-0.4618147611618042
1775728239450439200,18.428439208984376,4.9363932609558105,-14.366507530212402,-3.122633457183838
1775728239468968000,18.446968017578126,18.546768188476562,-12.897314071655273,-1.5936198234558105
1775728239487496400,18.465496337890624,11.973684310913086,-16.838293075561523,-2.2396819591522217
1775728239506025000,18.48402490234375,-7.121040344238281,-15.584453582763672,-2.60339093208313
1775728239524553700,18.5025537109375,-8.989834785461426,-14.727823257446289,-4.685146808624268
1775728239543082200,18.521082275390626,-1.2418749332427979,-10.8969144821167,-5.407779216766357
1775728239561611000,18.539611083984376,6.479763507843018,-9.339186668395996,-4.706682205200195
1775728239580139500,18.558139404296874,7.5804619789123535,-7.740781307220459,-2.981456995010376
1775728239598668300,18.576668212890624,3.7160534858703613,-7.077969551086426,-1.5553346872329712
1775728239617196800,18.59519677734375,1.6869399547576904,-6.742974281311035,-0.8542376756668091
1775728239635725300,18.613725341796876,2.909672260284424,-5.618347644805908,-2.242074728012085
1775728239654254000,18.632254150390626,5.276174068450928,-5.735595703125,-4.043870449066162
1775728239672782600,18.650782470703124,5.60399055480957,-6.300302028656006,-4.1491546630859375
1775728239691311400,18.669311279296874,3.9433717727661133,-5.563312530517578,-3.460021495819092
1775728239709840000,18.68783984375,1.9980069398880005,-5.804987907409668,-3.78544545173645
1775728239728368600,18.70636865234375,0.8303094506263733,-5.781059741973877,-3.5030922889709473
1775728239746897200,18.724897216796876,3.263810157775879,-5.101497650146484,-3.1968109607696533
1775728239765426000,18.743426025390626,5.407779216766357,-4.996213912963867,-3.735196113586426
1775728239783954400,18.761954345703124,5.465207099914551,-6.092126369476318,-4.012763500213623
1775728239802483000,18.78048291015625,2.266003131866455,-6.226124286651611,-2.423929452896118
1775728239821011700,18.79901171875,3.1752755641937256,-8.09252643585205,-2.043470621109009
1775728239848804600,18.8268046875,5.259424209594727,-9.45882797241211,-3.9290146827697754
1775728239867333000,18.8453330078125,8.059026718139648,-11.064412117004395,-4.086941242218018
1775728239885862000,18.86386181640625,8.678768157958984,-12.89492130279541,-3.8524444103240967
1775728239904390400,18.882390380859373,11.516654968261719,-13.63908863067627,-4.1036906242370605
1775728239922919200,18.900919189453123,11.468798637390137,-17.022541046142578,-4.924428939819336
1775728239941447700,18.91944775390625,5.520241737365723,-18.307485580444336,-6.128018856048584
1775728239959976400,18.9379765625,2.0506489276885986,-14.751751899719238,-8.056633949279785
1775728239978505000,18.9565048828125,0.5670989751815796,-12.88056468963623,-7.5565338134765625
1775728239997033500,18.975033447265623,-0.2679961323738098,-10.279565811157227,-4.244867324829102
1775728240015562200,18.993562255859374,0.5120640397071838,-7.786244869232178,0.20338992774486542
1775728240034090800,19.0120908203125,2.1678972244262695,-6.331408500671387,2.8929226398468018
1775728240052619500,19.03061962890625,2.7900311946868896,-5.410171985626221,2.6225335597991943
1775728240071148000,19.04914794921875,1.9716858863830566,-4.965106964111328,0.6221339106559753
1775728240089676500,19.067676513671874,0.30149564146995544,-5.249852657318115,-0.8279166221618652
1775728240108205300,19.086205322265624,-1.2011969089508057,-5.2283172607421875,-0.5838487148284912
1775728240126733800,19.10473388671875,-1.5792629718780518,-4.512863636016846,-0.31106695532798767
1775728240145262600,19.1232626953125,-0.11006984114646912,-3.414557933807373,-0.11724831163883209
1775728240163791000,19.141791015625,1.730010747909546,-2.878565549850464,0.24167509377002716
1775728240182319900,19.16031982421875,2.8115665912628174,-2.8977081775665283,1.0887342691421509
1775728240200848400,19.178848388671874,4.223331928253174,-3.019742250442505,1.4213366508483887
1775728240219377000,19.197376953125,5.5345988273620605,-3.2757742404937744,0.4450650215148926
1775728240237905700,19.21590576171875,6.625725746154785,-3.933800458908081,-1.950150489807129
1775728240256434200,19.23443408203125,7.4464640617370605,-5.654240131378174,-4.625326156616211
1775728240274963000,19.252962890625,6.465406894683838,-7.549355506896973,-5.663811206817627
1775728240293491500,19.271491455078124,6.891329288482666,-8.482556343078613,-6.151947021484375
1775728240312020000,19.29002001953125,7.767102241516113,-8.398807525634766,-5.982056617736816
1775728240330548700,19.308548828125,8.303094863891602,-8.336593627929688,-5.288137912750244
1775728240349077200,19.3270771484375,10.092926025390625,-8.891729354858398,-2.9551360607147217
1775728240367606000,19.34560595703125,11.389835357666016,-13.643875122070312,-2.8450660705566406
1775728240386134500,19.364134521484374,1.8137595653533936,-17.079967498779297,-3.9529430866241455
1775728240404663000,19.3826630859375,-7.724031448364258,-17.04646873474121,-5.087141036987305
1775728240423191800,19.40119189453125,-4.35254430770874,-15.462419509887695,-4.914857864379883
1775728240441720300,19.41972021484375,-0.2584248483181,-13.96690559387207,-6.5419769287109375
1775728240460249000,19.4382490234375,7.154539585113525,-12.820743560791016,-4.893322467803955
1775728240478777600,19.456777587890624,12.459427833557129,-14.892928123474121,-3.0891339778900146
1775728240497306000,19.47530615234375,1.2993026971817017,-14.646467208862305,-1.1581261157989502
1775728240515835000,19.4938349609375,-5.276174068450928,-12.837493896484375,-1.8807586431503296
1775728240534363400,19.51236328125,-3.31884503364563,-11.889935493469238,-3.8356947898864746
1775728240552892200,19.53089208984375,2.8354947566986084,-9.389435768127441,-2.778067111968994
1775728240571420700,19.549420654296874,7.125825881958008,-7.207181930541992,-1.3304094076156616
1775728240589949400,19.567949462890624,5.063212871551514,-7.57806921005249,-2.612962245941162
1775728240608478000,19.58647802734375,2.3258235454559326,-7.317251682281494,-3.4815568923950195
1775728240627006500,19.60500634765625,3.177668571472168,-6.501298904418945,-4.2592244148254395
1775728240645535200,19.62353515625,4.192225456237793,-6.2428741455078125,-4.926821708679199
1775728240664063700,19.642063720703124,3.7974095344543457,-5.618347644805908,-4.8574299812316895
1775728240682592500,19.660592529296874,3.7232320308685303,-4.9292144775390625,-4.185046672821045
1775728240701121000,19.67912109375,3.3690943717956543,-5.4173502922058105,-3.266202926635742
1775728240719649500,19.6976494140625,2.438286304473877,-4.996213912963867,-2.6057839393615723
1775728240738178300,19.71617822265625,2.273181438446045,-4.419543266296387,-2.225325107574463
1775728240756706800,19.734706787109374,2.2468605041503906,-6.857829570770264,-3.4169507026672363
1775728240775235600,19.753235595703124,0.9882357716560364,-5.3455657958984375,-3.972085475921631
1775728240793764000,19.77176416015625,3.840480327606201,-4.6995038986206055,-4.213760852813721
1775728240812292600,19.790292724609376,6.094519138336182,-6.606583118438721,-3.9768712520599365
1775728240830821400,19.8088212890625,6.199803352355957,-7.09711217880249,-3.005385160446167
1775728240849350000,19.827349853515624,6.97268533706665,-9.623932838439941,-3.084348440170288
1775728240867878700,19.845878662109374,5.101497650146484,-12.358928680419922,-3.0556344985961914
1775728240886407200,19.8644072265625,7.731209754943848,-11.198410034179688,-3.314059257507324
1775728240904936000,19.88293603515625,13.569697380065918,-15.04128360748291,-6.553941249847412
1775728240923464400,19.90146435546875,8.279166221618652,-20.176280975341797,-8.530412673950195
1775728240941993000,19.919992919921874,1.8376877307891846,-17.359928131103516,-7.317251682281494
1775728240960521700,19.938521728515624,0.19621145725250244,-15.115460395812988,-6.369693756103516
1775728240979050200,19.95705029296875,-0.4043870270252228,-12.978670120239258,-6.008377552032471
1775728240997579000,19.9755791015625,-0.9332008361816406,-10.05703353881836,-3.572484254837036
1775728241016107500,19.994107421875,0.9475577473640442,-6.453442573547363,0.9475577473640442
1775728241034636300,20.01263623046875,1.9381862878799438,-4.694717884063721,4.625326156616211
1775728241053164800,20.031164794921875,1.9621145725250244,-3.7016966342926025,4.7712883949279785
1775728241071693300,20.049693359375,1.1772687435150146,-4.156332969665527,2.0506489276885986
1775728241090222000,20.06822216796875,-0.2560320198535919,-4.673182487487793,-0.9643075466156006
1775728241108750600,20.08675048828125,-0.2799602448940277,-4.871787071228027,-2.416750907897949
1775728241127279400,20.105279296875,1.1653046607971191,-4.445864677429199,-1.8616160154342651
1775728241145808000,20.123807861328125,2.0985054969787598,-4.01037073135376,-0.42352959513664246
1775728241164336600,20.142336669921875,2.179861545562744,-4.287938117980957,-0.07178468257188797
1775728241182865200,20.160865234375,3.084348440170288,-4.934000492095947,-1.0121639966964722
1775728241201393700,20.1793935546875,5.340780258178711,-5.292923450469971,-2.4765713214874268
1775728241219922400,20.19792236328125,7.381857872009277,-5.376672267913818,-3.8333017826080322
1775728241238451000,20.216450927734375,8.432307243347168,-5.146961688995361,-3.94815731048584
1775728241256979700,20.234979736328125,7.77188777923584,-4.776073932647705,-2.7278177738189697
1775728241275508200,20.25350830078125,6.080162525177002,-5.879165172576904,-1.6917256116867065
1775728241294036700,20.27203662109375,3.81655216217041,-6.888936519622803,-2.447857618331909
1775728241312565500,20.2905654296875,4.835894584655762,-7.968099594116211,-3.208775281906128
1775728241331094000,20.309093994140625,9.226723670959473,-9.868000984191895,-2.249253273010254
1775728241349622800,20.327622802734375,9.346364974975586,-12.713067054748535,-4.402793884277344
1775728241368151600,20.346151611328125,-3.586841106414795,-15.986448287963867,-6.003592014312744
1775728241386680000,20.36468017578125,-4.931607246398926,-14.634503364562988,-4.534399032592773
1775728241405208600,20.38320849609375,8.595019340515137,-18.08495330810547,-4.342973232269287
1775728241423737300,20.4017373046875,12.825529098510742,-16.6660099029541,-5.608776092529297
1775728241442265900,20.420265869140625,-0.2512463629245758,-16.077375411987305,-5.402993679046631
1775728241460794600,20.438794677734375,-9.401400566101074,-16.831113815307617,-4.9292144775390625
1775728241479323100,20.4573232421875,-5.285745143890381,-13.129417419433594,-3.1680972576141357
1775728241497852000,20.475851806640627,4.213760852813721,-11.660224914550781,-2.902493953704834
1775728241516380400,20.49438037109375,8.535198211669922,-9.994820594787598,-2.8833513259887695
1775728241534909000,20.512908935546875,5.0943193435668945,-8.666803359985352,-3.4432718753814697
1775728241553437700,20.531437744140625,0.4737788736820221,-7.64028263092041,-4.163511276245117
1775728241571966200,20.54996630859375,0.8398807644844055,-6.97986364364624,-4.1419758796691895
1775728241590495000,20.568494873046873,3.029313564300537,-5.821737289428711,-3.641875982284546
1775728241609023500,20.5870234375,4.230510234832764,-5.525027275085449,-3.6227335929870605
1775728241627552300,20.60555224609375,4.383651256561279,-4.551148891448975,-2.7349963188171387
1775728241646080800,20.624080810546875,4.876572608947754,-3.5605201721191406,-2.0865414142608643
1775728241664609500,20.642609619140625,3.541377544403076,-5.07517671585083,-1.2681959867477417
1775728241683138000,20.661137939453123,0.45942193269729614,-4.898108005523682,-1.2011969089508057
1775728241701666800,20.679666748046873,0.3565305769443512,-4.587040901184082,-2.014756679534912
1775728241720195300,20.6981953125,3.431307554244995,-5.422136306762695,-3.053241729736328
1775728241738724000,20.71672412109375,8.298309326171875,-6.027520179748535,-3.9912281036376953
1775728241757252600,20.735252685546875,10.72702407836914,-8.671588897705078,-3.541377544403076
1775728241775781400,20.753781494140625,5.481956481933594,-10.540383338928223,-3.249453067779541
1775728241794310000,20.772309814453124,2.68953275680542,-8.951549530029297,-2.9383862018585205
1775728241812838400,20.79083837890625,4.0319061279296875,-12.07179069519043,-3.2590243816375732
1775728241831367200,20.8093671875,7.188039302825928,-13.007384300231934,-4.108476638793945
1775728241849895700,20.827895751953125,11.12183952331543,-17.12303924560547,-6.2500529289245605
1775728241868424400,20.846424560546875,8.819944381713867,-19.745573043823242,-7.762316703796387
1775728241886953000,20.864952880859374,4.022335052490234,-18.017953872680664,-9.19561767578125
1775728241905481700,20.883481689453124,3.1106693744659424,-13.423734664916992,-8.346165657043457
1775728241924010200,20.90201025390625,2.7326035499572754,-9.58325481414795,-4.005585193634033
1775728241942539000,20.9205390625,2.3784656524658203,-6.754938125610352,-0.97148597240448
1775728241961067500,20.939067626953126,2.6560330390930176,-5.958128452301025,1.7204394340515137
1775728241979596300,20.95759619140625,1.5481562614440918,-5.003392219543457,2.9599215984344482
1775728241998124800,20.976124755859374,0.727418065071106,-4.709074974060059,1.950150489807129
1775728242016653600,20.994653564453124,0.2392822653055191,-5.003392219543457,-0.4426721930503845
1775728242035182000,21.01318212890625,0.17706887423992157,-4.299902439117432,-1.7204394340515137
1775728242053710800,21.0317109375,0.5407779216766357,-3.830909013748169,-1.404586911201477
1775728242072239400,21.0502392578125,1.1676974296569824,-3.0723843574523926,0.14117653667926788
1775728242090768100,21.06876806640625,1.3615161180496216,-2.3306093215942383,1.1030912399291992
1775728242109296600,21.087296630859374,0.9284151792526245,-2.0673987865448,1.5936198234558105
1775728242127825400,21.105825439453124,1.4644074440002441,-2.1822543144226074,1.7467604875564575
1775728242146354000,21.12435400390625,3.6538400650024414,-2.3641088008880615,1.007378339767456
1775728242164882700,21.142882568359376,6.348158359527588,-2.878565549850464,-1.2801600694656372
1775728242183411200,21.1614111328125,8.240880966186523,-5.60399055480957,-4.584648132324219
1775728242201940000,21.17993994140625,7.197610378265381,-7.903493404388428,-7.003791809082031
1775728242220468500,21.198468505859374,7.546962738037109,-9.4660062789917,-8.719446182250977
1775728242238997200,21.216997314453124,8.173882484436035,-9.006584167480469,-7.829315662384033
1775728242257525800,21.23552587890625,10.717453002929688,-9.387042999267578,-4.639683246612549
1775728242276054500,21.254054443359376,10.827522277832031,-13.028919219970703,-3.0005996227264404
1775728242294583000,21.2725830078125,0.39960137009620667,-14.536397933959961,-3.170490026473999
1775728242313111800,21.29111181640625,-7.786244869232178,-16.0103759765625,-6.116054534912109
1775728242331640300,21.309640380859374,-0.3900300860404968,-14.943177223205566,-5.635097503662109
1775728242350169000,21.328169189453124,7.221538543701172,-17.211572647094727,-4.680361270904541
1775728242368697600,21.346697509765626,8.327022552490234,-16.15873146057129,-3.390629768371582
1775728242387226400,21.365226318359376,5.223531723022461,-17.015361785888672,-4.261617183685303
1775728242405755000,21.3837548828125,-0.7226324677467346,-15.146567344665527,-4.529613494873047
1775728242424283600,21.40228369140625,-2.3856441974639893,-12.55274772644043,-4.728217601776123
1775728242442812200,21.420812255859374,-0.9308080077171326,-8.920442581176758,-3.4672000408172607
1775728242461341000,21.4393408203125,3.3403804302215576,-7.214360237121582,-2.383251428604126
1775728242479869400,21.457869384765626,5.804987907409668,-5.481956481933594,-1.3639088869094849
1775728242498398200,21.476398193359376,6.010770320892334,-4.41475772857666,-0.9451649188995361
1775728242516926700,21.4949267578125,5.582455158233643,-4.1036906242370605,-1.3639088869094849
1775728242535455500,21.51345556640625,5.276174068450928,-4.445864677429199,-2.342573404312134
1775728242553984300,21.531984375,3.751945972442627,-4.761716842651367,-2.9240293502807617
1775728242572512800,21.5505126953125,0.7130611538887024,-5.2283172607421875,-3.87876558303833
1775728242591041500,21.56904150390625,-0.42831525206565857,-3.105883836746216,-3.2303106784820557
1775728242609570000,21.587570068359376,2.155933141708374,-3.081955671310425,-1.730010747909546
1775728242628098800,21.606098876953126,8.367700576782227,-4.668396949768066,-0.6580262184143066
1775728242646627300,21.62462744140625,11.906685829162598,-5.965306758880615,-1.0360921621322632
1775728242665156000,21.643156005859375,4.273581027984619,-9.53779125213623,-2.1511476039886475
1775728242683684600,21.6616845703125,-1.6701902151107788,-9.34157943725586,-3.8739798069000244
1775728242702213400,21.68021337890625,0.31345975399017334,-8.554341316223145,-4.706682205200195
1775728242720742000,21.698741943359376,14.285151481628418,-12.083754539489746,-4.73300313949585
1775728242739270700,21.717270751953127,19.71925163269043,-16.34776496887207,-3.9840497970581055
1775728242757799200,21.735799072265625,5.788238048553467,-19.101903915405273,-7.161718368530273
1775728242776328000,21.754327880859375,0.45942193269729614,-19.661823272705078,-11.504691123962402
1775728242794856700,21.772856689453125,3.4672000408172607,-17.898313522338867,-11.710474014282227
1775728242813385200,21.79138525390625,3.565305709838867,-13.00259780883789,-6.580262184143066
1775728242831914000,21.8099140625,1.7730815410614014,-9.638289451599121,-3.4672000408172607
1775728242850442500,21.8284423828125,2.4023938179016113,-6.640082836151123,-1.153340458869934
1775728242868971300,21.84697119140625,3.2997024059295654,-4.73300313949585,1.667797327041626
1775728242887499800,21.865499755859375,2.8043880462646484,-3.462414264678955,2.801995277404785
1775728242906028500,21.884028564453125,1.2011969089508057,-3.242274761199951,2.170290231704712
1775728242924557000,21.90255712890625,-0.6891329288482666,-3.586841106414795,1.007378339767456
1775728242943085800,21.9210859375,-1.4979069232940674,-4.125226020812988,0.8805587291717529
1775728242961614600,21.939614501953123,-0.8183453679084778,-4.012763500213623,1.5098711252212524
1775728242980143000,21.95814306640625,0.8303094506263733,-2.9168508052825928,2.2301106452941895
1775728242998672000,21.976671875,3.012563705444336,-2.342573404312134,2.3784656524658203
1775728243017200400,21.995200439453125,5.61116886138916,-3.139383316040039,1.277767300605774
1775728243035729200,22.013729248046875,6.898507595062256,-4.034298896789551,-0.9954141974449158
1775728243054257700,22.032257568359373,7.582854747772217,-4.754538536071777,-4.311866283416748
1775728243072786400,22.050786376953123,7.76470947265625,-6.467799663543701,-6.91765022277832
1775728243091315000,22.06931494140625,7.154539585113525,-8.09252643585205,-7.853243827819824
1775728243109843700,22.08784375,6.123233318328857,-8.082955360412598,-7.7455668449401855
1775728243128372500,22.10637255859375,6.106483459472656,-7.219145774841309,-6.364908218383789
1775728243146901000,22.12490087890625,6.44387149810791,-6.735795974731445,-4.125226020812988
1775728243165429800,22.1434296875,6.750152587890625,-8.870193481445312,-1.6151553392410278
1775728243183958300,22.161958251953124,6.558726787567139,-10.822736740112305,-0.9427721500396729
1775728243202487000,22.180487060546874,-0.4043870270252228,-11.94736385345459,-2.950350284576416
1775728243221015600,22.199015625,-4.3070807456970215,-14.206188201904297,-5.443671703338623
1775728243239544300,22.21754443359375,4.768895626068115,-15.237494468688965,-4.6372904777526855
1775728243258072800,22.23607275390625,13.596017837524414,-17.903099060058594,-5.745167255401611
1775728243276601600,22.2546015625,10.85862922668457,-14.237295150756836,-3.3690943717956543
1775728243295130400,22.27313037109375,-1.5744773149490356,-15.54377555847168,-3.524627685546875
1775728243313659000,22.291658935546874,-8.102097511291504,-16.09891128540039,-5.264209747314453
1775728243332187600,22.310187744140624,-7.156932353973389,-10.514062881469727,-4.869394302368164
1775728243350716200,22.328716064453126,3.084348440170288,-9.437292098999023,-3.7639100551605225
1775728243369245000,22.347244873046876,14.481362342834473,-8.796015739440918,-3.022135019302368
1775728243387773400,22.3657734375,11.47119140625,-9.308079719543457,-2.675175666809082
1775728243406302200,22.38430224609375,1.1222338676452637,-9.32722282409668,-2.555534601211548
1775728243424831000,22.4028310546875,-2.091326951980591,-7.95134973526001,-3.4241292476654053
1775728243443359500,22.421359375,1.2346965074539185,-5.874379634857178,-4.802394866943359
1775728243461888300,22.43988818359375,5.419743061065674,-4.7712883949279785,-4.646861553192139
1775728243480416800,22.458416748046876,6.4941205978393555,-4.438685894012451,-3.0340991020202637
1775728243498945500,22.476945556640626,4.728217601776123,-4.40757942199707,-2.447857618331909
1775728243517474300,22.495474365234376,2.610569477081299,-4.800002098083496,-2.6153552532196045
1775728243536002800,22.5140029296875,1.6175481081008911,-4.584648132324219,-2.5674986839294434
1775728243554531600,22.532531494140624,1.8424733877182007,-4.051048755645752,-3.0029923915863037
1775728243573060000,22.55106005859375,2.940778970718384,-5.051248550415039,-3.4241292476654053
1775728243591588900,22.5695888671875,4.082155227661133,-4.823930263519287,-3.1968109607696533
1775728243610117400,22.588117431640626,4.694717884063721,-6.281159400939941,-2.991028308868408
1775728243628646100,22.606646240234376,5.197210788726807,-7.671389579772949,-3.0867412090301514
1775728243647174700,22.625174560546874,6.527620315551758,-9.004191398620605,-3.314059257507324
1775728243665703400,22.643703369140624,7.800601959228516,-11.514262199401855,-2.8594231605529785
1775728243684232200,22.662232177734374,8.791230201721191,-12.844672203063965,-4.1419758796691895
1775728243702760700,22.6807607421875,10.863414764404297,-15.591631889343262,-6.419943332672119
1775728243721289500,22.69928955078125,7.726424217224121,-18.15673828125,-7.88913631439209
1775728243739818000,22.71781787109375,4.18983268737793,-18.015562057495117,-8.707481384277344
1775728243758346800,22.7363466796875,3.1274192333221436,-15.452848434448242,-8.688339233398438
1775728243776875300,22.754875244140624,1.3471591472625732,-11.94736385345459,-6.034698486328125
1775728243795404000,22.773404052734374,1.1700903177261353,-8.202595710754395,-1.7371892929077148
1775728243813932800,22.791932861328124,2.4095723628997803,-5.8959150314331055,1.5625132322311401
1775728243832461300,22.81046142578125,3.871587038040161,-4.735395908355713,3.201596736907959
1775728243850990000,22.828989990234376,3.1992039680480957,-5.003392219543457,2.744567632675171
1775728243869518600,22.8475185546875,0.9308080077171326,-5.2737812995910645,0.2799602448940277
1775728243888047400,22.86604736328125,-1.2370892763137817,-4.931607246398926,-1.947757601737976
1775728243906576100,22.884576171875,-1.2610175609588623,-5.082355499267578,-3.4480574131011963
1775728243925104600,22.903104736328125,-0.2584248483181,-4.237689018249512,-2.7876384258270264
1775728243943633400,22.92163330078125,0.9690931439399719,-3.469592809677124,-0.8757730722427368
1775728243962162000,22.940161865234376,1.9070796966552734,-3.019742250442505,1.215553879737854
1775728243980690700,22.958690673828126,2.878565549850464,-3.232703447341919,2.2085752487182617
1775728243999219200,22.97721923828125,5.082355499267578,-3.5198421478271484,2.4335005283355713
1775728244017748000,22.995748046875,7.867600917816162,-4.125226020812988,0.7369893789291382
1775728244036276500,23.0142763671875,10.549955368041992,-5.477170944213867,-2.720639228820801
1775728244054805200,23.03280517578125,10.528419494628906,-6.812366008758545,-5.855237007141113
1775728244073334000,23.051333984375,9.078369140625,-8.319844245910645,-7.051648139953613
1775728244091862500,23.069862548828127,6.63769006729126,-7.618747234344482,-6.149554252624512
1775728244110391300,23.088391357421877,6.788437843322754,-7.566105365753174,-3.9912281036376953
1775728244128919800,23.106919921875,6.869793891906738,-9.549755096435547,-1.8855443000793457
1775728244147448600,23.125448486328125,1.069591760635376,-10.918449401855469,-0.8015955686569214
1775728244165977000,23.14397705078125,-3.397808074951172,-12.622138977050781,-1.34476637840271
1775728244184505900,23.162505859375,-2.115255117416382,-12.937992095947266,-4.735395908355713
1775728244203034600,23.18103466796875,4.247260093688965,-15.546168327331543,-7.714460372924805
1775728244221563100,23.199563232421873,7.544569969177246,-16.862220764160156,-7.999206066131592
1775728244240092000,23.218091796875,10.49970531463623,-15.567704200744629,-4.716253280639648
1775728244258620400,23.236620361328125,1.4883357286453247,-16.170696258544922,-2.579462766647339
1775728244277149200,23.255149169921875,-5.247459888458252,-13.5242338180542,-3.3475589752197266
1775728244295677700,23.273677734375,-2.1200408935546875,-10.547562599182129,-4.366901397705078
1775728244314206500,23.29220654296875,6.771687984466553,-9.521040916442871,-4.680361270904541
1775728244332735200,23.3107353515625,9.868000984191895,-9.162117958068848,-4.232903480529785
1775728244351263700,23.329263671875,4.417150497436523,-8.817551612854004,-3.7710886001586914
1775728244369792500,23.34779248046875,0.02871387079358101,-8.011170387268066,-3.187239646911621
1775728244388321000,23.366321044921875,0.1459621787071228,-6.599404811859131,-3.005385160446167
1775728244406849800,23.384849853515625,2.060220241546631,-5.4556355476379395,-2.7182464599609375
1775728244425378300,23.40337841796875,2.7972097396850586,-4.589433670043945,-2.1678972244262695
1775728244443907000,23.421906982421874,2.4885356426239014,-4.400400638580322,-2.0267207622528076
1775728244462435600,23.440435546875,2.4406790733337402,-4.402793884277344,-2.56510591506958
1775728244480964400,23.45896435546875,1.9764715433120728,-4.7712883949279785,-3.081955671310425
1775728244499493000,23.4774931640625,1.643869161605835,-5.087141036987305,-3.3332018852233887
1775728244518021600,23.496021728515625,1.6414763927459717,-5.414957523345947,-3.893122434616089
1775728244536550400,23.51455029296875,2.311466693878174,-6.087340831756592,-4.398007869720459
1775728244555079000,23.533078857421874,3.3475589752197266,-6.302694797515869,-3.955335855484009
1775728244573607700,23.551607666015624,4.575077056884766,-6.970292568206787,-3.730410575866699
1775728244592136200,23.57013623046875,4.577469825744629,-8.085348129272461,-3.7232320308685303
1775728244610665000,23.5886650390625,3.589233875274658,-8.58066177368164,-4.369294166564941
1775728244629193700,23.60719384765625,4.491328239440918,-9.702896118164062,-4.321437835693359
1775728244647722200,23.62572216796875,8.023134231567383,-13.17248821258545,-3.091526746749878
1775728244666251000,23.6442509765625,6.697510719299316,-16.27597999572754,-4.790431022644043
1775728244684779500,23.662779541015624,4.572684288024902,-17.92463493347168,-7.293323516845703
