time,seconds_elapsed,z,y,x
1775728220719732000,-0.30226806640625,-11.399999618530273,24.600000381469727,33.959999084472656
1775728220729502700,-0.292497314453125,-11.75999927520752,29.639999389648438,32.040000915527344
1775728220739243000,-0.282757080078125,-11.15999984741211,32.21999740600586,32.040000915527344
1775728220748914000,-0.273086181640625,-11.519999504089355,33.47999954223633,30.119998931884766
1775728220758754000,-0.263245849609375,-11.15999984741211,33.05999755859375,29.34000015258789
1775728220768625000,-0.253375,-10.739999771118164,33,29.15999984741211
1775728220778695700,-0.24330419921875,-11.09999942779541,32.880001068115234,29.579999923706055
1775728220788797200,-0.233202880859375,-10.139999389648438,32.57999801635742,29.760000228881836
1775728220798837200,-0.223162841796875,-9.960000038146973,32.099998474121094,29.760000228881836
1775728220808908300,-0.213091796875,-10.5,33,30.599998474121094
1775728220818979000,-0.20302099609375,-10.679999351501465,33.05999755859375,30.65999984741211
1775728220869272000,-0.15272802734375,-10.079999923706055,33.84000015258789,30.239999771118164
1775728220889383000,-0.1326171875,-10.859999656677246,33.36000061035156,29.8799991607666
1775728220919495400,-0.102504638671875,-7.319999694824219,34.2599983215332,30.479999542236328
1775728220939637000,-0.082363037109375,-4.799999713897705,33.540000915527344,31.01999855041504
1775728220949707800,-0.072292236328125,-5.579999923706055,33.540000915527344,30.899999618530273
1775728220959778600,-0.062221435546875,-5.699999809265137,32.81999969482422,30.119998931884766
1775728220969849300,-0.052150634765625,-5.87999963760376,32.099998474121094,30.119998931884766
1775728220979889700,-0.0421103515625,-6.179999828338623,32.459999084472656,30
1775728220989960400,-0.03203955078125,-6.359999656677246,31.739999771118164,29.099998474121094
1775728220999970300,-0.02202978515625,-7.139999866485596,32.34000015258789,30.479999542236328
1775728221010041000,-0.011958984375,-6.960000038146973,33.29999923706055,30.059999465942383
1775728221020081400,-0.001918701171875,-7.319999694824219,33.65999984741211,29.8799991607666
1775728221030152200,0.008152099609375,-8.039999961853027,34.2599983215332,30.479999542236328
1775728221040223000,0.018222900390625,-9.479999542236328,34.07999801635742,29.69999885559082
1775728221070465800,0.0484658203125,-10.920000076293945,33.779998779296875,31.619998931884766
1775728221080506000,0.058506103515625,-8.760000228881836,33.119998931884766,31.3799991607666
1775728221090546400,0.06854638671875,-6.839999675750732,32.81999969482422,30.899999618530273
1775728221100556300,0.078556396484375,-6.839999675750732,32.70000076293945,30.84000015258789
1775728221110627000,0.088626953125,-6.059999942779541,32.57999801635742,30.719999313354492
1775728221120697900,0.09869775390625,-6.480000019073486,32.939998626708984,31.079999923706055
1775728221130768600,0.1087685546875,-7.619999885559082,32.39999771118164,30.35999870300293
1775728221171021300,0.149021240234375,-8.220000267028809,32.880001068115234,29.8799991607666
1775728221191193300,0.169193359375,-9.119999885559082,34.07999801635742,31.079999923706055
1775728221211335000,0.1893349609375,-7.980000019073486,33.71999740600586,29.81999969482422
1775728221221406000,0.199406005859375,-7.37999963760376,33.23999786376953,29.81999969482422
1775728221231476700,0.209476806640625,-6.420000076293945,32.57999801635742,29.51999855041504
1775728221241516800,0.219516845703125,-6.71999979019165,32.7599983215332,30
1775728221251587800,0.229587890625,-5.940000057220459,33.119998931884766,30.599998474121094
1775728221281800200,0.25980029296875,-5.699999809265137,33.65999984741211,31.559999465942383
1775728221291901400,0.2699013671875,-5.699999809265137,33.47999954223633,31.439998626708984
1775728221301911300,0.279911376953125,-6.179999828338623,33.23999786376953,31.01999855041504
1775728221311982000,0.289982177734375,-5.940000057220459,33.05999755859375,30.35999870300293
1775728221322052900,0.300052978515625,-6.299999713897705,32.459999084472656,29.579999923706055
1775728221342194400,0.3201943359375,-6.659999847412109,33.119998931884766,29.459999084472656
1775728221352265200,0.33026513671875,-7.739999771118164,32.81999969482422,29.279998779296875
1775728221392548400,0.37054833984375,-8.460000038146973,34.02000045776367,30.479999542236328
1775728221402619100,0.380619140625,-8.15999984741211,33.71999740600586,30.65999984741211
1775728221412690000,0.39068994140625,-6.299999713897705,33.89999771118164,30.599998474121094
1775728221422760700,0.4007607421875,-6.119999885559082,32.63999938964844,30
1775728221432831500,0.41083154296875,-6.480000019073486,32.7599983215332,30.119998931884766
1775728221442902500,0.420902587890625,-6.359999656677246,32.70000076293945,30
1775728221483124500,0.46112451171875,-12,32.34000015258789,28.739999771118164
1775728221523438300,0.501438232421875,-8.819999694824219,33.41999816894531,30.779998779296875
1775728221533478700,0.511478759765625,-7.139999866485596,33.47999954223633,30.84000015258789
1775728221543549400,0.521549560546875,-6.659999847412109,33.959999084472656,31.01999855041504
1775728221553589800,0.53158984375,-6.179999828338623,33.84000015258789,30.53999900817871
1775728221573700900,0.551700927734375,-5.819999694824219,33.71999740600586,30.719999313354492
1775728221593750800,0.571750732421875,-6.480000019073486,33.540000915527344,30.959999084472656
1775728221603852000,0.58185205078125,-6.659999847412109,33.779998779296875,31.19999885559082
1775728221613953500,0.59195361328125,-6.059999942779541,34.619998931884766,31.559999465942383
1775728221624024300,0.6020244140625,-4.980000019073486,34.07999801635742,30.959999084472656
1775728221634064600,0.612064697265625,-5.759999752044678,34.07999801635742,30.84000015258789
1775728221644166000,0.622165771484375,-6.059999942779541,34.20000076293945,30.17999839782715
1775728221654236700,0.632236572265625,-7.440000057220459,34.07999801635742,29.760000228881836
1775728221664307500,0.642307373046875,-9.179999351501465,34.13999938964844,29.81999969482422
1775728221684418600,0.66241845703125,-7.799999713897705,34.91999816894531,31.739999771118164
1775728221694459000,0.672458984375,-6,34.02000045776367,31.260000228881836
1775728221704529700,0.68252978515625,-3.7200000286102295,34.31999969482422,31.739999771118164
1775728221714570000,0.692570068359375,-1.9199999570846558,33.41999816894531,31.5
1775728221724610000,0.702610107421875,-1.3799999952316284,32.63999938964844,30.599998474121094
1775728221734711600,0.712711669921875,-0.47999998927116394,32.880001068115234,31.19999885559082
1775728221744782300,0.7227822265625,0.7199999690055847,32.63999938964844,30.899999618530273
1775728221764893400,0.7428935546875,0.5399999618530273,33.599998474121094,32.52000045776367
1775728221785004500,0.763004638671875,-1.1999999284744263,33.779998779296875,33.779998779296875
1775728221795075300,0.773075439453125,-0.29999998211860657,33.47999954223633,33.959999084472656
1775728221805115600,0.78311572265625,1.0799999237060547,32.939998626708984,33.36000061035156
1775728221815186400,0.7931865234375,1.7400000095367432,32.57999801635742,33.779998779296875
1775728221825226800,0.803226806640625,3,33.119998931884766,33.779998779296875
1775728221835297500,0.813297607421875,3.8999998569488525,32.880001068115234,34.31999969482422
1775728221845307100,0.82330712890625,4.199999809265137,32.21999740600586,34.55999755859375
1775728221855408600,0.83340869140625,5.940000057220459,31.619998931884766,34.91999816894531
1775728221895630600,0.873630615234375,4.019999980926514,29.399999618530273,34.5
1775728221905701400,0.883701416015625,2.819999933242798,29.099998474121094,34.73999786376953
1775728221915741700,0.89374169921875,1.8600000143051147,28.3799991607666,35.52000045776367
1775728221925782000,0.903781982421875,1.6200000047683716,27.53999900817871,35.39999771118164
1775728221935852800,0.913852783203125,2.1599998474121094,26.51999855041504,35.52000045776367
1775728221945893000,0.92389306640625,2.879999876022339,25.619998931884766,36.29999923706055
1775728221955964000,0.9339638671875,2.6399998664855957,25.31999969482422,36.84000015258789
1775728221976136000,0.954135986328125,1.8600000143051147,24.479999542236328,38.21999740600586
1775728221996247000,0.9742470703125,1.7999999523162842,23.399999618530273,37.5
1775728222006287400,0.984287353515625,1.3799999952316284,22.5,37.380001068115234
1775728222026429000,1.004428955078125,1.9199999570846558,21.779998779296875,37.2599983215332
1775728222036499700,1.014499755859375,2.5199999809265137,21.899999618530273,38.279998779296875
1775728222046540000,1.0245400390625,1.1999999284744263,21.84000015258789,38.099998474121094
1775728222056580400,1.034580322265625,0.11999999731779099,21.779998779296875,38.39999771118164
1775728222076691500,1.05469140625,-1.3799999952316284,21.53999900817871,39.47999954223633
1775728222086762200,1.06476220703125,-0.11999999731779099,21.239999771118164,40.55999755859375
1775728222096833000,1.0748330078125,1.0799999237060547,19.920000076293945,40.619998931884766
1775728222106903800,1.08490380859375,0.35999998450279236,18,40.619998931884766
1775728222116974600,1.094974609375,0.05999999865889549,16.31999969482422,39.779998779296875
1775728222127015000,1.105014892578125,-0.6599999666213989,15.179999351501465,39.41999816894531
1775728222147156500,1.125156494140625,-1.0799999237060547,13.859999656677246,40.20000076293945
1775728222157227300,1.135227294921875,-1.1399999856948853,13.5,40.619998931884766
1775728222177399600,1.155399658203125,0.17999999225139618,12.960000038146973,42.29999923706055
1775728222187470300,1.16547021484375,0.7799999713897705,12.359999656677246,42.05999755859375
1775728222197510700,1.1755107421875,1.5,12.179999351501465,42.41999816894531
1775728222207581400,1.18558154296875,1.2599999904632568,12.84000015258789,42.18000030517578
1775728222217652200,1.19565234375,0.5999999642372131,11.75999927520752,41.57999801635742
1775728222227723000,1.205722900390625,0.5999999642372131,11.279999732971191,41.87999725341797
1775728222237824300,1.21582421875,0.5399999618530273,10.619999885559082,42.29999923706055
1775728222247895000,1.22589501953125,0.7799999713897705,9.359999656677246,41.39999771118164
1775728222257965800,1.2359658203125,1.2599999904632568,9.479999542236328,42.05999755859375
1775728222268036600,1.24603662109375,0.9599999785423279,8.760000228881836,41.39999771118164
1775728222298249200,1.276249267578125,2.0999999046325684,8.15999984741211,41.39999771118164
1775728222308320000,1.286320068359375,3.419999837875366,8.399999618530273,41.57999801635742
1775728222318390800,1.296390869140625,4.440000057220459,8.399999618530273,41.34000015258789
1775728222328461600,1.306461669921875,4.380000114440918,7.440000057220459,41.099998474121094
1775728222338502000,1.316501953125,4.980000019073486,7.019999980926514,40.73999786376953
1775728222348511500,1.326511474609375,4.799999713897705,6.299999713897705,40.5
1775728222358612700,1.33661279296875,4.559999942779541,6.539999961853027,40.79999923706055
1775728222368683800,1.346683837890625,4.739999771118164,7.139999866485596,41.21999740600586
1775728222378754600,1.356754638671875,4.319999694824219,7.019999980926514,41.57999801635742
1775728222438996200,1.416996337890625,6.299999713897705,6.839999675750732,41.459999084472656
1775728222449036500,1.42703662109375,7.199999809265137,7.019999980926514,41.57999801635742
1775728222459137800,1.4371376953125,7.199999809265137,6.839999675750732,42.36000061035156
1775728222479249000,1.457248779296875,7.559999942779541,5.699999809265137,42.36000061035156
1775728222499360000,1.477360107421875,7.199999809265137,4.559999942779541,41.70000076293945
1775728222509430800,1.4874306640625,7.739999771118164,5.339999675750732,42.84000015258789
1775728222529450200,1.5074501953125,7.859999656677246,4.980000019073486,42.29999923706055
1775728222559693000,1.537693115234375,8.819999694824219,5.699999809265137,41.939998626708984
1775728222569764000,1.54776416015625,8.460000038146973,5.639999866485596,41.7599983215332
1775728222579835000,1.5578349609375,7.919999599456787,5.21999979019165,41.81999969482422
1775728222589875000,1.567875,7.319999694824219,5.039999961853027,41.70000076293945
1775728222630158300,1.608158447265625,7.440000057220459,4.679999828338623,41.459999084472656
1775728222640259600,1.618259521484375,6.420000076293945,3.5399999618530273,40.91999816894531
1775728222660401200,1.638401123046875,6.179999828338623,2.93999981880188,40.13999938964844
1775728222680542700,1.658542724609375,6.359999656677246,4.079999923706055,41.34000015258789
1775728222690613500,1.668613525390625,5.940000057220459,3.7200000286102295,41.39999771118164
1775728222700715000,1.678715087890625,6.119999885559082,3.5999999046325684,40.91999816894531
1775728222741059000,1.71905908203125,6.539999961853027,3.5999999046325684,41.099998474121094
1775728222751069000,1.72906884765625,6.659999847412109,3.4800000190734863,40.79999923706055
1775728222761139700,1.7391396484375,7.019999980926514,3.9599997997283936,42.05999755859375
1775728222771210500,1.74921044921875,6.899999618530273,4.319999694824219,42.599998474121094
1775728222781281300,1.75928125,6.71999979019165,4.019999980926514,42.65999984741211
1775728222791352000,1.76935205078125,6.420000076293945,3.240000009536743,42.65999984741211
1775728222801453300,1.779453369140625,5.87999963760376,2.819999933242798,42.119998931884766
1775728222811524400,1.7895244140625,5.759999752044678,2.5199999809265137,42.119998931884766
1775728222851807500,1.829807373046875,6.599999904632568,2.5799999237060547,41.52000045776367
1775728222861878300,1.839878173828125,6.119999885559082,2.3999998569488525,41.21999740600586
1775728222871949000,1.849948974609375,5.279999732971191,2.5799999237060547,41.279998779296875
1775728222882050300,1.86005029296875,5.099999904632568,3.119999885559082,41.70000076293945
1775728222892121000,1.87012109375,5.159999847412109,2.5799999237060547,42.18000030517578
1775728222902222600,1.88022265625,5.819999694824219,2.93999981880188,42.89999771118164
1775728222912262700,1.8902626953125,6,2.2200000286102295,42.119998931884766
1775728222942475300,1.920475341796875,4.440000057220459,1.9799998998641968,41.87999725341797
1775728222962616800,1.940616943359375,2.2200000286102295,2.879999876022339,42.18000030517578
1775728222972626400,1.95062646484375,1.7400000095367432,3.5999999046325684,41.70000076293945
1775728222982697200,1.960697265625,2.3399999141693115,3.359999895095825,42
1775728222992707000,1.97070703125,2.819999933242798,2.759999990463257,42.18000030517578
1775728223002777900,1.98077783203125,3.6599998474121094,2.3999998569488525,41.939998626708984
1775728223012787700,1.99078759765625,4.019999980926514,1.4399999380111694,41.81999969482422
1775728223022858500,2.0008583984375,2.6399998664855957,1.1399999856948853,41.70000076293945
1775728223053040400,2.031040283203125,1.2599999904632568,2.0399999618530273,42.23999786376953
1775728223063141600,2.0411416015625,1.9199999570846558,2.93999981880188,42.18000030517578
1775728223073182000,2.051181884765625,2.2799999713897705,2.4600000381469727,42.23999786376953
1775728223093354000,2.07135400390625,1.9199999570846558,1.7400000095367432,41.81999969482422
1775728223103424800,2.0814248046875,2.1599998474121094,1.559999942779541,41.7599983215332
1775728223113434600,2.0914345703125,1.6799999475479126,1.1399999856948853,41.63999938964844
1775728223123505400,2.10150537109375,1.3199999332427979,1.2599999904632568,42.119998931884766
1775728223133576200,2.111576171875,0.8399999737739563,1.5,42.05999755859375
1775728223153656800,2.13165673828125,-0.7799999713897705,1.8600000143051147,41.87999725341797
1775728223204041200,2.182041259765625,-3.299999952316284,1.3799999952316284,40.13999938964844
1775728223224152300,2.20215234375,-5.400000095367432,1.5,39.540000915527344
1775728223234192600,2.212192626953125,-6.059999942779541,1.6799999475479126,39.71999740600586
1775728223254334200,2.232334228515625,-6.539999961853027,1.8600000143051147,40.13999938964844
1775728223274445300,2.2524453125,-5.940000057220459,2.5799999237060547,40.97999954223633
1775728223284516000,2.26251611328125,-6.599999904632568,3,40.73999786376953
1775728223294526000,2.27252587890625,-7.440000057220459,3.419999837875366,40.86000061035156
1775728223304535800,2.282535888671875,-8.09999942779541,3.059999942779541,40.2599983215332
1775728223314545400,2.29254541015625,-9.59999942779541,2.4600000381469727,39.29999923706055
1775728223324647000,2.30264697265625,-11.399999618530273,1.9799998998641968,39.23999786376953
1775728223334656500,2.312656494140625,-13.25999927520752,1.559999942779541,38.70000076293945
1775728223344727300,2.322727294921875,-14.279999732971191,1.9199999570846558,38.279998779296875
1775728223364838400,2.34283837890625,-14.819999694824219,2.5799999237060547,38.939998626708984
1775728223384949500,2.362949462890625,-13.920000076293945,3.419999837875366,40.31999969482422
1775728223394989800,2.37298974609375,-12.719999313354492,3.7200000286102295,39.959999084472656
1775728223405060600,2.383060546875,-12.300000190734863,3.359999895095825,39.84000015258789
1775728223415131400,2.39313134765625,-10.859999656677246,3.359999895095825,38.63999938964844
1775728223425202200,2.4032021484375,-12.59999942779541,2.3399999141693115,38.87999725341797
1775728223435181600,2.413181640625,-14.15999984741211,1.5,38.459999084472656
1775728223445282800,2.42328271484375,-15.420000076293945,1.2599999904632568,38.15999984741211
1775728223465424400,2.44342431640625,-18.53999900817871,0.5399999618530273,38.15999984741211
1775728223485535500,2.463535400390625,-18.959999084472656,0.23999999463558197,38.21999740600586
1775728223495514600,2.4735146484375,-19.079999923706055,0.7799999713897705,38.57999801635742
1775728223515595300,2.49359521484375,-16.31999969482422,0.17999999225139618,38.57999801635742
1775728223525635600,2.503635498046875,-15.359999656677246,-0.5999999642372131,38.52000045776367
1775728223535676000,2.513676025390625,-14.880000114440918,-2.2200000286102295,37.97999954223633
1775728223545716200,2.52371630859375,-16.260000228881836,-2.0399999618530273,38.21999740600586
1775728223555756300,2.53375634765625,-17.34000015258789,-2.1599998474121094,38.040000915527344
1775728223575898000,2.553898193359375,-19.619998931884766,-1.2599999904632568,38.57999801635742
1775728223585969000,2.563968994140625,-20.03999900817871,-2.3999998569488525,37.97999954223633
1775728223616120000,2.5941201171875,-17.399999618530273,-3,39.29999923706055
1775728223636231200,2.614231201171875,-16.020000457763672,-4.380000114440918,39.41999816894531
1775728223646332700,2.624332763671875,-16.799999237060547,-4.440000057220459,39.18000030517578
1775728223656403500,2.634403564453125,-18.35999870300293,-5.21999979019165,38.57999801635742
1775728223676514600,2.6545146484375,-19.799999237060547,-5.460000038146973,38.939998626708984
1775728223686615800,2.66461572265625,-19.439998626708984,-5.940000057220459,39.05999755859375
1775728223696686600,2.6746865234375,-18.119998931884766,-6.71999979019165,39.540000915527344
1775728223706757400,2.68475732421875,-16.139999389648438,-7.319999694824219,39.41999816894531
1775728223716797700,2.694797607421875,-14.399999618530273,-8.15999984741211,38.939998626708984
1775728223726899000,2.70489892578125,-13.679999351501465,-8.460000038146973,39.23999786376953
1775728223736939300,2.714939208984375,-14.579999923706055,-9.119999885559082,38.040000915527344
1775728223747010000,2.725010009765625,-16.079999923706055,-9.59999942779541,37.68000030517578
1775728223757080800,2.735080810546875,-17.81999969482422,-9.960000038146973,37.619998931884766
1775728223837586200,2.815586181640625,-14.9399995803833,-9.899999618530273,38.87999725341797
1775728223857636400,2.83563623046875,-15.359999656677246,-9.779999732971191,38.21999740600586
1775728223887909600,2.86590966796875,-13.4399995803833,-8.460000038146973,37.91999816894531
1775728223897980400,2.87598046875,-12.119999885559082,-7.319999694824219,38.21999740600586
1775728223907990300,2.885990234375,-12.359999656677246,-6.359999656677246,38.040000915527344
1775728223938233300,2.9162333984375,-12,-6.299999713897705,37.79999923706055
1775728223988556800,2.966556884765625,-7.859999656677246,-4.079999923706055,39.84000015258789
1775728224038849800,3.016849853515625,-8.460000038146973,-4.079999923706055,39.47999954223633
1775728224048951000,3.026950927734375,-8.09999942779541,-4.079999923706055,39.41999816894531
1775728224099335400,3.07733544921875,-10.859999656677246,-4.139999866485596,39.47999954223633
1775728224139527200,3.117527099609375,-10.739999771118164,-3.8399999141693115,40.55999755859375
1775728224179779800,3.15777978515625,-14.579999923706055,-3.5999999046325684,40.02000045776367
1775728224230133800,3.2081337890625,-13.079999923706055,-4.5,39.959999084472656
1775728224240204500,3.21820458984375,-13.380000114440918,-5.339999675750732,40.13999938964844
1775728224270356000,3.24835595703125,-16.020000457763672,-4.980000019073486,39.05999755859375
1775728224300537900,3.278537841796875,-17.15999984741211,-4.920000076293945,38.52000045776367
1775728224330750200,3.308750244140625,-16.19999885559082,-3.419999837875366,37.73999786376953
1775728224381012700,3.3590126953125,-13.139999389648438,-0.5399999618530273,38.459999084472656
1775728224401154300,3.379154296875,-14.399999618530273,1.3199999332427979,38.87999725341797
1775728224411225000,3.38922509765625,-14.9399995803833,2.5199999809265137,38.87999725341797
1775728224421295900,3.3992958984375,-15.899999618530273,3.9599997997283936,39.119998931884766
1775728224431336200,3.409336181640625,-16.079999923706055,5.819999694824219,38.459999084472656
1775728224441437400,3.4194375,-16.739999771118164,7.199999809265137,38.39999771118164
1775728224451508500,3.429508544921875,-17.8799991607666,8.579999923706055,38.939998626708984
1775728224461518000,3.43951806640625,-18.420000076293945,9.779999732971191,38.939998626708984
1775728224471588900,3.4495888671875,-19.68000030517578,10.859999656677246,38.81999969482422
1775728224511780600,3.489780517578125,-20.939998626708984,12.420000076293945,36.36000061035156
1775728224521821000,3.499821044921875,-20.03999900817871,13.139999389648438,35.81999969482422
1775728224531861200,3.509861328125,-20.34000015258789,13.139999389648438,35.81999969482422
1775728224541932000,3.51993212890625,-19.85999870300293,13.799999237060547,35.939998626708984
1775728224552002800,3.5300029296875,-19.799999237060547,14.039999961853027,35.39999771118164
1775728224562104000,3.54010400390625,-21.059999465942383,14.15999984741211,35.040000915527344
1775728224592194300,3.5701943359375,-24.65999984741211,16.5,32.7599983215332
1775728224602295800,3.5802958984375,-24.479999542236328,16.739999771118164,32.880001068115234
1775728224612366600,3.59036669921875,-23.8799991607666,17.279998779296875,32.34000015258789
1775728224622437400,3.600437255859375,-24.35999870300293,17.459999084472656,32.040000915527344
1775728224632477700,3.610477783203125,-24.719999313354492,17.399999618530273,32.21999740600586
1775728224642518000,3.62051806640625,-25.68000030517578,17.639999389648438,31.439998626708984
1775728224652619300,3.630619384765625,-26.8799991607666,17.760000228881836,31.139999389648438
1775728224672699600,3.65069970703125,-27.959999084472656,19.079999923706055,31.139999389648438
1775728224702881500,3.680881591796875,-27.18000030517578,19.619998931884766,30.299999237060547
1775728224712921900,3.690921875,-25.559999465942383,19.68000030517578,30.299999237060547
1775728224733094100,3.71109423828125,-23.279998779296875,18.899999618530273,31.139999389648438
1775728224743165000,3.7211650390625,-24.479999542236328,18.779998779296875,31.5
1775728224753266200,3.73126611328125,-26.399999618530273,18.18000030517578,31.139999389648438
1775728224763337000,3.7413369140625,-28.260000228881836,17.8799991607666,30.899999618530273
1775728224773407700,3.75140771484375,-29.15999984741211,17.8799991607666,31.979999542236328
1775728224803589600,3.781589599609375,-26.8799991607666,16.5,35.21999740600586
1775728224823731200,3.801731201171875,-23.399999618530273,14.880000114440918,35.7599983215332
1775728224833771500,3.811771484375,-21.779998779296875,14.219999313354492,36.779998779296875
1775728224843842300,3.82184228515625,-21.35999870300293,13.019999504089355,36.89999771118164
1775728224853882600,3.831882568359375,-21.84000015258789,12.179999351501465,37.55999755859375
1775728224863953400,3.841953369140625,-22.079999923706055,11.639999389648438,38.15999984741211
1775728224884095000,3.862094970703125,-22.739999771118164,10.260000228881836,38.7599983215332
1775728224904236500,3.882236572265625,-19.85999870300293,8.220000267028809,38.939998626708984
1775728224914276900,3.89227685546875,-18.18000030517578,7.559999942779541,39.41999816894531
1775728224924317200,3.902317138671875,-16.020000457763672,6.239999771118164,39.65999984741211
1775728224934418400,3.91241845703125,-13.979999542236328,5.159999847412109,39.540000915527344
1775728224944489200,3.9224892578125,-15.179999351501465,4.859999656677246,40.02000045776367
1775728224954590700,3.9325908203125,-15.420000076293945,3.8399999141693115,39.36000061035156
1775728224964661500,3.94266162109375,-16.260000228881836,3,38.87999725341797
1775728225015015400,3.993015380859375,-11.579999923706055,-0.11999999731779099,40.2599983215332
1775728225025116700,4.00311669921875,-9.899999618530273,-0.23999999463558197,40.86000061035156
1775728225035187500,4.0131875,-9.539999961853027,-1.6200000047683716,40.68000030517578
1775728225045227800,4.023227783203125,-10.019999504089355,-2.819999933242798,40.2599983215332
1775728225055298600,4.033298583984375,-11.279999732971191,-3.059999942779541,40.5
1775728225065369300,4.043369384765625,-12,-3.8999998569488525,40.37999725341797
1775728225085541600,4.063541748046875,-12.239999771118164,-4.5,39.65999984741211
1775728225115723500,4.0937236328125,-9.539999961853027,-6.299999713897705,38.7599983215332
1775728225125702700,4.10370263671875,-8.039999961853027,-7.139999866485596,38.279998779296875
1775728225135804000,4.113803955078125,-8.399999618530273,-7.37999963760376,38.21999740600586
1775728225145875000,4.123875,-8.760000228881836,-6.960000038146973,38.279998779296875
1775728225155884500,4.133884521484375,-10.139999389648438,-7.199999809265137,38.15999984741211
1775728225165894400,4.143894287109375,-11.460000038146973,-7.139999866485596,38.099998474121094
1775728225175995600,4.15399560546875,-11.639999389648438,-6.899999618530273,38.21999740600586
1775728225236298500,4.214298583984375,-8.15999984741211,-6.599999904632568,39.119998931884766
1775728225256440000,4.234440185546875,-8.15999984741211,-6.179999828338623,38.52000045776367
1775728225266510800,4.2445107421875,-8.15999984741211,-6.059999942779541,38.57999801635742
1775728225276551200,4.25455126953125,-7.619999885559082,-5.279999732971191,39.23999786376953
1775728225286560800,4.264560791015625,-8.039999961853027,-6.059999942779541,38.87999725341797
1775728225306733000,4.284733154296875,-8.09999942779541,-5.21999979019165,40.13999938964844
1775728225316803800,4.294803955078125,-8.34000015258789,-4.980000019073486,40.20000076293945
1775728225326874600,4.30487451171875,-7.799999713897705,-4.5,40.2599983215332
1775728225336945400,4.3149453125,-7.919999599456787,-4.139999866485596,40.2599983215332
1775728225347016200,4.32501611328125,-8.039999961853027,-3.8999998569488525,39.84000015258789
1775728225357087000,4.3350869140625,-7.919999599456787,-4.199999809265137,39.599998474121094
1775728225367127300,4.345127197265625,-7.980000019073486,-3.299999952316284,40.5
1775728225377228500,4.355228515625,-7.980000019073486,-3.5399999618530273,40.20000076293945
1775728225387299300,4.36529931640625,-7.799999713897705,-2.759999990463257,40.73999786376953
1775728225397309200,4.37530908203125,-7.5,-1.7400000095367432,41.040000915527344
1775728225427430000,4.405429931640625,-8.579999923706055,-0.8399999737739563,39.89999771118164
1775728225437531400,4.415531494140625,-9.84000015258789,-0.6599999666213989,39.540000915527344
1775728225447602200,4.425602294921875,-9.899999618530273,-0.29999998211860657,39.47999954223633
1775728225457673000,4.4356728515625,-10.859999656677246,0.05999999865889549,39.540000915527344
1775728225467713300,4.44571337890625,-11.399999618530273,0.29999998211860657,39.119998931884766
1775728225477814500,4.455814453125,-11.279999732971191,0.5999999642372131,38.279998779296875
1775728225487885300,4.46588525390625,-12.119999885559082,1.5,39.119998931884766
1775728225538178300,4.51617822265625,-13.979999542236328,5.400000095367432,38.099998474121094
1775728225548249000,4.5262490234375,-14.039999961853027,6.179999828338623,37.97999954223633
1775728225558350300,4.536350341796875,-15.059999465942383,6.71999979019165,38.459999084472656
1775728225578431000,4.556430908203125,-15.899999618530273,8.399999618530273,39.119998931884766
1775728225598542000,4.5765419921875,-17.459999084472656,8.819999694824219,38.099998474121094
1775728225618683600,4.59668359375,-18.18000030517578,9.300000190734863,36.23999786376953
1775728225628754400,4.60675439453125,-18,9.960000038146973,36.41999816894531
1775728225638794800,4.616794677734375,-18.479999542236328,10.5,35.939998626708984
1775728225648804600,4.6268046875,-19.020000457763672,10.920000076293945,36.18000030517578
1775728225658905900,4.63690576171875,-19.619998931884766,10.800000190734863,35.39999771118164
1775728225668976600,4.6469765625,-19.739999771118164,11.039999961853027,34.5
1775728225678986500,4.656986572265625,-20.219999313354492,10.859999656677246,34.07999801635742
1775728225689026600,4.667026611328125,-21.719999313354492,11.039999961853027,33.41999816894531
1775728225699128000,4.677128173828125,-22.68000030517578,12.65999984741211,33.959999084472656
1775728225739350300,4.717350341796875,-22.5,13.559999465942383,33
1775728225749421000,4.727421142578125,-23.219999313354492,12.59999942779541,31.619998931884766
1775728225759522300,4.737522216796875,-24.119998931884766,12.59999942779541,31.619998931884766
1775728225769562600,4.747562744140625,-24.779998779296875,12.719999313354492,31.439998626708984
1775728225779633400,4.75763330078125,-27.35999870300293,12.719999313354492,30.35999870300293
1775728225789612500,4.767612548828125,-28.3799991607666,13.619999885559082,29.939998626708984
1775728225799714000,4.777714111328125,-29.03999900817871,14.279999732971191,29.939998626708984
1775728225809723600,4.7877236328125,-29.81999969482422,14.460000038146973,29.81999969482422
1775728225839905500,4.817905517578125,-28.31999969482422,15.359999656677246,30.599998474121094
1775728225849945900,4.82794580078125,-28.079999923706055,15.420000076293945,30.17999839782715
1775728225860016600,4.8380166015625,-28.5,15,29.81999969482422
1775728225869996000,4.84799609375,-28.01999855041504,14.819999694824219,29.099998474121094
1775728225880097300,4.85809716796875,-28.5,14.460000038146973,28.31999969482422
1775728225890168000,4.86816796875,-29.03999900817871,14.15999984741211,28.19999885559082
1775728225900269300,4.878269287109375,-28.85999870300293,14.880000114440918,28.619998931884766
1775728225910248700,4.888248779296875,-29.399999618530273,14.399999618530273,28.439998626708984
1775728225950531800,4.92853173828125,-29.760000228881836,12.479999542236328,28.739999771118164
1775728225960633000,4.938633056640625,-29.099998474121094,12.779999732971191,29.51999855041504
1775728225970643000,4.948642822265625,-28.799999237060547,12.119999885559082,29.8799991607666
1775728225980744200,4.958744140625,-29.099998474121094,11.279999732971191,29.760000228881836
1775728225990784500,4.968784423828125,-29.15999984741211,10.739999771118164,30.35999870300293
1775728226000885800,4.9788857421875,-28.979999542236328,9.420000076293945,29.939998626708984
1775728226010895600,4.9888955078125,-28.920000076293945,9.239999771118164,30.599998474121094
1775728226051209200,5.029209228515625,-27.65999984741211,8.519999504089355,33.23999786376953
1775728226061280000,5.039280029296875,-26.03999900817871,7.980000019073486,32.34000015258789
1775728226071289900,5.049289794921875,-25.31999969482422,7.259999752044678,32.52000045776367
1775728226091462000,5.0694619140625,-22.739999771118164,5.940000057220459,33.540000915527344
1775728226101532700,5.07953271484375,-21.899999618530273,6.059999942779541,34.91999816894531
1775728226111603500,5.089603515625,-21.119998931884766,4.920000076293945,35.279998779296875
1775728226161805000,5.13980517578125,-17.69999885559082,4.619999885559082,37.97999954223633
1775728226171875800,5.149875732421875,-16.979999542236328,4.019999980926514,37.91999816894531
1775728226181885400,5.159885498046875,-16.85999870300293,3.359999895095825,37.2599983215332
1775728226191895300,5.169895263671875,-18.119998931884766,2.819999933242798,37.68000030517578
1775728226201996500,5.17999658203125,-18.719999313354492,1.2599999904632568,36.23999786376953
1775728226212067300,5.1900673828125,-18.420000076293945,1.3799999952316284,36.599998474121094
1775728226222138400,5.200138427734375,-17.520000457763672,0.5999999642372131,36
1775728226242280000,5.220280029296875,-15.420000076293945,0.47999998927116394,37.439998626708984
1775728226272370200,5.2503701171875,-12.65999984741211,0.7199999690055847,38.939998626708984
1775728226282471400,5.260471435546875,-12.119999885559082,-0.23999999463558197,38.57999801635742
1775728226292542200,5.270542236328125,-12.960000038146973,-0.5399999618530273,38.70000076293945
1775728226302613000,5.280613037109375,-12.59999942779541,-0.35999998450279236,38.34000015258789
1775728226312684000,5.29068408203125,-12.899999618530273,-0.9599999785423279,38.21999740600586
1775728226322724000,5.30072412109375,-12.119999885559082,-0.5999999642372131,38.81999969482422
1775728226332734000,5.31073388671875,-11.399999618530273,-0.6599999666213989,38.87999725341797
1775728226352906000,5.330906005859375,-11.039999961853027,-0.5999999642372131,39.29999923706055
1775728226393128200,5.371128173828125,-10.019999504089355,0.7199999690055847,39.84000015258789
1775728226403229400,5.3812294921875,-10.260000228881836,0.5399999618530273,40.2599983215332
1775728226413300500,5.391300537109375,-10.079999923706055,0.8999999761581421,40.86000061035156
1775728226423371300,5.401371337890625,-10.139999389648438,0.8399999737739563,41.040000915527344
1775728226433442000,5.411442138671875,-9.84000015258789,0.17999999225139618,40.86000061035156
1775728226463593200,5.44159326171875,-8.519999504089355,-0.7799999713897705,40.37999725341797
1775728226473664300,5.451664306640625,-8.460000038146973,-0.7799999713897705,40.55999755859375
1775728226483735000,5.461735107421875,-8.039999961853027,-0.29999998211860657,40.73999786376953
1775728226493775000,5.471775146484375,-7.079999923706055,-0.5399999618530273,41.21999740600586
1775728226503876600,5.481876708984375,-7.319999694824219,-0.8999999761581421,41.279998779296875
1775728226513947400,5.491947509765625,-7.079999923706055,-0.9599999785423279,41.52000045776367
1775728226524018200,5.50201806640625,-6.839999675750732,-1.7999999523162842,41.39999771118164
1775728226534089000,5.5120888671875,-6.480000019073486,-1.9799998998641968,40.79999923706055
1775728226544129300,5.52212939453125,-6.960000038146973,-2.2799999713897705,40.2599983215332
1775728226584351500,5.5623515625,-6.539999961853027,-1.7400000095367432,38.81999969482422
1775728226594422300,5.57242236328125,-6.359999656677246,-1.1999999284744263,38.279998779296875
1775728226604493000,5.5824931640625,-6.839999675750732,-0.5999999642372131,39.23999786376953
1775728226614563800,5.592563720703125,-6.839999675750732,-0.35999998450279236,38.63999938964844
1775728226624634600,5.602634521484375,-7.079999923706055,0.35999998450279236,38.21999740600586
1775728226634705400,5.612705322265625,-7.919999599456787,0.7199999690055847,38.279998779296875
1775728226644776200,5.622776123046875,-8.699999809265137,0.6599999666213989,37.68000030517578
1775728226654847000,5.632846923828125,-9.719999313354492,1.5,37.86000061035156
1775728226715241200,5.6932412109375,-13.319999694824219,2.0999999046325684,35.459999084472656
1775728226725312000,5.70331201171875,-13.019999504089355,2.879999876022339,35.52000045776367
1775728226735382800,5.7133828125,-12.65999984741211,3.5999999046325684,36
1775728226755555000,5.73355517578125,-13.739999771118164,4.980000019073486,35.34000015258789
1775728226765656300,5.74365625,-14.75999927520752,5.699999809265137,35.21999740600586
1775728226775727000,5.75372705078125,-15.239999771118164,6.299999713897705,34.86000061035156
1775728226826020000,5.80402001953125,-16.3799991607666,8.399999618530273,32.81999969482422
1775728226836060400,5.814060302734375,-15.960000038146973,8.579999923706055,32.34000015258789
1775728226846161700,5.82416162109375,-17.100000381469727,9,32.279998779296875
1775728226856232400,5.834232421875,-17.399999618530273,10.079999923706055,32.34000015258789
1775728226866272800,5.844272705078125,-17.8799991607666,10.739999771118164,31.739999771118164
1775728226876282600,5.85428271484375,-18,12.119999885559082,31.979999542236328
1775728226906464500,5.884464599609375,-18.719999313354492,13.559999465942383,31.67999839782715
1775728226916474000,5.89447412109375,-19.68000030517578,14.15999984741211,31.979999542236328
1775728226926575600,5.90457568359375,-19.85999870300293,13.619999885559082,30.299999237060547
1775728226936676900,5.9146767578125,-19.19999885559082,14.279999732971191,29.939998626708984
1775728226946717200,5.92471728515625,-19.739999771118164,14.519999504089355,29.459999084472656
1775728226956726800,5.934726806640625,-19.920000076293945,15,28.739999771118164
1775728226966828300,5.944828369140625,-20.100000381469727,16.440000534057617,29.03999900817871
1775728226996888000,5.97488818359375,-21.959999084472656,17.219999313354492,28.619998931884766
1775728227027070000,6.005070068359375,-21.779998779296875,17.279998779296875,27.599998474121094
1775728227047150300,6.025150390625,-22.260000228881836,17.03999900817871,27.420000076293945
1775728227057221400,6.035221435546875,-23.34000015258789,16.31999969482422,27.239999771118164
1775728227067292200,6.045292236328125,-25.139999389648438,16.68000030517578,27.84000015258789
1775728227077301800,6.0553017578125,-26.81999969482422,16.979999542236328,27.420000076293945
1775728227097474000,6.07547412109375,-25.85999870300293,17.03999900817871,26.8799991607666
1775728227107544800,6.085544921875,-25.920000076293945,16.139999389648438,26.459999084472656
1775728227127686400,6.105686279296875,-26.15999984741211,14.519999504089355,27.599998474121094
1775728227137726700,6.115726806640625,-26.399999618530273,14.460000038146973,29.15999984741211
1775728227147797500,6.125797607421875,-26.34000015258789,13.799999237060547,29.399999618530273
1775728227157837800,6.135837890625,-26.34000015258789,12.899999618530273,29.34000015258789
1775728227167908600,6.14590869140625,-27.719999313354492,12.779999732971191,30.17999839782715
1775728227177948700,6.15594873046875,-28.799999237060547,12.239999771118164,30.119998931884766
1775728227197998800,6.175998779296875,-28.439998626708984,12.119999885559082,31.67999839782715
1775728227208100000,6.18610009765625,-27.53999900817871,11.699999809265137,31.3799991607666
1775728227218140400,6.196140380859375,-26.03999900817871,11.880000114440918,32.57999801635742
1775728227238312400,6.2163125,-22.19999885559082,10.739999771118164,34.02000045776367
1775728227248383500,6.226383544921875,-20.34000015258789,10.5,35.34000015258789
1775728227258454300,6.236454345703125,-19.079999923706055,9.539999961853027,34.79999923706055
1775728227268525000,6.246525146484375,-18,9.359999656677246,35.279998779296875
1775728227278595800,6.256595947265625,-18.53999900817871,8.760000228881836,36.18000030517578
1775728227298645800,6.276645751953125,-19.19999885559082,7.919999599456787,36.959999084472656
1775728227318787300,6.296787353515625,-18.35999870300293,8.220000267028809,37.5
1775728227328858000,6.306858154296875,-16.979999542236328,7.619999885559082,37.619998931884766
1775728227338868000,6.316867919921875,-15.119999885559082,6.839999675750732,37.55999755859375
1775728227348969200,6.32696923828125,-13.319999694824219,6,37.73999786376953
1775728227359040000,6.3370400390625,-12.359999656677246,4.259999752044678,37.2599983215332
1775728227369110800,6.34711083984375,-12,3.4800000190734863,37.380001068115234
1775728227379151000,6.357151123046875,-11.279999732971191,2.93999981880188,37.31999969482422
1775728227409333000,6.3873330078125,-11.75999927520752,2.0399999618530273,36.959999084472656
1775728227419403800,6.39740380859375,-12,1.9199999570846558,37.73999786376953
1775728227429505300,6.40750537109375,-11.699999809265137,1.559999942779541,38.34000015258789
1775728227439545600,6.417545654296875,-12.059999465942383,1.4399999380111694,38.459999084472656
1775728227449555200,6.42755517578125,-11.15999984741211,1.7400000095367432,39.36000061035156
1775728227459565000,6.43756494140625,-10.019999504089355,1.5,38.57999801635742
1775728227469666300,6.447666259765625,-9.59999942779541,2.0999999046325684,39.18000030517578
1775728227479676200,6.45767626953125,-7.619999885559082,2.0999999046325684,39.05999755859375
1775728227499726000,6.47772607421875,-6.839999675750732,1.8600000143051147,39.05999755859375
1775728227519898400,6.4978984375,-6.480000019073486,1.5,38.52000045776367
1775728227550110700,6.52811083984375,-5.759999752044678,0.9599999785423279,39.65999984741211
1775728227560151000,6.538151123046875,-5.460000038146973,0.8399999737739563,40.2599983215332
1775728227570221800,6.548221923828125,-4.859999656677246,0.41999998688697815,40.02000045776367
1775728227580262100,6.55826220703125,-4.619999885559082,0.29999998211860657,40.5
1775728227590363400,6.56836328125,-4.259999752044678,-0.17999999225139618,40.2599983215332
1775728227620514800,6.598514892578125,-3.419999837875366,-0.8399999737739563,39.65999984741211
1775728227630616000,6.608615966796875,-2.5799999237060547,-1.1999999284744263,39.599998474121094
1775728227640656400,6.618656494140625,-2.3999998569488525,-1.1399999856948853,39.89999771118164
1775728227650727200,6.62872705078125,-1.6799999475479126,-0.9599999785423279,39.84000015258789
1775728227660767500,6.638767578125,-1.4399999380111694,-1.6200000047683716,39.36000061035156
1775728227680848000,6.658847900390625,-1.0199999809265137,-1.0799999237060547,39.47999954223633
1775728227690949400,6.668949462890625,-0.8399999737739563,-1.559999942779541,39.119998931884766
1775728227741242400,6.719242431640625,1.0799999237060547,-0.7799999713897705,37.5
1775728227751313200,6.729313232421875,0.8399999737739563,-1.3199999332427979,37.2599983215332
1775728227761384000,6.739384033203125,0.7199999690055847,-0.6599999666213989,37.68000030517578
1775728227771454700,6.749454833984375,0,-0.29999998211860657,37.91999816894531
1775728227791565800,6.76956591796875,-2.1599998474121094,-0.05999999865889549,38.21999740600586
1775728227801636600,6.77963671875,-3.299999952316284,-0.29999998211860657,38.099998474121094
1775728227831818500,6.809818603515625,-6.119999885559082,1.3199999332427979,38.87999725341797
1775728227841858800,6.81985888671875,-6.480000019073486,2.759999990463257,38.87999725341797
1775728227862000400,6.84000048828125,-7.799999713897705,3.8399999141693115,37.439998626708984
1775728227872071200,6.8500712890625,-8.579999923706055,4.679999828338623,36.65999984741211
1775728227892151600,6.870151611328125,-10.260000228881836,5.099999904632568,35.279998779296875
1775728227902191900,6.88019189453125,-11.639999389648438,6.059999942779541,35.459999084472656
1775728227922272500,6.9002724609375,-13.559999465942383,8.9399995803833,35.880001068115234
1775728227932373800,6.910373779296875,-14.579999923706055,9.960000038146973,35.7599983215332
1775728227942444500,6.920444580078125,-14.15999984741211,11.9399995803833,35.939998626708984
1775728227952454400,6.930454345703125,-14.75999927520752,12.539999961853027,34.86000061035156
1775728227962525200,6.940525146484375,-16.020000457763672,13.079999923706055,34.79999923706055
1775728227972565500,6.9505654296875,-16.920000076293945,13.619999885559082,34.73999786376953
1775728227992676600,6.970676513671875,-18.299999237060547,14.399999618530273,32.57999801635742
1775728228002686500,6.9806865234375,-19.439998626708984,14.639999389648438,31.739999771118164
1775728228012787700,6.99078759765625,-20.100000381469727,15.239999771118164,31.3799991607666
1775728228043000000,7.021,-19.799999237060547,17.399999618530273,31.19999885559082
1775728228053070800,7.03107080078125,-18.899999618530273,17.81999969482422,30.84000015258789
1775728228063141600,7.0411416015625,-18.600000381469727,17.940000534057617,30.17999839782715
1775728228073182000,7.051181884765625,-18.239999771118164,17.69999885559082,29.760000228881836
1775728228083252700,7.061252685546875,-17.81999969482422,17.15999984741211,29.639999389648438
1775728228093323500,7.071323486328125,-18,17.100000381469727,28.739999771118164
1775728228103394300,7.081394287109375,-18.35999870300293,17.15999984741211,28.3799991607666
1775728228113495600,7.09149560546875,-19.3799991607666,17.279998779296875,28.19999885559082
1775728228153717800,7.1317177734375,-24.719999313354492,17.219999313354492,26.69999885559082
1775728228163788500,7.14178857421875,-24.420000076293945,16.920000076293945,26.81999969482422
1775728228173859300,7.151859375,-24.479999542236328,16.079999923706055,26.459999084472656
1775728228183930400,7.161930419921875,-24.779998779296875,14.880000114440918,26.099998474121094
1775728228193940000,7.17193994140625,-26.099998474121094,14.34000015258789,26.03999900817871
1775728228203980300,7.181980224609375,-26.639999389648438,14.15999984741211,25.01999855041504
1775728228214081500,7.19208154296875,-26.459999084472656,14.34000015258789,24.779998779296875
1775728228244294000,7.2222939453125,-28.139999389648438,15.59999942779541,25.920000076293945
1775728228254365000,7.232364990234375,-28.85999870300293,15.539999961853027,26.279998779296875
1775728228264405000,7.242405029296875,-27.959999084472656,14.880000114440918,26.15999984741211
1775728228274475800,7.252475830078125,-27.420000076293945,14.819999694824219,27.53999900817871
1775728228284516000,7.26251611328125,-26.279998779296875,14.09999942779541,27.959999084472656
1775728228294587000,7.2725869140625,-25.85999870300293,12.84000015258789,28.439998626708984
1775728228304657700,7.28265771484375,-25.920000076293945,12.59999942779541,28.559999465942383
1775728228314698000,7.292697998046875,-25.079999923706055,11.699999809265137,28.739999771118164
1775728228364991000,7.342990966796875,-25.559999465942383,11.219999313354492,31.979999542236328
1775728228375092200,7.35309228515625,-25.079999923706055,11.15999984741211,32.34000015258789
1775728228385071600,7.363071533203125,-24.779998779296875,10.619999885559082,32.81999969482422
1775728228395112000,7.37311181640625,-23.219999313354492,9.779999732971191,33.540000915527344
1775728228405213200,7.383213134765625,-21.65999984741211,9.420000076293945,34.31999969482422
1775728228415284000,7.393283935546875,-20.760000228881836,8.34000015258789,34.439998626708984
1775728228465577000,7.443576904296875,-16.19999885559082,6,35.52000045776367
1775728228475617300,7.4536171875,-16.020000457763672,5.699999809265137,35.279998779296875
1775728228485688000,7.46368798828125,-15.839999198913574,4.920000076293945,35.21999740600586
1775728228495758800,7.4737587890625,-14.519999504089355,4.440000057220459,35.81999969482422
1775728228505829600,7.48382958984375,-14.880000114440918,4.5,36.540000915527344
1775728228515809000,7.49380908203125,-15.359999656677246,3.5399999618530273,37.2599983215332
1775728228545991000,7.523990966796875,-15.899999618530273,2.6399998664855957,36.29999923706055
1775728228566132500,7.544132568359375,-11.9399995803833,3.419999837875366,37.13999938964844
1775728228576233700,7.554233642578125,-9.84000015258789,3.359999895095825,37.5
1775728228586243600,7.56424365234375,-9.59999942779541,2.93999981880188,38.099998474121094
1775728228596314400,7.574314453125,-10.319999694824219,1.7999999523162842,38.279998779296875
1775728228606385200,7.58438525390625,-11.579999923706055,1.0799999237060547,37.380001068115234
1775728228616486400,7.594486328125,-13.5,0.8399999737739563,37.20000076293945
1775728228626557200,7.60455712890625,-13.5,1.4399999380111694,36.65999984741211
1775728228666840300,7.64484033203125,-12,3.419999837875366,37.86000061035156
1775728228676911000,7.6549111328125,-11.279999732971191,3.7200000286102295,37.31999969482422
1775728228686951400,7.664951416015625,-9.59999942779541,4.019999980926514,37.55999755859375
1775728228697053000,7.675052978515625,-7.799999713897705,3.7799999713897705,38.15999984741211
1775728228707123700,7.685123779296875,-6.239999771118164,3.6599998474121094,38.7599983215332
1775728228717194500,7.695194580078125,-6.179999828338623,3,39
1775728228727265300,7.705265380859375,-7.980000019073486,3.059999942779541,39
1775728228757416400,7.73541650390625,-11.219999313354492,3.359999895095825,38.7599983215332
1775728228767456800,7.745456787109375,-10.380000114440918,3.4800000190734863,38.52000045776367
1775728228777527600,7.755527587890625,-9.179999351501465,3.5999999046325684,39.119998931884766
1775728228787598300,7.765598388671875,-7.619999885559082,3.119999885559082,38.81999969482422
1775728228797669400,7.77566943359375,-6.359999656677246,2.879999876022339,39.23999786376953
1775728228807679000,7.785678955078125,-5.579999923706055,2.2200000286102295,39.36000061035156
1775728228817780200,7.7957802734375,-6.239999771118164,1.4399999380111694,38.099998474121094
1775728228827851300,7.805851318359375,-7.919999599456787,1.7400000095367432,38.57999801635742
1775728228858094000,7.836093994140625,-9.779999732971191,2.700000047683716,38.279998779296875
1775728228868164900,7.846164794921875,-8.819999694824219,2.6399998664855957,37.86000061035156
1775728228878235600,7.856235595703125,-7.679999828338623,2.879999876022339,38.459999084472656
1775728228888306400,7.866306396484375,-5.579999923706055,2.819999933242798,38.099998474121094
1775728228898316300,7.87631640625,-5.339999675750732,2.759999990463257,38.34000015258789
1775728228908326000,7.886325927734375,-5.099999904632568,2.5799999237060547,38.15999984741211
1775728228918396700,7.896396728515625,-5.21999979019165,2.700000047683716,38.040000915527344
1775728228928437000,7.90643701171875,-5.460000038146973,3.119999885559082,38.099998474121094
1775728228938446800,7.91644677734375,-6.599999904632568,2.6399998664855957,37.31999969482422
1775728228968659200,7.9466591796875,-9,3.359999895095825,36.05999755859375
1775728228978760400,7.956760498046875,-8.460000038146973,3.299999952316284,34.86000061035156
1775728228988770300,7.966770263671875,-7.440000057220459,3.179999828338623,34.73999786376953
1775728228998871600,7.97687158203125,-8.34000015258789,3.059999942779541,33.89999771118164
1775728229008942300,7.9869423828125,-9.59999942779541,3.5399999618530273,34.5
1775728229018952200,7.9969521484375,-11.219999313354492,4.679999828338623,35.63999938964844
1775728229028992500,8.006992431640626,-14.09999942779541,5.279999732971191,35.279998779296875
1775728229039032800,8.01703271484375,-16.260000228881836,5.039999961853027,34.86000061035156
1775728229059174400,8.03717431640625,-18.53999900817871,5.819999694824219,33.05999755859375
1775728229079255000,8.057255126953125,-17.69999885559082,7.319999694824219,32.15999984741211
1775728229089295400,8.06729541015625,-15.719999313354492,7.799999713897705,31.559999465942383
1775728229099335400,8.07733544921875,-15.239999771118164,8.460000038146973,31.559999465942383
1775728229109345300,8.08734521484375,-14.819999694824219,8.760000228881836,31.19999885559082
1775728229119446500,8.097446533203126,-14.039999961853027,8.699999809265137,30.719999313354492
1775728229129517300,8.107517333984376,-15.119999885559082,8.699999809265137,30.35999870300293
1775728229139588000,8.117588134765626,-16.19999885559082,9,29.579999923706055
1775728229149659000,8.127658935546876,-17.03999900817871,10.019999504089355,29.399999618530273
1775728229169709000,8.147708984375,-20.639999389648438,11.9399995803833,28.979999542236328
1775728229179810300,8.157810302734376,-20.69999885559082,12.420000076293945,28.85999870300293
1775728229189789700,8.167789794921875,-20.100000381469727,12.59999942779541,28.3799991607666
1775728229199860500,8.177860595703125,-19.439998626708984,12.359999656677246,27.899999618530273
1775728229209900800,8.18790087890625,-18.35999870300293,12,28.01999855041504
1775728229220002000,8.198001953125,-17.579999923706055,12.059999465942383,28.260000228881836
1775728229230072800,8.20807275390625,-18.35999870300293,12,27.239999771118164
1775728229240143600,8.2181435546875,-19.439998626708984,12.420000076293945,27.119998931884766
1775728229250214400,8.22821435546875,-20.579999923706055,12.539999961853027,26.099998474121094
1775728229290528300,8.2685283203125,-23.81999969482422,12.960000038146973,23.760000228881836
1775728229300599000,8.27859912109375,-23.760000228881836,12.719999313354492,23.51999855041504
1775728229310669800,8.288669921875,-22.5,13.019999504089355,23.219999313354492
1775728229320710100,8.298710205078125,-21.239999771118164,12.899999618530273,23.219999313354492
1775728229330750200,8.308750244140626,-20.69999885559082,12.420000076293945,22.920000076293945
1775728229340851700,8.318851806640625,-20.69999885559082,12.420000076293945,22.68000030517578
1775728229350922500,8.328922607421875,-22.559999465942383,12.719999313354492,22.979999542236328
1775728229360962800,8.338962890625,-24.719999313354492,13.019999504089355,23.03999900817871
1775728229391083500,8.36908349609375,-26.279998779296875,14.699999809265137,23.579999923706055
1775728229401184800,8.379184814453126,-24.899999618530273,14.579999923706055,23.279998779296875
1775728229411255800,8.389255859375,-23.81999969482422,13.619999885559082,22.920000076293945
1775728229421326600,8.39932666015625,-23.100000381469727,13.199999809265137,23.51999855041504
1775728229431397400,8.4093974609375,-22.68000030517578,13.019999504089355,23.399999618530273
1775728229441468200,8.41946826171875,-22.979999542236328,12.479999542236328,23.81999969482422
1775728229451447300,8.429447265625,-23.279998779296875,12.65999984741211,24.420000076293945
1775728229461548500,8.439548583984376,-24.299999237060547,12.779999732971191,23.760000228881836
1775728229481690400,8.4596904296875,-22.979999542236328,12.420000076293945,23.69999885559082
1775728229491761200,8.46976123046875,-21.84000015258789,12.179999351501465,23.51999855041504
1775728229501832000,8.47983203125,-20.03999900817871,11.639999389648438,23.51999855041504
1775728229511902700,8.48990283203125,-19.31999969482422,12.420000076293945,25.01999855041504
1775728229521973500,8.499973388671876,-19.139999389648438,12.59999942779541,25.260000228881836
1775728229532013800,8.510013916015625,-19.979999542236328,12.479999542236328,25.619998931884766
1775728229542115000,8.520114990234376,-20.399999618530273,12.84000015258789,26.459999084472656
1775728229552185900,8.530185791015626,-21.65999984741211,12.179999351501465,26.399999618530273
1775728229562226200,8.54022607421875,-20.579999923706055,11.9399995803833,27.420000076293945
1775728229602448400,8.580448486328125,-15.059999465942383,11.219999313354492,29.34000015258789
1775728229612488700,8.59048876953125,-14.09999942779541,10.739999771118164,30.479999542236328
1775728229622559500,8.6005595703125,-14.880000114440918,10.679999351501465,31.3799991607666
1775728229632569000,8.610569091796876,-15.719999313354492,9.65999984741211,30.479999542236328
1775728229642640000,8.620639892578126,-15.960000038146973,9.119999885559082,30.84000015258789
1775728229652649700,8.630649658203126,-16.139999389648438,7.919999599456787,30.899999618530273
1775728229662720500,8.640720458984376,-14.279999732971191,6.899999618530273,30.719999313354492
1775728229692841500,8.670841552734375,-9.239999771118164,5.339999675750732,31.85999870300293
1775728229702912300,8.680912353515625,-8.579999923706055,4.619999885559082,32.279998779296875
1775728229712921900,8.690921875,-8.039999961853027,4.799999713897705,32.39999771118164
1775728229723023400,8.7010234375,-8.15999984741211,4.259999752044678,31.979999542236328
1775728229733094100,8.71109423828125,-8.460000038146973,3.8999998569488525,32.040000915527344
1775728229743103700,8.721103759765626,-8.34000015258789,3.5399999618530273,31.920000076293945
1775728229753113600,8.731113525390626,-7.259999752044678,3.240000009536743,31.979999542236328
1775728229763214800,8.74121484375,-7.139999866485596,2.3999998569488525,32.15999984741211
1775728229773255200,8.751255126953126,-6.359999656677246,2.93999981880188,32.81999969482422
1775728229803406600,8.781406494140626,-8.039999961853027,4.380000114440918,32.57999801635742
1775728229813477400,8.791477294921876,-9.420000076293945,4.920000076293945,32.39999771118164
1775728229823487200,8.8014873046875,-7.919999599456787,6.599999904632568,33.65999984741211
1775728229833496800,8.811496826171876,-6.960000038146973,6.119999885559082,33.23999786376953
1775728229843567600,8.821567626953126,-5.639999866485596,5.400000095367432,33.47999954223633
1775728229853608000,8.83160791015625,-4.199999809265137,4.799999713897705,33.23999786376953
1775728229863678700,8.8416787109375,-4.859999656677246,3.7799999713897705,33.18000030517578
1775728229873688600,8.8516884765625,-5.279999732971191,4.019999980926514,33.599998474121094
1775728229883789800,8.861789794921876,-6.359999656677246,4.679999828338623,33.47999954223633
1775728229903931400,8.881931396484376,-8.15999984741211,4.559999942779541,32.70000076293945
1775728229924042500,8.90204248046875,-7.019999980926514,4.559999942779541,33.23999786376953
1775728229934052400,8.91205224609375,-5.400000095367432,4.259999752044678,33.599998474121094
1775728229944153600,8.922153564453126,-5.339999675750732,3.9599997997283936,33.36000061035156
1775728229954163500,8.93216357421875,-4.5,3.119999885559082,33.05999755859375
1775728229964264700,8.9422646484375,-4.980000019073486,2.879999876022339,32.21999740600586
1775728229974305000,8.952304931640626,-4.980000019073486,3,31.67999839782715
1775728229984345300,8.962345458984375,-3.4800000190734863,3.059999942779541,32.279998779296875
1775728230004456400,8.98245654296875,-4.199999809265137,3.4800000190734863,31.67999839782715
1775728230014527200,8.99252734375,-5.639999866485596,3.9599997997283936,32.099998474121094
1775728230024598000,9.002597900390626,-6.839999675750732,4.679999828338623,32.459999084472656
1775728230034607600,9.012607666015626,-7.019999980926514,4.199999809265137,32.21999740600586
1775728230044678700,9.0226787109375,-5.460000038146973,4.139999866485596,32.459999084472656
1775728230054749400,9.03274951171875,-4.559999942779541,3.419999837875366,31.439998626708984
1775728230064850700,9.0428505859375,-4.079999923706055,2.3399999141693115,30.17999839782715
1775728230074891000,9.05289111328125,-5.039999961853027,2.6399998664855957,29.8799991607666
1775728230084961800,9.0629619140625,-6.71999979019165,2.6399998664855957,29.279998779296875
1775728230105011700,9.08301171875,-8.399999618530273,4.859999656677246,29.639999389648438
1775728230115052000,9.093052001953126,-8.699999809265137,4.980000019073486,29.81999969482422
1775728230125122800,9.103122802734376,-8.699999809265137,6.059999942779541,29.399999618530273
1775728230135193600,9.113193603515626,-7.980000019073486,6.299999713897705,29.639999389648438
1775728230145264400,9.123264404296876,-7.139999866485596,6.420000076293945,29.639999389648438
1775728230155304700,9.1333046875,-6.179999828338623,7.019999980926514,29.639999389648438
1775728230165375500,9.14337548828125,-5.87999963760376,6.71999979019165,30.239999771118164
1775728230175446300,9.1534462890625,-6.359999656677246,6.839999675750732,29.279998779296875
1775728230185517000,9.16351708984375,-8.039999961853027,7.319999694824219,28.799999237060547
1775728230205659000,9.183658935546875,-10.739999771118164,9.479999542236328,27.599998474121094
1775728230225800400,9.203800537109375,-11.699999809265137,11.15999984741211,27.479999542236328
1775728230235871200,9.213871337890625,-10.979999542236328,11.460000038146973,27.35999870300293
1775728230245942000,9.22394189453125,-9.960000038146973,11.399999618530273,26.81999969482422
1775728230256012800,9.2340126953125,-9.059999465942383,11.699999809265137,27
1775728230266022400,9.2440224609375,-10.079999923706055,11.34000015258789,25.85999870300293
1775728230276062700,9.254062744140626,-12.119999885559082,11.15999984741211,24.719999313354492
1775728230286103000,9.26410302734375,-15.119999885559082,11.880000114440918,24.53999900817871
1775728230296113000,9.27411279296875,-17.15999984741211,12.84000015258789,24.059999465942383
1775728230326233600,9.304233642578126,-18,15.179999351501465,24.35999870300293
1775728230336243500,9.314243408203126,-18.600000381469727,14.819999694824219,23.939998626708984
1775728230346344700,9.3243447265625,-18.299999237060547,15.359999656677246,23.639999389648438
1775728230356415500,9.33441552734375,-18.479999542236328,15.420000076293945,22.739999771118164
1775728230376526600,9.354526611328126,-17.69999885559082,15.899999618530273,21.84000015258789
1775728230386628000,9.364628173828125,-16.799999237060547,15.65999984741211,21.479999542236328
1775728230396699000,9.374698974609375,-16.079999923706055,15.359999656677246,21.420000076293945
1775728230426911200,9.4049111328125,-17.459999084472656,16.440000534057617,19.85999870300293
1775728230447083300,9.425083251953126,-19.19999885559082,18,19.19999885559082
1775728230457184500,9.4351845703125,-18.420000076293945,18.119998931884766,18.959999084472656
1775728230467255600,9.445255615234375,-18,17.520000457763672,18
1775728230477326300,9.455326416015625,-17.279998779296875,17.459999084472656,18.53999900817871
1775728230487397000,9.465397216796875,-17.03999900817871,17.520000457763672,19.260000228881836
1775728230497468000,9.475468017578125,-19.139999389648438,16.85999870300293,19.260000228881836
1775728230507538700,9.48553857421875,-21.479999542236328,16.920000076293945,19.68000030517578
1775728230527619300,9.505619384765625,-23.81999969482422,16.799999237060547,18
1775728230547699700,9.52569970703125,-22.3799991607666,17.399999618530273,18.299999237060547
1775728230557709600,9.53570947265625,-21.65999984741211,16.920000076293945,18.299999237060547
1775728230567810800,9.545810791015626,-20.760000228881836,16.920000076293945,18.600000381469727
1775728230577790200,9.555790283203125,-20.34000015258789,16.31999969482422,18.779998779296875
1775728230587891500,9.565891357421876,-20.81999969482422,16.020000457763672,18.53999900817871
1775728230597931800,9.575931884765625,-22.020000457763672,16.260000228881836,18.479999542236328
1775728230608002600,9.58600244140625,-23.03999900817871,16.260000228881836,18.65999984741211
1775728230618073300,9.5960732421875,-22.920000076293945,16.920000076293945,18.959999084472656
1775728230648255200,9.626255126953126,-21.779998779296875,17.100000381469727,19.559999465942383
1775728230658265000,9.63626513671875,-20.639999389648438,16.799999237060547,19.85999870300293
1775728230668335900,9.6463359375,-18.779998779296875,16.19999885559082,20.459999084472656
1775728230678376000,9.6563759765625,-17.03999900817871,15.59999942779541,21.239999771118164
1775728230688446700,9.66644677734375,-15.65999984741211,15.179999351501465,21.479999542236328
1775728230698517800,9.676517822265625,-15.839999198913574,14.819999694824219,21.600000381469727
1775728230708588500,9.686588623046875,-16.920000076293945,14.699999809265137,21.899999618530273
1775728230718659300,9.696659423828125,-18.239999771118164,14.699999809265137,22.5
1775728230748871700,9.72687158203125,-18.899999618530273,13.380000114440918,24.959999084472656
1775728230768921600,9.746921630859376,-16.19999885559082,12.179999351501465,25.68000030517578
1775728230778962000,9.7569619140625,-14.460000038146973,10.739999771118164,26.279998779296875
1775728230789032700,9.76703271484375,-12.59999942779541,9.84000015258789,26.579999923706055
1775728230799073000,9.777072998046876,-10.979999542236328,8.579999923706055,26.51999855041504
1775728230809174300,9.78717431640625,-10.199999809265137,8.399999618530273,26.639999389648438
1775728230819245300,9.797245361328125,-9.779999732971191,7.980000019073486,26.639999389648438
1775728230839356200,9.817356201171876,-7.5,8.639999389648438,28.139999389648438
1775728230849427000,9.827427001953126,-7.5,8.09999942779541,28.439998626708984
1775728230859436800,9.837436767578126,-6.839999675750732,8.279999732971191,28.920000076293945
1775728230869507600,9.847507568359376,-6.539999961853027,7.980000019073486,28.079999923706055
1775728230879578400,9.857578369140626,-6.480000019073486,7.559999942779541,27.84000015258789
1775728230889649200,9.867649169921876,-6,7.739999771118164,28.01999855041504
1775728230899720000,9.877719970703126,-6.599999904632568,7.37999963760376,26.8799991607666
1775728230909760300,9.88776025390625,-7.919999599456787,7.739999771118164,27.719999313354492
1775728230919739600,9.89773974609375,-8.34000015258789,8.819999694824219,27.779998779296875
1775728230949860400,9.9278603515625,-5.940000057220459,10.5,27.65999984741211
1775728230959931100,9.93793115234375,-4.920000076293945,10.199999809265137,27.719999313354492
1775728230970002000,9.948001953125,-4.5,10.260000228881836,27.53999900817871
1775728230980011800,9.95801171875,-2.879999876022339,10.260000228881836,27.779998779296875
1775728230990113000,9.968113037109376,-2.2200000286102295,10.139999389648438,28.5
1775728231000183800,9.978183837890626,-1.3799999952316284,10.859999656677246,28.920000076293945
1775728231010254600,9.988254638671876,-1.1399999856948853,11.75999927520752,29.579999923706055
1775728231020325600,9.99832568359375,-0.5999999642372131,12.59999942779541,30.239999771118164
1775728231050446300,10.0284462890625,1.1999999284744263,12.539999961853027,28.5
1775728231060517000,10.03851708984375,2.0999999046325684,12.960000038146973,28.5
1775728231070588000,10.048587890625,1.8600000143051147,12.65999984741211,27.959999084472656
1775728231080658700,10.05865869140625,1.3799999952316284,12.719999313354492,28.439998626708984
1775728231090729500,10.0687294921875,0.8399999737739563,12.899999618530273,28.439998626708984
1775728231100800300,10.07880029296875,0.11999999731779099,13.019999504089355,28.19999885559082
1775728231110871000,10.08887109375,-0.23999999463558197,13.079999923706055,27.899999618530273
1775728231120911400,10.098911376953126,-1.0799999237060547,13.019999504089355,27.599998474121094
1775728231130921200,10.108921142578126,-0.9599999785423279,13.25999927520752,27.479999542236328
1775728231151032300,10.1290322265625,0.05999999865889549,13.859999656677246,26.579999923706055
1775728231161072600,10.13907275390625,0.05999999865889549,13.859999656677246,26.279998779296875
1775728231171143400,10.149143310546876,-0.23999999463558197,14.039999961853027,26.760000228881836
1775728231181183700,10.159183837890625,-1.6200000047683716,13.920000076293945,26.15999984741211
1775728231191285000,10.169284912109376,-2.4600000381469727,13.25999927520752,26.51999855041504
1775728231201355800,10.179355712890626,-2.4600000381469727,13.5,26.279998779296875
1775728231211365600,10.18936572265625,-3.299999952316284,13.199999809265137,25.139999389648438
1775728231221436400,10.1994365234375,-3.9599997997283936,13.019999504089355,24.899999618530273
1775728231231507200,10.209507080078126,-5.21999979019165,13.319999694824219,25.139999389648438
1775728231271790300,10.249790283203126,-6.119999885559082,12.779999732971191,23.03999900817871
1775728231281861000,10.259861083984376,-6.779999732971191,12.479999542236328,23.03999900817871
1775728231291932000,10.269931884765626,-7.319999694824219,11.9399995803833,22.5
1775728231301972200,10.27997216796875,-7.559999942779541,11.880000114440918,22.139999389648438
1775728231312012500,10.290012451171876,-8.220000267028809,12.059999465942383,22.559999465942383
1775728231322083300,10.300083251953126,-7.440000057220459,12.539999961853027,22.5
1775728231332093200,10.31009326171875,-7.37999963760376,13.079999923706055,22.559999465942383
1775728231372284700,10.35028466796875,-8.519999504089355,15.359999656677246,22.920000076293945
1775728231382325000,10.360324951171876,-7.619999885559082,15.899999618530273,22.260000228881836
1775728231402466600,10.380466552734376,-7.559999942779541,15.960000038146973,20.520000457763672
1775728231422547200,10.400547119140626,-8.09999942779541,17.219999313354492,21.53999900817871
1775728231432587500,10.41058740234375,-8.220000267028809,17.69999885559082,21.719999313354492
1775728231442627800,10.4206279296875,-9.300000190734863,18.479999542236328,21.35999870300293
1775728231462800000,10.4407998046875,-9.84000015258789,18.18000030517578,19.139999389648438
1775728231482911000,10.460910888671876,-8.699999809265137,18.600000381469727,19.139999389648438
1775728231492981800,10.470981689453126,-7.919999599456787,18.479999542236328,19.19999885559082
1775728231502991600,10.48099169921875,-8.519999504089355,18.35999870300293,18.719999313354492
1775728231513062400,10.4910625,-9.179999351501465,18.420000076293945,18.119998931884766
1775728231523163600,10.50116357421875,-10.079999923706055,18.239999771118164,17.459999084472656
1775728231543244300,10.521244384765625,-10.260000228881836,19.979999542236328,17.34000015258789
1775728231573426200,10.55142626953125,-8.699999809265137,21.959999084472656,19.3799991607666
1775728231583497000,10.5614970703125,-8.399999618530273,21.719999313354492,19.260000228881836
1775728231593537300,10.571537353515625,-9.239999771118164,21.65999984741211,19.19999885559082
1775728231603608000,10.581608154296875,-9.960000038146973,21.84000015258789,18.84000015258789
1775728231613709300,10.591709228515626,-10.4399995803833,21.35999870300293,17.81999969482422
1775728231623780000,10.601780029296876,-11.399999618530273,21.600000381469727,17.15999984741211
1775728231633820400,10.6118203125,-10.859999656677246,21.719999313354492,16.979999542236328
1775728231643891200,10.62189111328125,-10.800000190734863,21.420000076293945,17.100000381469727
1775728231663941000,10.641941162109376,-11.09999942779541,21.059999465942383,17.579999923706055
1775728231684113400,10.662113525390625,-11.34000015258789,20.939998626708984,17.03999900817871
1775728231694184200,10.67218408203125,-11.15999984741211,20.399999618530273,16.85999870300293
1775728231704255000,10.6822548828125,-11.9399995803833,20.15999984741211,17.100000381469727
1775728231714325800,10.69232568359375,-12.239999771118164,19.979999542236328,17.279998779296875
1775728231724335600,10.702335693359375,-12.119999885559082,19.979999542236328,17.279998779296875
1775728231734436900,10.712436767578126,-12.539999961853027,20.399999618530273,18.18000030517578
1775728231744507600,10.722507568359376,-11.880000114440918,20.81999969482422,18
1775728231754517500,10.732517578125,-11.399999618530273,20.399999618530273,17.940000534057617
1775728231774689500,10.752689453125,-12.179999351501465,20.520000457763672,19.31999969482422
1775728231815003100,10.793003173828126,-12.59999942779541,18.84000015258789,19.85999870300293
1775728231835145000,10.81314501953125,-12.539999961853027,17.940000534057617,20.639999389648438
1775728231845154600,10.823154541015626,-12.059999465942383,17.639999389648438,21.600000381469727
1775728231855225300,10.833225341796876,-11.75999927520752,16.68000030517578,21.600000381469727
1775728231875367000,10.853366943359376,-11.75999927520752,15.119999885559082,22.31999969482422
1775728231885437700,10.863437744140626,-11.279999732971191,14.639999389648438,22.439998626708984
1775728231895478000,10.87347802734375,-10.920000076293945,14.460000038146973,22.979999542236328
1775728231905548800,10.883548828125,-11.219999313354492,14.219999313354492,23.939998626708984
1775728231915589000,10.893589111328126,-11.519999504089355,13.5,24.35999870300293
1775728231925660000,10.903659912109376,-11.219999313354492,13.139999389648438,24.84000015258789
1775728231935761400,10.913761474609375,-11.09999942779541,12.84000015258789,25.3799991607666
1775728231945832200,10.923832275390625,-10.319999694824219,12.479999542236328,24.65999984741211
1775728231955872300,10.933872314453126,-11.039999961853027,12.719999313354492,25.139999389648438
1775728231965973800,10.943973876953125,-11.579999923706055,13.319999694824219,25.619998931884766
1775728232026459600,11.004459716796875,-6.839999675750732,13.920000076293945,27.059999465942383
1775728232036530400,11.014530517578125,-6.839999675750732,13.799999237060547,27.420000076293945
1775728232046601200,11.024601318359375,-6.779999732971191,13.979999542236328,27.059999465942383
1775728232056672000,11.034672119140625,-6.71999979019165,14.15999984741211,27.53999900817871
1775728232066742800,11.04474267578125,-7.199999809265137,13.739999771118164,27.65999984741211
1775728232076752400,11.05475244140625,-7.079999923706055,14.399999618530273,28.19999885559082
1775728232096802600,11.074802490234376,-7.5,14.460000038146973,28.439998626708984
1775728232106843000,11.0848427734375,-7.259999752044678,14.639999389648438,28.079999923706055
1775728232116944100,11.094944091796876,-7.980000019073486,13.739999771118164,27.719999313354492
1775728232127015000,11.105014892578126,-7.619999885559082,14.279999732971191,28.079999923706055
1775728232137085700,11.115085693359376,-8.279999732971191,14.34000015258789,28.3799991607666
1775728232147095600,11.125095458984376,-8.579999923706055,14.75999927520752,29.34000015258789
1775728232157196800,11.13519677734375,-9.539999961853027,15.059999465942383,30.119998931884766
1775728232167206700,11.14520654296875,-10.260000228881836,14.639999389648438,30.299999237060547
1775728232177308000,11.155307861328126,-10.199999809265137,14.639999389648438,30.53999900817871
1775728232207520300,11.185520263671876,-12.960000038146973,14.219999313354492,29.399999618530273
1775728232257843700,11.23584375,-6.899999618530273,17.940000534057617,29.639999389648438
1775728232267853600,11.245853515625,-5.940000057220459,18.35999870300293,29.579999923706055
1775728232277954800,11.255954833984376,-5.940000057220459,18.18000030517578,29.219999313354492
1775728232308075800,11.28607568359375,-5.519999980926514,19.5,29.399999618530273
1775728232318146600,11.296146484375,-4.739999771118164,20.219999313354492,30.059999465942383
1775728232328187000,11.306186767578126,-3.7799999713897705,20.219999313354492,29.69999885559082
1775728232338288000,11.3162880859375,-3.419999837875366,20.34000015258789,29.69999885559082
1775728232348328400,11.326328369140626,-3.419999837875366,20.219999313354492,28.979999542236328
1775728232358429700,11.3364296875,-4.019999980926514,20.219999313354492,28.799999237060547
1775728232368470000,11.346469970703126,-4.380000114440918,19.920000076293945,28.439998626708984
1775728232378571300,11.3565712890625,-4.139999866485596,19.739999771118164,27.65999984741211
1775728232408722700,11.38672265625,-3.6599998474121094,20.81999969482422,28.619998931884766
1775728232418763000,11.396762939453126,-3.7799999713897705,20.760000228881836,29.03999900817871
1775728232428803300,11.40680322265625,-3.8399999141693115,20.939998626708984,29.34000015258789
1775728232438904600,11.416904541015626,-4.380000114440918,20.81999969482422,30.17999839782715
1775728232448975400,11.426975341796876,-5.940000057220459,20.03999900817871,28.979999542236328
1775728232459046100,11.437046142578126,-6.239999771118164,20.399999618530273,28.799999237060547
1775728232469056000,11.447055908203126,-6.119999885559082,19.799999237060547,28.01999855041504
1775728232479157200,11.4571572265625,-5.699999809265137,18.779998779296875,26.03999900817871
1775728232529511400,11.507511474609375,-3.8399999141693115,19.31999969482422,27.299999237060547
1775728232539582200,11.517582275390625,-3.419999837875366,18.899999618530273,26.760000228881836
1775728232549653000,11.527653076171875,-3.359999895095825,18.35999870300293,27.299999237060547
1775728232559662600,11.53766259765625,-3.299999952316284,18.600000381469727,27.479999542236328
1775728232569733400,11.5477333984375,-2.3999998569488525,18.059999465942383,26.8799991607666
1775728232579804200,11.55780419921875,-3.8399999141693115,17.639999389648438,27.35999870300293
1775728232589875000,11.567875,-4.440000057220459,18,28.19999885559082
1775728232620026400,11.5980263671875,-4.380000114440918,18.719999313354492,28.31999969482422
1775728232630036200,11.6080361328125,-3.9599997997283936,19.079999923706055,27.599998474121094
1775728232640137500,11.618137451171876,-4.559999942779541,19.619998931884766,28.3799991607666
1775728232650116900,11.628116943359375,-5.099999904632568,20.219999313354492,28.619998931884766
1775728232660218000,11.638218017578126,-5.819999694824219,19.85999870300293,28.85999870300293
1775728232670228000,11.64822802734375,-6.899999618530273,20.15999984741211,29.099998474121094
1775728232680329200,11.6583291015625,-7.619999885559082,20.34000015258789,28.68000030517578
1775728232690338800,11.6683388671875,-8.519999504089355,20.760000228881836,28.68000030517578
1775728232700440300,11.6784404296875,-9.359999656677246,21.299999237060547,28.31999969482422
1775728232750763800,11.728763671875,-13.380000114440918,22.260000228881836,28.559999465942383
1775728232760804000,11.73880419921875,-14.75999927520752,21.779998779296875,28.559999465942383
1775728232770813700,11.748813720703126,-15.960000038146973,22.439998626708984,29.459999084472656
1775728232780915200,11.758915283203125,-16.920000076293945,22.739999771118164,30.420000076293945
1775728232790924800,11.7689248046875,-18,22.020000457763672,29.459999084472656
1775728232801026300,11.7790263671875,-18.959999084472656,21.899999618530273,29.03999900817871
1775728232821167900,11.79916796875,-19.68000030517578,21,27.059999465942383
1775728232831208200,11.809208251953125,-19.85999870300293,21,27.719999313354492
1775728232841279000,11.819279052734375,-20.639999389648438,21.059999465942383,28.739999771118164
1775728232851349800,11.829349853515625,-22.31999969482422,20.279998779296875,29.03999900817871
1775728232861420500,11.839420654296875,-23.69999885559082,19.920000076293945,29.51999855041504
1775728232871399700,11.849399658203126,-24.779998779296875,19.5,29.399999618530273
1775728232881501000,11.8595009765625,-25.3799991607666,18.779998779296875,28.559999465942383
1775728232891572000,11.869572021484375,-25.19999885559082,18.239999771118164,27.84000015258789
1775728232901612000,11.879612060546876,-25.5,17.399999618530273,27.479999542236328
1775728232941864700,11.91986474609375,-25.739999771118164,17.459999084472656,27.35999870300293
1775728232951905000,11.929905029296876,-26.760000228881836,18.059999465942383,27
1775728232962006500,11.940006591796875,-28.079999923706055,18,27.479999542236328
1775728232972107800,11.950107666015626,-28.5,18.119998931884766,26.639999389648438
1775728232992157700,11.97015771484375,-26.099998474121094,17.459999084472656,25.31999969482422
1775728233002259200,11.98025927734375,-25.85999870300293,17.520000457763672,24.600000381469727
1775728233012330000,11.990330078125,-25.439998626708984,17.81999969482422,24.84000015258789
1775728233032441000,12.010441162109375,-24.959999084472656,18.779998779296875,26.03999900817871
1775728233042481200,12.020481201171876,-25.139999389648438,18.899999618530273,26.399999618530273
1775728233052491000,12.030490966796876,-25.3799991607666,19.139999389648438,26.939998626708984
1775728233062592300,12.04059228515625,-25.85999870300293,18.719999313354492,27.299999237060547
1775728233072632600,12.050632568359376,-25.3799991607666,18.899999618530273,27.18000030517578
1775728233082734000,12.060734130859375,-24.18000030517578,18.899999618530273,27.779998779296875
1775728233092804900,12.070804931640625,-23.81999969482422,18.65999984741211,27.84000015258789
1775728233102875600,12.080875732421875,-22.85999870300293,19.079999923706055,27.899999618530273
1775728233112946400,12.090946533203125,-23.639999389648438,18.899999618530273,28.5
1775728233143067100,12.121067138671876,-23.8799991607666,18.779998779296875,29.03999900817871
1775728233153077000,12.131076904296876,-22.68000030517578,18.479999542236328,29.099998474121094
1775728233163178200,12.14117822265625,-21.899999618530273,18,29.099998474121094
1775728233173188000,12.15118798828125,-20.520000457763672,17.69999885559082,29.760000228881836
1775728233183289300,12.161289306640626,-19.260000228881836,16.739999771118164,30.299999237060547
1775728233193360100,12.171360107421876,-18.119998931884766,15.479999542236328,29.69999885559082
1775728233203461400,12.18146142578125,-16.979999542236328,14.699999809265137,29.939998626708984
1775728233213471200,12.19147119140625,-16.139999389648438,13.799999237060547,30.53999900817871
1775728233223542000,12.2015419921875,-15.839999198913574,13.5,31.439998626708984
1775728233263733800,12.241733642578126,-14.819999694824219,11.15999984741211,34.55999755859375
1775728233273774000,12.251774169921875,-14.460000038146973,10.139999389648438,34.5
1775728233283875300,12.261875244140626,-13.559999465942383,10.019999504089355,35.040000915527344
1775728233293915600,12.27191552734375,-12.479999542236328,9.359999656677246,34.380001068115234
1775728233304017000,12.282016845703126,-13.139999389648438,8.639999389648438,34.31999969482422
1775728233314057200,12.29205712890625,-12.59999942779541,8.34000015258789,34.619998931884766
1775728233324128000,12.3021279296875,-12.420000076293945,7.259999752044678,34.5
1775728233354340400,12.33234033203125,-11.279999732971191,6.420000076293945,34.619998931884766
1775728233364441600,12.342441650390626,-10.920000076293945,5.87999963760376,34.380001068115234
1775728233374451500,12.352451416015626,-10.679999351501465,5.159999847412109,34.68000030517578
1775728233384522200,12.362522216796876,-9.899999618530273,4.739999771118164,35.099998474121094
1775728233394562600,12.3725625,-9.899999618530273,4.139999866485596,35.279998779296875
1775728233404663800,12.382663818359376,-8.9399995803833,4.079999923706055,36.05999755859375
1775728233414673700,12.392673583984376,-9.479999542236328,4.019999980926514,36.29999923706055
1775728233424775000,12.40277490234375,-8.760000228881836,3.5999999046325684,36.540000915527344
1775728233444886000,12.422885986328126,-10.859999656677246,3.240000009536743,37.439998626708984
1775728233464936200,12.442936279296875,-12,2.5199999809265137,37.86000061035156
1775728233475007000,12.453007080078125,-12.239999771118164,2.3399999141693115,37.439998626708984
1775728233485077800,12.463077880859375,-10.979999542236328,1.6799999475479126,37.55999755859375
1775728233495148500,12.4731484375,-9.59999942779541,1.3799999952316284,37.73999786376953
1775728233505219300,12.48321923828125,-7.980000019073486,1.2599999904632568,37.619998931884766
1775728233515259600,12.493259765625,-6.179999828338623,1.1999999284744263,38.040000915527344
1775728233525269200,12.503269287109376,-5.460000038146973,0.7799999713897705,38.040000915527344
1775728233555451100,12.533451171875,-2.5199999809265137,0.11999999731779099,38.459999084472656
1775728233585633000,12.563633056640626,-1.7400000095367432,-0.05999999865889549,39.119998931884766
1775728233595643000,12.573642822265626,-2.1599998474121094,-0.41999998688697815,39.36000061035156
1775728233605744000,12.583744140625,-1.9799998998641968,-0.17999999225139618,40.07999801635742
1775728233615815000,12.59381494140625,-1.559999942779541,-0.47999998927116394,39.599998474121094
1775728233625885700,12.6038857421875,-1.559999942779541,0.17999999225139618,40.5
1775728233635926000,12.613926025390626,-1.0199999809265137,0.5999999642372131,40.619998931884766
1775728233645996800,12.623996826171876,-0.41999998688697815,0.29999998211860657,40.37999725341797
1775728233676209400,12.65420947265625,2.0999999046325684,0.6599999666213989,39.23999786376953
1775728233686249500,12.66424951171875,2.2200000286102295,0.41999998688697815,39.119998931884766
1775728233696320300,12.6743203125,2.2200000286102295,0.35999998450279236,39.29999923706055
1775728233706391300,12.684391357421875,2.4600000381469727,-0.9599999785423279,38.52000045776367
1775728233716462000,12.694462158203125,1.3199999332427979,-1.7999999523162842,38.63999938964844
1775728233726532900,12.704532958984375,1.7999999523162842,-1.9799998998641968,38.81999969482422
1775728233736542500,12.71454248046875,1.9799998998641968,-1.559999942779541,39.36000061035156
1775728233746644000,12.72464404296875,1.8600000143051147,-0.7799999713897705,39.599998474121094
1775728233776764700,12.7547646484375,5.519999980926514,-0.6599999666213989,38.7599983215332
1775728233786866000,12.764865966796876,6.539999961853027,-1.0799999237060547,38.81999969482422
1775728233796937000,12.77493701171875,6.839999675750732,-0.23999999463558197,38.939998626708984
1775728233807038200,12.7850380859375,7.559999942779541,-0.41999998688697815,38.459999084472656
1775728233817109000,12.79510888671875,7.559999942779541,-0.17999999225139618,38.459999084472656
1775728233827179800,12.8051796875,8.09999942779541,0.29999998211860657,38.34000015258789
1775728233837220000,12.81522021484375,8.399999618530273,-0.11999999731779099,38.099998474121094
1775728233847321300,12.8253212890625,7.859999656677246,-0.29999998211860657,38.040000915527344
1775728233887543600,12.86554345703125,9.479999542236328,-1.5,37.20000076293945
1775728233897583900,12.875583984375,9.119999885559082,-1.3799999952316284,37.439998626708984
1775728233907593500,12.885593505859376,9.65999984741211,-1.3199999332427979,37.02000045776367
1775728233917603300,12.895603271484376,9.119999885559082,-0.5399999618530273,38.15999984741211
1775728233927674000,12.905674072265626,9.059999465942383,-0.05999999865889549,37.91999816894531
1775728233937684000,12.91568408203125,8.09999942779541,0.11999999731779099,37.97999954223633
1775728233967804700,12.9458046875,7.859999656677246,0.47999998927116394,37.55999755859375
1775728233977906200,12.95590625,9.239999771118164,0.17999999225139618,37.2599983215332
1775728233987977000,12.96597705078125,10.019999504089355,-0.11999999731779099,37.55999755859375
1775728233998047700,12.9760478515625,9.719999313354492,-0.47999998927116394,37.31999969482422
1775728234008118500,12.986118408203126,9.59999942779541,-0.41999998688697815,37.86000061035156
1775728234018189300,12.996189208984376,9.359999656677246,-0.11999999731779099,37.439998626708984
1775728234028199200,13.00619921875,8.880000114440918,-0.17999999225139618,37.02000045776367
1775728234038239200,13.0162392578125,8.579999923706055,0.17999999225139618,36.71999740600586
1775728234068451800,13.046451904296875,9.65999984741211,1.7999999523162842,37.79999923706055
1775728234078492000,13.056491943359376,10.079999923706055,1.9199999570846558,38.21999740600586
1775728234088593400,13.066593505859375,9.479999542236328,1.1999999284744263,37.97999954223633
1775728234098664200,13.076664306640625,9.779999732971191,1.0799999237060547,37.5
1775728234108765400,13.086765380859376,9.479999542236328,1.0799999237060547,36.89999771118164
1775728234118836200,13.096836181640626,9.479999542236328,1.4399999380111694,36.65999984741211
1775728234128907000,13.106906982421876,9.719999313354492,2.0399999618530273,36.84000015258789
1775728234138977800,13.116977783203126,10.139999389648438,2.819999933242798,36.65999984741211
1775728234149048600,13.127048583984376,10.319999694824219,2.879999876022339,37.02000045776367
1775728234219330600,13.19733056640625,11.399999618530273,5.940000057220459,37.55999755859375
1775728234229432000,13.20743212890625,10.619999885559082,5.940000057220459,36.779998779296875
1775728234239472000,13.21747216796875,9.899999618530273,6.420000076293945,36.89999771118164
1775728234249573600,13.22757373046875,9.59999942779541,6.420000076293945,37.2599983215332
1775728234269654000,13.247654052734376,9.119999885559082,7.199999809265137,37.86000061035156
1775728234279755500,13.257755615234375,9.239999771118164,7.440000057220459,37.5
1775728234289826300,13.267826416015625,8.9399995803833,7.799999713897705,37.380001068115234
1775728234299897000,13.27789697265625,8.699999809265137,8.519999504089355,37.31999969482422
1775728234309906700,13.28790673828125,8.579999923706055,8.519999504089355,36.36000061035156
1775728234320008200,13.29800830078125,8.519999504089355,8.819999694824219,36.89999771118164
1775728234330079000,13.308078857421876,8.9399995803833,9.239999771118164,36.540000915527344
1775728234340088600,13.318088623046876,8.819999694824219,9.059999465942383,35.81999969482422
1775728234350159600,13.32815966796875,8.9399995803833,9.899999618530273,37.13999938964844
1775728234360199700,13.33819970703125,8.9399995803833,10.4399995803833,37.13999938964844
1775728234410462200,13.388462158203126,8.880000114440918,11.819999694824219,37.86000061035156
1775728234420533000,13.398532958984376,8.279999732971191,11.399999618530273,37.79999923706055
1775728234430573300,13.4085732421875,8.09999942779541,11.039999961853027,37.55999755859375
1775728234440674600,13.418674560546876,6.420000076293945,10.800000190734863,36.41999816894531
1775728234450684400,13.428684326171876,5.819999694824219,10.739999771118164,36
1775728234460755200,13.438755126953126,5.87999963760376,10.559999465942383,35.52000045776367
1775728234490906600,13.46890673828125,8.399999618530273,10.739999771118164,36.540000915527344
1775728234500947000,13.478947021484375,8.09999942779541,10.800000190734863,37.31999969482422
1775728234510956500,13.48895654296875,7.919999599456787,11.15999984741211,37.68000030517578
1775728234521058000,13.49905810546875,7.319999694824219,10.139999389648438,37.02000045776367
1775728234531067600,13.509067626953126,7.079999923706055,10.319999694824219,38.52000045776367
1775728234541138400,13.519138427734376,6.839999675750732,10.380000114440918,37.97999954223633
1775728234551178800,13.5291787109375,6.539999961853027,10.019999504089355,38.34000015258789
1775728234561280000,13.539280029296876,6.960000038146973,10.380000114440918,38.87999725341797
1775728234601532700,13.57953271484375,8.279999732971191,9.84000015258789,39.41999816894531
1775728234611603500,13.589603515625,8.039999961853027,9.179999351501465,39.18000030517578
1775728234621613300,13.59961328125,8.460000038146973,9.300000190734863,38.7599983215332
1775728234631714600,13.609714599609376,8.460000038146973,9.719999313354492,39.18000030517578
1775728234641755000,13.6197548828125,9.119999885559082,9.059999465942383,37.91999816894531
1775728234651856400,13.6298564453125,9.479999542236328,9.059999465942383,38.040000915527344
1775728234661896400,13.639896484375,10.4399995803833,9.119999885559082,38.63999938964844
1775728234702088200,13.680088134765626,11.399999618530273,7.139999866485596,36.89999771118164
1775728234712159000,13.690158935546876,11.699999809265137,7.019999980926514,36.41999816894531
1775728234722229800,13.700229736328126,11.34000015258789,7.37999963760376,36.540000915527344
1775728234732300500,13.710300537109376,11.880000114440918,7.619999885559082,37.02000045776367
1775728234742310400,13.720310302734376,11.219999313354492,7.980000019073486,37.02000045776367
1775728234752350700,13.730350830078125,10.079999923706055,8.519999504089355,37.5
1775728234762421500,13.74042138671875,10.380000114440918,8.220000267028809,38.040000915527344
1775728234772431000,13.75043115234375,9.779999732971191,7.919999599456787,37.68000030517578
1775728234822663200,13.8006630859375,14.460000038146973,6.899999618530273,36.47999954223633
1775728234832734000,13.81073388671875,14.579999923706055,6.420000076293945,37.07999801635742
1775728234842804700,13.8208046875,14.519999504089355,6.539999961853027,37.5
1775728234852875500,13.83087548828125,14.219999313354492,6.779999732971191,37.91999816894531
1775728234862915800,13.840915771484376,14.039999961853027,7.259999752044678,38.39999771118164
1775728234872956200,13.8509560546875,14.34000015258789,6.899999618530273,38.279998779296875
1775728234913178400,13.891178466796875,16.079999923706055,5.21999979019165,36.119998931884766
1775728234923188000,13.90118798828125,16.440000534057617,5.339999675750732,35.81999969482422
1775728234933258800,13.9112587890625,15.839999198913574,4.980000019073486,36.47999954223633
1775728234943329500,13.92132958984375,14.279999732971191,4.980000019073486,36.36000061035156
1775728234953339400,13.93133935546875,13.139999389648438,5.400000095367432,36.71999740600586
1775728234963410200,13.94141015625,12.960000038146973,6.299999713897705,37.439998626708984
1775728234973450500,13.951450439453126,14.75999927520752,7.019999980926514,37.20000076293945
1775728235003632400,13.98163232421875,16.19999885559082,6.359999656677246,36.23999786376953
1775728235013703200,13.991703125,15.059999465942383,6.179999828338623,36.29999923706055
1775728235023682600,14.0016826171875,15.539999961853027,6.239999771118164,35.81999969482422
1775728235033783800,14.01178369140625,15.65999984741211,5.940000057220459,35.63999938964844
1775728235043793400,14.02179345703125,15.65999984741211,6.480000019073486,36.959999084472656
1775728235053833700,14.031833740234376,15.960000038146973,7.139999866485596,37.439998626708984
1775728235063904500,14.041904541015626,15.239999771118164,6.960000038146973,37.86000061035156
1775728235073944800,14.05194482421875,13.739999771118164,7.799999713897705,37.79999923706055
1775728235083954700,14.06195458984375,12.719999313354492,7.739999771118164,37.5
1775728235114136600,14.092136474609376,11.579999923706055,7.919999599456787,36.959999084472656
1775728235124207400,14.102207275390626,11.639999389648438,7.5,35.7599983215332
1775728235134247700,14.11224755859375,11.15999984741211,7.199999809265137,35.81999969482422
1775728235144318500,14.122318359375,11.039999961853027,6.659999847412109,35.7599983215332
1775728235154358800,14.13235888671875,10.739999771118164,5.579999923706055,35.15999984741211
1775728235164399000,14.142399169921875,10.679999351501465,5.639999866485596,35.39999771118164
1775728235174408700,14.15240869140625,11.15999984741211,5.87999963760376,35.34000015258789
1775728235184479500,14.1624794921875,10.979999542236328,6,34.97999954223633
1775728235234803000,14.212802978515626,10.739999771118164,7.37999963760376,36.36000061035156
1775728235244843300,14.22284326171875,10.619999885559082,6.779999732971191,36.29999923706055
1775728235254944800,14.23294482421875,11.15999984741211,7.319999694824219,36.29999923706055
1775728235265015600,14.243015625,11.819999694824219,7.619999885559082,35.81999969482422
1775728235275086300,14.25308642578125,12.179999351501465,7.559999942779541,35.939998626708984
1775728235285126700,14.263126708984375,12.65999984741211,8.09999942779541,35.939998626708984
1775728235295228000,14.273227783203126,12.179999351501465,7.619999885559082,36.05999755859375
1775728235305268200,14.283268310546875,12.059999465942383,7.5,36.18000030517578
1775728235315369500,14.293369384765626,12.059999465942383,7.919999599456787,36.18000030517578
1775728235345521000,14.32352099609375,11.09999942779541,8.15999984741211,36.599998474121094
1775728235355561200,14.333561279296875,10.4399995803833,7.679999828338623,36.779998779296875
1775728235365632000,14.343632080078125,10.559999465942383,7.440000057220459,36.84000015258789
1775728235375641600,14.3536416015625,10.199999809265137,6.960000038146973,36.05999755859375
1775728235385712400,14.36371240234375,10.260000228881836,7.37999963760376,36.119998931884766
1775728235395752700,14.373752685546876,10.4399995803833,7.739999771118164,36.119998931884766
1775728235405823500,14.383823486328126,10.679999351501465,8.220000267028809,36.23999786376953
1775728235446045700,14.424045654296876,12.59999942779541,9.719999313354492,37.07999801635742
1775728235456147000,14.43414697265625,12.359999656677246,9.65999984741211,36.959999084472656
1775728235466156800,14.44415673828125,13.25999927520752,9.059999465942383,37.07999801635742
1775728235476227600,14.4542275390625,13.859999656677246,9,36.23999786376953
1775728235486268000,14.464267822265626,14.09999942779541,9,36.23999786376953
1775728235496369200,14.474369140625,14.34000015258789,8.760000228881836,35.63999938964844
1775728235506379000,14.48437890625,13.979999542236328,9.179999351501465,36
1775728235516388900,14.494388916015625,13.799999237060547,9.420000076293945,36.540000915527344
1775728235526459600,14.504459716796875,14.219999313354492,9.359999656677246,35.880001068115234
1775728235566742800,14.54474267578125,14.519999504089355,10.5,37.07999801635742
1775728235586823400,14.564823486328125,15.239999771118164,10.619999885559082,36.47999954223633
1775728235596924700,14.574924560546876,15.059999465942383,10.199999809265137,36.540000915527344
1775728235606934300,14.584934326171876,15.479999542236328,9.239999771118164,36.540000915527344
1775728235627076000,14.605076171875,16.739999771118164,9.119999885559082,36.47999954223633
1775728235637116200,14.6151162109375,16.68000030517578,9.179999351501465,36.18000030517578
1775728235667298000,14.645298095703126,16.799999237060547,10.859999656677246,37.2599983215332
1775728235677399600,14.655399658203125,17.03999900817871,10.679999351501465,36.89999771118164
1775728235687409200,14.6654091796875,16.85999870300293,9.960000038146973,36.779998779296875
1775728235697449500,14.675449462890626,16.920000076293945,9.84000015258789,36.599998474121094
1775728235707520300,14.685520263671876,17.15999984741211,9,36.18000030517578
1775728235717560600,14.695560546875,16.260000228881836,9.899999618530273,37.13999938964844
1775728235727601000,14.705600830078126,14.9399995803833,9.539999961853027,36.36000061035156
1775728235767823000,14.745822998046876,12.84000015258789,10.920000076293945,37.91999816894531
1775728235777894000,14.755893798828126,13.859999656677246,11.039999961853027,37.68000030517578
1775728235787903700,14.76590380859375,14.819999694824219,10.199999809265137,36.84000015258789
1775728235798005000,14.7760048828125,14.880000114440918,10.619999885559082,37.31999969482422
1775728235808014600,14.7860146484375,14.699999809265137,10.800000190734863,36.65999984741211
1775728235828187000,14.806186767578126,13.679999351501465,10.4399995803833,36.119998931884766
1775728235858399200,14.836399169921876,15.239999771118164,10.559999465942383,36.47999954223633
1775728235878449400,14.856449462890625,15,10.920000076293945,36.47999954223633
1775728235888489500,14.866489501953126,14.460000038146973,10.679999351501465,35.939998626708984
1775728235898591000,14.876591064453125,14.639999389648438,10.679999351501465,36.18000030517578
1775728235908570000,14.886570068359376,14.460000038146973,10.859999656677246,36.05999755859375
1775728235918671400,14.89667138671875,14.279999732971191,10.019999504089355,36.18000030517578
1775728235928681200,14.90668115234375,14.75999927520752,11.219999313354492,36.959999084472656
1775728235938782500,14.916782470703126,13.619999885559082,11.519999504089355,36.84000015258789
1775728235958863000,14.936863037109376,14.279999732971191,12.239999771118164,36.29999923706055
1775728235968934000,14.946933837890626,14.279999732971191,10.859999656677246,36.18000030517578
1775728235979004700,14.957004638671876,15.779999732971191,10.679999351501465,36.84000015258789
1775728235988984000,14.966984130859375,16.68000030517578,9.539999961853027,37.31999969482422
1775728235999085300,14.977085205078126,15.59999942779541,9.300000190734863,37.5
1775728236009095000,14.987094970703126,15.299999237060547,10.5,37.5
1775728236019166000,14.997166015625,14.880000114440918,10.380000114440918,37.07999801635742
1775728236029145000,15.00714501953125,14.399999618530273,10.859999656677246,36.41999816894531
1775728236039246300,15.017246337890626,13.799999237060547,10.260000228881836,35.459999084472656
1775728236069367300,15.0473671875,14.219999313354492,9.779999732971191,35.39999771118164
1775728236089539300,15.067539306640626,15.839999198913574,10.739999771118164,36.599998474121094
1775728236099610000,15.077610107421876,16.139999389648438,10.619999885559082,36.23999786376953
1775728236109650400,15.087650390625,15.420000076293945,10.800000190734863,36.18000030517578
1775728236119751700,15.097751708984376,13.079999923706055,9.84000015258789,35.63999938964844
1775728236129761500,15.107761474609376,13.25999927520752,9.59999942779541,36
1775728236139862800,15.11786279296875,12.84000015258789,9.719999313354492,36.599998474121094
1775728236190155800,15.16815576171875,14.880000114440918,12,37.619998931884766
1775728236210267000,15.188266845703126,15.65999984741211,10.859999656677246,36.05999755859375
1775728236220368100,15.1983681640625,15.119999885559082,10.800000190734863,35.880001068115234
1775728236230378000,15.2083779296875,14.519999504089355,10.380000114440918,35.81999969482422
1775728236240387800,15.218387939453125,13.079999923706055,10.619999885559082,36.540000915527344
1775728236250458600,15.228458740234375,12.300000190734863,11.399999618530273,36.959999084472656
1775728236280579300,15.258579345703126,13.139999389648438,12.300000190734863,36
1775728236290650000,15.268650146484376,13.319999694824219,12.779999732971191,36.05999755859375
1775728236300721000,15.278720947265626,12.65999984741211,12.239999771118164,36.47999954223633
1775728236310761200,15.28876123046875,12.239999771118164,11.880000114440918,35.21999740600586
1775728236320771000,15.29877099609375,11.639999389648438,11.699999809265137,35.52000045776367
1775728236330841900,15.308841796875,11.039999961853027,11.34000015258789,35.15999984741211
1775728236340851700,15.318851806640625,10.380000114440918,11.699999809265137,35.81999969482422
1775728236350892000,15.32889208984375,9.65999984741211,12.059999465942383,36.47999954223633
1775728236401154300,15.379154296875,11.279999732971191,14.219999313354492,36.29999923706055
1775728236411225000,15.38922509765625,10.800000190734863,14.399999618530273,36
1775728236421295900,15.3992958984375,10.920000076293945,14.579999923706055,36
1775728236431275300,15.409275146484376,10.559999465942383,14.279999732971191,36.47999954223633
1775728236441376500,15.41937646484375,8.639999389648438,14.219999313354492,36.23999786376953
1775728236451447300,15.429447265625,8.09999942779541,15.059999465942383,36.89999771118164
1775728236481537800,15.459537841796875,7.980000019073486,15.359999656677246,36.89999771118164
1775728236491577900,15.469577880859376,8.699999809265137,15.119999885559082,36.779998779296875
1775728236501679400,15.479679443359375,9.119999885559082,15.119999885559082,36.36000061035156
1775728236511750100,15.489750244140625,8.9399995803833,14.579999923706055,36.18000030517578
1775728236521821000,15.499821044921875,7.619999885559082,14.219999313354492,37.439998626708984
1775728236531891700,15.5098916015625,7.079999923706055,14.15999984741211,37.02000045776367
1775728236541901300,15.5199013671875,6.480000019073486,14.399999618530273,37.2599983215332
1775728236551941600,15.529941650390626,5.039999961853027,14.279999732971191,37.439998626708984
1775728236562043100,15.540043212890625,4.319999694824219,14.819999694824219,36.89999771118164
1775728236602326300,15.580326171875,1.5,15.299999237060547,35.939998626708984
1775728236612397000,15.59039697265625,2.6399998664855957,15.65999984741211,36.71999740600586
1775728236622467800,15.6004677734375,3.240000009536743,15.539999961853027,36.959999084472656
1775728236632477700,15.610477783203125,4.920000076293945,15.539999961853027,36.65999984741211
1775728236642548500,15.620548583984375,5.159999847412109,15.479999542236328,37.380001068115234
1775728236652558000,15.63055810546875,4.799999713897705,15.65999984741211,36.84000015258789
1775728236662659600,15.64065966796875,4.559999942779541,15.420000076293945,36.41999816894531
1775728236692810800,15.670810791015626,0.8999999761581421,15.299999237060547,35.880001068115234
1775728236702881500,15.680881591796876,0.23999999463558197,16.3799991607666,36
1775728236712891400,15.690891357421876,1.3799999952316284,17.15999984741211,36.18000030517578
1775728236722992600,15.70099267578125,1.9199999570846558,17.15999984741211,36.36000061035156
1775728236733033000,15.711032958984376,2.759999990463257,17.03999900817871,37.380001068115234
1775728236743073300,15.7210732421875,2.879999876022339,16.920000076293945,38.099998474121094
1775728236753144000,15.73114404296875,2.1599998474121094,16.739999771118164,38.099998474121094
1775728236763214800,15.74121484375,0.8999999761581421,16.5,37.619998931884766
1775728236773285600,15.75128564453125,-0.7199999690055847,16.920000076293945,37.439998626708984
1775728236803437000,15.78143701171875,-3.5399999618530273,17.69999885559082,36.540000915527344
1775728236813477400,15.791477294921876,-2.4600000381469727,18.18000030517578,36.18000030517578
1775728236823548200,15.801548095703126,-1.0799999237060547,18.299999237060547,36.71999740600586
1775728236833588500,15.81158837890625,0.6599999666213989,19.260000228881836,36.959999084472656
1775728236853669000,15.831669189453125,2.1599998474121094,18.119998931884766,36.65999984741211
1775728236863740000,15.841739990234375,1.6799999475479126,17.639999389648438,36.18000030517578
1775728236873810700,15.851810791015625,0.7799999713897705,16.85999870300293,36
1775728236904053500,15.882053466796876,-1.6200000047683716,17.459999084472656,36.29999923706055
1775728236924195000,15.902195068359376,-1.0799999237060547,19.079999923706055,37.31999969482422
1775728236934265900,15.912265869140626,-0.05999999865889549,18.719999313354492,37.380001068115234
1775728236944336600,15.922336669921876,-0.29999998211860657,17.520000457763672,37.20000076293945
1775728236954377000,15.932376953125,-0.6599999666213989,16.260000228881836,36.47999954223633
1775728236974518500,15.9525185546875,0.05999999865889549,15.420000076293945,36.23999786376953
1775728236984528400,15.9625283203125,1.0799999237060547,16.020000457763672,36.84000015258789
1775728237014618600,15.99261865234375,2.2200000286102295,16.559999465942383,38.459999084472656
1775728237034760400,16.012760498046877,2.6399998664855957,17.459999084472656,39.29999923706055
1775728237044800500,16.022800537109376,3.059999942779541,16.85999870300293,38.57999801635742
1775728237054810400,16.032810302734376,3.299999952316284,16.619998931884766,38.15999984741211
1775728237064881200,16.042881103515626,4.199999809265137,16.3799991607666,38.57999801635742
1775728237074952000,16.052951904296876,5.099999904632568,15.119999885559082,37.73999786376953
1775728237105011700,16.08301171875,5.87999963760376,14.219999313354492,37.380001068115234
1775728237115021600,16.093021484375,6.059999942779541,14.519999504089355,37.2599983215332
1775728237125122800,16.103122802734376,5.400000095367432,14.15999984741211,37.79999923706055
1775728237135193600,16.113193603515626,5.819999694824219,14.219999313354492,38.040000915527344
1775728237145264400,16.123264404296876,5.87999963760376,14.15999984741211,38.21999740600586
1775728237155335200,16.133335205078126,6.059999942779541,13.679999351501465,38.21999740600586
1775728237165406000,16.143406005859376,6.239999771118164,13.859999656677246,38.34000015258789
1775728237175477000,16.15347705078125,5.339999675750732,12.960000038146973,38.21999740600586
1775728237185547800,16.1635478515625,4.139999866485596,13.319999694824219,37.86000061035156
1775728237205689300,16.183689453125,3.6599998474121094,14.09999942779541,36.71999740600586
1775728237215760100,16.193760009765626,3.5399999618530273,15.179999351501465,37.02000045776367
1775728237225831000,16.203830810546876,4.980000019073486,14.880000114440918,36.779998779296875
1775728237235840800,16.2138408203125,5.400000095367432,15,37.439998626708984
1775728237245942000,16.22394189453125,6.239999771118164,14.399999618530273,37.97999954223633
1775728237255951600,16.23395166015625,7.259999752044678,14.519999504089355,37.97999954223633
1775728237266053000,16.24405322265625,6.480000019073486,14.699999809265137,38.63999938964844
1775728237276124000,16.2541240234375,6.420000076293945,14.15999984741211,37.91999816894531
1775728237286225200,16.26422509765625,6.059999942779541,14.15999984741211,37.07999801635742
1775728237336579000,16.3145791015625,2.5199999809265137,16.799999237060547,37.13999938964844
1775728237346649900,16.32464990234375,3.5999999046325684,16.559999465942383,37.5
1775728237356721000,16.334720947265627,4.440000057220459,16.3799991607666,37.439998626708984
1775728237366822100,16.344822265625,4.559999942779541,16.3799991607666,37.380001068115234
1775728237376893000,16.354892822265626,2.3399999141693115,16.68000030517578,37.439998626708984
1775728237386963700,16.364963623046876,0.9599999785423279,17.100000381469727,36.959999084472656
1775728237417176000,16.395176025390626,-1.3799999952316284,18.53999900817871,36
1775728237437317600,16.415317626953126,-1.3199999332427979,18.18000030517578,34.31999969482422
1775728237447388400,16.425388427734376,-1.9799998998641968,17.520000457763672,33.41999816894531
1775728237457398300,16.435398193359376,-1.3199999332427979,18,34.2599983215332
1775728237467469000,16.445468994140626,-0.41999998688697815,17.34000015258789,34.02000045776367
1775728237477479000,16.45547900390625,-0.47999998927116394,18.119998931884766,35.040000915527344
1775728237487580200,16.465580078125,-0.05999999865889549,18.719999313354492,35.63999938964844
1775728237497651000,16.47565087890625,-1.4399999380111694,18.35999870300293,35.34000015258789
1775728237517731600,16.495731689453127,-2.819999933242798,17.760000228881836,35.21999740600586
1775728237537873200,16.515873046875,-0.35999998450279236,16.020000457763672,34.13999938964844
1775728237547883000,16.525883056640627,0.47999998927116394,15.479999542236328,34.55999755859375
1775728237557984300,16.535984375,2.3999998569488525,16.020000457763672,35.040000915527344
1775728237568085500,16.54608544921875,1.8600000143051147,14.75999927520752,35.34000015258789
1775728237578156300,16.55615625,-0.17999999225139618,15.119999885559082,36.18000030517578
1775728237588196600,16.566196533203126,-1.6799999475479126,15.420000076293945,36.47999954223633
1775728237598297900,16.5762978515625,-4.079999923706055,14.579999923706055,36.65999984741211
1775728237628418800,16.606418701171876,-2.6399998664855957,14.639999389648438,35.81999969482422
1775728237638489600,16.616489501953126,-2.2799999713897705,14.699999809265137,35.63999938964844
1775728237648560400,16.626560302734376,-0.8399999737739563,14.639999389648438,36.29999923706055
1775728237658631200,16.636631103515626,0.5999999642372131,14.34000015258789,35.52000045776367
1775728237668671500,16.64667138671875,1.1399999856948853,14.579999923706055,35.81999969482422
1775728237678681300,16.656681396484377,1.0199999809265137,14.519999504089355,35.52000045776367
1775728237688721400,16.666721435546876,-0.8999999761581421,14.15999984741211,35.21999740600586
1775728237698792200,16.676792236328126,-3,14.039999961853027,35.7599983215332
1775728237728913200,16.7069130859375,-3.299999952316284,14.279999732971191,35.52000045776367
1775728237738892300,16.716892333984376,-2.4600000381469727,14.519999504089355,35.15999984741211
1775728237748963300,16.72696337890625,-2.3399999141693115,14.699999809265137,36.119998931884766
1775728237759003400,16.73700341796875,-1.2599999904632568,14.819999694824219,36.23999786376953
1775728237779053600,16.757053466796876,0.7199999690055847,15,37.07999801635742
1775728237789094000,16.767093994140627,0.41999998688697815,14.75999927520752,35.39999771118164
1775728237799164700,16.77716455078125,-1.0799999237060547,15.119999885559082,35.39999771118164
1775728237809235500,16.7872353515625,-2.3399999141693115,15.420000076293945,34.97999954223633
1775728237839417300,16.817417236328126,-4.739999771118164,15.960000038146973,34.68000030517578
1775728237849488100,16.827488037109376,-4.559999942779541,16.19999885559082,34.619998931884766
1775728237859559000,16.837558837890626,-4.019999980926514,16.799999237060547,34.73999786376953
1775728237869599200,16.84759912109375,-2.6399998664855957,16.739999771118164,35.21999740600586
1775728237879639600,16.8576396484375,-1.9199999570846558,15.779999732971191,35.21999740600586
1775728237889710300,16.86771044921875,-1.2599999904632568,15.359999656677246,35.52000045776367
1775728237899781000,16.877781005859376,-2.5199999809265137,14.399999618530273,35.39999771118164
1775728237909790700,16.887790771484376,-4.559999942779541,14.399999618530273,34.97999954223633
1775728237940033800,16.91803369140625,-8.15999984741211,14.699999809265137,34.73999786376953
1775728237950104600,16.9281044921875,-7.739999771118164,15.65999984741211,35.15999984741211
1775728237960175400,16.93817529296875,-6.71999979019165,15.65999984741211,35.34000015258789
1775728237970246100,16.94824609375,-5.279999732971191,16.31999969482422,35.81999969482422
1775728237980256000,16.958256103515627,-4.079999923706055,15.539999961853027,36.119998931884766
1775728237990326800,16.968326904296877,-3.8999998569488525,14.699999809265137,35.880001068115234
1775728238000397600,16.9783974609375,-4.259999752044678,15.059999465942383,36.23999786376953
1775728238010468400,16.98846826171875,-6.359999656677246,15.059999465942383,35.459999084472656
1775728238020539100,16.9985390625,-8.579999923706055,15.960000038146973,34.68000030517578
1775728238070862600,17.048862548828126,-9.479999542236328,19.619998931884766,32.81999969482422
1775728238080933400,17.058933349609376,-8.34000015258789,21,33
1775728238091004200,17.069004150390626,-7.5,21.719999313354492,33.119998931884766
1775728238101075000,17.079074951171876,-6.359999656677246,22.3799991607666,32.81999969482422
1775728238111145700,17.089145751953126,-5.940000057220459,22.5,32.34000015258789
1775728238121216500,17.099216552734376,-6.059999942779541,21.84000015258789,31.260000228881836
1775728238131287300,17.109287353515626,-6.659999847412109,22.020000457763672,30.239999771118164
1775728238161469200,17.13946923828125,-10.800000190734863,24.899999618530273,28.85999870300293
1775728238181611000,17.159611083984377,-10.079999923706055,26.219999313354492,27.18000030517578
1775728238191651000,17.169651123046876,-8.760000228881836,27.53999900817871,26.81999969482422
1775728238201722000,17.17972216796875,-8.579999923706055,27.420000076293945,25.619998931884766
1775728238211823400,17.1898232421875,-9.420000076293945,28.3799991607666,25.559999465942383
1775728238221894100,17.19989404296875,-11.579999923706055,29.279998779296875,24.959999084472656
1775728238231965000,17.20996484375,-13.619999885559082,29.03999900817871,23.69999885559082
1775728238262177300,17.24017724609375,-15.299999237060547,29.099998474121094,21.600000381469727
1775728238282258000,17.2602578125,-13.559999465942383,30.65999984741211,21.420000076293945
1775728238292328700,17.27032861328125,-12.119999885559082,31.260000228881836,21.899999618530273
1775728238302399500,17.2803994140625,-10.679999351501465,31.979999542236328,22.139999389648438
1775728238312470300,17.29047021484375,-10.679999351501465,31.439998626708984,21.18000030517578
1775728238322480000,17.300480224609377,-12.84000015258789,31.67999839782715,21.779998779296875
1775728238332551000,17.310551025390627,-14.9399995803833,31.31999969482422,21.53999900817871
1775728238362702300,17.340702392578127,-18.299999237060547,31.3799991607666,21.719999313354492
1775728238382874400,17.360874267578126,-16.799999237060547,31.3799991607666,21.239999771118164
1775728238392945200,17.370945068359376,-15.119999885559082,31.19999885559082,21.600000381469727
1775728238403016000,17.381015869140626,-14.579999923706055,30.35999870300293,21.059999465942383
1775728238413086700,17.391086669921876,-13.079999923706055,30.119998931884766,21.059999465942383
1775728238423157500,17.401157470703126,-14.09999942779541,29.51999855041504,21.53999900817871
1775728238433228300,17.411228271484376,-15.59999942779541,29.279998779296875,21.779998779296875
1775728238463379700,17.441379638671876,-18.239999771118164,29.219999313354492,24
1775728238473481000,17.45148095703125,-18.059999465942383,28.920000076293945,24.299999237060547
1775728238493531100,17.47153125,-15.59999942779541,26.579999923706055,25.799999237060547
1775728238503602000,17.481601806640626,-14.579999923706055,25.85999870300293,27.059999465942383
1775728238513672700,17.491672607421876,-13.019999504089355,25.139999389648438,28.19999885559082
1775728238523682600,17.5016826171875,-12.300000190734863,25.01999855041504,29.579999923706055
1775728238533753300,17.51175341796875,-11.34000015258789,25.19999885559082,30.35999870300293
1775728238574006000,17.552006103515627,-10.019999504089355,21,32.39999771118164
1775728238584015600,17.562015625,-9.84000015258789,20.760000228881836,32.880001068115234
1775728238594117000,17.5721171875,-10.079999923706055,20.8799991607666,34.02000045776367
1775728238604188000,17.58218798828125,-8.399999618530273,21.239999771118164,35.040000915527344
1775728238614258700,17.5922587890625,-6.539999961853027,19.979999542236328,35.21999740600586
1775728238624329500,17.60232958984375,-4.799999713897705,18.65999984741211,35.939998626708984
1775728238634400300,17.612400146484376,-3.7799999713897705,17.579999923706055,36.119998931884766
1775728238664521000,17.64252099609375,-2.5799999237060547,15.239999771118164,36.71999740600586
1775728238674561300,17.652561279296876,-1.559999942779541,14.699999809265137,36.540000915527344
1775728238684601600,17.6626015625,-1.7400000095367432,14.15999984741211,37.20000076293945
1775728238694642000,17.672641845703126,-0.5399999618530273,14.460000038146973,37.55999755859375
1775728238704682200,17.68268212890625,0.05999999865889549,14.09999942779541,37.86000061035156
1775728238714722600,17.69272265625,-0.23999999463558197,13.739999771118164,38.459999084472656
1775728238724763000,17.702762939453127,-0.11999999731779099,13.679999351501465,38.279998779296875
1775728238734803000,17.712802978515626,-0.23999999463558197,12.960000038146973,38.279998779296875
1775728238785157000,17.7631572265625,-4.199999809265137,12.119999885559082,38.279998779296875
1775728238795166700,17.773166748046876,-3.419999837875366,11.519999504089355,38.39999771118164
1775728238805207000,17.78320703125,-2.0999999046325684,11.039999961853027,38.70000076293945
1775728238815247400,17.793247314453126,-0.9599999785423279,10.920000076293945,38.52000045776367
1775728238825257200,17.80325732421875,-0.11999999731779099,10.019999504089355,38.040000915527344
1775728238835328000,17.813327880859376,-0.5999999642372131,10.319999694824219,39.119998931884766
1775728238845398800,17.823398681640626,-0.7799999713897705,9.960000038146973,39
1775728238885559800,17.863559814453126,-0.6599999666213989,8.639999389648438,38.939998626708984
1775728238895661300,17.873661376953127,-0.41999998688697815,9.119999885559082,39.540000915527344
1775728238905732000,17.883732177734377,-0.5999999642372131,9.119999885559082,40.13999938964844
1775728238915803000,17.893802978515627,-0.5399999618530273,8.519999504089355,39.540000915527344
1775728238925873700,17.903873779296877,-0.7199999690055847,8.519999504089355,39.41999816894531
1775728238945923600,17.923923583984376,-3.299999952316284,7.5,38.57999801635742
1775728238976136000,17.954135986328126,-3.059999942779541,8.34000015258789,40.619998931884766
1775728238986145800,17.964145751953126,-1.9799998998641968,8.579999923706055,39.71999740600586
1775728238996247000,17.9742470703125,-2.0399999618530273,9.119999885559082,40.55999755859375
1775728239006348500,17.9843486328125,-0.47999998927116394,9.239999771118164,40.79999923706055
1775728239016419300,17.99441943359375,-0.23999999463558197,8.699999809265137,40.73999786376953
1775728239026459600,18.004459716796877,1.0199999809265137,8.760000228881836,41.939998626708984
1775728239036530400,18.014530517578127,1.9199999570846558,7.859999656677246,41.279998779296875
1775728239046540000,18.0245400390625,1.3199999332427979,6.960000038146973,40.79999923706055
1775728239056610800,18.03461083984375,0.9599999785423279,6.839999675750732,40.439998626708984
1775728239076691500,18.05469140625,-2.1599998474121094,6.839999675750732,39.29999923706055
1775728239106843000,18.0848427734375,-1.559999942779541,9.65999984741211,39.84000015258789
1775728239116944100,18.094944091796876,-0.11999999731779099,10.139999389648438,39.29999923706055
1775728239127015000,18.105014892578126,1.3799999952316284,10.859999656677246,39.65999984741211
1775728239137085700,18.115085693359376,2.0399999618530273,11.460000038146973,39.540000915527344
