time,seconds_elapsed,z,y,x
1775728220719732000,-0.30226806640625,4.580107688903809,-6.572083473205566,-5.702988624572754
1775728220729502700,-0.292497314453125,4.67827033996582,-6.828263282775879,-5.5760955810546875
1775728220739243000,-0.282757080078125,4.845864295959473,-7.084442615509033,-5.588066577911377
1775728220748914000,-0.273086181640625,4.922478675842285,-7.082048416137695,-5.6910176277160645
1775728220758754000,-0.263245849609375,4.946420669555664,-7.103596210479736,-5.5976433753967285
1775728220768625000,-0.253375,5.149928092956543,-7.194576263427734,-5.57370138168335
1775728220778695700,-0.24330419921875,5.274426460266113,-6.909666061401367,-5.647922039031982
1775728220788797200,-0.233202880859375,5.374982833862305,-6.751648902893066,-5.643133640289307
1775728220798837200,-0.223162841796875,5.461174011230469,-6.481103897094727,-5.592854976654053
1775728220808908300,-0.213091796875,5.4659624099731445,-6.540958881378174,-5.664681434631348
1775728220818979000,-0.20302099609375,5.363011837005615,-6.651092529296875,-5.87776517868042
1775728220829049900,-0.1929501953125,5.2480902671813965,-6.54574728012085,-5.793968200683594
1775728220879281700,-0.14271826171875,4.853046894073486,-7.570465564727783,-5.66228723526001
1775728220899353900,-0.122646240234375,4.7189717292785645,-6.53377628326416,-5.439626216888428
1775728220929596700,-0.0924033203125,4.599261283874512,-6.358999729156494,-5.56173038482666
1775728220939637000,-0.082363037109375,4.67827033996582,-6.325480937957764,-5.635950565338135
1775728220949707800,-0.072292236328125,4.683058738708496,-6.426037311553955,-5.588066577911377
1775728220959778600,-0.062221435546875,4.721365928649902,-6.560112476348877,-5.700594425201416
1775728220969849300,-0.052150634765625,4.845864295959473,-6.57926607131958,-5.822698593139648
1775728220979889700,-0.0421103515625,4.8602294921875,-6.799532890319824,-5.829881191253662
1775728220989960400,-0.03203955078125,4.843470096588135,-6.660669326782227,-5.832275390625
1775728220999970300,-0.02202978515625,4.721365928649902,-6.703764915466309,-5.676652431488037
1775728221010041000,-0.011958984375,4.680664539337158,-6.734889507293701,-5.621585369110107
1775728221020081400,-0.001918701171875,4.683058738708496,-6.806715488433838,-5.6455278396606445
1775728221030152200,0.008152099609375,4.824316501617432,-6.823474884033203,-5.719748020172119
1775728221040223000,0.018222900390625,4.843470096588135,-6.780379295349121,-5.796362400054932
1775728221070465800,0.0484658203125,4.862623691558838,-6.507440090179443,-5.530605792999268
1775728221080506000,0.058506103515625,4.910507678985596,-6.473921298980713,-5.564124584197998
1775728221090546400,0.06854638671875,4.867412090301514,-6.6846113204956055,-5.535394191741943
1775728221100556300,0.078556396484375,4.912901878356934,-6.557718276977539,-5.525817394256592
1775728221110627000,0.088626953125,4.9799394607543945,-6.615179061889648,-5.640739440917969
1775728221120697900,0.09869775390625,5.066130638122559,-6.586448669433594,-5.657498836517334
1775728221130768600,0.1087685546875,5.073313236236572,-6.7277069091796875,-5.686229228973389
1775728221140809000,0.11880908203125,5.049371242523193,-6.718130111694336,-5.655104637145996
1775728221171021300,0.149021240234375,4.6950297355651855,-6.4595561027526855,-5.3342814445495605
1775728221191193300,0.169193359375,4.8482584953308105,-7.0317702293396,-5.604825973510742
1775728221211335000,0.1893349609375,4.888959884643555,-7.0126166343688965,-5.612008571624756
1775728221221406000,0.199406005859375,4.891354084014893,-6.823474884033203,-5.485116004943848
1775728221231476700,0.209476806640625,4.955997467041016,-6.567295074462891,-5.506663799285889
1775728221241516800,0.219516845703125,5.2049946784973145,-6.50025749206543,-5.612008571624756
1775728221261658600,0.23965869140625,5.336675643920898,-6.5050458908081055,-5.935225963592529
1775728221281800200,0.25980029296875,4.953603267669678,-6.588842868804932,-5.628767967224121
1775728221291901400,0.2699013671875,4.824316501617432,-6.775590896606445,-5.544970989227295
1775728221301911300,0.279911376953125,4.754884719848633,-6.710947513580322,-5.559336185455322
1775728221311982000,0.289982177734375,4.6734819412231445,-6.689399719238281,-5.518634796142578
1775728221322052900,0.300052978515625,4.632780075073242,-6.797138690948486,-5.449203014373779
1775728221332123600,0.31012353515625,4.757278919219971,-6.8809356689453125,-5.492298603057861
1775728221342194400,0.3201943359375,4.963180065155029,-6.847416877746582,-5.513846397399902
1775728221352265200,0.33026513671875,4.991910457611084,-6.801927089691162,-5.432443618774414
1775728221362275000,0.340275146484375,5.037400245666504,-6.538564682006836,-5.4013190269470215
1775728221392548400,0.37054833984375,5.152322292327881,-6.983886241912842,-5.56173038482666
1775728221402619100,0.380619140625,5.3127336502075195,-6.806715488433838,-5.571307182312012
1775728221412690000,0.39068994140625,5.207388877868652,-6.912060260772705,-5.451597213745117
1775728221422760700,0.4007607421875,5.238513469696045,-6.971915245056152,-5.374982833862305
1775728221432831500,0.41083154296875,5.195417881011963,-6.967126846313477,-5.382165431976318
1775728221442902500,0.420902587890625,5.195417881011963,-6.967126846313477,-5.382165431976318
1775728221452912000,0.430912109375,5.152322292327881,-7.163451671600342,-5.413290023803711
1775728221493226000,0.47122607421875,5.003881454467773,-5.841852188110352,-5.746084213256836
1775728221523438300,0.501438232421875,4.211400985717773,-5.9519853591918945,-5.48272180557251
1775728221533478700,0.511478759765625,4.1180267333984375,-6.296750545501709,-5.298368453979492
1775728221543549400,0.521549560546875,4.271255970001221,-6.0836663246154785,-5.374982833862305
1775728221553589800,0.53158984375,4.175487995147705,-5.947196960449219,-5.5329999923706055
1775728221563629800,0.5416298828125,4.242525577545166,-6.090848922729492,-5.674258232116699
1775728221573700900,0.551700927734375,3.9193081855773926,-5.396530628204346,-6.064512729644775
1775728221603852000,0.58185205078125,4.015076160430908,-5.7772088050842285,-6.682217121124268
1775728221613953500,0.59195361328125,4.1874589920043945,-5.9088897705078125,-6.50025749206543
1775728221624024300,0.6020244140625,4.098873138427734,-6.279991149902344,-6.385335922241211
1775728221634064600,0.612064697265625,4.173093795776367,-6.694188117980957,-6.596025466918945
1775728221644166000,0.622165771484375,4.388571739196777,-6.993463039398193,-7.163451671600342
1775728221654236700,0.632236572265625,4.608838081359863,-6.418854713439941,-7.51779317855835
1775728221664307500,0.642307373046875,4.8602294921875,-6.208165168762207,-7.489062786102295
1775728221684418600,0.66241845703125,4.999093055725098,-4.146757125854492,-7.692570209503174
1775728221694459000,0.672458984375,5.080495834350586,-4.644751071929932,-8.322244644165039
1775728221704529700,0.68252978515625,4.8267107009887695,-5.2265424728393555,-8.729259490966797
1775728221714570000,0.692570068359375,4.4939165115356445,-5.48272180557251,-9.028534889221191
1775728221724610000,0.702610107421875,4.043806552886963,-5.7125654220581055,-8.851364135742188
1775728221734711600,0.712711669921875,3.1938650608062744,-6.1530985832214355,-8.226476669311523
1775728221744782300,0.7227822265625,2.343923568725586,-6.955155849456787,-7.723694801330566
1775728221754822700,0.73282275390625,1.742978811264038,-7.501033782958984,-7.484274387359619
1775728221774964200,0.752964111328125,0.5985504388809204,-7.738059997558594,-6.581660270690918
1775728221785004500,0.763004638671875,0.3256114423274994,-7.970297336578369,-6.026205539703369
1775728221795075300,0.773075439453125,0.014365210197865963,-7.857769966125488,-5.652710437774658
1775728221805115600,0.78311572265625,-0.4908113479614258,-7.745242595672607,-5.219359874725342
1775728221815186400,0.7931865234375,-0.5841852426528931,-7.94635534286499,-5.602431774139404
1775728221825226800,0.803226806640625,-0.11971008777618408,-8.01339340209961,-6.5481414794921875
1775728221835297500,0.813297607421875,0.5602431893348694,-7.8960771560668945,-7.2352776527404785
1775728221845307100,0.82330712890625,0.6919242739677429,-7.580042362213135,-7.3023152351379395
1775728221855408600,0.83340869140625,0.9744400978088379,-7.5417351722717285,-7.168240070343018
1775728221865448700,0.84344873046875,1.2234370708465576,-7.357381820678711,-6.964732646942139
1775728221895630600,0.873630615234375,0.4620809257030487,-7.283161640167236,-6.311115741729736
1775728221905701400,0.883701416015625,0.08379705995321274,-7.522581577301025,-6.4834980964660645
1775728221915741700,0.89374169921875,-0.17238251864910126,-7.7428483963012695,-6.555324077606201
1775728221925782000,0.903781982421875,-0.14365209639072418,-7.627926826477051,-6.607996463775635
1775728221935852800,0.913852783203125,-0.05985504388809204,-7.479485988616943,-6.627150535583496
1775728221945893000,0.92389306640625,0.26096799969673157,-7.177816867828369,-6.703764915466309
1775728221955964000,0.9339638671875,0.5386953949928284,-7.005434036254883,-6.744466304779053
1775728221966034700,0.94403466796875,0.9888052940368652,-6.785167694091797,-6.718130111694336
1775728221976136000,0.954135986328125,1.3215993642807007,-6.600813865661621,-6.909666061401367
1775728221996247000,0.9742470703125,1.6735470294952393,-6.653486728668213,-7.173028469085693
1775728222006287400,0.984287353515625,1.482010841369629,-6.888118267059326,-7.168240070343018
1775728222026429000,1.004428955078125,1.2114660739898682,-7.682993412017822,-7.196970462799072
1775728222036499700,1.014499755859375,1.2617442607879639,-7.527369976043701,-7.206547260284424
1775728222046540000,1.0245400390625,1.534683346748352,-7.283161640167236,-7.316680431365967
1775728222056580400,1.034580322265625,1.6041151285171509,-7.338228225708008,-7.422025203704834
1775728222066590200,1.044590087890625,1.821987509727478,-7.304709434509277,-7.465120792388916
1775728222086762200,1.06476220703125,1.9608511924743652,-6.732495307922363,-7.647080421447754
1775728222096833000,1.0748330078125,1.8483237028121948,-6.121973514556885,-7.661445617675781
1775728222106903800,1.08490380859375,2.1284453868865967,-5.688623428344727,-7.69735860824585
1775728222116974600,1.094974609375,2.276885747909546,-5.446808815002441,-7.654263019561768
1775728222127015000,1.105014892578125,2.5953147411346436,-5.430049419403076,-7.819462776184082
1775728222137085700,1.115085693359375,2.786850690841675,-5.592854976654053,-8.039729118347168
1775728222147156500,1.125156494140625,3.002328872680664,-5.374982833862305,-8.169015884399414
1775728222157227300,1.135227294921875,3.00711727142334,-5.212177276611328,-8.248024940490723
1775728222167298000,1.145298095703125,3.002328872680664,-4.987122058868408,-8.425195693969727
1775728222177399600,1.155399658203125,2.894589900970459,-4.8482584953308105,-8.564059257507324
1775728222187470300,1.16547021484375,2.9975404739379883,-4.8722004890441895,-8.65743350982666
1775728222197510700,1.1755107421875,3.0765492916107178,-4.78122091293335,-8.78432559967041
1775728222207581400,1.18558154296875,3.026270866394043,-4.565742492675781,-8.798690795898438
1775728222217652200,1.19565234375,3.112462282180786,-4.285621166229248,-8.944737434387207
1775728222227723000,1.205722900390625,3.160346269607544,-3.801992416381836,-8.83939266204834
1775728222237824300,1.21582421875,3.138798475265503,-3.5458126068115234,-8.832210540771484
1775728222247895000,1.22589501953125,3.095702886581421,-3.4596214294433594,-8.844181060791016
1775728222257965800,1.2359658203125,3.045424461364746,-3.5386300086975098,-8.913613319396973
1775728222268036600,1.24603662109375,2.9257144927978516,-3.3925838470458984,-8.978256225585938
1775728222298249200,1.276249267578125,2.782062292098999,-3.4548330307006836,-9.330204010009766
1775728222308320000,1.286320068359375,3.002328872680664,-3.406949043273926,-9.435548782348633
1775728222318390800,1.296390869140625,3.2848446369171143,-3.531447410583496,-9.617507934570312
1775728222328461600,1.306461669921875,3.2561142444610596,-3.6774938106536865,-9.86889934539795
1775728222338502000,1.316501953125,3.095702886581421,-3.9384617805480957,-9.998186111450195
1775728222348511500,1.326511474609375,2.937685489654541,-4.247313976287842,-10.091560363769531
1775728222358612700,1.33661279296875,2.736572504043579,-3.8786067962646484,-9.96945571899414
1775728222368683800,1.346683837890625,2.47560453414917,-3.3949780464172363,-9.828198432922363
1775728222378754600,1.356754638671875,2.205059766769409,-3.0597896575927734,-9.694122314453125
1775728222388825300,1.366825439453125,2.1571757793426514,-2.9305028915405273,-9.732429504394531
1775728222438996200,1.416996337890625,2.4660277366638184,-2.2864625453948975,-9.715670585632324
1775728222449036500,1.42703662109375,2.3487119674682617,-2.2457611560821533,-9.691728591918945
1775728222459137800,1.4371376953125,2.1787235736846924,-2.403778553009033,-9.57201862335205
1775728222469208600,1.44720849609375,2.1068975925445557,-2.5689783096313477,-9.557653427124023
1775728222479249000,1.457248779296875,2.070984363555908,-2.3104045391082764,-9.696516990661621
1775728222489289200,1.467289306640625,2.0159177780151367,-2.1164743900299072,-9.801861763000488
1775728222499360000,1.477360107421875,2.006340980529785,-1.941697597503662,-9.885659217834473
1775728222509430800,1.4874306640625,2.0231003761291504,-1.8602946996688843,-9.816226959228516
1775728222529450200,1.5074501953125,1.7741034030914307,-2.1068975925445557,-9.911994934082031
1775728222559693000,1.537693115234375,1.5897499322891235,-2.2673089504241943,-10.012551307678223
1775728222569764000,1.54776416015625,1.4772224426269531,-2.164358377456665,-9.945513725280762
1775728222579835000,1.5578349609375,1.4484920501708984,-2.2170307636260986,-9.888052940368652
1775728222589875000,1.567875,1.4173674583435059,-2.123656988143921,-10.007762908935547
1775728222599976400,1.5779765625,1.3623007535934448,-2.190694570541382,-9.950302124023438
1775728222630158300,1.608158447265625,1.216254472732544,-2.123656988143921,-9.852140426635742
1775728222640259600,1.618259521484375,1.0127472877502441,-2.2026655673980713,-9.816226959228516
1775728222650330400,1.628330322265625,0.950498104095459,-2.389413356781006,-9.806650161743164
1775728222660401200,1.638401123046875,0.9169792532920837,-2.4468741416931152,-9.821015357971191
1775728222670472000,1.648471923828125,0.8762778043746948,-2.52109432220459,-9.883264541625977
1775728222680542700,1.658542724609375,0.9696516990661621,-2.2840683460235596,-9.911994934082031
1775728222690613500,1.668613525390625,0.9457096457481384,-2.231395959854126,-9.825803756713867
1775728222700715000,1.678715087890625,0.9457096457481384,-2.169146776199341,-9.713275909423828
1775728222710785800,1.688785888671875,0.8882488012313843,-2.0422539710998535,-9.737217903137207
1775728222741059000,1.71905908203125,0.8140285611152649,-1.8531121015548706,-9.751583099365234
1775728222751069000,1.72906884765625,0.8259995579719543,-1.9967641830444336,-9.68933391571045
1775728222761139700,1.7391396484375,0.8523358106613159,-1.9800047874450684,-9.691728591918945
1775728222771210500,1.74921044921875,0.8690952062606812,-2.051830768585205,-9.895236015319824
1775728222781281300,1.75928125,0.8571242094039917,-2.056619167327881,-10.046070098876953
1775728222791352000,1.76935205078125,0.8523358106613159,-1.8842366933822632,-10.187328338623047
1775728222801453300,1.779453369140625,0.8667010068893433,-1.900996208190918,-10.230423927307129
1775728222811524400,1.7895244140625,0.9313444495201111,-1.944091796875,-10.237606048583984
1775728222821625600,1.79962548828125,0.8810662031173706,-1.9536685943603516,-10.280701637268066
1775728222851807500,1.829807373046875,0.8930372595787048,-1.9345149993896484,-10.374075889587402
1775728222861878300,1.839878173828125,0.8978256583213806,-1.800439715385437,-10.29746150970459
1775728222871949000,1.849948974609375,0.8978256583213806,-1.800439715385437,-10.285490036010742
1775728222882050300,1.86005029296875,0.8834604024887085,-1.821987509727478,-10.36449909210205
1775728222892121000,1.87012109375,1.0199298858642578,-1.623268723487854,-10.481815338134766
1775728222902222600,1.88022265625,1.072602391242981,-1.6184803247451782,-10.488997459411621
1775728222912262700,1.8902626953125,1.115697979927063,-1.656787633895874,-10.575188636779785
1775728222922364200,1.9003642578125,1.1875240802764893,-1.6855180263519287,-10.639832496643066
1775728222942475300,1.920475341796875,1.280897855758667,-1.9584569931030273,-10.704475402832031
1775728222962616800,1.940616943359375,1.3455413579940796,-1.8507179021835327,-10.63504409790039
1775728222972626400,1.95062646484375,1.659181833267212,-2.0015525817871094,-10.678139686584473
1775728222982697200,1.960697265625,1.7405846118927002,-2.1787235736846924,-10.821791648864746
1775728222992707000,1.97070703125,1.8267759084701538,-2.075772762298584,-10.857705116271973
1775728223002777900,1.98077783203125,1.9129672050476074,-1.900996208190918,-10.752359390258789
1775728223012787700,1.99078759765625,2.013523578643799,-1.7597382068634033,-10.647014617919922
1775728223022858500,2.0008583984375,2.0446481704711914,-1.778891921043396,-10.448296546936035
1775728223032868400,2.010868408203125,2.0661959648132324,-1.845929503440857,-10.216058731079102
1775728223053040400,2.031040283203125,2.2385785579681396,-1.8363527059555054,-10.031704902648926
1775728223063141600,2.0411416015625,2.3989901542663574,-1.7357962131500244,-10.04846477508545
1775728223073182000,2.051181884765625,2.7557260990142822,-2.011129379272461,-10.096348762512207
1775728223093354000,2.07135400390625,3.1483752727508545,-2.4420857429504395,-10.407594680786133
1775728223103424800,2.0814248046875,3.047818660736084,-2.164358377456665,-10.409989356994629
1775728223113434600,2.0914345703125,2.9927520751953125,-1.9704279899597168,-10.127472877502441
1775728223123505400,2.10150537109375,2.9735984802246094,-2.205059766769409,-9.847352027893066
1775728223133576200,2.111576171875,2.8586769104003906,-2.43011474609375,-9.818621635437012
1775728223143647000,2.12164697265625,3.1723172664642334,-2.650381326675415,-9.737217903137207
1775728223163758000,2.141758056640625,3.6583402156829834,-3.2848446369171143,-9.610325813293457
1775728223204041200,2.182041259765625,4.129997730255127,-3.3518824577331543,-8.87051773071289
1775728223214112300,2.1921123046875,4.168305397033691,-3.5027170181274414,-8.49941635131836
1775728223224152300,2.20215234375,4.244919776916504,-3.471592426300049,-8.255207061767578
1775728223234192600,2.212192626953125,4.3861775398254395,-3.576937437057495,-8.109161376953125
1775728223244263400,2.222263427734375,4.443638324737549,-3.641580820083618,-8.003816604614258
1775728223254334200,2.232334228515625,4.551377296447754,-3.552995204925537,-8.10437297821045
1775728223274445300,2.2524453125,4.970362663269043,-3.069366693496704,-7.886500358581543
1775728223284516000,2.26251611328125,5.104437828063965,-2.9712042808532715,-7.673416614532471
1775728223294526000,2.27252587890625,5.114014625549316,-2.7916390895843506,-7.484274387359619
1775728223304535800,2.282535888671875,5.080495834350586,-2.7006595134735107,-7.364564418792725
1775728223314545400,2.29254541015625,5.0685248374938965,-2.6599581241607666,-7.259219646453857
1775728223324647000,2.30264697265625,5.085284233093262,-2.628833532333374,-7.2137298583984375
1775728223334656500,2.312656494140625,4.953603267669678,-2.9281086921691895,-7.319074630737305
1775728223344727300,2.322727294921875,5.008669853210449,-3.0597896575927734,-7.390900611877441
1775728223354767600,2.332767578125,4.8722004890441895,-2.9735984802246094,-7.503427982330322
1775728223364838400,2.34283837890625,4.795586109161377,-2.5785553455352783,-7.484274387359619
1775728223384949500,2.362949462890625,4.4508209228515625,-1.9297266006469727,-7.376535415649414
1775728223394989800,2.37298974609375,4.180276393890381,-1.7573440074920654,-7.417236804962158
1775728223405060600,2.383060546875,3.995922565460205,-1.7621324062347412,-7.46033239364624
1775728223415131400,2.39313134765625,3.8546648025512695,-1.86508309841156,-7.441178798675537
1775728223425202200,2.4032021484375,3.7181951999664307,-2.011129379272461,-7.692570209503174
1775728223435181600,2.413181640625,3.4739866256713867,-2.0039467811584473,-8.020575523376465
1775728223445282800,2.42328271484375,3.1244332790374756,-1.86508309841156,-8.49941635131836
1775728223455353600,2.433353515625,2.9161376953125,-1.8722656965255737,-8.789113998413086
1775728223475495200,2.4534951171875,2.540247917175293,-2.0853497982025146,-9.038111686706543
1775728223495514600,2.4735146484375,2.0207061767578125,-1.824381709098816,-8.729259490966797
1775728223515595300,2.49359521484375,1.558625340461731,-1.7693150043487549,-8.324639320373535
1775728223525635600,2.503635498046875,1.3982137441635132,-1.5658079385757446,-8.070854187011719
1775728223535676000,2.513676025390625,1.2545616626739502,-1.3934253454208374,-8.08043098449707
1775728223545716200,2.52371630859375,1.3263877630233765,-1.0582371950149536,-8.04930591583252
1775728223555756300,2.53375634765625,1.1516109704971313,-0.8331822156906128,-8.226476669311523
1775728223565827300,2.543827392578125,1.0199298858642578,-0.9193734526634216,-8.635885238647461
1775728223585969000,2.563968994140625,0.7206547260284424,-1.3335703611373901,-9.44991397857666
1775728223595978500,2.573978515625,0.5913678407669067,-1.2856862545013428,-9.825803756713867
1775728223626191000,2.604191162109375,-0.05267243832349777,-1.6424223184585571,-11.341333389282227
1775728223636231200,2.614231201171875,-0.2513911724090576,-2.1595699787139893,-11.87763500213623
1775728223646332700,2.624332763671875,-0.6105214357376099,-2.2385785579681396,-11.927912712097168
1775728223656403500,2.634403564453125,-0.9792284965515137,-2.4636335372924805,-11.441889762878418
1775728223666504700,2.644504638671875,-0.9792284965515137,-3.0310592651367188,-11.118672370910645
1775728223686615800,2.66461572265625,0.0933738648891449,-3.4165258407592773,-11.556811332702637
1775728223696686600,2.6746865234375,0.6057330369949341,-3.6774938106536865,-11.96861457824707
1775728223706757400,2.68475732421875,0.9888052940368652,-3.756502389907837,-12.164938926696777
1775728223716797700,2.694797607421875,1.3120225667953491,-3.576937437057495,-11.99255657196045
1775728223726899000,2.70489892578125,1.37906014919281,-3.2848446369171143,-11.762712478637695
1775728223736939300,2.714939208984375,1.4221558570861816,-2.832340717315674,-11.552022933959961
1775728223747010000,2.725010009765625,1.4939818382263184,-2.434903144836426,-11.487380027770996
1775728223757080800,2.735080810546875,1.4532804489135742,-2.2697031497955322,-11.463438034057617
1775728223767151600,2.745151611328125,1.3886369466781616,-2.4827871322631836,-11.39400577545166
1775728223847626500,2.82562646484375,2.9712042808532715,-2.1092917919158936,-10.268731117248535
1775728223857636400,2.83563623046875,2.8993782997131348,-1.9632453918457031,-9.804255485534668
1775728223867737600,2.845737548828125,2.942473888397217,-1.9369091987609863,-9.32541561126709
1775728223887909600,2.86590966796875,2.889801502227783,-2.9664158821105957,-8.667010307312012
1775728223897980400,2.87598046875,2.8155810832977295,-2.849100112915039,-8.458714485168457
1775728223907990300,2.885990234375,2.7485435009002686,-2.806004285812378,-8.365341186523438
1775728223938233300,2.9162333984375,2.8347349166870117,-3.9695863723754883,-7.661445617675781
1775728223948273400,2.9262734375,2.9041666984558105,-4.632780075073242,-7.735665798187256
1775728223998627600,2.976627685546875,3.043030261993408,-3.687070608139038,-7.515398979187012
1775728224038849800,3.016849853515625,4.371812343597412,-2.8227639198303223,-8.731653213500977
1775728224048951000,3.026950927734375,4.637568473815918,-3.0621838569641113,-9.215282440185547
1775728224059021800,3.037021728515625,4.98472785949707,-2.7246015071868896,-9.493009567260742
1775728224129456400,3.107456298828125,4.888959884643555,-3.9169139862060547,-10.273519515991211
1775728224149598000,3.127597900390625,5.341464042663574,-4.853046894073486,-10.943896293640137
1775728224189850600,3.1678505859375,5.367800235748291,-4.857835292816162,-11.463438034057617
1775728224230133800,3.2081337890625,5.894524574279785,-6.229712963104248,-16.172832489013672
1775728224240204500,3.21820458984375,5.542576789855957,-6.8809356689453125,-17.43218231201172
1775728224250275600,3.228275634765625,4.98472785949707,-7.189787864685059,-18.04749298095703
1775728224280426800,3.2584267578125,3.201047658920288,-8.13789176940918,-17.597381591796875
1775728224310608600,3.288608642578125,0.7613561153411865,-7.084442615509033,-14.805743217468262
1775728224340760000,3.318760009765625,-1.558625340461731,-5.360617637634277,-12.121843338012695
1775728224381012700,3.3590126953125,-1.3072341680526733,-4.364629745483398,-11.978191375732422
1775728224401154300,3.379154296875,-0.507570743560791,-4.005499362945557,-11.45146656036377
1775728224411225000,3.38922509765625,0.090979665517807,-3.84269380569458,-11.221623420715332
1775728224421295900,3.3992958984375,0.5339069962501526,-3.97916316986084,-11.101913452148438
1775728224431336200,3.409336181640625,0.8643068075180054,-4.129997730255127,-10.864887237548828
1775728224441437400,3.4194375,0.8523358106613159,-4.084507942199707,-10.723628997802734
1775728224451508500,3.429508544921875,0.6320692300796509,-3.907337188720703,-10.369287490844727
1775728224471588900,3.4495888671875,-0.19871874153614044,-3.7876269817352295,-9.478644371032715
1775728224481629200,3.459629150390625,-0.6703764796257019,-3.4955344200134277,-8.911218643188477
1775728224511780600,3.489780517578125,-1.5275006294250488,-2.4205379486083984,-7.479485988616943
1775728224521821000,3.499821044921875,-1.4915876388549805,-2.1116859912872314,-7.0341644287109375
1775728224531861200,3.509861328125,-1.3431471586227417,-1.9704279899597168,-6.718130111694336
1775728224541932000,3.51993212890625,-1.1348515748977661,-1.922544002532959,-6.423643112182617
1775728224552002800,3.5300029296875,-0.9672574996948242,-1.9369091987609863,-6.18182897567749
1775728224562104000,3.54010400390625,-0.689530074596405,-2.032677173614502,-6.0836663246154785
1775728224572114000,3.550114013671875,-0.5386953949928284,-2.123656988143921,-5.944802761077881
1775728224592194300,3.5701943359375,-0.6775590777397156,-2.073378562927246,-5.568912982940674
1775728224602295800,3.5802958984375,-0.667982280254364,-2.054224967956543,-5.331887245178223
1775728224612366600,3.59036669921875,-0.524330198764801,-2.03507137298584,-5.2049946784973145
1775728224622437400,3.600437255859375,-0.2825157940387726,-2.0039467811584473,-5.149928092956543
1775728224632477700,3.610477783203125,-0.11971008777618408,-1.965639591217041,-5.035006046295166
1775728224642518000,3.62051806640625,-0.07182604819536209,-1.8818424940109253,-5.032611846923828
1775728224652619300,3.630619384765625,-0.035913024097681046,-1.8770540952682495,-5.063736438751221
1775728224662628900,3.64062890625,-0.011971008032560349,-1.8387469053268433,-5.137956619262695
1775728224682709500,3.66070947265625,0.06224924325942993,-1.824381709098816,-5.2480902671813965
1775728224712921900,3.690921875,0.6512228846549988,-2.427720546722412,-6.215347766876221
1775728224722992600,3.70099267578125,1.0414776802062988,-2.4181437492370605,-6.552929878234863
1775728224733094100,3.71109423828125,1.4772224426269531,-2.6862943172454834,-6.897695064544678
1775728224743165000,3.7211650390625,2.0183119773864746,-2.894589900970459,-7.395689010620117
1775728224753266200,3.73126611328125,2.4684219360351562,-3.1316158771514893,-7.996633529663086
1775728224763337000,3.7413369140625,2.604891538619995,-3.287238836288452,-8.762778282165527
1775728224783478500,3.761478515625,2.4851813316345215,-2.6360161304473877,-10.414777755737305
1775728224803589600,3.781589599609375,1.8387469053268433,-2.1978771686553955,-12.155362129211426
1775728224823731200,3.801731201171875,0.6775590777397156,-1.920149803161621,-14.180856704711914
1775728224833771500,3.811771484375,-0.12928688526153564,-1.9369091987609863,-14.954183578491211
1775728224843842300,3.82184228515625,-0.9768342971801758,-1.8818424940109253,-15.595829963684082
1775728224853882600,3.831882568359375,-1.50355863571167,-1.9943699836730957,-16.373945236206055
1775728224863953400,3.841953369140625,-1.7357962131500244,-2.2146365642547607,-17.056293487548828
1775728224874024200,3.852024169921875,-1.434126853942871,-2.449268341064453,-17.657238006591797
1775728224884095000,3.862094970703125,-0.9193734526634216,-2.980781078338623,-17.786523818969727
1775728224904236500,3.882236572265625,0.395043283700943,-4.194641590118408,-16.59181785583496
1775728224914276900,3.89227685546875,0.8882488012313843,-4.611232280731201,-15.55512809753418
1775728224924317200,3.902317138671875,1.4245500564575195,-5.027823448181152,-14.686033248901367
1775728224934418400,3.91241845703125,1.6711528301239014,-5.212177276611328,-13.965378761291504
1775728224944489200,3.9224892578125,1.9560627937316895,-5.4228668212890625,-13.37161636352539
1775728224954590700,3.9325908203125,2.0829553604125977,-5.566518783569336,-12.995726585388184
1775728224964661500,3.94266162109375,2.2912509441375732,-5.564124584197998,-12.832921028137207
1775728224974671000,3.952671142578125,2.3271639347076416,-5.497087001800537,-12.696451187133789
1775728225015015400,3.993015380859375,1.8770540952682495,-5.549759387969971,-11.652579307556152
1775728225025116700,4.00311669921875,1.4676456451416016,-5.736507415771484,-11.252747535705566
1775728225035187500,4.0131875,1.2330138683319092,-5.868188381195068,-10.960655212402344
1775728225045227800,4.023227783203125,0.9624691009521484,-5.884947776794434,-10.57040023803711
1775728225055298600,4.033298583984375,0.6727706789970398,-5.738901615142822,-10.287884712219238
1775728225065369300,4.043369384765625,0.6488286852836609,-5.453991413116455,-9.96945571899414
1775728225075470800,4.053470947265625,0.7230489253997803,-5.317522048950195,-9.651026725769043
1775728225085541600,4.063541748046875,0.9528923034667969,-5.274426460266113,-9.265560150146484
1775728225095612400,4.0736123046875,1.0271124839782715,-5.365406036376953,-9.064447402954102
1775728225115723500,4.0937236328125,1.5322890281677246,-5.657498836517334,-8.585607528686523
1775728225125702700,4.10370263671875,1.6855180263519287,-5.92325496673584,-8.389283180236816
1775728225135804000,4.113803955078125,1.7693150043487549,-6.035782337188721,-8.271966934204102
1775728225145875000,4.123875,1.9345149993896484,-6.232107162475586,-8.008605003356934
1775728225155884500,4.133884521484375,2.056619167327881,-6.449979305267334,-7.637503623962402
1775728225165894400,4.143894287109375,2.2433669567108154,-6.696582317352295,-7.41484260559082
1775728225175995600,4.15399560546875,2.52109432220459,-6.933608055114746,-7.316680431365967
1775728225186066400,4.16406640625,2.4157495498657227,-6.995857238769531,-7.319074630737305
1775728225236298500,4.214298583984375,3.6942532062530518,-7.024587631225586,-7.074865818023682
1775728225256440000,4.234440185546875,3.971980571746826,-6.861782073974609,-7.287950038909912
1775728225266510800,4.2445107421875,4.410119533538818,-6.734889507293701,-7.682993412017822
1775728225276551200,4.25455126953125,4.606443881988525,-6.744466304779053,-8.054094314575195
1775728225286560800,4.264560791015625,4.3861775398254395,-6.375759124755859,-8.461109161376953
1775728225306733000,4.284733154296875,4.240131378173828,-5.724536418914795,-9.425971984863281
1775728225316803800,4.294803955078125,4.197035789489746,-5.336675643920898,-9.787496566772461
1775728225326874600,4.30487451171875,4.350264549255371,-5.023035049438477,-10.218452453613281
1775728225336945400,4.3149453125,4.390965938568115,-4.790797710418701,-10.618284225463867
1775728225347016200,4.32501611328125,4.639962673187256,-4.67827033996582,-11.197681427001953
1775728225357087000,4.3350869140625,4.680664539337158,-4.4508209228515625,-11.784260749816895
1775728225367127300,4.345127197265625,4.525041103363037,-4.3622355461120605,-12.222399711608887
1775728225377228500,4.355228515625,4.278438568115234,-4.084507942199707,-12.648567199707031
1775728225387299300,4.36529931640625,3.8283286094665527,-3.8355112075805664,-13.182474136352539
1775728225397309200,4.37530908203125,3.287238836288452,-3.5745432376861572,-13.809755325317383
1775728225427430000,4.405429931640625,2.8443117141723633,-3.751713991165161,-15.61019515991211
1775728225437531400,4.415531494140625,2.9975404739379883,-4.113238334655762,-16.062698364257812
1775728225447602200,4.425602294921875,3.023876667022705,-4.666299343109131,-15.938200950622559
1775728225457673000,4.4356728515625,2.918531894683838,-4.967968463897705,-15.332468032836914
1775728225467713300,4.44571337890625,2.6168625354766846,-5.1595048904418945,-14.449007034301758
1775728225477814500,4.455814453125,2.0590133666992188,-5.207388877868652,-13.453019142150879
1775728225487885300,4.46588525390625,1.436521053314209,-5.245696067810059,-12.60307788848877
1775728225497956000,4.4759560546875,0.8667010068893433,-5.3127336502075195,-12.045228958129883
1775728225538178300,4.51617822265625,-0.23942017555236816,-4.829104900360107,-11.84650993347168
1775728225548249000,4.5262490234375,-0.2801215946674347,-4.606443881988525,-11.619060516357422
1775728225558350300,4.536350341796875,-0.14844051003456116,-4.565742492675781,-11.408370971679688
1775728225568421000,4.546421142578125,-0.035913024097681046,-4.441244125366211,-11.133037567138672
1775728225578431000,4.556430908203125,-0.014365210197865963,-4.486733913421631,-10.989385604858398
1775728225598542000,4.5765419921875,-0.05985504388809204,-4.477157115936279,-10.76193618774414
1775728225608612900,4.58661279296875,-0.016759412363171577,-4.474762916564941,-10.407594680786133
1775728225618683600,4.59668359375,-0.07661445438861847,-4.2975921630859375,-10.113107681274414
1775728225628754400,4.60675439453125,-0.023942016065120697,-4.197035789489746,-9.799467086791992
1775728225638794800,4.616794677734375,-0.05027823522686958,-4.017470359802246,-9.41400146484375
1775728225648804600,4.6268046875,0.019153613597154617,-3.8522706031799316,-9.030928611755371
1775728225658905900,4.63690576171875,-0.035913024097681046,-3.73016619682312,-8.571242332458496
1775728225668976600,4.6469765625,-0.014365210197865963,-3.579331636428833,-8.271966934204102
1775728225678986500,4.656986572265625,0.20111294090747833,-3.6128504276275635,-7.876923561096191
1775728225689026600,4.667026611328125,0.2059013396501541,-3.5960910320281982,-7.60637903213501
1775728225699128000,4.677128173828125,0.22026655077934265,-3.5913026332855225,-7.268796443939209
1775728225709107200,4.687107177734375,0.1173158809542656,-3.5960910320281982,-7.0317702293396
1775728225739350300,4.717350341796875,0.2082955539226532,-3.3039982318878174,-6.375759124755859
1775728225749421000,4.727421142578125,0.44771572947502136,-3.203441858291626,-6.236895561218262
1775728225759522300,4.737522216796875,0.4812345504760742,-3.1028854846954346,-5.949591159820557
1775728225769562600,4.747562744140625,0.47405192255973816,-3.0095114707946777,-5.746084213256836
1775728225779633400,4.75763330078125,0.5650315880775452,-2.9041666984558105,-5.609614372253418
1775728225789612500,4.767612548828125,0.5770025849342346,-2.691082715988159,-5.65031623840332
1775728225799714000,4.777714111328125,1.0582371950149536,-2.741360902786255,-5.65031623840332
1775728225809723600,4.7877236328125,1.5298948287963867,-2.6168625354766846,-5.765237808227539
1775728225839905500,4.817905517578125,1.941697597503662,-2.4636335372924805,-5.813121795654297
1775728225849945900,4.82794580078125,1.9608511924743652,-2.255337953567505,-5.7341132164001465
1775728225860016600,4.8380166015625,1.9943699836730957,-2.1332337856292725,-5.748478412628174
1775728225869996000,4.84799609375,2.0015525817871094,-2.0231003761291504,-5.657498836517334
1775728225880097300,4.85809716796875,2.1308395862579346,-1.946485996246338,-5.7987565994262695
1775728225890168000,4.86816796875,2.207453966140747,-1.745373010635376,-6.038176536560059
1775728225900269300,4.878269287109375,2.3535003662109375,-1.5897499322891235,-6.311115741729736
1775728225910248700,4.888248779296875,2.4205379486083984,-1.45806884765625,-6.7061591148376465
1775728225950531800,4.92853173828125,3.2824504375457764,-1.0438719987869263,-8.825027465820312
1775728225960633000,4.938633056640625,3.5482068061828613,-0.9313444495201111,-9.77791976928711
1775728225970643000,4.948642822265625,3.7469255924224854,-0.8331822156906128,-10.8505220413208
1775728225980744200,4.958744140625,3.6152446269989014,-0.7206547260284424,-11.743558883666992
1775728225990784500,4.968784423828125,3.268085241317749,-0.8475474119186401,-12.45703125
1775728226000885800,4.9788857421875,2.4229321479797363,-0.6751648783683777,-13.15613842010498
1775728226010895600,4.9888955078125,1.678335428237915,-0.4836287498474121,-13.833697319030762
1775728226020996900,4.998996826171875,0.9097966551780701,-0.3902548849582672,-14.269442558288574
1775728226051209200,5.029209228515625,0.3471592366695404,-1.0007762908935547,-15.804125785827637
1775728226061280000,5.039280029296875,0.5937620401382446,-1.5658079385757446,-16.323667526245117
1775728226071289900,5.049289794921875,1.0079588890075684,-2.252943754196167,-16.364368438720703
1775728226091462000,5.0694619140625,1.8148049116134644,-3.44765043258667,-15.203181266784668
1775728226101532700,5.07953271484375,2.0925323963165283,-4.072536945343018,-14.5806884765625
1775728226111603500,5.089603515625,2.3487119674682617,-4.503493309020996,-13.996502876281738
1775728226121613300,5.09961328125,2.4899697303771973,-5.0469770431518555,-13.637372970581055
1775728226171875800,5.149875732421875,1.7980455160140991,-5.281609058380127,-12.698845863342285
1775728226181885400,5.159885498046875,1.3742717504501343,-5.094861030578613,-12.327744483947754
1775728226191895300,5.169895263671875,1.113303780555725,-5.006275653839111,-11.875240325927734
1775728226201996500,5.17999658203125,0.9528923034667969,-4.733336925506592,-11.504138946533203
1775728226212067300,5.1900673828125,0.8355764150619507,-4.637568473815918,-11.027692794799805
1775728226222138400,5.200138427734375,0.7589619159698486,-4.592078685760498,-10.649409294128418
1775728226252350700,5.230350830078125,1.1276689767837524,-4.436455726623535,-9.715670585632324
1775728226272370200,5.2503701171875,1.3263877630233765,-4.371812343597412,-8.9064302444458
1775728226282471400,5.260471435546875,1.4772224426269531,-4.587290287017822,-8.60236644744873
1775728226292542200,5.270542236328125,1.4652514457702637,-4.797980308532715,-8.118738174438477
1775728226302613000,5.280613037109375,1.4748282432556152,-5.092466831207275,-7.73087739944458
1775728226312684000,5.29068408203125,1.580173134803772,-5.360617637634277,-7.321468830108643
1775728226322724000,5.30072412109375,1.764526605606079,-5.652710437774658,-6.835445880889893
1775728226332734000,5.31073388671875,1.9273324012756348,-5.808333396911621,-6.5050458908081055
1775728226362976800,5.340976806640625,2.190694570541382,-6.375759124755859,-5.738901615142822
1775728226393128200,5.371128173828125,2.7437551021575928,-6.447585105895996,-5.5545477867126465
1775728226403229400,5.3812294921875,3.1268274784088135,-6.57926607131958,-5.7987565994262695
1775728226413300500,5.391300537109375,4.230554580688477,-6.866570472717285,-6.246472358703613
1775728226423371300,5.401371337890625,5.099649429321289,-7.036558628082275,-6.84981107711792
1775728226433442000,5.411442138671875,5.590460777282715,-7.134721279144287,-7.453149795532227
1775728226443512800,5.421512939453125,5.714959621429443,-7.19936466217041,-8.006210327148438
1775728226463593200,5.44159326171875,5.284003257751465,-6.787561893463135,-8.633491516113281
1775728226473664300,5.451664306640625,5.078101634979248,-6.5912370681762695,-9.009381294250488
1775728226483735000,5.461735107421875,4.963180065155029,-6.215347766876221,-9.667786598205566
1775728226493775000,5.471775146484375,5.128379821777344,-6.045359134674072,-10.36449909210205
1775728226503876600,5.481876708984375,5.190629482269287,-5.918466567993164,-11.013327598571777
1775728226513947400,5.491947509765625,5.276820659637451,-5.566518783569336,-11.48259162902832
1775728226524018200,5.50201806640625,5.07570743560791,-5.336675643920898,-11.743558883666992
1775728226534089000,5.5120888671875,4.855441093444824,-5.018246650695801,-11.882423400878906
1775728226544129300,5.52212939453125,4.469974517822266,-4.774038314819336,-12.035652160644531
1775728226554169600,5.532169677734375,4.043806552886963,-4.620809078216553,-12.380416870117188
1775728226584351500,5.5623515625,3.1938650608062744,-4.69024133682251,-14.578293800354004
1775728226594422300,5.57242236328125,3.1938650608062744,-4.817133903503418,-15.715539932250977
1775728226604493000,5.5824931640625,3.313575267791748,-4.912901878356934,-16.601394653320312
1775728226614563800,5.592563720703125,3.4548330307006836,-5.145139217376709,-17.053897857666016
1775728226624634600,5.602634521484375,3.6966474056243896,-5.324704647064209,-16.910245895385742
1775728226634705400,5.612705322265625,4.015076160430908,-5.504269599914551,-16.35718536376953
1775728226644776200,5.622776123046875,4.127603530883789,-5.702988624572754,-15.722723007202148
1775728226654847000,5.632846923828125,3.8307228088378906,-5.686229228973389,-15.138537406921387
1775728226664917800,5.642917724609375,2.999934673309326,-5.552153587341309,-14.250288963317871
1775728226715241200,5.6932412109375,-1.1444283723831177,-3.2848446369171143,-12.24394702911377
1775728226725312000,5.70331201171875,-1.2282254695892334,-2.9664158821105957,-11.96861457824707
1775728226735382800,5.7133828125,-1.1300631761550903,-2.7916390895843506,-11.585541725158691
1775728226755555000,5.73355517578125,-0.2346317619085312,-3.050212860107422,-10.742782592773438
1775728226765656300,5.74365625,0.09816227108240128,-3.1675288677215576,-10.469843864440918
1775728226775727000,5.75372705078125,0.47644615173339844,-3.4955344200134277,-10.160991668701172
1775728226785828400,5.763828369140625,0.6919242739677429,-3.7205893993377686,-9.718064308166504
1775728226826020000,5.80402001953125,0.3256114423274994,-3.6990416049957275,-8.197746276855469
1775728226836060400,5.814060302734375,0.10534487664699554,-3.5410242080688477,-7.781155586242676
1775728226846161700,5.82416162109375,-0.16759411990642548,-3.3949780464172363,-7.424419403076172
1775728226856232400,5.834232421875,-0.3064578175544739,-3.205836057662964,-7.151480674743652
1775728226866272800,5.844272705078125,-0.44771572947502136,-3.179499864578247,-6.943184852600098
1775728226876282600,5.85428271484375,-0.5267243981361389,-3.160346269607544,-6.732495307922363
1775728226886353400,5.864353515625,-0.35673606395721436,-3.265691041946411,-6.5696892738342285
1775728226906464500,5.884464599609375,0.2849099934101105,-3.4787750244140625,-6.502651691436768
1775728226916474000,5.89447412109375,0.3256114423274994,-3.3877954483032227,-6.423643112182617
1775728226926575600,5.90457568359375,0.1843535304069519,-3.2848446369171143,-6.31829833984375
1775728226936676900,5.9146767578125,0.1843535304069519,-3.2848446369171143,-6.31829833984375
1775728226946717200,5.92471728515625,-0.021547814831137657,-3.1316158771514893,-6.19379997253418
1775728226956726800,5.934726806640625,0.026336219161748886,-3.1316158771514893,-6.117185115814209
1775728226966828300,5.944828369140625,-0.021547814831137657,-3.0166940689086914,-5.920860767364502
1775728226976838000,5.954837890625,0.26096799969673157,-3.071760892868042,-5.700594425201416
1775728227016999200,5.994999267578125,1.824381709098816,-2.873042106628418,-5.872976779937744
1775728227027070000,6.005070068359375,1.968033790588379,-2.7724854946136475,-6.021417140960693
1775728227047150300,6.025150390625,1.8602946996688843,-2.6599581241607666,-6.3063273429870605
1775728227057221400,6.035221435546875,1.843535304069519,-2.5761611461639404,-6.572083473205566
1775728227067292200,6.045292236328125,1.6543933153152466,-2.3774423599243164,-6.914454460144043
1775728227077301800,6.0553017578125,1.702277421951294,-2.2433669567108154,-7.319074630737305
1775728227087403300,6.0654033203125,1.8363527059555054,-2.248155355453491,-7.673416614532471
1775728227097474000,6.07547412109375,1.9560627937316895,-2.1475989818573,-8.202534675598145
1775728227107544800,6.085544921875,2.1547815799713135,-2.1499931812286377,-8.913613319396973
1775728227117585200,6.095585205078125,2.406172752380371,-1.8962076902389526,-9.696516990661621
1775728227127686400,6.105686279296875,2.7916390895843506,-1.7908629179000854,-10.211270332336426
1775728227137726700,6.115726806640625,3.1004912853240967,-1.7286136150360107,-10.948684692382812
1775728227147797500,6.125797607421875,2.935291290283203,-1.41257905960083,-11.628637313842773
1775728227157837800,6.135837890625,2.535459518432617,-1.3670891523361206,-12.263101577758789
1775728227167908600,6.14590869140625,1.9847931861877441,-1.2306196689605713,-12.899958610534668
1775728227177948700,6.15594873046875,1.256955862045288,-1.0031704902648926,-13.30218505859375
1775728227188019700,6.166019775390625,0.7326257228851318,-0.8427590131759644,-13.567940711975098
1775728227197998800,6.175998779296875,0.37828385829925537,-0.7781155705451965,-13.934253692626953
1775728227208100000,6.18610009765625,0.42616790533065796,-0.7972691655158997,-14.530409812927246
1775728227218140400,6.196140380859375,0.6751648783683777,-0.871489405632019,-15.186421394348145
1775728227238312400,6.2163125,1.5610195398330688,-1.8531121015548706,-15.634137153625488
1775728227248383500,6.226383544921875,2.1547815799713135,-2.5282769203186035,-15.222334861755371
1775728227258454300,6.236454345703125,2.626439332962036,-3.1890766620635986,-14.482525825500488
1775728227268525000,6.246525146484375,2.956839084625244,-3.7708675861358643,-13.804966926574707
1775728227278595800,6.256595947265625,3.265691041946411,-4.218583583831787,-13.201627731323242
1775728227288666600,6.26666650390625,3.426102638244629,-4.477157115936279,-12.667720794677734
1775728227298645800,6.276645751953125,3.337517261505127,-4.546588897705078,-12.279860496520996
1775728227318787300,6.296787353515625,2.983175277709961,-4.213795185089111,-11.729193687438965
1775728227328858000,6.306858154296875,2.650381326675415,-3.8953661918640137,-11.580753326416016
1775728227338868000,6.316867919921875,2.434903144836426,-3.5434184074401855,-11.51611042022705
1775728227348969200,6.32696923828125,2.126051187515259,-3.2106244564056396,-11.413159370422363
1775728227359040000,6.3370400390625,2.006340980529785,-2.8562827110290527,-11.152191162109375
1775728227369110800,6.34711083984375,1.8962076902389526,-2.8179752826690674,-10.773907661437988
1775728227379151000,6.357151123046875,1.7286136150360107,-2.873042106628418,-10.405200958251953
1775728227389252600,6.367252685546875,1.6160861253738403,-2.9688100814819336,-9.93593692779541
1775728227409333000,6.3873330078125,1.3838485479354858,-3.07415509223938,-9.258378028869629
1775728227419403800,6.39740380859375,1.3670891523361206,-3.090914487838745,-8.913613319396973
1775728227429505300,6.40750537109375,1.4389152526855469,-3.141192674636841,-8.631096839904785
1775728227439545600,6.417545654296875,1.5514427423477173,-3.222595453262329,-8.427590370178223
1775728227449555200,6.42755517578125,1.6041151285171509,-3.5936968326568604,-8.26478385925293
1775728227459565000,6.43756494140625,1.7501614093780518,-4.005499362945557,-8.121131896972656
1775728227469666300,6.447666259765625,1.7381904125213623,-4.280832767486572,-8.044517517089844
1775728227479676200,6.45767626953125,1.7334020137786865,-4.797980308532715,-7.829039573669434
1775728227489716500,6.467716552734375,1.7980455160140991,-5.331887245178223,-7.69735860824585
1775728227509827600,6.48782763671875,2.188300371170044,-6.342240333557129,-7.237671852111816
1775728227519898400,6.4978984375,2.2673089504241943,-6.670246124267578,-7.196970462799072
1775728227550110700,6.52811083984375,2.868253707885742,-7.043741226196289,-6.794744491577148
1775728227560151000,6.538151123046875,3.1531636714935303,-7.271190643310547,-6.624756336212158
1775728227570221800,6.548221923828125,3.4404678344726562,-7.419631004333496,-6.5481414794921875
1775728227580262100,6.55826220703125,3.7636849880218506,-7.5417351722717285,-6.524199485778809
1775728227590363400,6.56836328125,4.122815132141113,-7.47230339050293,-6.67982292175293
1775728227620514800,6.598514892578125,5.197812080383301,-7.2568254470825195,-8.365341186523438
1775728227630616000,6.608615966796875,5.770026206970215,-7.354987621307373,-8.769960403442383
1775728227640656400,6.618656494140625,5.966350555419922,-7.230489253997803,-9.184157371520996
1775728227650727200,6.62872705078125,5.944802761077881,-6.988674640655518,-9.718064308166504
1775728227660767500,6.638767578125,5.738901615142822,-6.514622688293457,-10.393229484558105
1775728227680848000,6.658847900390625,5.324704647064209,-5.523423194885254,-11.829751014709473
1775728227690949400,6.668949462890625,5.257667064666748,-5.130774021148682,-12.567164421081543
1775728227701020200,6.679020263671875,5.080495834350586,-4.884171485900879,-13.290213584899902
1775728227741242400,6.719242431640625,3.0406360626220703,-3.1459810733795166,-15.988478660583496
1775728227751313200,6.729313232421875,2.298433542251587,-2.6839001178741455,-16.847997665405273
1775728227761384000,6.739384033203125,1.647210717201233,-2.451662540435791,-17.38669204711914
1775728227771454700,6.749454833984375,1.170764684677124,-2.2697031497955322,-17.43936538696289
1775728227791565800,6.76956591796875,0.8188169598579407,-2.612074136734009,-16.39788818359375
1775728227801636600,6.77963671875,1.0606313943862915,-3.0095114707946777,-15.816096305847168
1775728227811677000,6.789677001953125,1.3742717504501343,-3.3470940589904785,-15.059528350830078
1775728227841858800,6.81985888671875,2.205059766769409,-3.8546648025512695,-13.409923553466797
1775728227862000400,6.84000048828125,1.3263877630233765,-3.550601005554199,-12.162544250488281
1775728227872071200,6.8500712890625,0.7445967197418213,-3.49314022064209,-11.719616889953613
1775728227882050300,6.86005029296875,0.19153612852096558,-3.3446998596191406,-11.413159370422363
1775728227892151600,6.870151611328125,-0.20111294090747833,-3.1052796840667725,-11.116278648376465
1775728227902191900,6.88019189453125,-0.26096799969673157,-3.1004912853240967,-10.788272857666016
1775728227912232200,6.890232177734375,-0.20350714027881622,-3.0119056701660156,-10.431536674499512
1775728227932373800,6.910373779296875,0.09576806426048279,-3.6080620288848877,-9.792284965515137
1775728227942444500,6.920444580078125,0.30885201692581177,-3.9384617805480957,-9.433155059814453
1775728227952454400,6.930454345703125,0.4165911078453064,-4.19224739074707,-9.064447402954102
1775728227962525200,6.940525146484375,0.3519476354122162,-4.343081951141357,-8.710105895996094
1775728227972565500,6.9505654296875,0.26575639843940735,-4.278438568115234,-8.360552787780762
1775728227982636300,6.96063623046875,0.12449848651885986,-4.278438568115234,-7.99184513092041
1775728227992676600,6.970676513671875,-0.0694318488240242,-3.9193081855773926,-7.682993412017822
1775728228002686500,6.9806865234375,-0.35673606395721436,-3.584120035171509,-7.3023152351379395
1775728228012787700,6.99078759765625,-0.5913678407669067,-3.205836057662964,-6.92881965637207
1775728228043000000,7.021,-0.7876923680305481,-2.896984100341797,-6.011840343475342
1775728228053070800,7.03107080078125,-0.6847416758537292,-2.8586769104003906,-5.793968200683594
1775728228063141600,7.0411416015625,-0.6919242739677429,-2.784456491470337,-5.659893035888672
1775728228073182000,7.051181884765625,-0.6584054827690125,-2.8802247047424316,-5.458779811859131
1775728228083252700,7.061252685546875,-0.3926490843296051,-2.9017724990844727,-5.370194435119629
1775728228093323500,7.071323486328125,-0.019153613597154617,-2.985569477081299,-5.317522048950195
1775728228103394300,7.081394287109375,0.30885201692581177,-3.0406360626220703,-5.293580055236816
1775728228113495600,7.09149560546875,0.35434186458587646,-2.96162748336792,-5.48272180557251
1775728228123536000,7.101535888671875,0.37828385829925537,-2.9472622871398926,-5.415684223175049
1775728228153717800,7.1317177734375,-0.004788403399288654,-2.604891538619995,-5.602431774139404
1775728228163788500,7.14178857421875,0.031124621629714966,-2.6168625354766846,-5.78678560256958
1775728228173859300,7.151859375,0.2825157940387726,-2.6791117191314697,-5.983109951019287
1775728228183930400,7.161930419921875,0.5267243981361389,-2.5905263423919678,-6.169857978820801
1775728228193940000,7.17193994140625,0.6440402865409851,-2.557007312774658,-6.332663536071777
1775728228203980300,7.181980224609375,0.849941611289978,-2.499546527862549,-6.555324077606201
1775728228214081500,7.19208154296875,0.9696516990661621,-2.406172752380371,-6.66785192489624
1775728228224152300,7.20215234375,1.2306196689605713,-2.4803929328918457,-6.885724067687988
1775728228244294000,7.2222939453125,1.525106430053711,-2.4803929328918457,-8.348581314086914
1775728228254365000,7.232364990234375,1.525106430053711,-2.4803929328918457,-8.348581314086914
1775728228264405000,7.242405029296875,1.6400281190872192,-2.454056739807129,-9.260771751403809
1775728228274475800,7.252475830078125,1.7597382068634033,-2.363077163696289,-10.216058731079102
1775728228284516000,7.26251611328125,1.824381709098816,-2.315192937850952,-10.90798282623291
1775728228294587000,7.2725869140625,1.9249382019042969,-2.252943754196167,-11.434707641601562
1775728228304657700,7.28265771484375,2.03507137298584,-2.126051187515259,-12.085929870605469
1775728228314698000,7.292697998046875,1.86508309841156,-2.097320795059204,-12.856863021850586
1775728228364991000,7.342990966796875,-0.7781155705451965,-1.0893617868423462,-16.378734588623047
1775728228375092200,7.35309228515625,-0.6033388376235962,-1.3024457693099976,-16.95573616027832
1775728228385071600,7.363071533203125,-0.15083470940589905,-1.6519991159439087,-17.50640296936035
1775728228395112000,7.37311181640625,0.42377370595932007,-2.2002713680267334,-17.750612258911133
1775728228405213200,7.383213134765625,1.2497732639312744,-2.96162748336792,-17.14008903503418
1775728228415284000,7.393283935546875,1.987187385559082,-3.6511576175689697,-15.962142944335938
1775728228425354800,7.403354736328125,2.6647465229034424,-4.151545524597168,-14.654908180236816
1775728228465577000,7.443576904296875,3.976768970489502,-5.257667064666748,-12.0021333694458
1775728228475617300,7.4536171875,4.165910720825195,-5.03021764755249,-11.683704376220703
1775728228485688000,7.46368798828125,4.10366153717041,-4.685452938079834,-11.379640579223633
1775728228495758800,7.4737587890625,3.9671921730041504,-4.268861770629883,-11.1474027633667
1775728228505829600,7.48382958984375,3.7924153804779053,-3.7421371936798096,-10.888829231262207
1775728228515809000,7.49380908203125,3.49314022064209,-3.6607344150543213,-10.687716484069824
1775728228545991000,7.523990966796875,2.454056739807129,-3.1268274784088135,-9.579200744628906
1775728228566132500,7.544132568359375,1.7094600200653076,-2.765302896499634,-8.631096839904785
1775728228576233700,7.554233642578125,1.4915876388549805,-2.698265314102173,-8.147468566894531
1775728228586243600,7.56424365234375,1.3910311460494995,-2.6575639247894287,-7.876923561096191
1775728228596314400,7.574314453125,1.3742717504501343,-2.7246015071868896,-7.51779317855835
1775728228606385200,7.58438525390625,1.4197616577148438,-2.8371291160583496,-7.333439826965332
1775728228616486400,7.594486328125,1.5849615335464478,-3.184288263320923,-7.271190643310547
1775728228626557200,7.60455712890625,1.6519991159439087,-3.490746021270752,-7.010222434997559
1775728228666840300,7.64484033203125,2.497152328491211,-5.006275653839111,-6.258443355560303
1775728228676911000,7.6549111328125,2.585737943649292,-5.34625244140625,-5.999869346618652
1775728228686951400,7.664951416015625,2.7916390895843506,-5.74129581451416,-5.856217384338379
1775728228697053000,7.675052978515625,3.002328872680664,-5.925649166107178,-5.746084213256836
1775728228707123700,7.685123779296875,3.2393548488616943,-6.236895561218262,-5.6455278396606445
1775728228717194500,7.695194580078125,3.361459255218506,-6.481103897094727,-5.6910176277160645
1775728228727265300,7.705265380859375,3.581725835800171,-6.62236213684082,-5.882553577423096
1775728228757416400,7.73541650390625,4.333505153656006,-6.40927791595459,-6.552929878234863
1775728228767456800,7.745456787109375,4.551377296447754,-6.404489517211914,-7.01979923248291
1775728228777527600,7.755527587890625,4.649539470672607,-6.339846134185791,-7.462726593017578
1775728228787598300,7.765598388671875,4.699818134307861,-6.315904140472412,-7.951143741607666
1775728228797669400,7.77566943359375,4.668693542480469,-6.203376770019531,-8.31985092163086
1775728228807679000,7.785678955078125,4.458003520965576,-6.033388137817383,-8.7268648147583
1775728228817780200,7.7957802734375,4.1395745277404785,-5.7556610107421875,-9.066842079162598
1775728228827851300,7.805851318359375,3.88818359375,-5.372588634490967,-9.679757118225098
1775728228837952500,7.815952392578125,3.627215623855591,-4.953603267669678,-10.129867553710938
1775728228858094000,7.836093994140625,3.2752678394317627,-4.501099109649658,-10.972626686096191
1775728228868164900,7.846164794921875,3.2417490482330322,-4.321534156799316,-11.334151268005371
1775728228878235600,7.856235595703125,3.1076738834381104,-4.307168960571289,-11.882423400878906
1775728228888306400,7.866306396484375,2.8778305053710938,-4.211400985717773,-12.327744483947754
1775728228898316300,7.87631640625,2.477998733520508,-3.993528366088867,-13.010091781616211
1775728228908326000,7.886325927734375,2.2002713680267334,-3.9408559799194336,-13.855245590209961
1775728228918396700,7.896396728515625,1.8626888990402222,-3.8953661918640137,-15.085865020751953
1775728228928437000,7.90643701171875,2.008735179901123,-4.039018154144287,-16.28296661376953
1775728228948487200,7.926487060546875,3.0334534645080566,-4.757278919219971,-17.515979766845703
1775728228968659200,7.9466591796875,3.4308910369873047,-5.07570743560791,-17.111358642578125
1775728228978760400,7.956760498046875,3.1196448802948,-5.054159641265869,-16.02678680419922
1775728228988770300,7.966770263671875,2.4803929328918457,-4.967968463897705,-14.528016090393066
1775728228998871600,7.97687158203125,1.723825216293335,-4.707000732421875,-13.376404762268066
1775728229008942300,7.9869423828125,1.0654197931289673,-4.467580318450928,-12.54801082611084
1775728229018952200,7.9969521484375,0.5793967843055725,-4.201824188232422,-12.083536148071289
1775728229028992500,8.006992431640626,0.12689268589019775,-3.7469255924224854,-11.688492774963379
1775728229039032800,8.01703271484375,-0.10773907601833344,-3.318363666534424,-11.530475616455078
1775728229049103600,8.027103515625,-0.26815059781074524,-3.1004912853240967,-11.30063247680664
1775728229069184300,8.047184326171875,-0.090979665517807,-3.2537200450897217,-10.860098838806152
1775728229079255000,8.057255126953125,0.2322375625371933,-3.620033025741577,-10.520122528076172
1775728229089295400,8.06729541015625,0.5650315880775452,-4.050989151000977,-10.287884712219238
1775728229099335400,8.07733544921875,0.8259995579719543,-4.2760443687438965,-10.110713958740234
1775728229109345300,8.08734521484375,0.9600749015808105,-4.383783340454102,-9.9000244140625
1775728229119446500,8.097446533203126,1.0773907899856567,-4.285621166229248,-9.615114212036133
1775728229129517300,8.107517333984376,1.070208191871643,-4.084507942199707,-9.263166427612305
1775728229139588000,8.117588134765626,0.8379706144332886,-3.847482204437256,-8.813055992126465
1775728229149659000,8.127658935546876,0.6655880808830261,-3.5936968326568604,-8.334216117858887
1775728229169709000,8.147708984375,0.1412578970193863,-2.9927520751953125,-7.489062786102295
1775728229189789700,8.167789794921875,0.05506663769483566,-2.719813108444214,-6.787561893463135
1775728229199860500,8.177860595703125,0.27054479718208313,-2.7269957065582275,-6.524199485778809
1775728229209900800,8.18790087890625,0.5578489899635315,-2.782062292098999,-6.380547523498535
1775728229220002000,8.198001953125,0.7110779285430908,-2.911349296569824,-6.246472358703613
1775728229230072800,8.20807275390625,0.9145850539207458,-2.9041666984558105,-6.184223175048828
1775728229240143600,8.2181435546875,1.3862427473068237,-2.985569477081299,-6.112396717071533
1775728229250214400,8.22821435546875,1.3215993642807007,-2.892195701599121,-6.066906929016113
1775728229260285200,8.23828515625,1.1420341730117798,-2.8419175148010254,-6.124367713928223
1775728229290528300,8.2685283203125,0.31364041566848755,-2.4875755310058594,-5.882553577423096
1775728229300599000,8.27859912109375,0.3447650372982025,-2.5474305152893066,-5.774814605712891
1775728229310669800,8.288669921875,0.5051765441894531,-2.5234885215759277,-5.789179801940918
1775728229320710100,8.298710205078125,0.7326257228851318,-2.3965959548950195,-5.856217384338379
1775728229330750200,8.308750244140626,0.9289502501487732,-2.3989901542663574,-6.057330131530762
1775728229340851700,8.318851806640625,0.9050082564353943,-2.2361843585968018,-6.270414352416992
1775728229350922500,8.328922607421875,1.0678139925003052,-2.126051187515259,-6.428431510925293
1775728229360962800,8.338962890625,1.05105459690094,-2.0470423698425293,-6.694188117980957
1775728229371003000,8.3490029296875,1.0845733880996704,-2.073378562927246,-7.084442615509033
1775728229391083500,8.36908349609375,1.1180921792984009,-2.0877439975738525,-7.943961143493652
1775728229401184800,8.379184814453126,1.1563993692398071,-2.0183119773864746,-8.360552787780762
1775728229411255800,8.389255859375,1.237802267074585,-1.9776105880737305,-8.925583839416504
1775728229421326600,8.39932666015625,1.1300631761550903,-1.9632453918457031,-9.612719535827637
1775728229431397400,8.4093974609375,1.1085153818130493,-1.9560627937316895,-10.36449909210205
1775728229441468200,8.41946826171875,1.039083480834961,-1.941697597503662,-11.192893028259277
1775728229451447300,8.429447265625,0.9888052940368652,-1.7932571172714233,-12.054805755615234
1775728229461548500,8.439548583984376,0.7924807667732239,-1.656787633895874,-12.861651420593262
1775728229471619300,8.449619384765626,0.4644751250743866,-1.580173134803772,-13.64455509185791
1775728229481690400,8.4596904296875,0.043095629662275314,-1.534683346748352,-14.204798698425293
1775728229491761200,8.46976123046875,-0.3687070608139038,-1.50355863571167,-14.475343704223633
1775728229501832000,8.47983203125,-0.6368576288223267,-1.599326729774475,-14.504074096679688
1775728229511902700,8.48990283203125,-0.6751648783683777,-1.920149803161621,-14.460978507995605
1775728229521973500,8.499973388671876,-0.49799394607543945,-2.161964178085327,-14.602235794067383
1775728229532013800,8.510013916015625,-0.21787235140800476,-2.5522189140319824,-14.530409812927246
1775728229542115000,8.520114990234376,0.2777273952960968,-3.0190882682800293,-14.18564510345459
1775728229552185900,8.530185791015626,1.015141487121582,-3.3925838470458984,-13.749900817871094
1775728229562226200,8.54022607421875,1.6855180263519287,-3.840299606323242,-13.309367179870605
1775728229572297000,8.550296875,2.561795711517334,-4.151545524597168,-12.97657299041748
1775728229602448400,8.580448486328125,3.529053211212158,-4.924872875213623,-12.459425926208496
1775728229612488700,8.59048876953125,3.7158010005950928,-5.061342239379883,-12.234370231628418
1775728229622559500,8.6005595703125,3.845088005065918,-4.927267074584961,-12.014103889465332
1775728229632569000,8.610569091796876,3.797203779220581,-4.627991676330566,-11.762712478637695
1775728229642640000,8.620639892578126,3.7038300037384033,-4.367023944854736,-11.599906921386719
1775728229652649700,8.630649658203126,3.466804027557373,-4.125209331512451,-11.66694450378418
1775728229662720500,8.640720458984376,3.2154128551483154,-3.914519786834717,-11.743558883666992
1775728229672730400,8.65073046875,2.942473888397217,-3.6942532062530518,-11.676521301269531
1775728229692841500,8.670841552734375,2.3032219409942627,-3.19865345954895,-10.764330863952637
1775728229702912300,8.680912353515625,1.9823989868164062,-2.9520506858825684,-10.24000072479248
1775728229712921900,8.690921875,1.723825216293335,-2.717418909072876,-9.873687744140625
1775728229723023400,8.7010234375,1.5610195398330688,-2.674323320388794,-9.461885452270508
1775728229733094100,8.71109423828125,1.455674648284912,-2.698265314102173,-9.193734169006348
1775728229743103700,8.721103759765626,1.479616641998291,-2.9065608978271484,-8.882488250732422
1775728229753113600,8.731113525390626,1.7166426181793213,-3.0095114707946777,-8.633491516113281
1775728229763214800,8.74121484375,1.8363527059555054,-3.359065055847168,-8.324639320373535
1775728229773255200,8.751255126953126,1.9129672050476074,-3.751713991165161,-8.04930591583252
1775728229813477400,8.791477294921876,2.7461493015289307,-4.8602294921875,-7.029376029968262
1775728229823487200,8.8014873046875,2.8179752826690674,-5.116408824920654,-6.691793918609619
1775728229833496800,8.811496826171876,2.8610711097717285,-5.43723201751709,-6.485892295837402
1775728229843567600,8.821567626953126,2.8610711097717285,-5.813121795654297,-6.265625953674316
1775728229853608000,8.83160791015625,2.80361008644104,-6.0405707359313965,-6.179434776306152
1775728229863678700,8.8416787109375,3.023876667022705,-6.337451934814453,-6.119579315185547
1775728229873688600,8.8516884765625,3.2824504375457764,-6.564900875091553,-6.090848922729492
1775728229883789800,8.861789794921876,3.5625722408294678,-6.670246124267578,-6.200982570648193
1775728229893860600,8.871860595703126,3.797203779220581,-6.75883150100708,-6.457161903381348
1775728229903931400,8.881931396484376,3.9863457679748535,-6.586448669433594,-6.687005519866943
1775728229924042500,8.90204248046875,4.3406877517700195,-6.260837554931641,-7.572859764099121
1775728229934052400,8.91205224609375,4.618414878845215,-6.234501361846924,-8.341399192810059
1775728229944153600,8.922153564453126,4.786009311676025,-6.191405773162842,-9.095572471618652
1775728229954163500,8.93216357421875,4.817133903503418,-6.026205539703369,-9.758766174316406
1775728229964264700,8.9422646484375,4.663905143737793,-5.861005783081055,-10.17296314239502
1775728229974305000,8.952304931640626,4.376600742340088,-5.585672378540039,-10.608707427978516
1775728229984345300,8.962345458984375,3.912125587463379,-5.128379821777344,-10.919954299926758
1775728229994355000,8.97235498046875,3.442862033843994,-4.888959884643555,-11.228805541992188
1775728230004456400,8.98245654296875,3.205836057662964,-4.692635536193848,-11.525687217712402
1775728230014527200,8.99252734375,3.1196448802948,-4.568136692047119,-11.729193687438965
1775728230024598000,9.002597900390626,3.1723172664642334,-4.575319290161133,-11.987768173217773
1775728230034607600,9.012607666015626,3.3207578659057617,-4.517858505249023,-12.492944717407227
1775728230044678700,9.0226787109375,3.380612850189209,-4.522646903991699,-13.132196426391602
1775728230054749400,9.03274951171875,3.3494882583618164,-4.46518611907959,-13.943830490112305
1775728230064850700,9.0428505859375,3.1292216777801514,-4.4508209228515625,-14.839262008666992
1775728230074891000,9.05289111328125,2.8778305053710938,-4.371812343597412,-15.758635520935059
1775728230084961800,9.0629619140625,2.6408045291900635,-4.309563159942627,-16.34760856628418
1775728230095002000,9.073002197265625,2.434903144836426,-4.371812343597412,-16.59421157836914
1775728230105011700,9.08301171875,2.2457611560821533,-4.537012100219727,-16.328454971313477
1775728230115052000,9.093052001953126,2.2194249629974365,-4.6471452713012695,-15.82567310333252
1775728230125122800,9.103122802734376,2.1978771686553955,-4.661510944366455,-15.222334861755371
1775728230135193600,9.113193603515626,2.2864625453948975,-4.69024133682251,-14.468160629272461
1775728230145264400,9.123264404296876,2.2242133617401123,-4.596867084503174,-13.632584571838379
1775728230155304700,9.1333046875,1.8315643072128296,-4.357447147369385,-12.72757625579834
1775728230165375500,9.14337548828125,1.3120225667953491,-4.101267337799072,-11.911153793334961
1775728230175446300,9.1534462890625,0.7924807667732239,-3.8091750144958496,-11.33654499053955
1775728230185517000,9.16351708984375,0.5650315880775452,-3.7229835987091064,-11.14500904083252
1775728230195557400,9.173557373046876,0.31842881441116333,-3.531447410583496,-11.283872604370117
1775728230215729700,9.193729736328125,0.13407529890537262,-3.2393548488616943,-11.72201156616211
1775728230225800400,9.203800537109375,0.12928688526153564,-3.112462282180786,-11.44907283782959
1775728230235871200,9.213871337890625,0.20350714027881622,-3.1268274784088135,-10.864887237548828
1775728230245942000,9.22394189453125,0.1867477297782898,-3.339911460876465,-10.369287490844727
1775728230256012800,9.2340126953125,0.2561795711517334,-3.3279404640197754,-10.005369186401367
1775728230266022400,9.2440224609375,0.3519476354122162,-3.332728862762451,-9.710882186889648
1775728230276062700,9.254062744140626,0.4213795065879822,-3.442862033843994,-9.311050415039062
1775728230286103000,9.26410302734375,0.3998316824436188,-3.378218650817871,-8.954314231872559
1775728230296113000,9.27411279296875,0.3974374830722809,-3.1890766620635986,-8.463502883911133
1775728230326233600,9.304233642578126,0.272938996553421,-2.8658595085144043,-7.311892032623291
1775728230336243500,9.314243408203126,0.23702596127986908,-2.6815059185028076,-6.9910688400268555
1775728230346344700,9.3243447265625,0.15083470940589905,-2.626439332962036,-6.789956092834473
1775728230356415500,9.33441552734375,0.14365209639072418,-2.6791117191314697,-6.344634532928467
1775728230376526600,9.354526611328126,0.07182604819536209,-2.652775526046753,-5.944802761077881
1775728230386628000,9.364628173828125,0.06464344263076782,-2.6144683361053467,-5.748478412628174
1775728230396699000,9.374698974609375,0.3232172429561615,-2.7293899059295654,-5.628767967224121
1775728230406769700,9.384769775390625,0.4884171485900879,-2.6360161304473877,-5.568912982940674
1775728230426911200,9.4049111328125,0.2825157940387726,-2.5689783096313477,-5.7341132164001465
1775728230447083300,9.425083251953126,0.17477671802043915,-2.389413356781006,-5.726930618286133
1775728230457184500,9.4351845703125,0.07661445438861847,-2.2170307636260986,-5.765237808227539
1775728230467255600,9.445255615234375,-0.002394201699644327,-2.2002713680267334,-5.899312973022461
1775728230477326300,9.455326416015625,-0.10295066982507706,-2.0685901641845703,-5.990292549133301
1775728230487397000,9.465397216796875,-0.181959331035614,-2.032677173614502,-5.96874475479126
1775728230497468000,9.475468017578125,-0.20350714027881622,-1.9512743949890137,-6.021417140960693
1775728230507538700,9.48553857421875,-0.1149216815829277,-1.9847931861877441,-6.172252178192139
1775728230527619300,9.505619384765625,0.19153612852096558,-2.030282974243164,-7.146692276000977
1775728230547699700,9.52569970703125,0.43335050344467163,-2.2002713680267334,-8.221688270568848
1775728230557709600,9.53570947265625,0.3064578175544739,-2.0590133666992188,-8.791508674621582
1775728230567810800,9.545810791015626,0.24899697303771973,-2.078166961669922,-9.253589630126953
1775728230577790200,9.555790283203125,0.1628057211637497,-2.030282974243164,-9.59596061706543
1775728230587891500,9.565891357421876,0.3495534360408783,-2.2170307636260986,-9.995792388916016
1775728230597931800,9.575931884765625,0.4668693244457245,-2.298433542251587,-10.8505220413208
1775728230608002600,9.58600244140625,0.6009446382522583,-2.382230758666992,-11.932701110839844
1775728230618073300,9.5960732421875,0.5985504388809204,-2.650381326675415,-12.682085990905762
1775728230648255200,9.626255126953126,0.3495534360408783,-2.7030537128448486,-13.153743743896484
1775728230658265000,9.63626513671875,0.2849099934101105,-2.7054479122161865,-13.512874603271484
1775728230668335900,9.6463359375,0.4836287498474121,-2.717418909072876,-13.994109153747559
1775728230678376000,9.6563759765625,0.7086837291717529,-2.741360902786255,-14.350845336914062
1775728230688446700,9.66644677734375,1.1228805780410767,-2.8802247047424316,-14.784195899963379
1775728230698517800,9.676517822265625,2.011129379272461,-3.201047658920288,-15.128960609436035
1775728230708588500,9.686588623046875,2.784456491470337,-3.557783842086792,-15.344438552856445
1775728230718659300,9.696659423828125,3.4955344200134277,-4.144362926483154,-15.5311861038208
1775728230728730000,9.706730224609375,4.046200752258301,-4.668693542480469,-15.263035774230957
1775728230748871700,9.72687158203125,4.572925090789795,-5.032611846923828,-14.135366439819336
1775728230758912000,9.736912109375,4.580107688903809,-5.054159641265869,-13.615824699401855
1775728230768921600,9.746921630859376,4.584896087646484,-4.807557106018066,-13.39316463470459
1775728230778962000,9.7569619140625,4.469974517822266,-4.575319290161133,-13.10107135772705
1775728230789032700,9.76703271484375,4.333505153656006,-4.335899353027344,-12.756306648254395
1775728230799073000,9.777072998046876,4.127603530883789,-3.9432501792907715,-12.401965141296387
1775728230809174300,9.78717431640625,3.801992416381836,-3.555389642715454,-11.903970718383789
1775728230819245300,9.797245361328125,3.557783842086792,-3.177105665206909,-11.499350547790527
1775728230829255000,9.8072548828125,3.117250680923462,-2.9759926795959473,-11.065999984741211
1775728230849427000,9.827427001953126,2.1571757793426514,-2.7102363109588623,-10.077195167541504
1775728230859436800,9.837436767578126,1.644816517829895,-2.889801502227783,-9.545681953430176
1775728230869507600,9.847507568359376,1.3958195447921753,-2.9951462745666504,-9.155426979064941
1775728230879578400,9.857578369140626,1.3958195447921753,-2.9951462745666504,-9.155426979064941
1775728230889649200,9.867649169921876,1.335964560508728,-3.069366693496704,-8.69334602355957
1775728230899720000,9.877719970703126,1.3766659498214722,-3.184288263320923,-8.358158111572266
1775728230909760300,9.88776025390625,1.3024457693099976,-3.4548330307006836,-8.135497093200684
1775728230919739600,9.89773974609375,1.41257905960083,-3.713406801223755,-7.979874134063721
1775728230929780000,9.907780029296875,1.5729905366897583,-4.048594951629639,-7.747636795043945
1775728230949860400,9.9278603515625,1.8602946996688843,-4.4939165115356445,-7.486668586730957
1775728230959931100,9.93793115234375,2.013523578643799,-4.797980308532715,-7.242460250854492
1775728230970002000,9.948001953125,2.1068975925445557,-5.056553840637207,-7.0317702293396
1775728230980011800,9.95801171875,2.3343467712402344,-5.456385612487793,-6.773196697235107
1775728230990113000,9.968113037109376,2.5905263423919678,-5.758055210113525,-6.543353080749512
1775728231000183800,9.978183837890626,2.96162748336792,-5.990292549133301,-6.354211330413818
1775728231010254600,9.988254638671876,3.40216064453125,-6.121973514556885,-6.212953567504883
1775728231020325600,9.99832568359375,3.687070608139038,-6.09324312210083,-6.030993938446045
1775728231030365700,10.00836572265625,3.73016619682312,-6.0405707359313965,-5.896918773651123
1775728231050446300,10.0284462890625,3.28963303565979,-5.473145008087158,-5.78678560256958
1775728231060517000,10.03851708984375,3.0621838569641113,-5.260061264038086,-5.774814605712891
1775728231070588000,10.048587890625,3.0358476638793945,-5.104437828063965,-5.770026206970215
1775728231080658700,10.05865869140625,3.138798475265503,-5.003881454467773,-5.805939197540283
1775728231090729500,10.0687294921875,3.1459810733795166,-5.023035049438477,-6.162675380706787
1775728231100800300,10.07880029296875,3.359065055847168,-4.975151062011719,-6.619967937469482
1775728231110871000,10.08887109375,3.488351821899414,-4.965574264526367,-7.187393665313721
1775728231120911400,10.098911376953126,3.406949043273926,-4.903325080871582,-7.807491779327393
1775728231130921200,10.108921142578126,3.2321722507476807,-4.76924991607666,-8.346187591552734
1775728231140931000,10.11893115234375,3.0334534645080566,-4.668693542480469,-8.619126319885254
1775728231151032300,10.1290322265625,2.873042106628418,-4.527435302734375,-8.786720275878906
1775728231161072600,10.13907275390625,2.6791117191314697,-4.371812343597412,-8.904036521911621
1775728231171143400,10.149143310546876,2.7509377002716064,-4.2975921630859375,-9.17936897277832
1775728231181183700,10.159183837890625,2.9065608978271484,-4.153939723968506,-9.715670585632324
1775728231191285000,10.169284912109376,2.9735984802246094,-4.173093795776367,-10.204087257385254
1775728231201355800,10.179355712890626,3.1052796840667725,-4.027047157287598,-10.903194427490234
1775728231211365600,10.18936572265625,3.0573954582214355,-3.801992416381836,-11.528080940246582
1775728231221436400,10.1994365234375,2.832340717315674,-3.5697548389434814,-12.05959415435791
1775728231231507200,10.209507080078126,2.52109432220459,-3.404554843902588,-12.45703125
1775728231241578000,10.219577880859376,2.075772762298584,-3.1699230670928955,-13.21599292755127
1775728231271790300,10.249790283203126,1.237802267074585,-3.026270866394043,-16.323667526245117
1775728231281861000,10.259861083984376,1.4437036514282227,-3.2609026432037354,-17.032350540161133
1775728231291932000,10.269931884765626,1.723825216293335,-3.663128614425659,-17.037139892578125
1775728231301972200,10.27997216796875,1.9536685943603516,-4.0294413566589355,-16.433799743652344
1775728231312012500,10.290012451171876,2.145204782485962,-4.314351558685303,-15.13614273071289
1775728231322083300,10.300083251953126,2.183511972427368,-4.390965938568115,-13.742717742919922
1775728231332093200,10.31009326171875,1.9608511924743652,-4.426878929138184,-12.382811546325684
1775728231342133200,10.32013330078125,1.4963760375976562,-4.292803764343262,-11.243170738220215
1775728231382325000,10.360324951171876,-0.047884032130241394,-3.4548330307006836,-9.787496566772461
1775728231402466600,10.380466552734376,0.24420857429504395,-3.3949780464172363,-10.086771965026855
1775728231412476400,10.390476318359376,0.3998316824436188,-3.397372245788574,-10.14902114868164
1775728231422547200,10.400547119140626,0.5722141861915588,-3.5027170181274414,-10.103530883789062
1775728231432587500,10.41058740234375,0.7134721279144287,-3.552995204925537,-9.746794700622559
1775728231442627800,10.4206279296875,0.7182605266571045,-3.6296098232269287,-9.330204010009766
1775728231452729000,10.43072900390625,0.7445967197418213,-3.5482068061828613,-8.753201484680176
1775728231472809700,10.450809814453125,0.6655880808830261,-3.3303346633911133,-7.838616371154785
1775728231482911000,10.460910888671876,0.5147533416748047,-3.155557870864868,-7.3885064125061035
1775728231492981800,10.470981689453126,0.5147533416748047,-2.9496564865112305,-6.845022678375244
1775728231502991600,10.48099169921875,0.4429273009300232,-2.7102363109588623,-6.54574728012085
1775728231513062400,10.4910625,0.33518823981285095,-2.626439332962036,-6.217741966247559
1775728231523163600,10.50116357421875,0.31603461503982544,-2.557007312774658,-6.078877925872803
1775728231533234400,10.511234375,0.24420857429504395,-2.6216509342193604,-5.882553577423096
1775728231543244300,10.521244384765625,0.1604115068912506,-2.7916390895843506,-5.75326681137085
1775728231553315000,10.531315185546875,0.15322890877723694,-2.738966703414917,-5.657498836517334
1775728231573426200,10.55142626953125,0.15322890877723694,-2.875436305999756,-5.647922039031982
1775728231583497000,10.5614970703125,0.17717093229293823,-2.8203697204589844,-5.638344764709473
1775728231593537300,10.571537353515625,0.22505496442317963,-2.760514497756958,-5.74129581451416
1775728231603608000,10.581608154296875,0.2322375625371933,-2.6815059185028076,-5.817910194396973
1775728231613709300,10.591709228515626,0.14604631066322327,-2.6192567348480225,-5.813121795654297
1775728231623780000,10.601780029296876,0.24899697303771973,-2.4420857429504395,-5.990292549133301
1775728231633820400,10.6118203125,0.4644751250743866,-2.432508945465088,-6.162675380706787
1775728231643891200,10.62189111328125,0.5578489899635315,-2.4157495498657227,-6.2416839599609375
1775728231653901000,10.631901123046875,0.6057330369949341,-2.537853717803955,-6.260837554931641
1775728231674042600,10.652042724609375,0.5219359993934631,-2.741360902786255,-6.145915985107422
1775728231684113400,10.662113525390625,0.40940847992897034,-2.762908697128296,-6.145915985107422
1775728231694184200,10.67218408203125,0.43335050344467163,-2.7940332889556885,-6.380547523498535
1775728231704255000,10.6822548828125,0.45489832758903503,-3.0382418632507324,-6.658275127410889
1775728231714325800,10.69232568359375,0.5195417404174805,-3.0837318897247314,-6.9695210456848145
1775728231724335600,10.702335693359375,0.689530074596405,-3.2968156337738037,-7.168240070343018
1775728231734436900,10.712436767578126,0.7422025203704834,-3.3638534545898438,-7.364564418792725
1775728231744507600,10.722507568359376,0.8906430602073669,-3.4835634231567383,-7.5848307609558105
1775728231754517500,10.732517578125,0.9672574996948242,-3.5386300086975098,-7.893682956695557
1775728231774689500,10.752689453125,1.1228805780410767,-3.7253777980804443,-8.827422142028809
1775728231825074000,10.803073974609376,2.5522189140319824,-4.034229755401611,-12.54801082611084
1775728231835145000,10.81314501953125,2.7724854946136475,-3.998316764831543,-13.417106628417969
1775728231845154600,10.823154541015626,2.736572504043579,-3.9887399673461914,-14.041993141174316
1775728231855225300,10.833225341796876,2.449268341064453,-3.9671921730041504,-14.757859230041504
1775728231865265700,10.843265625,1.9249382019042969,-3.531447410583496,-15.411476135253906
1775728231885437700,10.863437744140626,0.8020575642585754,-2.6431987285614014,-16.09621810913086
1775728231895478000,10.87347802734375,0.48602294921875,-2.542642116546631,-16.21832275390625
1775728231905548800,10.883548828125,0.47644615173339844,-2.4205379486083984,-16.632518768310547
1775728231915589000,10.893589111328126,0.7015010714530945,-2.583343744277954,-17.101781845092773
1775728231925660000,10.903659912109376,1.2306196689605713,-2.8203697204589844,-17.492036819458008
1775728231935761400,10.913761474609375,1.9847931861877441,-3.3638534545898438,-17.334020614624023
1775728231945832200,10.923832275390625,2.7126305103302,-3.7900211811065674,-16.4074649810791
1775728231955872300,10.933872314453126,3.203441858291626,-4.438849925994873,-15.083470344543457
1775728231965973800,10.943973876953125,3.5194764137268066,-4.6950297355651855,-13.802573204040527
1775728231976075000,10.954074951171876,3.600879430770874,-4.817133903503418,-12.540828704833984
1775728232026459600,11.004459716796875,2.896984100341797,-1.1851298809051514,-9.097966194152832
1775728232036530400,11.014530517578125,2.734178304672241,-0.6584054827690125,-8.860940933227539
1775728232046601200,11.024601318359375,2.5905263423919678,-0.5554547905921936,-8.556877136230469
1775728232056672000,11.034672119140625,2.3032219409942627,-1.0606313943862915,-8.090007781982422
1775728232066742800,11.04474267578125,2.161964178085327,-1.3431471586227417,-7.6997528076171875
1775728232076752400,11.05475244140625,2.0422539710998535,-1.7980455160140991,-7.371747016906738
1775728232096802600,11.074802490234376,1.9800047874450684,-2.2385785579681396,-6.907271862030029
1775728232106843000,11.0848427734375,2.1284453868865967,-2.1930887699127197,-6.528987884521484
1775728232116944100,11.094944091796876,2.2170307636260986,-2.293645143508911,-6.3518171310424805
1775728232127015000,11.105014892578126,2.3918075561523438,-1.6328455209732056,-6.14831018447876
1775728232137085700,11.115085693359376,2.585737943649292,-0.4357447028160095,-6.107608318328857
1775728232147095600,11.125095458984376,2.9664158821105957,0.3064578175544739,-6.033388137817383
1775728232157196800,11.13519677734375,3.0789434909820557,0.5219359993934631,-6.071695327758789
1775728232167206700,11.14520654296875,3.201047658920288,0.31603461503982544,-6.086060523986816
1775728232177308000,11.155307861328126,3.064578056335449,0.20350714027881622,-6.370970726013184
1775728232217591000,11.195591064453126,2.3032219409942627,0.5123591423034668,-6.821080684661865
1775728232257843700,11.23584375,1.5298948287963867,-3.665522813796997,-7.050923824310303
1775728232267853600,11.245853515625,1.5107412338256836,-4.333505153656006,-7.448361396789551
1775728232277954800,11.255954833984376,1.4437036514282227,-4.2090067863464355,-7.623138427734375
1775728232308075800,11.28607568359375,1.0989385843276978,-3.598485231399536,-7.522581577301025
1775728232318146600,11.296146484375,1.0989385843276978,-3.8115692138671875,-7.510610580444336
1775728232328187000,11.306186767578126,1.4460978507995605,-3.627215623855591,-7.5417351722717285
1775728232338288000,11.3162880859375,1.7501614093780518,-3.287238836288452,-7.618350028991699
1775728232348328400,11.326328369140626,1.8626888990402222,-3.1651346683502197,-7.673416614532471
1775728232358429700,11.3364296875,2.319981336593628,-3.201047658920288,-7.69735860824585
1775728232368470000,11.346469970703126,2.8993782997131348,-2.918531894683838,-7.910442352294922
1775728232378571300,11.3565712890625,3.1938650608062744,-2.580949544906616,-8.034940719604492
1775728232388642000,11.36664208984375,3.3518824577331543,-2.6671407222747803,-8.2312650680542
1775728232408722700,11.38672265625,3.5434184074401855,-2.8443117141723633,-8.480262756347656
1775728232418763000,11.396762939453126,3.6966474056243896,-2.9257144927978516,-8.523358345031738
1775728232428803300,11.40680322265625,3.864241600036621,-3.1004912853240967,-8.458714485168457
1775728232438904600,11.416904541015626,4.120420932769775,-3.1866824626922607,-8.305485725402832
1775728232448975400,11.426975341796876,4.733336925506592,-3.177105665206909,-8.322244644165039
1775728232459046100,11.437046142578126,5.102043628692627,-3.3877954483032227,-8.501810073852539
1775728232469056000,11.447055908203126,5.078101634979248,-4.1395745277404785,-8.901641845703125
1775728232479157200,11.4571572265625,4.924872875213623,-4.58968448638916,-9.457097053527832
1775728232489228000,11.46722802734375,4.853046894073486,-4.742913722991943,-9.981427192687988
1775728232539582200,11.517582275390625,3.957615375518799,-4.369418144226074,-13.565546989440918
1775728232549653000,11.527653076171875,3.6822822093963623,-4.661510944366455,-14.611812591552734
1775728232559662600,11.53766259765625,3.529053211212158,-4.98472785949707,-15.480908393859863
1775728232569733400,11.5477333984375,3.4548330307006836,-5.236119270324707,-16.09621810913086
1775728232579804200,11.55780419921875,3.648763418197632,-5.710171222686768,-16.438589096069336
1775728232589875000,11.567875,4.122815132141113,-6.145915985107422,-16.553510665893555
1775728232630036200,11.6080361328125,4.594472885131836,-7.122750282287598,-13.843274116516113
1775728232640137500,11.618137451171876,3.88818359375,-6.84981107711792,-12.627019882202148
1775728232650116900,11.628116943359375,3.028665065765381,-6.299144744873047,-11.461043357849121
1775728232660218000,11.638218017578126,2.099714994430542,-5.659893035888672,-10.484209060668945
1775728232670228000,11.64822802734375,1.3646949529647827,-5.0469770431518555,-9.988609313964844
1775728232680329200,11.6583291015625,0.9097966551780701,-4.580107688903809,-9.976638793945312
1775728232690338800,11.6683388671875,0.7757213711738586,-4.314351558685303,-10.474632263183594
1775728232700440300,11.6784404296875,0.7254431247711182,-3.890577793121338,-11.008539199829102
1775728232750763800,11.728763671875,1.5107412338256836,-3.2369606494903564,-9.775525093078613
1775728232760804000,11.73880419921875,1.4891934394836426,-3.3303346633911133,-9.32541561126709
1775728232770813700,11.748813720703126,1.3646949529647827,-3.337517261505127,-8.937555313110352
1775728232780915200,11.758915283203125,1.2449848651885986,-3.265691041946411,-8.669404029846191
1775728232790924800,11.7689248046875,1.0965443849563599,-3.1435868740081787,-8.401253700256348
1775728232801026300,11.7790263671875,0.8858546018600464,-2.9975404739379883,-8.26478385925293
1775728232811097000,11.78909716796875,0.7230489253997803,-2.851494312286377,-7.994239330291748
1775728232821167900,11.79916796875,0.5554547905921936,-2.8179752826690674,-7.843404769897461
1775728232831208200,11.809208251953125,0.40701428055763245,-2.808398485183716,-7.6111674308776855
1775728232841279000,11.819279052734375,0.19632454216480255,-2.8658595085144043,-7.354987621307373
1775728232851349800,11.829349853515625,0.0454898327589035,-3.0813376903533936,-7.16584587097168
1775728232861420500,11.839420654296875,-0.16519992053508759,-3.2537200450897217,-7.074865818023682
1775728232871399700,11.849399658203126,-0.2992752194404602,-3.40216064453125,-6.936002254486084
1775728232881501000,11.8595009765625,-0.3998316824436188,-3.315969467163086,-6.873753070831299
1775728232891572000,11.869572021484375,-0.5339069962501526,-3.2561142444610596,-6.809109687805176
1775728232901612000,11.879612060546876,-0.5746083855628967,-3.00711727142334,-6.7492547035217285
1775728232911622000,11.889621826171876,-0.6368576288223267,-2.9951462745666504,-6.763619899749756
1775728232941864700,11.91986474609375,-0.689530074596405,-2.738966703414917,-6.471527099609375
1775728232951905000,11.929905029296876,-0.7996633648872375,-2.7509377002716064,-6.476315498352051
1775728232962006500,11.940006591796875,-0.8403648138046265,-2.806004285812378,-6.402095317840576
1775728232972107800,11.950107666015626,-0.9097966551780701,-2.82515811920166,-6.332663536071777
1775728232982148000,11.960148193359375,-0.8906430602073669,-2.801215887069702,-6.162675380706787
1775728232992157700,11.97015771484375,-1.1061211824417114,-2.956839084625244,-6.095637321472168
1775728233002259200,11.98025927734375,-1.1875240802764893,-3.0142998695373535,-5.944802761077881
1775728233012330000,11.990330078125,-1.292868971824646,-3.028665065765381,-5.925649166107178
1775728233022400800,12.00040087890625,-1.2401964664459229,-3.0310592651367188,-5.95677375793457
1775728233032441000,12.010441162109375,-1.1659762859344482,-3.0310592651367188,-5.949591159820557
1775728233042481200,12.020481201171876,-1.0965443849563599,-3.1196448802948,-6.038176536560059
1775728233052491000,12.030490966796876,-0.8858546018600464,-3.220201253890991,-6.224924564361572
1775728233062592300,12.04059228515625,-0.4141969084739685,-3.335123062133789,-6.399701118469238
1775728233072632600,12.050632568359376,0,-3.464409828186035,-6.428431510925293
1775728233082734000,12.060734130859375,0.3974374830722809,-3.6104562282562256,-6.660669326782227
1775728233092804900,12.070804931640625,0.8379706144332886,-3.622427225112915,-6.931213855743408
1775728233102875600,12.080875732421875,1.1085153818130493,-3.6583402156829834,-7.113173484802246
1775728233112946400,12.090946533203125,1.3120225667953491,-3.514688014984131,-7.33583402633667
1775728233122986800,12.10098681640625,1.4532804489135742,-3.4811692237854004,-7.623138427734375
1775728233143067100,12.121067138671876,2.38462495803833,-3.821146011352539,-8.233659744262695
1775728233153077000,12.131076904296876,3.064578056335449,-3.7924153804779053,-8.429984092712402
1775728233163178200,12.14117822265625,3.3063924312591553,-3.8163576126098633,-8.707711219787598
1775728233173188000,12.15118798828125,3.4332852363586426,-3.756502389907837,-8.913613319396973
1775728233183289300,12.161289306640626,3.485957622528076,-3.663128614425659,-9.030928611755371
1775728233193360100,12.171360107421876,3.270479440689087,-3.248931646347046,-9.126696586608887
1775728233203461400,12.18146142578125,3.1268274784088135,-2.9257144927978516,-9.349357604980469
1775728233213471200,12.19147119140625,3.1866824626922607,-2.6384103298187256,-9.442731857299805
1775728233223542000,12.2015419921875,3.24414324760437,-2.408566951751709,-9.552865028381348
1775728233233582300,12.211582275390626,3.2632968425750732,-2.2002713680267334,-9.78989028930664
1775728233263733800,12.241733642578126,3.8762125968933105,-1.5322890281677246,-10.431536674499512
1775728233273774000,12.251774169921875,3.7660791873931885,-1.4101848602294922,-10.687716484069824
1775728233283875300,12.261875244140626,3.7038300037384033,-1.623268723487854,-11.12106704711914
1775728233293915600,12.27191552734375,3.7684733867645264,-1.7836803197860718,-11.434707641601562
1775728233304017000,12.282016845703126,4.067748546600342,-2.1763293743133545,-11.8225679397583
1775728233314057200,12.29205712890625,4.570530891418457,-2.7078421115875244,-12.138602256774902
1775728233324128000,12.3021279296875,5.16429328918457,-3.3207578659057617,-12.586318016052246
1775728233334168300,12.312168212890626,5.719748020172119,-3.6990416049957275,-12.619836807250977
1775728233364441600,12.342441650390626,5.559336185455322,-4.1395745277404785,-10.986991882324219
1775728233374451500,12.352451416015626,5.013458251953125,-4.113238334655762,-10.319009780883789
1775728233384522200,12.362522216796876,4.395754337310791,-4.091690540313721,-9.727641105651855
1775728233394562600,12.3725625,3.8139634132385254,-3.8379054069519043,-9.301473617553711
1775728233404663800,12.382663818359376,3.4955344200134277,-3.713406801223755,-9.210494041442871
1775728233414673700,12.392673583984376,3.251325845718384,-3.794809579849243,-9.466673851013184
1775728233424775000,12.40277490234375,3.2752678394317627,-3.9049429893493652,-10.053253173828125
1775728233434845700,12.412845703125,3.3734302520751953,-3.995922565460205,-10.714052200317383
1775728233444886000,12.422885986328126,3.2992098331451416,-4.110844135284424,-11.149797439575195
1775728233464936200,12.442936279296875,3.339911460876465,-4.288015365600586,-11.152191162109375
1775728233475007000,12.453007080078125,3.3734302520751953,-4.390965938568115,-10.94150161743164
1775728233485077800,12.463077880859375,3.4763808250427246,-4.532223701477051,-10.6709566116333
1775728233495148500,12.4731484375,3.5194764137268066,-4.6255974769592285,-10.450690269470215
1775728233505219300,12.48321923828125,3.663128614425659,-4.577713489532471,-10.144232749938965
1775728233515259600,12.493259765625,3.5721490383148193,-4.5609540939331055,-9.959878921508789
1775728233525269200,12.503269287109376,3.4979286193847656,-4.405331134796143,-9.576807022094727
1775728233535340000,12.513340087890626,3.220201253890991,-4.3406877517700195,-9.27034854888916
1775728233555451100,12.533451171875,3.0310592651367188,-4.189853191375732,-9.009381294250488
1775728233585633000,12.563633056640626,2.360682964324951,-4.134786128997803,-8.391676902770996
1775728233595643000,12.573642822265626,2.229001760482788,-4.141968727111816,-8.429984092712402
1775728233605744000,12.583744140625,2.0661959648132324,-4.163516521453857,-8.398859977722168
1775728233615815000,12.59381494140625,1.9560627937316895,-4.10366153717041,-8.389283180236816
1775728233625885700,12.6038857421875,1.920149803161621,-4.153939723968506,-8.317456245422363
1775728233635926000,12.613926025390626,1.8124107122421265,-3.9815573692321777,-8.214506149291992
1775728233645996800,12.623996826171876,1.656787633895874,-4.048594951629639,-8.276755332946777
1775728233656067600,12.634067626953126,1.50355863571167,-4.005499362945557,-8.2312650680542
1775728233676209400,12.65420947265625,1.2234370708465576,-3.9480385780334473,-8.085219383239746
1775728233686249500,12.66424951171875,1.036689281463623,-4.015076160430908,-8.118738174438477
1775728233696320300,12.6743203125,0.9097966551780701,-4.027047157287598,-8.11634349822998
1775728233706391300,12.684391357421875,0.727837324142456,-3.907337188720703,-7.99184513092041
1775728233716462000,12.694462158203125,0.5889736413955688,-3.9480385780334473,-7.790732383728027
1775728233726532900,12.704532958984375,0.5195417404174805,-3.885789394378662,-7.738059997558594
1775728233736542500,12.71454248046875,0.33039984107017517,-3.8522706031799316,-7.814674377441406
1775728233746644000,12.72464404296875,0.14844051003456116,-3.667917013168335,-8.027758598327637
1775728233756653600,12.734653564453126,-0.05746084079146385,-3.5625722408294678,-8.473079681396484
1775728233776764700,12.7547646484375,-0.3734954595565796,-3.529053211212158,-9.308655738830566
1775728233786866000,12.764865966796876,-0.3495534360408783,-3.4811692237854004,-9.856928825378418
1775728233796937000,12.77493701171875,-0.4189853072166443,-3.4835634231567383,-10.295066833496094
1775728233807038200,12.7850380859375,-0.4644751250743866,-3.5266590118408203,-10.666168212890625
1775728233817109000,12.79510888671875,-0.6344634294509888,-3.7205893993377686,-10.800244331359863
1775728233827179800,12.8051796875,-0.7110779285430908,-3.84269380569458,-10.754754066467285
1775728233837220000,12.81522021484375,-0.8858546018600464,-3.952826976776123,-10.800244331359863
1775728233847321300,12.8253212890625,-1.072602391242981,-4.050989151000977,-10.812214851379395
1775728233857392000,12.83539208984375,-1.2401964664459229,-4.036623954772949,-10.943896293640137
1775728233897583900,12.875583984375,-1.8770540952682495,-4.230554580688477,-10.958261489868164
1775728233907593500,12.885593505859376,-2.03507137298584,-4.23773717880249,-10.852916717529297
1775728233917603300,12.895603271484376,-2.1763293743133545,-4.302380561828613,-10.819397926330566
1775728233927674000,12.905674072265626,-2.1954829692840576,-4.486733913421631,-10.759542465209961
1775728233937684000,12.91568408203125,-2.255337953567505,-4.639962673187256,-10.666168212890625
1775728233947693600,12.925693603515626,-2.346317768096924,-4.6255974769592285,-10.6925048828125
1775728233967804700,12.9458046875,-2.6671407222747803,-4.49870491027832,-10.469843864440918
1775728233977906200,12.95590625,-2.7557260990142822,-4.345476150512695,-10.132261276245117
1775728233987977000,12.96597705078125,-2.851494312286377,-4.2329487800598145,-9.919178009033203
1775728233998047700,12.9760478515625,-2.7461493015289307,-4.225766181945801,-9.919178009033203
1775728234008118500,12.986118408203126,-2.537853717803955,-4.129997730255127,-9.86889934539795
1775728234018189300,12.996189208984376,-2.449268341064453,-4.01268196105957,-9.734824180603027
1775728234028199200,13.00619921875,-2.2816741466522217,-4.01268196105957,-9.710882186889648
1775728234038239200,13.0162392578125,-2.0685901641845703,-4.046200752258301,-9.694122314453125
1775728234048310000,13.02631005859375,-1.9177556037902832,-4.10366153717041,-9.569623947143555
1775728234068451800,13.046451904296875,-1.7980455160140991,-4.355052947998047,-9.433155059814453
1775728234078492000,13.056491943359376,-1.7836803197860718,-4.364629745483398,-9.344569206237793
1775728234088593400,13.066593505859375,-1.7884687185287476,-4.443638324737549,-9.306262016296387
1775728234098664200,13.076664306640625,-1.6208745241165161,-4.51067590713501,-9.318233489990234
1775728234108765400,13.086765380859376,-1.580173134803772,-4.6471452713012695,-9.354146003723145
1775728234118836200,13.096836181640626,-1.4460978507995605,-4.668693542480469,-9.512163162231445
1775728234128907000,13.106906982421876,-1.4437036514282227,-4.5825018882751465,-9.612719535827637
1775728234138977800,13.116977783203126,-1.460463047027588,-4.4723687171936035,-9.677363395690918
1775728234149048600,13.127048583984376,-1.455674648284912,-4.383783340454102,-9.744400978088379
1775728234159058400,13.137058349609376,-1.460463047027588,-4.2544965744018555,-9.797073364257812
1775728234219330600,13.19733056640625,-1.460463047027588,-3.825934410095215,-10.232817649841309
1775728234229432000,13.20743212890625,-1.4724340438842773,-3.869029998779297,-10.259154319763184
1775728234239472000,13.21747216796875,-1.460463047027588,-3.758896589279175,-10.340557098388672
1775728234249573600,13.22757373046875,-1.436521053314209,-3.6750996112823486,-10.465055465698242
1775728234259644400,13.23764453125,-1.3024457693099976,-3.6343982219696045,-10.690110206604004
1775728234269654000,13.247654052734376,-1.091755986213684,-3.4835634231567383,-10.723628997802734
1775728234279755500,13.257755615234375,-0.9600749015808105,-3.2752678394317627,-10.702081680297852
1775728234289826300,13.267826416015625,-0.828393816947937,-2.427720546722412,-10.721235275268555
1775728234299897000,13.27789697265625,-0.8858546018600464,-1.0247182846069336,-10.54645824432373
1775728234309906700,13.28790673828125,-0.9385270476341248,0.3974374830722809,-10.125079154968262
1775728234320008200,13.29800830078125,-1.0989385843276978,1.1180921792984009,-9.488221168518066
1775728234330079000,13.308078857421876,-1.1540051698684692,1.4245500564575195,-9.117119789123535
1775728234340088600,13.318088623046876,-1.1779472827911377,1.0893617868423462,-9.373299598693848
1775728234350159600,13.32815966796875,-1.161187767982483,0.3471592366695404,-9.742006301879883
1775728234360199700,13.33819970703125,-0.9145850539207458,-0.5626373887062073,-10.141838073730469
1775728234370240000,13.348239990234376,-0.5626373887062073,-1.3742717504501343,-10.340557098388672
1775728234410462200,13.388462158203126,-0.9313444495201111,-0.06224924325942993,-9.904812812805176
1775728234420533000,13.398532958984376,-1.0989385843276978,0.35913026332855225,-9.703699111938477
1775728234430573300,13.4085732421875,-1.1276689767837524,0.29209262132644653,-9.610325813293457
1775728234440674600,13.418674560546876,-1.0965443849563599,-0.1412578970193863,-9.701305389404297
1775728234450684400,13.428684326171876,-0.8762778043746948,-0.7422025203704834,-10.002974510192871
1775728234460755200,13.438755126953126,-0.8643068075180054,-0.629675030708313,-10.196905136108398
1775728234490906600,13.46890673828125,-1.2114660739898682,0.5051765441894531,-9.718064308166504
1775728234500947000,13.478947021484375,-1.2449848651885986,0.6057330369949341,-9.569623947143555
1775728234510956500,13.48895654296875,-1.3431471586227417,0.9864110946655273,-9.435548782348633
1775728234521058000,13.49905810546875,-1.1971008777618408,0.7493851184844971,-9.409213066101074
1775728234531067600,13.509067626953126,-0.9193734526634216,0.3687070608139038,-9.421183586120605
1775728234541138400,13.519138427734376,-0.5889736413955688,0.09816227108240128,-9.816226959228516
1775728234551178800,13.5291787109375,-0.23942017555236816,-0.15083470940589905,-10.204087257385254
1775728234561280000,13.539280029296876,0.043095629662275314,-0.40222588181495667,-10.553641319274902
1775728234571350800,13.549350830078126,0.40222588181495667,-0.7206547260284424,-10.864887237548828
1775728234611603500,13.589603515625,0.6823474764823914,-0.5937620401382446,-11.0300874710083
1775728234621613300,13.59961328125,0.6224924325942993,-0.7206547260284424,-10.852916717529297
1775728234631714600,13.609714599609376,0.5841852426528931,-0.6416460275650024,-10.737994194030762
1775728234641755000,13.6197548828125,0.5339069962501526,-0.2777273952960968,-10.716446876525879
1775728234651856400,13.6298564453125,0.5363011956214905,-0.16519992053508759,-10.66137981414795
1775728234661896400,13.639896484375,0.5937620401382446,-0.12449848651885986,-10.721235275268555
1775728234671967200,13.64996728515625,0.47644615173339844,0.10534487664699554,-10.757147789001465
1775728234712159000,13.690158935546876,0.5913678407669067,0.08619125932455063,-9.674968719482422
1775728234722229800,13.700229736328126,0.6775590777397156,-0.09816227108240128,-9.50498104095459
1775728234732300500,13.710300537109376,0.7182605266571045,-0.21787235140800476,-9.373299598693848
1775728234742310400,13.720310302734376,0.727837324142456,-0.22266076505184174,-9.241618156433105
1775728234752350700,13.730350830078125,0.6967126727104187,-0.038307227194309235,-9.160215377807617
1775728234762421500,13.74042138671875,0.7422025203704834,-0.035913024097681046,-9.074024200439453
1775728234772431000,13.75043115234375,0.7350199222564697,-0.15322890877723694,-8.877699851989746
1775728234782441000,13.76044091796875,0.6919242739677429,-0.2968810200691223,-8.980650901794434
1775728234822663200,13.8006630859375,0.363918662071228,-0.6368576288223267,-9.737217903137207
1775728234832734000,13.81073388671875,0.11252748221158981,-0.6751648783683777,-9.706093788146973
1775728234842804700,13.8208046875,0.11252748221158981,-0.6751648783683777,-9.706093788146973
1775728234852875500,13.83087548828125,-0.05027823522686958,-0.7733271718025208,-9.830592155456543
1775728234862915800,13.840915771484376,-0.23942017555236816,-0.7158663272857666,-9.96945571899414
1775728234872956200,13.8509560546875,-0.4141969084739685,-0.6991068720817566,-10.211270332336426
1775728234883027000,13.86102685546875,-0.47405192255973816,-0.730231523513794,-10.472238540649414
1775728234913178400,13.891178466796875,-0.8571242094039917,-0.8355764150619507,-11.118672370910645
1775728234923188000,13.90118798828125,-0.9050082564353943,-0.9528923034667969,-11.152191162109375
1775728234933258800,13.9112587890625,-1.039083480834961,-0.912190854549408,-11.068394660949707
1775728234943329500,13.92132958984375,-1.1899182796478271,-0.7134721279144287,-11.049241065979004
1775728234953339400,13.93133935546875,-1.3479355573654175,-0.6153098344802856,-10.90558910369873
1775728234963410200,13.94141015625,-1.4891934394836426,-0.5171475410461426,-10.704475402832031
1775728234973450500,13.951450439453126,-1.6136919260025024,-0.5363011956214905,-10.448296546936035
1775728234983521300,13.961521240234376,-1.6615760326385498,-0.45010992884635925,-10.27591323852539
1775728235003632400,13.98163232421875,-1.659181833267212,-0.21547815203666687,-10.153809547424316
1775728235013703200,13.991703125,-1.7262194156646729,-0.24660277366638184,-10.129867553710938
1775728235023682600,14.0016826171875,-1.6974890232086182,-0.4429273009300232,-10.08198356628418
1775728235033783800,14.01178369140625,-1.800439715385437,-0.4381389021873474,-10.08437728881836
1775728235043793400,14.02179345703125,-1.9369091987609863,-0.5578489899635315,-10.02452278137207
1775728235053833700,14.031833740234376,-1.9297266006469727,-0.5530605912208557,-9.986215591430664
1775728235063904500,14.041904541015626,-1.9512743949890137,-0.7254431247711182,-9.856928825378418
1775728235073944800,14.05194482421875,-1.98958158493042,-0.6224924325942993,-9.849745750427246
1775728235083954700,14.06195458984375,-2.0183119773864746,-0.5961562395095825,-9.876082420349121
1775728235093995000,14.0719951171875,-2.078166961669922,-0.5434837937355042,-9.916783332824707
1775728235114136600,14.092136474609376,-2.0925323963165283,-0.6033388376235962,-10.031704902648926
1775728235124207400,14.102207275390626,-2.097320795059204,-0.6248866319656372,-9.981427192687988
1775728235134247700,14.11224755859375,-2.1164743900299072,-0.5315127968788147,-9.93593692779541
1775728235144318500,14.122318359375,-2.078166961669922,-0.49320554733276367,-9.947908401489258
1775728235154358800,14.13235888671875,-2.166752576828003,-0.5554547905921936,-9.84495735168457
1775728235164399000,14.142399169921875,-2.121262788772583,-0.6224924325942993,-9.672574996948242
1775728235174408700,14.15240869140625,-2.1595699787139893,-0.6344634294509888,-9.62947940826416
1775728235184479500,14.1624794921875,-2.2026655673980713,-0.6655880808830261,-9.555258750915527
1775728235194519800,14.172519775390626,-2.2385785579681396,-0.5722141861915588,-9.569623947143555
1775728235234803000,14.212802978515626,-2.1715409755706787,-0.5578489899635315,-9.612719535827637
1775728235244843300,14.22284326171875,-2.140416383743286,-0.5410895943641663,-9.742006301879883
1775728235254944800,14.23294482421875,-2.142810583114624,-0.47884035110473633,-9.794678688049316
1775728235265015600,14.243015625,-2.126051187515259,-0.49799394607543945,-9.739612579345703
1775728235275086300,14.25308642578125,-2.0901381969451904,-0.3974374830722809,-9.624691009521484
1775728235285126700,14.263126708984375,-2.0877439975738525,-0.2849099934101105,-9.59835433959961
1775728235295228000,14.273227783203126,-2.1380221843719482,-0.38067805767059326,-9.605537414550781
1775728235305268200,14.283268310546875,-2.078166961669922,-0.3064578175544739,-9.63187313079834
1775728235315369500,14.293369384765626,-2.032677173614502,-0.2992752194404602,-9.543288230895996
1775728235325440300,14.303440185546876,-2.0590133666992188,-0.35913026332855225,-9.634267807006836
1775728235345521000,14.32352099609375,-1.9704279899597168,-0.4165911078453064,-9.959878921508789
1775728235355561200,14.333561279296875,-2.008735179901123,-0.5363011956214905,-10.101137161254883
1775728235365632000,14.343632080078125,-1.946485996246338,-0.6560112833976746,-10.194510459899902
1775728235375641600,14.3536416015625,-1.8962076902389526,-0.6272808313369751,-10.235212326049805
1775728235385712400,14.36371240234375,-1.9967641830444336,-0.6272808313369751,-10.340557098388672
1775728235395752700,14.373752685546876,-2.0015525817871094,-0.5267243981361389,-10.398017883300781
1775728235405823500,14.383823486328126,-1.965639591217041,-0.5482721924781799,-10.407594680786133
1775728235415894300,14.393894287109376,-1.9249382019042969,-0.6607996821403503,-10.369287490844727
1775728235446045700,14.424045654296876,-1.8555063009262085,-0.6009446382522583,-10.20887565612793
1775728235456147000,14.43414697265625,-1.8171991109848022,-0.6536170840263367,-10.041281700134277
1775728235466156800,14.44415673828125,-1.721431016921997,-0.6919242739677429,-10.019734382629395
1775728235476227600,14.4542275390625,-1.6328455209732056,-0.6392518281936646,-9.895236015319824
1775728235486268000,14.464267822265626,-1.558625340461731,-0.5195417404174805,-9.86889934539795
1775728235496369200,14.474369140625,-1.4844050407409668,-0.4644751250743866,-9.746794700622559
1775728235506379000,14.48437890625,-1.3742717504501343,-0.5291185975074768,-9.66539192199707
1775728235516388900,14.494388916015625,-1.3479355573654175,-0.3734954595565796,-9.555258750915527
1775728235526459600,14.504459716796875,-1.3287819623947144,-0.17956513166427612,-9.653421401977539
1775728235536530400,14.514530517578125,-1.316810965538025,-0.014365210197865963,-9.72285270690918
1775728235576813600,14.5548134765625,-1.3982137441635132,-0.1173158809542656,-10.079588890075684
1775728235596924700,14.574924560546876,-1.3623007535934448,-0.3064578175544739,-10.110713958740234
1775728235606934300,14.584934326171876,-1.3623007535934448,-0.3519476354122162,-10.074800491333008
1775728235627076000,14.605076171875,-1.3096283674240112,-0.5147533416748047,-10.194510459899902
1775728235637116200,14.6151162109375,-1.3096283674240112,-0.6703764796257019,-10.225635528564453
1775728235647187200,14.625187255859375,-1.2210428714752197,-0.8020575642585754,-10.211270332336426
1775728235667298000,14.645298095703126,-1.3192051649093628,-0.7757213711738586,-10.278307914733887
1775728235677399600,14.655399658203125,-1.4077905416488647,-0.8236053586006165,-10.3549222946167
1775728235687409200,14.6654091796875,-1.3431471586227417,-0.7972691655158997,-10.259154319763184
1775728235697449500,14.675449462890626,-1.359906554222107,-0.7829039692878723,-10.1753568649292
1775728235707520300,14.685520263671876,-1.4053963422775269,-0.8379706144332886,-10.091560363769531
1775728235717560600,14.695560546875,-1.37906014919281,-0.9050082564353943,-9.964667320251465
1775728235727601000,14.705600830078126,-1.414973258972168,-1.1228805780410767,-9.895236015319824
1775728235737671700,14.715671630859376,-1.4700398445129395,-1.2617442607879639,-9.861717224121094
1775728235767823000,14.745822998046876,-1.4173674583435059,-1.0989385843276978,-9.72285270690918
1775728235777894000,14.755893798828126,-1.4724340438842773,-1.036689281463623,-9.720458984375
1775728235787903700,14.76590380859375,-1.4939818382263184,-0.9911994934082031,-9.758766174316406
1775728235798005000,14.7760048828125,-1.4532804489135742,-0.9888052940368652,-9.823410034179688
1775728235808014600,14.7860146484375,-1.455674648284912,-0.8810662031173706,-9.888052940368652
1775728235818116000,14.7961162109375,-1.4748282432556152,-0.9169792532920837,-9.890447616577148
1775728235828187000,14.806186767578126,-1.4532804489135742,-0.9313444495201111,-9.911994934082031
1775728235838257700,14.816257568359376,-1.5083470344543457,-0.9217676520347595,-9.904812812805176
1775728235878449400,14.856449462890625,-1.556231141090393,-0.9241618514060974,-9.979032516479492
1775728235888489500,14.866489501953126,-1.6304513216018677,-0.8643068075180054,-9.909601211547852
1775728235898591000,14.876591064453125,-1.5873557329177856,-0.8643068075180054,-9.864110946655273
1775728235908570000,14.886570068359376,-1.5466543436050415,-0.993593692779541,-9.749189376831055
1775728235918671400,14.89667138671875,-1.5179238319396973,-0.9768342971801758,-9.761159896850586
1775728235928681200,14.90668115234375,-1.3958195447921753,-0.9097966551780701,-9.919178009033203
1775728235938782500,14.916782470703126,-1.4101848602294922,-0.8690952062606812,-9.90241813659668
1775728235948792300,14.926792236328126,-1.3527239561080933,-1.0223240852355957,-9.911994934082031
1775728235968934000,14.946933837890626,-1.3862427473068237,-1.113303780555725,-10.019734382629395
1775728235979004700,14.957004638671876,-1.357512354850769,-1.2042834758758545,-9.986215591430664
1775728235988984000,14.966984130859375,-1.3120225667953491,-1.1779472827911377,-9.931148529052734
1775728235999085300,14.977085205078126,-1.2617442607879639,-1.2521674633026123,-9.96945571899414
1775728236009095000,14.987094970703126,-1.2234370708465576,-1.2258312702178955,-9.964667320251465
1775728236019166000,14.997166015625,-1.1468225717544556,-1.2689268589019775,-9.998186111450195
1775728236029145000,15.00714501953125,-1.1516109704971313,-1.3742717504501343,-10.127472877502441
1775728236039246300,15.017246337890626,-1.0821791887283325,-1.359906554222107,-10.139444351196289
1775728236049256200,15.027256103515626,-1.1204863786697388,-1.3527239561080933,-10.141838073730469
1775728236069367300,15.0473671875,-1.1348515748977661,-1.37906014919281,-10.093954086303711
1775728236089539300,15.067539306640626,-1.0534487962722778,-1.357512354850769,-10.120290756225586
1775728236099610000,15.077610107421876,-1.1468225717544556,-1.2761094570159912,-10.158597946166992
1775728236109650400,15.087650390625,-1.1109095811843872,-1.338358759880066,-10.122684478759766
1775728236119751700,15.097751708984376,-0.993593692779541,-1.3862427473068237,-10.122684478759766
1775728236129761500,15.107761474609376,-0.9840168952941895,-1.4293384552001953,-10.105925559997559
1775728236139862800,15.11786279296875,-0.933738648891449,-1.479616641998291,-10.077195167541504
1775728236149903000,15.127903076171876,-0.871489405632019,-1.4748282432556152,-10.122684478759766
1775728236190155800,15.16815576171875,-0.7158663272857666,-1.5538369417190552,-9.998186111450195
1775728236200226600,15.1782265625,-0.6344634294509888,-1.5490485429763794,-9.911994934082031
1775728236210267000,15.188266845703126,-0.6536170840263367,-1.5059528350830078,-9.890447616577148
1775728236220368100,15.1983681640625,-0.569819986820221,-1.4963760375976562,-9.907206535339355
1775728236230378000,15.2083779296875,-0.5099649429321289,-1.4221558570861816,-9.897629737854004
1775728236240387800,15.218387939453125,-0.4118026793003082,-1.5634137392044067,-9.909601211547852
1775728236250458600,15.228458740234375,-0.42856210470199585,-1.5203180313110352,-9.892841339111328
1775728236260529400,15.238529296875,-0.5171475410461426,-1.6089035272598267,-9.832986831665039
1775728236280579300,15.258579345703126,-0.3974374830722809,-1.5969325304031372,-9.916783332824707
1775728236290650000,15.268650146484376,-0.42616790533065796,-1.7094600200653076,-9.99100399017334
1775728236300721000,15.278720947265626,-0.38067805767059326,-1.8842366933822632,-10.034099578857422
1775728236310761200,15.28876123046875,-0.31364041566848755,-1.8507179021835327,-10.046070098876953
1775728236320771000,15.29877099609375,-0.2968810200691223,-2.0183119773864746,-10.02691650390625
1775728236330841900,15.308841796875,-0.2346317619085312,-2.0231003761291504,-10.189722061157227
1775728236340851700,15.318851806640625,-0.2106897532939911,-2.1284453868865967,-10.340557098388672
1775728236350892000,15.32889208984375,-0.08379705995321274,-2.2385785579681396,-10.424354553222656
1775728236360901600,15.338901611328126,-0.016759412363171577,-2.3487119674682617,-10.366893768310547
1775728236401154300,15.379154296875,0.10773907601833344,-2.5713725090026855,-9.907206535339355
1775728236411225000,15.38922509765625,0.08619125932455063,-2.5785553455352783,-9.8784761428833
1775728236421295900,15.3992958984375,0.1149216815829277,-2.6575639247894287,-9.720458984375
1775728236431275300,15.409275146484376,0.1604115068912506,-2.6599581241607666,-9.653421401977539
1775728236441376500,15.41937646484375,0.2322375625371933,-2.6671407222747803,-9.603142738342285
1775728236451447300,15.429447265625,0.395043283700943,-2.8395233154296875,-9.6989107131958
1775728236461518000,15.43951806640625,0.3974374830722809,-3.0597896575927734,-9.864110946655273
1775728236481537800,15.459537841796875,0.5195417404174805,-3.1890766620635986,-9.981427192687988
1775728236491577900,15.469577880859376,0.5506663918495178,-3.315969467163086,-9.86889934539795
1775728236501679400,15.479679443359375,0.5267243981361389,-3.31118106842041,-9.797073364257812
1775728236511750100,15.489750244140625,0.5267243981361389,-3.3039982318878174,-9.806650161743164
1775728236521821000,15.499821044921875,0.47644615173339844,-3.294421434402466,-9.746794700622559
1775728236531891700,15.5098916015625,0.545877993106842,-3.3877954483032227,-9.742006301879883
1775728236541901300,15.5199013671875,0.6177040338516235,-3.3877954483032227,-9.725247383117676
1775728236551941600,15.529941650390626,0.6272808313369751,-3.3662476539611816,-9.670180320739746
1775728236562043100,15.540043212890625,0.6200982332229614,-3.4548330307006836,-9.624691009521484
1775728236572114000,15.550114013671875,0.5889736413955688,-3.3925838470458984,-9.366117477416992
1775728236602326300,15.580326171875,0.6416460275650024,-3.579331636428833,-9.038111686706543
1775728236612397000,15.59039697265625,0.6512228846549988,-3.7445313930511475,-9.157821655273438
1775728236622467800,15.6004677734375,0.7230489253997803,-3.7924153804779053,-9.241618156433105
1775728236632477700,15.610477783203125,0.8978256583213806,-3.8115692138671875,-9.349357604980469
1775728236642548500,15.620548583984375,0.9217676520347595,-3.734954595565796,-9.394847869873047
1775728236652558000,15.63055810546875,0.9600749015808105,-3.6942532062530518,-9.564835548400879
1775728236662659600,15.64065966796875,0.8834604024887085,-3.550601005554199,-9.569623947143555
1775728236672699600,15.65069970703125,0.6967126727104187,-3.5721490383148193,-9.605537414550781
1775728236692810800,15.670810791015626,0.5051765441894531,-3.2345664501190186,-9.897629737854004
1775728236702881500,15.680881591796876,0.3423708379268646,-2.868253707885742,-9.931148529052734
1775728236712891400,15.690891357421876,0.08619125932455063,-2.691082715988159,-10.002974510192871
1775728236722992600,15.70099267578125,-0.24420857429504395,-2.6839001178741455,-10.290278434753418
1775728236733033000,15.711032958984376,-0.6512228846549988,-2.6623523235321045,-10.486603736877441
1775728236743073300,15.7210732421875,-1.1037269830703735,-2.5905263423919678,-10.623072624206543
1775728236753144000,15.73114404296875,-1.3239935636520386,-2.248155355453491,-10.587160110473633
1775728236763214800,15.74121484375,-1.6208745241165161,-1.9321208000183105,-10.448296546936035
1775728236773285600,15.75128564453125,-1.800439715385437,-1.802833914756775,-10.189722061157227
1775728236803437000,15.78143701171875,-1.623268723487854,-1.192312479019165,-9.445125579833984
1775728236813477400,15.791477294921876,-1.3862427473068237,-1.292868971824646,-9.607931137084961
1775728236823548200,15.801548095703126,-1.2330138683319092,-1.4413094520568848,-9.660603523254395
1775728236833588500,15.81158837890625,-0.9816226959228516,-1.6519991159439087,-9.545681953430176
1775728236853669000,15.831669189453125,-0.11971008777618408,-1.7836803197860718,-9.251194953918457
1775728236863740000,15.841739990234375,0.11013327538967133,-1.8531121015548706,-9.229647636413574
1775728236873810700,15.851810791015625,0.22505496442317963,-1.8411411046981812,-9.081207275390625
1775728236883912000,15.861911865234376,0.4908113479614258,-2.0422539710998535,-8.851364135742188
1775728236904053500,15.882053466796876,1.1635819673538208,-2.6360161304473877,-8.645462036132812
1775728236914124300,15.892124267578126,1.278503656387329,-2.607285737991333,-8.638279914855957
1775728236924195000,15.902195068359376,1.3287819623947144,-2.655169725418091,-8.525752067565918
