time,seconds_elapsed,z,y,x
1775728220729502700,-0.292497314453125,4.596921443939209,-6.709529399871826,-5.4791340827941895
1775728220739243000,-0.282757080078125,4.593404769897461,-6.707557201385498,-5.4844970703125
1775728220748914000,-0.273086181640625,4.580227375030518,-6.709070682525635,-5.493658065795898
1775728220758754000,-0.263245849609375,4.542847156524658,-6.733911037445068,-5.4943037033081055
1775728220768625000,-0.253375,4.525097846984863,-6.745382785797119,-5.49487829208374
1775728220778695700,-0.24330419921875,4.502892971038818,-6.758686542510986,-5.496772766113281
1775728220788797200,-0.233202880859375,4.484471797943115,-6.770015716552734,-5.497892379760742
1775728220798837200,-0.223162841796875,4.468202114105225,-6.780363082885742,-5.498384952545166
1775728220808908300,-0.213091796875,4.446691989898682,-6.795236587524414,-5.497463703155518
1775728220818979000,-0.20302099609375,4.440616130828857,-6.799131393432617,-5.49755859375
1775728220859170600,-0.162829345703125,4.43709659576416,-6.796936511993408,-5.503109931945801
1775728220899353900,-0.122646240234375,4.433766841888428,-6.818546772003174,-5.479007244110107
1775728220929596700,-0.0924033203125,4.46430778503418,-6.809723377227783,-5.465165615081787
1775728220939637000,-0.082363037109375,4.4690985679626465,-6.8078131675720215,-5.463627338409424
1775728220949707800,-0.072292236328125,4.474545001983643,-6.805890083312988,-5.4615654945373535
1775728220959778600,-0.062221435546875,4.478837013244629,-6.804537296295166,-5.459731578826904
1775728220969849300,-0.052150634765625,4.482046604156494,-6.803073406219482,-5.458923816680908
1775728220979889700,-0.0421103515625,4.484190940856934,-6.802652359008789,-5.457685470581055
1775728220989960400,-0.03203955078125,4.486105442047119,-6.802485942840576,-5.4563212394714355
1775728220999970300,-0.02202978515625,4.488228797912598,-6.802561283111572,-5.454480171203613
1775728221010041000,-0.011958984375,4.491063594818115,-6.802375316619873,-5.45237922668457
1775728221020081400,-0.001918701171875,4.493862628936768,-6.802157402038574,-5.450342655181885
1775728221030152200,0.008152099609375,4.495574951171875,-6.802090167999268,-5.449016094207764
1775728221040223000,0.018222900390625,4.497705936431885,-6.800998210906982,-5.448620796203613
1775728221070465800,0.0484658203125,4.514890670776367,-6.792131423950195,-5.445465564727783
1775728221080506000,0.058506103515625,4.521543502807617,-6.788828372955322,-5.444065093994141
1775728221090546400,0.06854638671875,4.525355339050293,-6.7881927490234375,-5.441689491271973
1775728221100556300,0.078556396484375,4.528082370758057,-6.78782844543457,-5.439876556396484
1775728221110627000,0.088626953125,4.52968692779541,-6.788508892059326,-5.437692165374756
1775728221120697900,0.09869775390625,4.532236576080322,-6.787165641784668,-5.4372429847717285
1775728221130768600,0.1087685546875,4.533761501312256,-6.78756046295166,-5.4354777336120605
1775728221140809000,0.11880908203125,4.535557746887207,-6.787593364715576,-5.433938503265381
1775728221171021300,0.149021240234375,4.55717134475708,-6.778539180755615,-5.427151203155518
1775728221191193300,0.169193359375,4.562831401824951,-6.778477668762207,-5.422470569610596
1775728221211335000,0.1893349609375,4.563043594360352,-6.779755115509033,-5.420697212219238
1775728221221406000,0.199406005859375,4.566046714782715,-6.778363227844238,-5.41990852355957
1775728221231476700,0.209476806640625,4.574788570404053,-6.773695945739746,-5.418370723724365
1775728221241516800,0.219516845703125,4.5841383934021,-6.768838882446289,-5.416538715362549
1775728221261658600,0.23965869140625,4.600717067718506,-6.75878381729126,-5.415038585662842
1775728221281800200,0.25980029296875,4.6156487464904785,-6.751036167144775,-5.411995887756348
1775728221291901400,0.2699013671875,4.627573013305664,-6.749403476715088,-5.403842926025391
1775728221301911300,0.279911376953125,4.636524200439453,-6.746964931488037,-5.399213790893555
1775728221311982000,0.289982177734375,4.645376205444336,-6.743802070617676,-5.395553112030029
1775728221322052900,0.300052978515625,4.649106979370117,-6.742879390716553,-5.393494606018066
1775728221342194400,0.3201943359375,4.667601585388184,-6.736596584320068,-5.385364055633545
1775728221362275000,0.340275146484375,4.683961391448975,-6.7304253578186035,-5.378870964050293
1775728221392548400,0.37054833984375,4.711530685424805,-6.719023704528809,-5.3690409660339355
1775728221402619100,0.380619140625,4.720728874206543,-6.7149786949157715,-5.366021156311035
1775728221412690000,0.39068994140625,4.731160640716553,-6.711389064788818,-5.361321926116943
1775728221422760700,0.4007607421875,4.743549346923828,-6.707604885101318,-5.355106830596924
1775728221432831500,0.41083154296875,4.756507873535156,-6.704334259033203,-5.347702980041504
1775728221442902500,0.420902587890625,4.771684646606445,-6.704498767852783,-5.333957672119141
1775728221452912000,0.430912109375,4.78079891204834,-6.705232620239258,-5.324865818023682
1775728221483124500,0.46112451171875,4.841420650482178,-6.669434547424316,-5.315042018890381
1775728221523438300,0.501438232421875,4.908426761627197,-6.621919631958008,-5.312994480133057
1775728221533478700,0.511478759765625,4.906795024871826,-6.624495506286621,-5.311293125152588
1775728221543549400,0.521549560546875,4.9067702293396,-6.6281938552856445,-5.306698322296143
1775728221563629800,0.5416298828125,4.887426376342773,-6.6455278396606445,-5.30286979675293
1775728221573700900,0.551700927734375,4.879319667816162,-6.648251056671143,-5.306919097900391
1775728221593750800,0.571750732421875,4.80271577835083,-6.679471015930176,-5.33750581741333
1775728221613953500,0.59195361328125,4.660459041595459,-6.7254767417907715,-5.405411720275879
1775728221624024300,0.6020244140625,4.572959899902344,-6.758651256561279,-5.438665390014648
1775728221634064600,0.612064697265625,4.484372138977051,-6.800309658050537,-5.460456371307373
1775728221644166000,0.622165771484375,4.392149925231934,-6.84455680847168,-5.480095863342285
1775728221664307500,0.642307373046875,4.215809345245361,-6.918119430541992,-5.526025772094727
1775728221684418600,0.66241845703125,4.135776042938232,-6.8812174797058105,-5.631570816040039
1775728221694459000,0.672458984375,4.055388450622559,-6.900092601776123,-5.666828155517578
1775728221704529700,0.68252978515625,3.873021125793457,-6.976889610290527,-5.700273513793945
1775728221714570000,0.692570068359375,3.7264556884765625,-7.039945602416992,-5.720408916473389
1775728221724610000,0.702610107421875,3.5657765865325928,-7.110927581787109,-5.73500919342041
1775728221734711600,0.712711669921875,3.4788568019866943,-7.144784927368164,-5.746304512023926
1775728221744782300,0.7227822265625,3.1997289657592773,-7.279819965362549,-5.739020824432373
1775728221764893400,0.7428935546875,2.8296289443969727,-7.438989639282227,-5.729313373565674
1775728221785004500,0.763004638671875,2.5626230239868164,-7.529967784881592,-5.736109733581543
1775728221795075300,0.773075439453125,2.4058308601379395,-7.573150634765625,-5.747151851654053
1775728221805115600,0.78311572265625,2.2714953422546387,-7.601412773132324,-5.764482498168945
1775728221815186400,0.7931865234375,2.115980386734009,-7.624355316162109,-5.79329252243042
1775728221825226800,0.803226806640625,1.9956121444702148,-7.622371196746826,-5.838440895080566
1775728221835297500,0.813297607421875,1.8483997583389282,-7.594834327697754,-5.922189235687256
1775728221845307100,0.82330712890625,1.7773078680038452,-7.562617778778076,-5.984847068786621
1775728221855408600,0.83340869140625,1.7391765117645264,-7.519016742706299,-6.050623416900635
1775728221895630600,0.873630615234375,1.7420166730880737,-7.314486026763916,-6.295559406280518
1775728221905701400,0.883701416015625,1.7400392293930054,-7.2556047439575195,-6.363870143890381
1775728221915741700,0.89374169921875,1.7410832643508911,-7.195575714111328,-6.431384086608887
1775728221925782000,0.903781982421875,1.7410790920257568,-7.132855415344238,-6.500877380371094
1775728221935852800,0.913852783203125,1.7388392686843872,-7.065138816833496,-6.575001239776611
1775728221945893000,0.92389306640625,1.7285867929458618,-6.992786407470703,-6.654571533203125
1775728221955964000,0.9339638671875,1.7357470989227295,-6.9121479988098145,-6.736453056335449
1775728221966034700,0.94403466796875,1.7555173635482788,-6.82509708404541,-6.81957483291626
1775728221976136000,0.954135986328125,1.784963846206665,-6.686066627502441,-6.948439121246338
1775728221996247000,0.9742470703125,1.798727035522461,-6.498465061187744,-7.120739459991455
1775728222006287400,0.984287353515625,1.796684741973877,-6.45471715927124,-7.160933494567871
1775728222026429000,1.004428955078125,1.7898539304733276,-6.27143669128418,-7.323652744293213
1775728222036499700,1.014499755859375,1.7972663640975952,-6.168984413146973,-7.408364772796631
1775728222046540000,1.0245400390625,1.8222633600234985,-6.055062770843506,-7.495729923248291
1775728222056580400,1.034580322265625,1.8945547342300415,-5.854350566864014,-7.635943412780762
1775728222066590200,1.044590087890625,1.922074556350708,-5.78753137588501,-7.679876804351807
1775728222086762200,1.06476220703125,2.0702321529388428,-5.472684383392334,-7.869832992553711
1775728222106903800,1.08490380859375,2.253182888031006,-5.120906352996826,-8.054184913635254
1775728222116974600,1.094974609375,2.3514516353607178,-4.9304890632629395,-8.14440631866455
1775728222127015000,1.105014892578125,2.439934730529785,-4.749885082244873,-8.225310325622559
1775728222137085700,1.115085693359375,2.5033016204833984,-4.573885440826416,-8.30562686920166
1775728222147156500,1.125156494140625,2.547531843185425,-4.325230121612549,-8.424538612365723
1775728222157227300,1.135227294921875,2.5567426681518555,-4.25078821182251,-8.459567070007324
1775728222177399600,1.155399658203125,2.5423383712768555,-3.9618215560913086,-8.602956771850586
1775728222187470300,1.16547021484375,2.5219502449035645,-3.8292958736419678,-8.668717384338379
1775728222197510700,1.1755107421875,2.472813367843628,-3.6479196548461914,-8.76060962677002
1775728222207581400,1.18558154296875,2.4554591178894043,-3.5948240756988525,-8.787397384643555
1775728222217652200,1.19565234375,2.4114859104156494,-3.4873158931732178,-8.84272289276123
1775728222227723000,1.205722900390625,2.3674960136413574,-3.3834927082061768,-8.894792556762695
1775728222237824300,1.21582421875,2.3201849460601807,-3.2883658409118652,-8.9428071975708
1775728222247895000,1.22589501953125,2.263981342315674,-3.204045295715332,-8.98770809173584
1775728222257965800,1.2359658203125,2.1544337272644043,-3.093029260635376,-9.053285598754883
1775728222268036600,1.24603662109375,2.0749661922454834,-3.0292651653289795,-9.0933198928833
1775728222298249200,1.276249267578125,1.8481553792953491,-2.906822919845581,-9.181780815124512
1775728222308320000,1.286320068359375,1.7492320537567139,-2.8637285232543945,-9.214643478393555
1775728222318390800,1.296390869140625,1.6004782915115356,-2.800668239593506,-9.260944366455078
1775728222328461600,1.306461669921875,1.5552531480789185,-2.7817013263702393,-9.274357795715332
1775728222338502000,1.316501953125,1.4061317443847656,-2.7257418632507324,-9.31469440460205
1775728222348511500,1.326511474609375,1.3597885370254517,-2.7101845741271973,-9.326106071472168
1775728222358612700,1.33661279296875,1.2714987993240356,-2.673523187637329,-9.349116325378418
1775728222368683800,1.346683837890625,1.1956219673156738,-2.6358985900878906,-9.369787216186523
1775728222378754600,1.356754638671875,1.131636142730713,-2.598294734954834,-9.388218879699707
1775728222438996200,1.416996337890625,0.8887363076210022,-2.4272077083587646,-9.459874153137207
1775728222449036500,1.42703662109375,0.8680173754692078,-2.410215377807617,-9.466140747070312
1775728222459137800,1.4371376953125,0.8360428214073181,-2.3908932209014893,-9.473913192749023
1775728222469208600,1.44720849609375,0.8349912762641907,-2.386838436126709,-9.475030899047852
1775728222479249000,1.457248779296875,0.8157172799110413,-2.374657392501831,-9.479767799377441
1775728222499360000,1.477360107421875,0.7655121088027954,-2.333913803100586,-9.494063377380371
1775728222509430800,1.4874306640625,0.7527660131454468,-2.3155055046081543,-9.499587059020996
1775728222529450200,1.5074501953125,0.7365268468856812,-2.2920515537261963,-9.506545066833496
1775728222559693000,1.537693115234375,0.6996610164642334,-2.249143600463867,-9.519570350646973
1775728222569764000,1.54776416015625,0.6959376335144043,-2.2303571701049805,-9.524261474609375
1775728222579835000,1.5578349609375,0.6953753232955933,-2.2114477157592773,-9.528712272644043
1775728222589875000,1.567875,0.6934539675712585,-2.1821274757385254,-9.535608291625977
1775728222599976400,1.5779765625,0.6973533034324646,-2.1720118522644043,-9.53763484954834
1775728222630158300,1.608158447265625,0.7117921710014343,-2.1210029125213623,-9.548042297363281
1775728222640259600,1.618259521484375,0.7174193859100342,-2.109074831008911,-9.550262451171875
1775728222660401200,1.638401123046875,0.727442741394043,-2.0953335762023926,-9.552528381347656
1775728222680542700,1.658542724609375,0.7368255257606506,-2.085052967071533,-9.554058074951172
1775728222690613500,1.668613525390625,0.7468173503875732,-2.0738158226013184,-9.555728912353516
1775728222700715000,1.678715087890625,0.7526800632476807,-2.0706028938293457,-9.5559663772583
1775728222741059000,1.71905908203125,0.7876894474029541,-2.0245118141174316,-9.563016891479492
1775728222751069000,1.72906884765625,0.7911930680274963,-2.0197484493255615,-9.563735008239746
1775728222761139700,1.7391396484375,0.7954097986221313,-2.012699842453003,-9.564871788024902
1775728222771210500,1.74921044921875,0.795900821685791,-2.0068893432617188,-9.566051483154297
1775728222781281300,1.75928125,0.7933166027069092,-1.9992691278457642,-9.567862510681152
1775728222791352000,1.76935205078125,0.7876882553100586,-1.9841026067733765,-9.57148265838623
1775728222801453300,1.779453369140625,0.7861889600753784,-1.9779200553894043,-9.572885513305664
1775728222811524400,1.7895244140625,0.7842612266540527,-1.9676204919815063,-9.575165748596191
1775728222841736700,1.81973681640625,0.7796311974525452,-1.938730001449585,-9.58143424987793
1775728222851807500,1.829807373046875,0.7817787528038025,-1.9273788928985596,-9.583549499511719
1775728222861878300,1.839878173828125,0.7880378365516663,-1.9160829782485962,-9.585302352905273
1775728222871949000,1.849948974609375,0.7971954941749573,-1.9057468175888062,-9.586604118347168
1775728222882050300,1.86005029296875,0.8061971664428711,-1.8957009315490723,-9.587844848632812
1775728222892121000,1.87012109375,0.8183259963989258,-1.88457453250885,-9.589009284973145
1775728222902222600,1.88022265625,0.8395704030990601,-1.8726226091384888,-9.58951473236084
1775728222912262700,1.8902626953125,0.8476771712303162,-1.8679133653640747,-9.589719772338867
1775728222942475300,1.920475341796875,0.8991442918777466,-1.8553522825241089,-9.587471008300781
1775728222962616800,1.940616943359375,0.9381243586540222,-1.851731777191162,-9.584436416625977
1775728222972626400,1.95062646484375,0.960959255695343,-1.8524209260940552,-9.582039833068848
1775728222982697200,1.960697265625,0.9828876256942749,-1.8542335033416748,-9.579465866088867
1775728222992707000,1.97070703125,1.0053881406784058,-1.855697751045227,-9.576845169067383
1775728223002777900,1.98077783203125,1.0310848951339722,-1.8563381433486938,-9.57398796081543
1775728223012787700,1.99078759765625,1.0622382164001465,-1.8563295602798462,-9.570584297180176
1775728223022858500,2.0008583984375,1.0989420413970947,-1.8576313257217407,-9.56618595123291
1775728223053040400,2.031040283203125,1.240042805671692,-1.8893705606460571,-9.542692184448242
1775728223063141600,2.0411416015625,1.266629695892334,-1.8943006992340088,-9.53822135925293
1775728223073182000,2.051181884765625,1.329483985900879,-1.9168577194213867,-9.525152206420898
1775728223093354000,2.07135400390625,1.3956483602523804,-1.9407997131347656,-9.510828018188477
1775728223103424800,2.0814248046875,1.4405804872512817,-1.9511966705322266,-9.501996994018555
1775728223113434600,2.0914345703125,1.4934593439102173,-1.9587241411209106,-9.492279052734375
1775728223123505400,2.10150537109375,1.5544389486312866,-1.9687919616699219,-9.480400085449219
1775728223133576200,2.111576171875,1.6153373718261719,-1.983818531036377,-9.46707820892334
1775728223163758000,2.141758056640625,1.7978858947753906,-2.052802324295044,-9.419342041015625
1775728223204041200,2.182041259765625,2.1126017570495605,-2.141568899154663,-9.3338623046875
1775728223214112300,2.1921123046875,2.2235171794891357,-2.181035041809082,-9.298894882202148
1775728223224152300,2.20215234375,2.351834297180176,-2.2338881492614746,-9.254674911499023
1775728223234192600,2.212192626953125,2.528081178665161,-2.3138115406036377,-9.188332557678223
1775728223244263400,2.222263427734375,2.6651504039764404,-2.387895107269287,-9.130460739135742
1775728223254334200,2.232334228515625,2.786646842956543,-2.4510927200317383,-9.077287673950195
1775728223274445300,2.2524453125,3.0250048637390137,-2.5499651432037354,-8.973148345947266
1775728223284516000,2.26251611328125,3.207571506500244,-2.624999523162842,-8.887701988220215
1775728223294526000,2.27252587890625,3.328770399093628,-2.677654981613159,-8.827221870422363
1775728223304535800,2.282535888671875,3.44187068939209,-2.7347888946533203,-8.766119956970215
1775728223314545400,2.29254541015625,3.5032296180725098,-2.764819622039795,-8.732327461242676
1775728223324647000,2.30264697265625,3.649510383605957,-2.8607585430145264,-8.641037940979004
1775728223334656500,2.312656494140625,3.7452142238616943,-2.927013397216797,-8.577664375305176
1775728223344727300,2.322727294921875,3.8009817600250244,-2.9616076946258545,-8.541184425354004
1775728223364838400,2.34283837890625,3.987475633621216,-3.061936616897583,-8.419915199279785
1775728223384949500,2.362949462890625,4.183406352996826,-3.111715793609619,-8.305824279785156
1775728223394989800,2.37298974609375,4.282074928283691,-3.124164342880249,-8.250685691833496
1775728223405060600,2.383060546875,4.376698970794678,-3.1341910362243652,-8.197057723999023
1775728223415131400,2.39313134765625,4.463581085205078,-3.1439802646636963,-8.14630126953125
1775728223425202200,2.4032021484375,4.540960788726807,-3.1534197330474854,-8.099754333496094
1775728223435181600,2.413181640625,4.606523036956787,-3.1607654094696045,-8.059770584106445
1775728223445282800,2.42328271484375,4.655853748321533,-3.1611833572387695,-8.031210899353027
1775728223455353600,2.433353515625,4.687472343444824,-3.152946710586548,-8.016040802001953
1775728223475495200,2.4534951171875,4.72409200668335,-3.112694263458252,-8.010273933410645
1775728223495514600,2.4735146484375,4.733389854431152,-3.090681791305542,-8.013307571411133
1775728223515595300,2.49359521484375,4.75215482711792,-3.0835537910461426,-8.004941940307617
1775728223525635600,2.503635498046875,4.755222797393799,-3.0801608562469482,-8.004426956176758
1775728223535676000,2.513676025390625,4.75290060043335,-3.073910713195801,-8.008206367492676
1775728223545716200,2.52371630859375,4.745924949645996,-3.0688977241516113,-8.014265060424805
1775728223555756300,2.53375634765625,4.727270126342773,-3.059410333633423,-8.028905868530273
1775728223565827300,2.543827392578125,4.692890167236328,-3.0462446212768555,-8.054040908813477
1775728223585969000,2.563968994140625,4.5386223793029785,-2.9899556636810303,-8.162810325622559
1775728223595978500,2.573978515625,4.412496566772461,-2.9394168853759766,-8.24985408782959
1775728223626191000,2.604191162109375,4.131507873535156,-2.781412363052368,-8.44776725769043
1775728223636231200,2.614231201171875,4.031948566436768,-2.7132887840270996,-8.51773738861084
1775728223646332700,2.624332763671875,3.9263195991516113,-2.632765293121338,-8.592026710510254
1775728223656403500,2.634403564453125,3.8143374919891357,-2.542968273162842,-8.669171333312988
1775728223686615800,2.66461572265625,3.43631649017334,-2.1479251384735107,-8.930204391479492
1775728223696686600,2.6746865234375,3.3748629093170166,-2.0842175483703613,-8.968653678894043
1775728223706757400,2.68475732421875,3.250110626220703,-1.9506866931915283,-9.044445037841797
1775728223716797700,2.694797607421875,3.122593641281128,-1.8155959844589233,-9.117202758789062
1775728223726899000,2.70489892578125,2.9359230995178223,-1.6131229400634766,-9.216755867004395
1775728223736939300,2.714939208984375,2.8104631900787354,-1.4876030683517456,-9.276782989501953
1775728223747010000,2.725010009765625,2.744540214538574,-1.4273558855056763,-9.305941581726074
1775728223757080800,2.735080810546875,2.6162188053131104,-1.3172059059143066,-9.358992576599121
1775728223767151600,2.745151611328125,2.4829788208007812,-1.2240092754364014,-9.407815933227539
1775728223837586200,2.815586181640625,1.517494797706604,-0.9088197350502014,-9.645811080932617
1775728223857636400,2.83563623046875,1.3125760555267334,-0.9532691240310669,-9.671545028686523
1775728223877808400,2.855808349609375,1.2146341800689697,-1.0549110174179077,-9.67379093170166
1775728223887909600,2.86590966796875,1.1333645582199097,-1.1353611946105957,-9.674545288085938
1775728223897980400,2.87598046875,0.9806336760520935,-1.2235018014907837,-9.680486679077148
1775728223907990300,2.885990234375,0.9424258470535278,-1.2592560052871704,-9.679695129394531
1775728223938233300,2.9162333984375,0.6721598505973816,-1.4216265678405762,-9.679750442504883
1775728223998627600,2.976627685546875,0.27997663617134094,-1.6263409852981567,-9.666801452636719
1775728224038849800,3.016849853515625,0.2479126900434494,-1.6485005617141724,-9.663922309875488
1775728224048951000,3.026950927734375,0.1684381663799286,-1.637547492980957,-9.66749382019043
1775728224109345300,3.08734521484375,-0.007412322331219912,-1.6475411653518677,-9.66726303100586
1775728224139527200,3.117527099609375,0.010726561769843102,-1.7595634460449219,-9.647497177124023
1775728224179779800,3.15777978515625,0.20276831090450287,-1.990736961364746,-9.600323677062988
1775728224230133800,3.2081337890625,0.5172340869903564,-2.2742621898651123,-9.525261878967285
1775728224240204500,3.21820458984375,0.5589414834976196,-2.3312087059020996,-9.509123802185059
1775728224260285200,3.23828515625,0.7071136832237244,-2.4932258129119873,-9.458023071289062
1775728224280426800,3.2584267578125,0.8277198076248169,-2.6062264442443848,-9.417689323425293
1775728224310608600,3.288608642578125,1.2039958238601685,-2.943046808242798,-9.276813507080078
1775728224340760000,3.318760009765625,1.6434131860733032,-3.387922763824463,-9.054920196533203
1775728224381012700,3.3590126953125,2.2154572010040283,-4.166297435760498,-8.59675121307373
1775728224401154300,3.379154296875,2.426442861557007,-4.459982395172119,-8.38995361328125
1775728224411225000,3.38922509765625,2.6647441387176514,-4.730072021484375,-8.166759490966797
1775728224421295900,3.3992958984375,2.829458236694336,-4.893141746520996,-8.013846397399902
1775728224431336200,3.409336181640625,3.0000102519989014,-5.040366172790527,-7.859074592590332
1775728224441437400,3.4194375,3.175693988800049,-5.171123027801514,-7.703560829162598
1775728224451508500,3.429508544921875,3.3484997749328613,-5.2837114334106445,-7.552505970001221
1775728224471588900,3.4495888671875,3.638942241668701,-5.464099407196045,-7.285059452056885
1775728224481629200,3.459629150390625,3.739712715148926,-5.537120819091797,-7.178107261657715
1775728224511780600,3.489780517578125,4.181209564208984,-5.76516056060791,-6.7417216300964355
1775728224521821000,3.499821044921875,4.25016450881958,-5.799821376800537,-6.668474197387695
1775728224531861200,3.509861328125,4.387310981750488,-5.870896339416504,-6.515709400177002
1775728224541932000,3.51993212890625,4.512742042541504,-5.942245960235596,-6.363587856292725
1775728224552002800,3.5300029296875,4.676026344299316,-6.054378509521484,-6.135934829711914
1775728224562104000,3.54010400390625,4.766862869262695,-6.13207483291626,-5.987075328826904
1775728224592194300,3.5701943359375,4.941802978515625,-6.330969333648682,-5.627415657043457
1775728224602295800,3.5802958984375,4.995697021484375,-6.409257888793945,-5.489520072937012
1775728224612366600,3.59036669921875,5.061521053314209,-6.52284574508667,-5.291869163513184
1775728224622437400,3.600437255859375,5.079661846160889,-6.559298038482666,-5.229057312011719
1775728224632477700,3.610477783203125,5.110579967498779,-6.62786340713501,-5.111142635345459
1775728224642518000,3.62051806640625,5.147895336151123,-6.716474533081055,-4.955655097961426
1775728224652619300,3.630619384765625,5.169022083282471,-6.766313076019287,-4.86503791809082
1775728224662628900,3.64062890625,5.1874494552612305,-6.807196140289307,-4.787780284881592
1775728224672699600,3.65069970703125,5.202487945556641,-6.84026575088501,-4.723904132843018
1775728224692810800,3.670810791015625,5.2166972160339355,-6.875185012817383,-4.657068729400635
1775728224702881500,3.680881591796875,5.217806816101074,-6.8888654708862305,-4.635560989379883
1775728224722992600,3.70099267578125,5.194136619567871,-6.877945899963379,-4.67816162109375
1775728224733094100,3.71109423828125,5.181552886962891,-6.846932888031006,-4.737236976623535
1775728224743165000,3.7211650390625,5.167689323425293,-6.796757698059082,-4.823843002319336
1775728224753266200,3.73126611328125,5.150084495544434,-6.756340026855469,-4.898866176605225
1775728224763337000,3.7413369140625,5.081581115722656,-6.581607818603516,-5.199071884155273
1775728224773407700,3.75140771484375,5.047049522399902,-6.446633338928223,-5.398017883300781
1775728224783478500,3.761478515625,5.0221757888793945,-6.303985595703125,-5.58640193939209
1775728224803589600,3.781589599609375,4.976661682128906,-6.066357612609863,-5.882390975952148
1775728224823731200,3.801731201171875,4.828615188598633,-5.65569543838501,-6.392806053161621
1775728224833771500,3.811771484375,4.780466556549072,-5.571107864379883,-6.502328395843506
1775728224843842300,3.82184228515625,4.599398136138916,-5.332773208618164,-6.824768543243408
1775728224853882600,3.831882568359375,4.449764728546143,-5.176938533782959,-7.040546417236328
1775728224863953400,3.841953369140625,4.277797222137451,-5.018709659576416,-7.258332252502441
1775728224884095000,3.862094970703125,3.880449056625366,-4.679450988769531,-7.695144176483154
1775728224904236500,3.882236572265625,3.5520243644714355,-4.405581474304199,-8.009016990661621
1775728224914276900,3.89227685546875,3.327449321746826,-4.216941833496094,-8.204625129699707
1775728224924317200,3.902317138671875,2.9870214462280273,-3.9243595600128174,-8.476289749145508
1775728224934418400,3.91241845703125,2.753605604171753,-3.7173399925231934,-8.646931648254395
1775728224944489200,3.9224892578125,2.6359803676605225,-3.6106760501861572,-8.72840404510498
1775728224954590700,3.9325908203125,2.284960985183716,-3.2837393283843994,-8.953568458557129
1775728224964661500,3.94266162109375,2.054795503616333,-3.05906343460083,-9.087922096252441
1775728225015015400,3.993015380859375,1.1655775308609009,-2.022876501083374,-9.524694442749023
1775728225025116700,4.00311669921875,1.0145926475524902,-1.8063485622406006,-9.585307121276855
1775728225035187500,4.0131875,0.8807961940765381,-1.6015015840530396,-9.634821891784668
1775728225045227800,4.023227783203125,0.7629688382148743,-1.4102745056152344,-9.674678802490234
1775728225055298600,4.033298583984375,0.6607272028923035,-1.2333699464797974,-9.706318855285645
1775728225065369300,4.043369384765625,0.5734177231788635,-1.0711168050765991,-9.731100082397461
1775728225075470800,4.053470947265625,0.46590545773506165,-0.8438053131103516,-9.75916576385498
1775728225085541600,4.063541748046875,0.4130050539970398,-0.7282256484031677,-9.77085018157959
1775728225095612400,4.0736123046875,0.39664897322654724,-0.7029231190681458,-9.7733793258667
1775728225115723500,4.0937236328125,0.3339619040489197,-0.4994414448738098,-9.788228988647461
1775728225125702700,4.10370263671875,0.34235331416130066,-0.5115724802017212,-9.787313461303711
1775728225135804000,4.113803955078125,0.3402852714061737,-0.47596433758735657,-9.789180755615234
1775728225145875000,4.123875,0.33531448245048523,-0.41351985931396484,-9.792190551757812
1775728225155884500,4.133884521484375,0.36484572291374207,-0.47211557626724243,-9.788481712341309
1775728225165894400,4.143894287109375,0.38846391439437866,-0.49447235465049744,-9.786470413208008
1775728225175995600,4.15399560546875,0.411217600107193,-0.5109248757362366,-9.784695625305176
1775728225236298500,4.214298583984375,0.48889002203941345,-0.7181792855262756,-9.768092155456543
1775728225256440000,4.234440185546875,0.5261860489845276,-0.8785117268562317,-9.75303840637207
1775728225266510800,4.2445107421875,0.534119725227356,-0.9543777108192444,-9.745474815368652
1775728225276551200,4.25455126953125,0.5470815300941467,-1.005703091621399,-9.739592552185059
1775728225286560800,4.264560791015625,0.5505161881446838,-1.0885071754455566,-9.73049259185791
1775728225306733000,4.284733154296875,0.5692933797836304,-1.3075811862945557,-9.702399253845215
1775728225316803800,4.294803955078125,0.5961264371871948,-1.4065313339233398,-9.686936378479004
1775728225326874600,4.30487451171875,0.6185118556022644,-1.461463212966919,-9.677393913269043
1775728225336945400,4.3149453125,0.6615840792655945,-1.5625545978546143,-9.658732414245605
1775728225347016200,4.32501611328125,0.7439210414886475,-1.7151970863342285,-9.626791954040527
1775728225357087000,4.3350869140625,0.7792834043502808,-1.7687431573867798,-9.614295959472656
1775728225367127300,4.345127197265625,0.892027735710144,-1.927687406539917,-9.573854446411133
1775728225377228500,4.355228515625,0.9367232322692871,-1.982664704322815,-9.55834674835205
1775728225387299300,4.36529931640625,1.0308318138122559,-2.092759609222412,-9.52513313293457
1775728225397309200,4.37530908203125,1.1328116655349731,-2.2071268558502197,-9.487661361694336
1775728225427430000,4.405429931640625,1.4366074800491333,-2.5873396396636963,-9.349452018737793
1775728225437531400,4.415531494140625,1.5350842475891113,-2.7287182807922363,-9.293437957763672
1775728225447602200,4.425602294921875,1.634243130683899,-2.8749969005584717,-9.232229232788086
1775728225457673000,4.4356728515625,1.7386194467544556,-3.026292085647583,-9.164560317993164
1775728225467713300,4.44571337890625,1.8533611297607422,-3.1824841499328613,-9.088852882385254
1775728225477814500,4.455814453125,1.9796026945114136,-3.3432376384735107,-9.004128456115723
1775728225487885300,4.46588525390625,2.1116929054260254,-3.5040760040283203,-8.912497520446777
1775728225538178300,4.51617822265625,2.7705414295196533,-4.275496482849121,-8.379417419433594
1775728225548249000,4.5262490234375,2.9061615467071533,-4.414675235748291,-8.26046371459961
1775728225558350300,4.536350341796875,3.0509653091430664,-4.545632839202881,-8.13629150390625
1775728225568421000,4.546421142578125,3.201930284500122,-4.665863990783691,-8.009228706359863
1775728225578431000,4.556430908203125,3.357971429824829,-4.775326251983643,-7.879763126373291
1775728225598542000,4.5765419921875,3.675640821456909,-4.963870048522949,-7.617088794708252
1775728225618683600,4.59668359375,4.0721435546875,-5.142438888549805,-7.2899489402771
1775728225628754400,4.60675439453125,4.207154750823975,-5.197629451751709,-7.173205852508545
1775728225638794800,4.616794677734375,4.222573757171631,-5.2157697677612305,-7.150943756103516
1775728225648804600,4.6268046875,4.191047668457031,-5.241979122161865,-7.150326728820801
1775728225658905900,4.63690576171875,4.366058349609375,-5.341415882110596,-6.969733715057373
1775728225668976600,4.6469765625,4.479157447814941,-5.4075927734375,-6.845837116241455
1775728225678986500,4.656986572265625,4.527439117431641,-5.440839767456055,-6.787484645843506
1775728225689026600,4.667026611328125,4.638162612915039,-5.516435146331787,-6.650322437286377
1775728225699128000,4.677128173828125,4.741907119750977,-5.597375869750977,-6.508002758026123
1775728225739350300,4.717350341796875,5.074368000030518,-5.942902565002441,-5.92478609085083
1775728225749421000,4.727421142578125,5.174150466918945,-6.073023319244385,-5.702363014221191
1775728225759522300,4.737522216796875,5.23478889465332,-6.1578755378723145,-5.554091930389404
1775728225769562600,4.747562744140625,5.262567520141602,-6.199004173278809,-5.481614589691162
1775728225779633400,4.75763330078125,5.319510459899902,-6.278766632080078,-5.333880424499512
1775728225789612500,4.767612548828125,5.4033918380737305,-6.386110782623291,-5.117746353149414
1775728225799714000,4.777714111328125,5.457489013671875,-6.449686527252197,-4.978728294372559
1775728225809723600,4.7877236328125,5.509893894195557,-6.504737854003906,-4.847662925720215
1775728225839905500,4.817905517578125,5.644260406494141,-6.601151943206787,-4.553846836090088
1775728225849945900,4.82794580078125,5.74440860748291,-6.618219375610352,-4.40128755569458
1775728225860016600,4.8380166015625,5.779184341430664,-6.617989540100098,-4.3558735847473145
1775728225869996000,4.84799609375,5.89423131942749,-6.593720436096191,-4.2368950843811035
1775728225880097300,4.85809716796875,5.972703456878662,-6.5624918937683105,-4.17503547668457
1775728225890168000,4.86816796875,6.049892902374268,-6.520113945007324,-4.130049228668213
1775728225900269300,4.878269287109375,6.124597072601318,-6.466911792755127,-4.1035051345825195
1775728225910248700,4.888248779296875,6.193953990936279,-6.4037957191467285,-4.098381519317627
1775728225950531800,4.92853173828125,6.352756977081299,-6.0603156089782715,-4.368689060211182
1775728225960633000,4.938633056640625,6.373767852783203,-5.879040718078613,-4.580650806427002
1775728225970643000,4.948642822265625,6.373812198638916,-5.757510185241699,-4.732438564300537
1775728225980744200,4.958744140625,6.3672637939453125,-5.690902233123779,-4.820992946624756
1775728225990784500,4.968784423828125,6.338957786560059,-5.502291202545166,-5.070779323577881
1775728226000885800,4.9788857421875,6.301163673400879,-5.365905284881592,-5.260492324829102
1775728226010895600,4.9888955078125,6.244848251342773,-5.231160640716553,-5.459599018096924
1775728226051209200,5.029209228515625,5.843156814575195,-4.820929050445557,-6.2278852462768555
1775728226061280000,5.039280029296875,5.659657955169678,-4.729356288909912,-6.463113784790039
1775728226071289900,5.049289794921875,5.4465413093566895,-4.643726825714111,-6.70383358001709
1775728226091462000,5.0694619140625,4.823502063751221,-4.441491603851318,-7.292282581329346
1775728226101532700,5.07953271484375,4.55280065536499,-4.351563453674316,-7.5170674324035645
1775728226111603500,5.089603515625,4.4132280349731445,-4.301120281219482,-7.628509998321533
1775728226121613300,5.09961328125,4.13801383972168,-4.19088077545166,-7.84115743637085
1775728226171875800,5.149875732421875,2.8816332817077637,-3.2218875885009766,-8.80261516571045
1775728226181885400,5.159885498046875,2.7301299571990967,-3.003197193145752,-8.927351951599121
1775728226191895300,5.169895263671875,2.5995564460754395,-2.7876462936401367,-9.035582542419434
1775728226201996500,5.17999658203125,2.483337879180908,-2.578509569168091,-9.12987995147705
1775728226212067300,5.1900673828125,2.376587152481079,-2.384481191635132,-9.210672378540039
1775728226222138400,5.200138427734375,2.2746307849884033,-2.2088725566864014,-9.279942512512207
1775728226252350700,5.230350830078125,1.9891396760940552,-1.8147615194320679,-9.429759979248047
1775728226282471400,5.260471435546875,1.7265928983688354,-1.749426007270813,-9.49361801147461
1775728226292542200,5.270542236328125,1.6466244459152222,-1.7537816762924194,-9.507012367248535
1775728226302613000,5.280613037109375,1.609527826309204,-1.779109001159668,-9.508658409118652
1775728226312684000,5.29068408203125,1.5324866771697998,-1.7830594778060913,-9.52064037322998
1775728226322724000,5.30072412109375,1.4168787002563477,-1.778869390487671,-9.539312362670898
1775728226332734000,5.31073388671875,1.3461610078811646,-1.7912734746932983,-9.547228813171387
1775728226362976800,5.340976806640625,1.1899924278259277,-1.8515286445617676,-9.55647087097168
1775728226393128200,5.371128173828125,0.999875545501709,-1.8773959875106812,-9.573193550109863
1775728226403229400,5.3812294921875,0.9759119153022766,-1.9137955904006958,-9.568456649780273
1775728226413300500,5.391300537109375,1.0148077011108398,-1.9900726079940796,-9.548830032348633
1775728226423371300,5.401371337890625,0.9832417964935303,-1.9858191013336182,-9.553017616271973
1775728226433442000,5.411442138671875,0.9399065375328064,-1.961547613143921,-9.562389373779297
1775728226463593200,5.44159326171875,0.8194377422332764,-1.8403784036636353,-9.597495079040527
1775728226473664300,5.451664306640625,0.7950275540351868,-1.793372392654419,-9.608441352844238
1775728226483735000,5.461735107421875,0.7739105224609375,-1.7429872751235962,-9.619431495666504
1775728226493775000,5.471775146484375,0.7355495095252991,-1.6640400886535645,-9.636407852172852
1775728226503876600,5.481876708984375,0.7146598696708679,-1.6205670833587646,-9.645383834838867
1775728226513947400,5.491947509765625,0.7005927562713623,-1.5869556665420532,-9.65200138092041
1775728226524018200,5.50201806640625,0.699333131313324,-1.575649619102478,-9.653944969177246
1775728226534089000,5.5120888671875,0.7040069699287415,-1.5632309913635254,-9.655623435974121
1775728226544129300,5.52212939453125,0.721602201461792,-1.56903076171875,-9.6533842086792
1775728226584351500,5.5623515625,0.8415437936782837,-1.7772865295410156,-9.607468605041504
1775728226594422300,5.57242236328125,0.8678712248802185,-1.8692102432250977,-9.587661743164062
1775728226604493000,5.5824931640625,0.9020459055900574,-2.0237674713134766,-9.55306625366211
1775728226614563800,5.592563720703125,0.9154425263404846,-2.077606439590454,-9.540225982666016
1775728226624634600,5.602634521484375,0.9921423196792603,-2.2494444847106934,-9.493474006652832
1775728226634705400,5.612705322265625,1.0736124515533447,-2.370899200439453,-9.454977035522461
1775728226644776200,5.622776123046875,1.1786545515060425,-2.4984829425811768,-9.409503936767578
1775728226654847000,5.632846923828125,1.237282633781433,-2.563776731491089,-9.384380340576172
1775728226715241200,5.6932412109375,2.2041397094726562,-3.480052947998047,-8.899517059326172
1775728226725312000,5.70331201171875,2.48222017288208,-3.739614725112915,-8.719189643859863
1775728226735382800,5.7133828125,2.5627708435058594,-3.821417808532715,-8.66021728515625
1775728226755555000,5.73355517578125,2.91609263420105,-4.160008430480957,-8.388154983520508
1775728226765656300,5.74365625,3.0871758460998535,-4.321052074432373,-8.244285583496094
1775728226785828400,5.763828369140625,3.404527425765991,-4.6235432624816895,-7.949995040893555
1775728226826020000,5.80402001953125,3.8736844062805176,-5.151198387145996,-7.391218662261963
1775728226836060400,5.814060302734375,4.009894371032715,-5.28363561630249,-7.223181247711182
1775728226846161700,5.82416162109375,4.137826442718506,-5.4136247634887695,-7.052761554718018
1775728226856232400,5.834232421875,4.2551445960998535,-5.540794372558594,-6.882131576538086
1775728226866272800,5.844272705078125,4.359804153442383,-5.66526985168457,-6.713212966918945
1775728226886353400,5.864353515625,4.5284624099731445,-5.907801628112793,-6.384458065032959
1775728226906464500,5.884464599609375,4.647932052612305,-6.140473365783691,-6.071383953094482
1775728226916474000,5.89447412109375,4.695762634277344,-6.248827934265137,-5.922192573547363
1775728226926575600,5.90457568359375,4.740743160247803,-6.349860191345215,-5.7771124839782715
1775728226936676900,5.9146767578125,4.78565788269043,-6.443158149719238,-5.635032653808594
1775728226946717200,5.92471728515625,4.832075595855713,-6.528441905975342,-5.495532989501953
1775728226956726800,5.934726806640625,4.877542495727539,-6.6108856201171875,-5.355013847351074
1775728226966828300,5.944828369140625,4.925722599029541,-6.682701110839844,-5.2200727462768555
1775728226976838000,5.954837890625,4.973359107971191,-6.7516770362854,-5.084381103515625
1775728227016999200,5.994999267578125,5.193962097167969,-6.968283176422119,-4.54270601272583
1775728227027070000,6.005070068359375,5.21927547454834,-6.980644226074219,-4.494460105895996
1775728227047150300,6.025150390625,5.338432788848877,-6.998600959777832,-4.323320388793945
1775728227057221400,6.035221435546875,5.408492088317871,-6.986155033111572,-4.2558488845825195
1775728227067292200,6.045292236328125,5.483957767486572,-6.958803176879883,-4.203765869140625
1775728227077301800,6.0553017578125,5.560891151428223,-6.915639400482178,-4.173825740814209
1775728227097474000,6.07547412109375,5.7443671226501465,-6.7463297843933105,-4.202342987060547
1775728227107544800,6.085544921875,5.781318664550781,-6.6331400871276855,-4.329919338226318
1775728227117585200,6.095585205078125,5.773890018463135,-6.543072700500488,-4.474461078643799
1775728227127686400,6.105686279296875,5.814320087432861,-6.421303749084473,-4.596838474273682
1775728227137726700,6.115726806640625,5.8541059494018555,-6.301294326782227,-4.711001396179199
1775728227147797500,6.125797607421875,5.887729644775391,-6.174344539642334,-4.835546970367432
1775728227157837800,6.135837890625,5.9188432693481445,-5.977268695831299,-5.040828704833984
1775728227167908600,6.14590869140625,5.918996334075928,-5.903536796569824,-5.126804351806641
1775728227177948700,6.15594873046875,5.9106221199035645,-5.7614521980285645,-5.295337200164795
1775728227197998800,6.175998779296875,5.7843756675720215,-5.442008972167969,-5.75290584564209
1775728227208100000,6.18610009765625,5.737035751342773,-5.382757663726807,-5.8551459312438965
1775728227218140400,6.196140380859375,5.619288444519043,-5.282414436340332,-6.057235240936279
1775728227238312400,6.2163125,5.1903228759765625,-5.0543212890625,-6.6094465255737305
1775728227248383500,6.226383544921875,5.086709499359131,-5.006258964538574,-6.725559711456299
1775728227258454300,6.236454345703125,4.75369119644165,-4.865199565887451,-7.064180850982666
1775728227268525000,6.246525146484375,4.635241508483887,-4.812403202056885,-7.178140640258789
1775728227278595800,6.256595947265625,4.397100925445557,-4.700693130493164,-7.398606777191162
1775728227288666600,6.26666650390625,4.157412528991699,-4.5741868019104,-7.613351345062256
1775728227298645800,6.276645751953125,3.8107268810272217,-4.354294300079346,-7.917630672454834
1775728227318787300,6.296787353515625,3.4733991622924805,-4.097497940063477,-8.204656600952148
1775728227328858000,6.306858154296875,3.265317678451538,-3.9128081798553467,-8.378425598144531
1775728227338868000,6.316867919921875,3.0705018043518066,-3.721712827682495,-8.537637710571289
1775728227348969200,6.32696923828125,2.8865549564361572,-3.527956247329712,-8.682840347290039
1775728227359040000,6.3370400390625,2.713090658187866,-3.334494113922119,-8.814230918884277
1775728227369110800,6.34711083984375,2.5493273735046387,-3.1466171741485596,-8.931411743164062
1775728227379151000,6.357151123046875,2.396263837814331,-2.972931385040283,-9.03271770477295
1775728227389252600,6.367252685546875,2.2472236156463623,-2.8130736351013184,-9.121788024902344
1775728227409333000,6.3873330078125,1.94870126247406,-2.5612218379974365,-9.26353645324707
1775728227419403800,6.39740380859375,1.8188246488571167,-2.4529998302459717,-9.319069862365723
1775728227429505300,6.40750537109375,1.6990052461624146,-2.352224349975586,-9.367539405822754
1775728227439545600,6.417545654296875,1.528018593788147,-2.2153706550598145,-9.430148124694824
1775728227449555200,6.42755517578125,1.4174153804779053,-2.1435863971710205,-9.463950157165527
1775728227459565000,6.43756494140625,1.3677736520767212,-2.1249477863311768,-9.47545337677002
1775728227469666300,6.447666259765625,1.2057523727416992,-2.0400643348693848,-9.516023635864258
1775728227479676200,6.45767626953125,1.106482982635498,-2.008702278137207,-9.534736633300781
1775728227509827600,6.48782763671875,0.9415794610977173,-2.1307950019836426,-9.525938987731934
1775728227519898400,6.4978984375,0.8757973313331604,-2.1531500816345215,-9.527189254760742
1775728227550110700,6.52811083984375,0.6586959958076477,-2.1149911880493164,-9.553183555603027
1775728227560151000,6.538151123046875,0.6576315760612488,-2.1475179195404053,-9.545998573303223
1775728227570221800,6.548221923828125,0.6169114112854004,-2.130632162094116,-9.552497863769531
1775728227580262100,6.55826220703125,0.5771744847297668,-2.106226682662964,-9.56039047241211
1775728227590363400,6.56836328125,0.5005120635032654,-2.041492462158203,-9.578737258911133
1775728227620514800,6.598514892578125,0.3758908212184906,-1.955366611480713,-9.602375984191895
1775728227630616000,6.608615966796875,0.2751666009426117,-1.897740125656128,-9.617341995239258
1775728227640656400,6.618656494140625,0.25079846382141113,-1.8880133628845215,-9.619922637939453
1775728227650727200,6.62872705078125,0.1650555431842804,-1.8549553155899048,-9.628203392028809
1775728227660767500,6.638767578125,0.11674714088439941,-1.8446439504623413,-9.630889892578125
1775728227680848000,6.658847900390625,0.03566226735711098,-1.8414254188537598,-9.632148742675781
1775728227690949400,6.668949462890625,0.02205810323357582,-1.8446205854415894,-9.63157844543457
1775728227701020200,6.679020263671875,-0.0008148235501721501,-1.8557924032211304,-9.62945556640625
1775728227741242400,6.719242431640625,0.056159693747758865,-1.9941332340240479,-9.60159683227539
1775728227751313200,6.729313232421875,0.11202070116996765,-2.0535240173339844,-9.588581085205078
1775728227761384000,6.739384033203125,0.18115852773189545,-2.1214609146118164,-9.572720527648926
1775728227771454700,6.749454833984375,0.2677344083786011,-2.2001726627349854,-9.552903175354004
1775728227791565800,6.76956591796875,0.5116308331489563,-2.3971612453460693,-9.495380401611328
1775728227801636600,6.77963671875,0.6666343808174133,-2.51692271232605,-9.454686164855957
1775728227841858800,6.81985888671875,1.4010206460952759,-3.133784294128418,-9.186236381530762
1775728227862000400,6.84000048828125,1.7874234914779663,-3.526747941970825,-8.974272727966309
1775728227872071200,6.8500712890625,1.9741795063018799,-3.742265224456787,-8.846944808959961
1775728227892151600,6.870151611328125,2.3001251220703125,-4.197189807891846,-8.559403419494629
1775728227902191900,6.88019189453125,2.5084290504455566,-4.5536370277404785,-8.315200805664062
1775728227922272500,6.9002724609375,2.655252695083618,-4.886442184448242,-8.077295303344727
1775728227932373800,6.910373779296875,2.7456209659576416,-5.105717182159424,-7.90971565246582
1775728227942444500,6.920444580078125,2.8804731369018555,-5.415640354156494,-7.651411533355713
1775728227952454400,6.930454345703125,2.872856855392456,-5.491813659667969,-7.599808692932129
1775728227962525200,6.940525146484375,2.964961528778076,-5.732372283935547,-7.383718490600586
1775728227972565500,6.9505654296875,2.9862802028656006,-5.801651477813721,-7.3207478523254395
1775728227982636300,6.96063623046875,3.0864574909210205,-5.938352108001709,-7.167994499206543
1775728227992676600,6.970676513671875,3.263775110244751,-6.108842849731445,-6.942636489868164
1775728228002686500,6.9806865234375,3.3824265003204346,-6.200880527496338,-6.8028411865234375
1775728228012787700,6.99078759765625,3.50482439994812,-6.279116153717041,-6.667779445648193
1775728228043000000,7.021,3.80257511138916,-6.428106784820557,-6.3553338050842285
1775728228053070800,7.03107080078125,3.913062810897827,-6.476550579071045,-6.237998008728027
1775728228063141600,7.0411416015625,4.0162153244018555,-6.521059513092041,-6.1250457763671875
1775728228073182000,7.051181884765625,4.158294200897217,-6.582104682922363,-5.962791442871094
1775728228083252700,7.061252685546875,4.2021307945251465,-6.601016521453857,-5.910928249359131
1775728228093323500,7.071323486328125,4.28577995300293,-6.637449741363525,-5.8091959953308105
1775728228103394300,7.081394287109375,4.363242149353027,-6.671703815460205,-5.71146821975708
1775728228113495600,7.09149560546875,4.4354352951049805,-6.702957630157471,-5.61851167678833
1775728228153717800,7.1317177734375,4.705296516418457,-6.78612756729126,-5.289524555206299
1775728228163788500,7.14178857421875,4.767641544342041,-6.795286178588867,-5.221500396728516
1775728228173859300,7.151859375,4.824584484100342,-6.800980091094971,-5.161436557769775
1775728228183930400,7.161930419921875,4.902039051055908,-6.801906108856201,-5.086697578430176
1775728228193940000,7.17193994140625,4.947658538818359,-6.795446872711182,-5.051036834716797
1775728228203980300,7.181980224609375,4.9908223152160645,-6.782020092010498,-5.026557922363281
1775728228214081500,7.19208154296875,5.032828330993652,-6.760858058929443,-5.013166904449463
1775728228244294000,7.2222939453125,5.103681564331055,-6.6566314697265625,-5.080559253692627
1775728228254365000,7.232364990234375,5.114385604858398,-6.593377590179443,-5.151777267456055
1775728228264405000,7.242405029296875,5.053565502166748,-6.4597673416137695,-5.376175403594971
1775728228274475800,7.252475830078125,5.045069217681885,-6.325178146362305,-5.541641712188721
1775728228284516000,7.26251611328125,5.036384582519531,-6.231359481811523,-5.6546783447265625
1775728228294587000,7.2725869140625,5.026927947998047,-6.129693031311035,-5.772976875305176
1775728228304657700,7.28265771484375,5.014180660247803,-6.021256923675537,-5.896851062774658
1775728228314698000,7.292697998046875,4.992862224578857,-5.907246112823486,-6.028777599334717
1775728228364991000,7.342990966796875,4.676703453063965,-5.357662677764893,-6.752353668212891
1775728228375092200,7.35309228515625,4.540521621704102,-5.245218753814697,-6.931213855743408
1775728228385071600,7.363071533203125,4.378985404968262,-5.135682106018066,-7.114748001098633
1775728228395112000,7.37311181640625,4.091732025146484,-4.966394901275635,-7.400205135345459
1775728228405213200,7.383213134765625,3.8810460567474365,-4.842947483062744,-7.593006134033203
1775728228415284000,7.393283935546875,3.7719454765319824,-4.778032302856445,-7.688511848449707
1775728228425354800,7.403354736328125,3.4426212310791016,-4.577136039733887,-7.960438251495361
1775728228465577000,7.443576904296875,2.678508996963501,-4.033529281616211,-8.52799129486084
1775728228475617300,7.4536171875,2.4739930629730225,-3.8571784496307373,-8.670173645019531
1775728228485688000,7.46368798828125,2.2853894233703613,-3.6743271350860596,-8.800381660461426
1775728228495758800,7.4737587890625,2.1157751083374023,-3.4884352684020996,-8.917662620544434
1775728228505829600,7.48382958984375,1.965950608253479,-3.3055531978607178,-9.021018028259277
1775728228515809000,7.49380908203125,1.7699732780456543,-3.0570037364959717,-9.14834976196289
1775728228545991000,7.523990966796875,1.5193051099777222,-2.7176015377044678,-9.299286842346191
1775728228566132500,7.544132568359375,1.3828794956207275,-2.5384533405303955,-9.370929718017578
1775728228576233700,7.554233642578125,1.3106553554534912,-2.4677631855010986,-9.400144577026367
1775728228586243600,7.56424365234375,1.244787335395813,-2.4112963676452637,-9.423723220825195
1775728228596314400,7.574314453125,1.1820967197418213,-2.367086887359619,-9.442983627319336
1775728228606385200,7.58438525390625,1.1212117671966553,-2.334743022918701,-9.458449363708496
1775728228616486400,7.594486328125,1.0283838510513306,-2.3036930561065674,-9.476593971252441
1775728228626557200,7.60455712890625,0.966384768486023,-2.2921671867370605,-9.485908508300781
1775728228666840300,7.64484033203125,0.739495038986206,-2.2956278324127197,-9.505454063415527
1775728228676911000,7.6549111328125,0.7212749123573303,-2.3095836639404297,-9.503473281860352
1775728228686951400,7.664951416015625,0.6804285049438477,-2.324707269668579,-9.50279712677002
1775728228697053000,7.675052978515625,0.6192039251327515,-2.3324544429779053,-9.505084991455078
1775728228707123700,7.685123779296875,0.5986872315406799,-2.354858160018921,-9.500875473022461
1775728228717194500,7.695194580078125,0.5937252044677734,-2.390748977661133,-9.492218971252441
1775728228727265300,7.705265380859375,0.6222679615020752,-2.461336612701416,-9.472329139709473
1775728228757416400,7.73541650390625,0.8562649488449097,-2.7475831508636475,-9.374858856201172
1775728228767456800,7.745456787109375,0.8513392210006714,-2.7223634719848633,-9.382662773132324
1775728228777527600,7.755527587890625,0.8703051805496216,-2.7290725708007812,-9.378972053527832
1775728228787598300,7.765598388671875,0.8673977851867676,-2.7037434577941895,-9.38657283782959
1775728228797669400,7.77566943359375,0.8647843599319458,-2.675149440765381,-9.39500617980957
1775728228807679000,7.785678955078125,0.8655699491500854,-2.6466128826141357,-9.403011322021484
1775728228817780200,7.7957802734375,0.8717576861381531,-2.620516300201416,-9.409746170043945
1775728228827851300,7.805851318359375,0.8802204132080078,-2.5949318408966064,-9.416047096252441
1775728228837952500,7.815952392578125,0.8910112977027893,-2.5719618797302246,-9.421332359313965
1775728228858094000,7.836093994140625,0.9212474226951599,-2.538072347640991,-9.427613258361816
1775728228868164900,7.846164794921875,0.9442004561424255,-2.5301437377929688,-9.427472114562988
1775728228878235600,7.856235595703125,0.9719476699829102,-2.5316965579986572,-9.424236297607422
1775728228888306400,7.866306396484375,1.0053987503051758,-2.5428147315979004,-9.417732238769531
1775728228898316300,7.87631640625,1.0434685945510864,-2.564077615737915,-9.407819747924805
1775728228908326000,7.886325927734375,1.1065952777862549,-2.614737033843994,-9.386639595031738
1775728228918396700,7.896396728515625,1.1283079385757446,-2.634103536605835,-9.378637313842773
1775728228928437000,7.90643701171875,1.1867074966430664,-2.7010607719421387,-9.352347373962402
1775728228948487200,7.926487060546875,1.2503385543823242,-2.777230978012085,-9.321697235107422
1775728228968659200,7.9466591796875,1.4011317491531372,-2.901872396469116,-9.262093544006348
1775728228978760400,7.956760498046875,1.508575677871704,-2.976652145385742,-9.221395492553711
1775728228988770300,7.966770263671875,1.638738751411438,-3.064563274383545,-9.170244216918945
1775728228998871600,7.97687158203125,1.7882102727890015,-3.1670737266540527,-9.107269287109375
1775728229008942300,7.9869423828125,1.9467034339904785,-3.2840805053710938,-9.033026695251465
1775728229018952200,7.9969521484375,2.102985382080078,-3.413792133331299,-8.949519157409668
1775728229028992500,8.006992431640626,2.2502596378326416,-3.5547425746917725,-8.858359336853027
1775728229039032800,8.01703271484375,2.3878917694091797,-3.7050838470458984,-8.760178565979004
1775728229069184300,8.047184326171875,2.7574172019958496,-4.201704502105713,-8.42096996307373
1775728229079255000,8.057255126953125,2.8678829669952393,-4.3722710609436035,-8.296318054199219
1775728229089295400,8.06729541015625,2.9788076877593994,-4.541713714599609,-8.165164947509766
1775728229099335400,8.07733544921875,3.1585021018981934,-4.782660484313965,-7.957412242889404
1775728229109345300,8.08734521484375,3.203701972961426,-4.854306697845459,-7.895719051361084
1775728229119446500,8.097446533203126,3.3160972595214844,-4.987407207489014,-7.765284538269043
1775728229129517300,8.107517333984376,3.4199681282043457,-5.1001877784729,-7.646064281463623
1775728229139588000,8.117588134765626,3.507286787033081,-5.192783832550049,-7.543496608734131
1775728229149659000,8.127658935546876,3.6408612728118896,-5.288819789886475,-7.412348747253418
1775728229169709000,8.147708984375,3.932750940322876,-5.459597587585449,-7.134189128875732
1775728229189789700,8.167789794921875,4.2195234298706055,-5.60689640045166,-6.850452899932861
1775728229199860500,8.177860595703125,4.351483345031738,-5.6754584312438965,-6.710005283355713
1775728229209900800,8.18790087890625,4.47376012802124,-5.741245269775391,-6.572212219238281
1775728229220002000,8.198001953125,4.587440013885498,-5.804556846618652,-6.4368391036987305
1775728229230072800,8.20807275390625,4.744502067565918,-5.892703056335449,-6.2398834228515625
1775728229240143600,8.2181435546875,4.842527389526367,-5.946014881134033,-6.112710952758789
1775728229250214400,8.22821435546875,4.937524318695068,-5.994493007659912,-5.988095283508301
1775728229290528300,8.2685283203125,5.260671138763428,-6.120388507843018,-5.571047306060791
1775728229300599000,8.27859912109375,5.351376533508301,-6.145637512207031,-5.455666542053223
1775728229310669800,8.288669921875,5.438578128814697,-6.167129039764404,-5.3440399169921875
1775728229320710100,8.298710205078125,5.520987033843994,-6.185215950012207,-5.237574577331543
1775728229330750200,8.308750244140626,5.598592758178711,-6.199010372161865,-5.137940406799316
1775728229340851700,8.318851806640625,5.7080888748168945,-6.210414409637451,-5.001885890960693
1775728229350922500,8.328922607421875,5.74097204208374,-6.211281776428223,-4.963023662567139
1775728229360962800,8.338962890625,5.803961753845215,-6.211015224456787,-4.889551639556885
1775728229371003000,8.3490029296875,5.858193397521973,-6.208013534545898,-4.828305721282959
1775728229391083500,8.36908349609375,5.928897857666016,-6.194201469421387,-4.759247779846191
1775728229401184800,8.379184814453126,5.942025184631348,-6.179947853088379,-4.761405944824219
1775728229411255800,8.389255859375,5.928528785705566,-6.15032434463501,-4.816269874572754
1775728229421326600,8.39932666015625,5.827232837677002,-6.0657525062561035,-5.041862964630127
1775728229431397400,8.4093974609375,5.793147087097168,-6.0284905433654785,-5.125148296356201
1775728229441468200,8.41946826171875,5.76203727722168,-5.998971462249756,-5.1943864822387695
1775728229451447300,8.429447265625,5.7243971824646,-5.9700236320495605,-5.2688212394714355
1775728229461548500,8.439548583984376,5.6775593757629395,-5.938592910766602,-5.354330062866211
1775728229481690400,8.4596904296875,5.551675796508789,-5.86212682723999,-5.566394805908203
1775728229491761200,8.46976123046875,5.42473840713501,-5.7950849533081055,-5.758436679840088
1775728229501832000,8.47983203125,5.372855186462402,-5.768801689147949,-5.832988262176514
1775728229511902700,8.48990283203125,5.258620738983154,-5.72136116027832,-5.981916427612305
1775728229521973500,8.499973388671876,5.125401496887207,-5.672526836395264,-6.141912937164307
1775728229532013800,8.510013916015625,4.972525596618652,-5.617438316345215,-6.315756797790527
1775728229542115000,8.520114990234376,4.7107391357421875,-5.516096115112305,-6.599395275115967
1775728229552185900,8.530185791015626,4.6141486167907715,-5.4737162590026855,-6.702123641967773
1775728229562226200,8.54022607421875,4.314846515655518,-5.330106735229492,-7.010167121887207
1775728229572297000,8.550296875,4.207876205444336,-5.273114204406738,-7.117475509643555
1775728229602448400,8.580448486328125,3.4562716484069824,-4.749907493591309,-7.8525776863098145
1775728229612488700,8.59048876953125,3.3526265621185303,-4.655510902404785,-7.953397274017334
1775728229622559500,8.6005595703125,3.1463043689727783,-4.4611287117004395,-8.146746635437012
1775728229632569000,8.610569091796876,2.953662157058716,-4.250176906585693,-8.329602241516113
1775728229642640000,8.620639892578126,2.7723212242126465,-4.025335311889648,-8.50184154510498
1775728229652649700,8.630649658203126,2.603151321411133,-3.7970664501190186,-8.658885955810547
1775728229662720500,8.640720458984376,2.440091371536255,-3.567254066467285,-8.802899360656738
1775728229692841500,8.670841552734375,2.014953851699829,-2.941763162612915,-9.13544750213623
1775728229702912300,8.680912353515625,1.89078688621521,-2.7553205490112305,-9.219735145568848
1775728229712921900,8.690921875,1.774909496307373,-2.5865299701690674,-9.291391372680664
1775728229723023400,8.7010234375,1.6638094186782837,-2.4424877166748047,-9.350743293762207
1775728229733094100,8.71109423828125,1.557922124862671,-2.3224921226501465,-9.399431228637695
1775728229743103700,8.721103759765626,1.4597090482711792,-2.2198355197906494,-9.439913749694824
1775728229753113600,8.731113525390626,1.324292778968811,-2.0889859199523926,-9.489614486694336
1775728229763214800,8.74121484375,1.2856091260910034,-2.060744047164917,-9.50110149383545
1775728229773255200,8.751255126953126,1.1635475158691406,-1.9747140407562256,-9.535043716430664
1775728229783326000,8.761325927734376,1.1323375701904297,-1.963401198387146,-9.541133880615234
1775728229813477400,8.791477294921876,0.9230477809906006,-1.8967275619506836,-9.577098846435547
1775728229823487200,8.8014873046875,0.9060574769973755,-1.9069452285766602,-9.576692581176758
1775728229833496800,8.811496826171876,0.861025869846344,-1.9071629047393799,-9.580801010131836
1775728229843567600,8.821567626953126,0.8245412111282349,-1.9161808490753174,-9.582212448120117
1775728229853608000,8.83160791015625,0.7666478157043457,-1.9154595136642456,-9.587162017822266
1775728229863678700,8.8416787109375,0.7759750485420227,-1.965551733970642,-9.576265335083008
1775728229873688600,8.8516884765625,0.7821586728096008,-2.032294273376465,-9.561820983886719
1775728229883789800,8.861789794921876,0.8603543043136597,-2.19629168510437,-9.518743515014648
1775728229903931400,8.881931396484376,0.8735141754150391,-2.2725446224212646,-9.499627113342285
1775728229924042500,8.90204248046875,0.9003373384475708,-2.2964701652526855,-9.491364479064941
1775728229934052400,8.91205224609375,0.8762708306312561,-2.2484376430511475,-9.505105972290039
1775728229944153600,8.922153564453126,0.876058042049408,-2.2383623123168945,-9.507505416870117
1775728229954163500,8.93216357421875,0.8601128458976746,-2.20255708694458,-9.517317771911621
1775728229964264700,8.9422646484375,0.8388181328773499,-2.1458733081817627,-9.532155990600586
1775728229974305000,8.952304931640626,0.8393383622169495,-2.131849765777588,-9.535257339477539
1775728229984345300,8.962345458984375,0.8420470356941223,-2.0820438861846924,-9.546014785766602
1775728230004456400,8.98245654296875,0.8630126714706421,-2.0469207763671875,-9.551739692687988
1775728230014527200,8.99252734375,0.8828478455543518,-2.032066822052002,-9.55309772491455
1775728230024598000,9.002597900390626,0.907795250415802,-2.027005434036255,-9.551835060119629
1775728230034607600,9.012607666015626,0.9349836707115173,-2.031184196472168,-9.548324584960938
1775728230044678700,9.0226787109375,0.9619383215904236,-2.04575777053833,-9.542532920837402
1775728230054749400,9.03274951171875,0.9878858327865601,-2.0724751949310303,-9.534114837646484
1775728230064850700,9.0428505859375,1.012871265411377,-2.1116671562194824,-9.522884368896484
1775728230074891000,9.05289111328125,1.0354478359222412,-2.1613523960113525,-9.50930118560791
1775728230084961800,9.0629619140625,1.056584119796753,-2.2202494144439697,-9.493393898010254
1775728230095002000,9.073002197265625,1.0839589834213257,-2.288902759552002,-9.473982810974121
1775728230105011700,9.08301171875,1.1266653537750244,-2.369412422180176,-9.449174880981445
1775728230115052000,9.093052001953126,1.2265689373016357,-2.508774995803833,-9.400635719299316
1775728230125122800,9.103122802734376,1.266194224357605,-2.558077335357666,-9.38207721710205
1775728230135193600,9.113193603515626,1.3599510192871094,-2.664353132247925,-9.339280128479004
1775728230145264400,9.123264404296876,1.4659897089004517,-2.7778115272521973,-9.29004955291748
1775728230155304700,9.1333046875,1.5819460153579712,-2.8995158672332764,-9.23366928100586
1775728230165375500,9.14337548828125,1.7726854085922241,-3.101630210876465,-9.132792472839355
1775728230175446300,9.1534462890625,1.833937406539917,-3.1719629764556885,-9.096467971801758
1775728230185517000,9.16351708984375,1.9615981578826904,-3.3210766315460205,-9.016263008117676
1775728230215729700,9.193729736328125,2.3106391429901123,-3.7897331714630127,-8.744671821594238
1775728230225800400,9.203800537109375,2.418867349624634,-3.946796417236328,-8.64536190032959
1775728230235871200,9.213871337890625,2.530876398086548,-4.102236270904541,-8.540299415588379
1775728230245942000,9.22394189453125,2.645972728729248,-4.255308628082275,-8.429801940917969
1775728230256012800,9.2340126953125,2.758686065673828,-4.400623321533203,-8.318326950073242
1775728230266022400,9.2440224609375,2.8622961044311523,-4.533446788787842,-8.2113037109375
1775728230276062700,9.254062744140626,2.933112144470215,-4.645594120025635,-8.123159408569336
1775728230286103000,9.26410302734375,3.0266737937927246,-4.758943557739258,-8.022599220275879
1775728230296113000,9.27411279296875,3.2265305519104004,-4.938140392303467,-7.834200382232666
1775728230326233600,9.304233642578126,3.5545856952667236,-5.2167558670043945,-7.504716396331787
1775728230336243500,9.314243408203126,3.682121515274048,-5.324438571929932,-7.366323947906494
1775728230346344700,9.3243447265625,3.8032712936401367,-5.430630683898926,-7.225910663604736
1775728230356415500,9.33441552734375,3.917337656021118,-5.535630702972412,-7.083901405334473
1775728230376526600,9.354526611328126,4.121480464935303,-5.740429401397705,-6.799356937408447
1775728230386628000,9.364628173828125,4.213110446929932,-5.839731693267822,-6.657148361206055
1775728230396699000,9.374698974609375,4.298125743865967,-5.9351420402526855,-6.516946792602539
1775728230406769700,9.384769775390625,4.377808094024658,-6.025897026062012,-6.3791656494140625
1775728230426911200,9.4049111328125,4.561360836029053,-6.225758075714111,-6.050148963928223
1775728230447083300,9.425083251953126,4.663923263549805,-6.326559543609619,-5.864541530609131
1775728230457184500,9.4351845703125,4.730942726135254,-6.385763645172119,-5.745484828948975
1775728230467255600,9.445255615234375,4.793613910675049,-6.4385175704956055,-5.633573532104492
1775728230477326300,9.455326416015625,4.878518581390381,-6.507026195526123,-5.479877471923828
1775728230487397000,9.465397216796875,4.928003787994385,-6.546370029449463,-5.387969493865967
1775728230497468000,9.475468017578125,4.950023651123047,-6.564140796661377,-5.345999717712402
1775728230507538700,9.48553857421875,5.00747537612915,-6.610844612121582,-5.233767032623291
1775728230527619300,9.505619384765625,5.039641380310059,-6.645026206970215,-5.159074306488037
1775728230547699700,9.52569970703125,5.031364440917969,-6.662446022033691,-5.144662380218506
1775728230557709600,9.53570947265625,4.995582103729248,-6.650294303894043,-5.195010662078857
1775728230567810800,9.545810791015626,4.91629695892334,-6.609808921813965,-5.320794105529785
1775728230577790200,9.555790283203125,4.6875810623168945,-6.461904048919678,-5.695680141448975
1775728230587891500,9.565891357421876,4.56510066986084,-6.407190799713135,-5.85475492477417
1775728230597931800,9.575931884765625,4.480987071990967,-6.369869709014893,-5.959522247314453
1775728230608002600,9.58600244140625,4.433821678161621,-6.348221778869629,-6.01761531829834
1775728230618073300,9.5960732421875,4.293767929077148,-6.286327838897705,-6.181912422180176
1775728230648255200,9.626255126953126,3.965283155441284,-6.073493003845215,-6.599968910217285
1775728230658265000,9.63626513671875,3.904129981994629,-6.026266098022461,-6.67924165725708
1775728230668335900,9.6463359375,3.7800521850585938,-5.922893047332764,-6.841119766235352
1775728230678376000,9.6563759765625,3.645956039428711,-5.804240703582764,-7.013428688049316
1775728230688446700,9.66644677734375,3.4270875453948975,-5.592425346374512,-7.290421485900879
1775728230698517800,9.676517822265625,3.3499412536621094,-5.512308597564697,-7.386659145355225
1775728230708588500,9.686588623046875,3.190866470336914,-5.336463928222656,-7.583594799041748
1775728230718659300,9.696659423828125,3.0252456665039062,-5.141789436340332,-7.783332824707031
1775728230748871700,9.72687158203125,2.436584234237671,-4.319179534912109,-8.460387229919434
1775728230758912000,9.736912109375,2.278568744659424,-4.059022903442383,-8.631503105163574
1775728230768921600,9.746921630859376,2.2010509967803955,-3.926809072494507,-8.71240234375
1775728230778962000,9.7569619140625,2.050834894180298,-3.660853624343872,-8.863555908203125
1775728230789032700,9.76703271484375,1.9070546627044678,-3.398585081100464,-8.999063491821289
1775728230799073000,9.777072998046876,1.7738971710205078,-3.1455395221710205,-9.117525100708008
1775728230809174300,9.78717431640625,1.6009516716003418,-2.7958128452301025,-9.26233196258545
1775728230819245300,9.797245361328125,1.5524019002914429,-2.68459153175354,-9.3034086227417
1775728230839356200,9.817356201171876,1.3906348943710327,-2.3127710819244385,-9.428023338317871
1775728230849427000,9.827427001953126,1.328887701034546,-2.1656925678253174,-9.471759796142578
1775728230859436800,9.837436767578126,1.2772709131240845,-2.057352066040039,-9.502962112426758
1775728230869507600,9.847507568359376,1.234049677848816,-1.9921824932098389,-9.522537231445312
1775728230879578400,9.857578369140626,1.184745192527771,-1.9149621725082397,-9.544615745544434
1775728230889649200,9.867649169921876,1.1717331409454346,-1.9006125926971436,-9.549089431762695
1775728230899720000,9.877719970703126,1.1431283950805664,-1.8496553897857666,-9.562552452087402
1775728230909760300,9.88776025390625,1.1199158430099487,-1.8163527250289917,-9.57167911529541
1775728230919739600,9.89773974609375,1.1016923189163208,-1.8003284931182861,-9.57681941986084
1775728230949860400,9.9278603515625,1.0588719844818115,-1.838372826576233,-9.574422836303711
1775728230959931100,9.93793115234375,1.060053825378418,-1.8687827587127686,-9.568403244018555
1775728230970002000,9.948001953125,1.0551269054412842,-1.9119833707809448,-9.560407638549805
1775728230980011800,9.95801171875,1.055450201034546,-1.9673633575439453,-9.549132347106934
1775728230990113000,9.968113037109376,1.0610171556472778,-2.0326666831970215,-9.534825325012207
1775728231000183800,9.978183837890626,1.0748744010925293,-2.109489917755127,-9.516569137573242
1775728231010254600,9.988254638671876,1.1014642715454102,-2.199215888977051,-9.49318790435791
1775728231020325600,9.99832568359375,1.1269804239273071,-2.2961223125457764,-9.46721363067627
1775728231050446300,10.0284462890625,1.184294581413269,-2.459357976913452,-9.419095993041992
1775728231060517000,10.03851708984375,1.1909112930297852,-2.4979546070098877,-9.408099174499512
1775728231070588000,10.048587890625,1.1982307434082031,-2.5350608825683594,-9.397239685058594
1775728231080658700,10.05865869140625,1.2071177959442139,-2.5737884044647217,-9.385566711425781
1775728231090729500,10.0687294921875,1.2179852724075317,-2.6186258792877197,-9.371749877929688
1775728231100800300,10.07880029296875,1.234340786933899,-2.672214984893799,-9.35446834564209
1775728231110871000,10.08887109375,1.2675889730453491,-2.74413800239563,-9.329164505004883
1775728231120911400,10.098911376953126,1.3603227138519287,-2.873394012451172,-9.277043342590332
1775728231130921200,10.108921142578126,1.3918191194534302,-2.93951153755188,-9.251622200012207
1775728231151032300,10.1290322265625,1.4436877965927124,-3.0445661544799805,-9.209602355957031
1775728231161072600,10.13907275390625,1.4916385412216187,-3.1010403633117676,-9.183079719543457
1775728231171143400,10.149143310546876,1.5185726881027222,-3.1239047050476074,-9.17090892791748
1775728231181183700,10.159183837890625,1.5603034496307373,-3.149919033050537,-9.154989242553711
1775728231191285000,10.169284912109376,1.6008213758468628,-3.1702513694763184,-9.140966415405273
1775728231201355800,10.179355712890626,1.6404688358306885,-3.1851212978363037,-9.128761291503906
1775728231211365600,10.18936572265625,1.6801292896270752,-3.198845863342285,-9.116739273071289
1775728231221436400,10.1994365234375,1.721575379371643,-3.2131917476654053,-9.10395336151123
1775728231231507200,10.209507080078126,1.7655951976776123,-3.229571580886841,-9.089716911315918
1775728231271790300,10.249790283203126,1.9088327884674072,-3.3393096923828125,-9.020852088928223
1775728231281861000,10.259861083984376,1.924673318862915,-3.3772850036621094,-9.00333023071289
1775728231291932000,10.269931884765626,1.9547113180160522,-3.446593999862671,-8.970534324645996
1775728231301972200,10.27997216796875,1.9669138193130493,-3.471384286880493,-8.958300590515137
1775728231312012500,10.290012451171876,2.0050251483917236,-3.529977321624756,-8.926898956298828
1775728231322083300,10.300083251953126,2.0572686195373535,-3.5959980487823486,-8.888579368591309
1775728231332093200,10.31009326171875,2.153841733932495,-3.7107481956481934,-8.818259239196777
1775728231372284700,10.35028466796875,2.3169665336608887,-4.032321453094482,-8.633796691894531
1775728231382325000,10.360324951171876,2.334261417388916,-4.130550384521484,-8.582551002502441
1775728231402466600,10.380466552734376,2.3719565868377686,-4.330806732177734,-8.472799301147461
1775728231412476400,10.390476318359376,2.395695209503174,-4.428016185760498,-8.415681838989258
1775728231422547200,10.400547119140626,2.424448251724243,-4.51984977722168,-8.35843276977539
1775728231432587500,10.41058740234375,2.4560954570770264,-4.601787090301514,-8.304308891296387
1775728231442627800,10.4206279296875,2.4824299812316895,-4.669642448425293,-8.25847339630127
1775728231472809700,10.450809814453125,2.6806647777557373,-4.8791728019714355,-8.073295593261719
1775728231482911000,10.460910888671876,2.802830457687378,-4.980642795562744,-7.969173431396484
1775728231492981800,10.470981689453126,2.84149432182312,-5.0131402015686035,-7.935030937194824
1775728231502991600,10.48099169921875,2.9189796447753906,-5.079601287841797,-7.864325523376465
1775728231513062400,10.4910625,3.026200771331787,-5.181459903717041,-7.756608963012695
1775728231523163600,10.50116357421875,3.0590128898620605,-5.2152557373046875,-7.721005916595459
1775728231533234400,10.511234375,3.1190779209136963,-5.2850341796875,-7.64919376373291
1775728231543244300,10.521244384765625,3.172376871109009,-5.356034755706787,-7.5775532722473145
1775728231573426200,10.55142626953125,3.2987937927246094,-5.565953254699707,-7.369431018829346
1775728231583497000,10.5614970703125,3.333289384841919,-5.630019664764404,-7.304962635040283
1775728231593537300,10.571537353515625,3.3831443786621094,-5.716164588928223,-7.2145819664001465
1775728231603608000,10.581608154296875,3.4149603843688965,-5.766939640045166,-7.158968925476074
1775728231613709300,10.591709228515626,3.429840564727783,-5.790632247924805,-7.132683277130127
1775728231623780000,10.601780029296876,3.474364757537842,-5.852038383483887,-7.060654163360596
1775728231633820400,10.6118203125,3.486912250518799,-5.869706153869629,-7.039770603179932
1775728231643891200,10.62189111328125,3.5183191299438477,-5.916736602783203,-6.98455810546875
1775728231674042600,10.652042724609375,3.545077323913574,-5.9772233963012695,-6.919222354888916
1775728231684113400,10.662113525390625,3.5464627742767334,-5.995739459991455,-6.902470111846924
1775728231694184200,10.67218408203125,3.540210008621216,-6.0096869468688965,-6.8935441970825195
1775728231704255000,10.6822548828125,3.5142602920532227,-6.021739959716797,-6.896304130554199
1775728231714325800,10.69232568359375,3.4987599849700928,-6.021756172180176,-6.9041666984558105
1775728231724335600,10.702335693359375,3.447723627090454,-6.015408039093018,-6.935305595397949
1775728231734436900,10.712436767578126,3.423675775527954,-6.007445812225342,-6.954095840454102
1775728231744507600,10.722507568359376,3.3630683422088623,-5.975776672363281,-7.010725498199463
1775728231754517500,10.732517578125,3.3140783309936523,-5.939182281494141,-7.064940929412842
1775728231774689500,10.752689453125,3.176281452178955,-5.815257549285889,-7.229412078857422
1775728231825074000,10.803073974609376,2.8460516929626465,-5.303834915161133,-7.742074966430664
1775728231835145000,10.81314501953125,2.790564775466919,-5.173495769500732,-7.849719524383545
1775728231845154600,10.823154541015626,2.73669171333313,-5.029881000518799,-7.9612321853637695
1775728231855225300,10.833225341796876,2.709001302719116,-4.95267915725708,-8.01889419555664
1775728231865265700,10.843265625,2.6588375568389893,-4.785961151123047,-8.136064529418945
1775728231885437700,10.863437744140626,2.5367515087127686,-4.319351673126221,-8.430806159973145
1775728231895478000,10.87347802734375,2.4787709712982178,-4.130533218383789,-8.541943550109863
1775728231905548800,10.883548828125,2.4109535217285156,-3.9455177783966064,-8.64815616607666
1775728231915589000,10.893589111328126,2.3732962608337402,-3.853264570236206,-8.700013160705566
1775728231925660000,10.903659912109376,2.288132667541504,-3.6761794090270996,-8.798894882202148
1775728231935761400,10.913761474609375,2.1454923152923584,-3.4188363552093506,-8.937494277954102
1775728231945832200,10.923832275390625,2.0552737712860107,-3.2571213245391846,-9.01872444152832
1775728231955872300,10.933872314453126,1.9778636693954468,-3.1108150482177734,-9.087425231933594
1775728231965973800,10.943973876953125,1.9431869983673096,-3.041398286819458,-9.118350982666016
1775728231996247000,10.9742470703125,1.816421627998352,-2.7163639068603516,-9.246210098266602
1775728232026459600,11.004459716796875,1.882581353187561,-2.5283608436584473,-9.286210060119629
1775728232036530400,11.014530517578125,1.8923230171203613,-2.493957281112671,-9.293529510498047
1775728232046601200,11.024601318359375,1.8995044231414795,-2.476994514465332,-9.296600341796875
1775728232056672000,11.034672119140625,1.9161288738250732,-2.4863667488098145,-9.290684700012207
1775728232066742800,11.04474267578125,1.9262679815292358,-2.4900224208831787,-9.287609100341797
1775728232076752400,11.05475244140625,1.955602765083313,-2.497122049331665,-9.279569625854492
1775728232096802600,11.074802490234376,2.058990001678467,-2.46872878074646,-9.264790534973145
1775728232106843000,11.0848427734375,2.136568307876587,-2.4196279048919678,-9.260175704956055
1775728232116944100,11.094944091796876,2.29178524017334,-2.2922630310058594,-9.255465507507324
1775728232127015000,11.105014892578126,2.4142017364501953,-2.1757426261901855,-9.252469062805176
1775728232137085700,11.115085693359376,2.5469682216644287,-2.039597511291504,-9.247886657714844
1775728232147095600,11.125095458984376,2.6779625415802,-1.9018683433532715,-9.240227699279785
1775728232157196800,11.13519677734375,2.795539617538452,-1.7780576944351196,-9.230051040649414
1775728232167206700,11.14520654296875,2.890166759490967,-1.6832480430603027,-9.21867561340332
1775728232177308000,11.155307861328126,2.962202787399292,-1.6212602853775024,-9.206913948059082
1775728232207520300,11.185520263671876,3.056743860244751,-1.6004048585891724,-9.179619789123535
1775728232257843700,11.23584375,2.930788040161133,-2.1637072563171387,-9.104902267456055
1775728232267853600,11.245853515625,2.8092970848083496,-2.4008350372314453,-9.083734512329102
1775728232277954800,11.255954833984376,2.7317349910736084,-2.538991689682007,-9.069814682006836
1775728232308075800,11.28607568359375,2.6067473888397217,-2.809354305267334,-9.026782035827637
1775728232318146600,11.296146484375,2.5741450786590576,-2.8843796253204346,-9.01246452331543
1775728232328187000,11.306186767578126,2.5566906929016113,-2.922153949737549,-9.00526237487793
1775728232338288000,11.3162880859375,2.5320823192596436,-2.977304697036743,-8.99414348602295
1775728232348328400,11.326328369140626,2.5037333965301514,-3.0362770557403564,-8.982356071472168
1775728232358429700,11.3364296875,2.487478017807007,-3.0661706924438477,-8.976716995239258
1775728232368470000,11.346469970703126,2.484917163848877,-3.0780766010284424,-8.973349571228027
1775728232378571300,11.3565712890625,2.475130558013916,-3.090843677520752,-8.971667289733887
1775728232408722700,11.38672265625,2.445197820663452,-3.1094889640808105,-8.973431587219238
1775728232418763000,11.396762939453126,2.418036699295044,-3.1206088066101074,-8.97693157196045
1775728232428803300,11.40680322265625,2.439594030380249,-3.128322124481201,-8.968409538269043
1775728232438904600,11.416904541015626,2.468538284301758,-3.136831045150757,-8.957510948181152
1775728232448975400,11.426975341796876,2.455491065979004,-3.135955810546875,-8.96140193939209
1775728232459046100,11.437046142578126,2.4558215141296387,-3.1348836421966553,-8.961686134338379
1775728232469056000,11.447055908203126,2.410501718521118,-3.126849412918091,-8.976786613464355
1775728232479157200,11.4571572265625,2.323197603225708,-3.093787670135498,-9.011195182800293
1775728232539582200,11.517582275390625,2.0125341415405273,-2.8315999507904053,-9.170721054077148
1775728232549653000,11.527653076171875,1.9835155010223389,-2.804999351501465,-9.185208320617676
1775728232559662600,11.53766259765625,1.8924282789230347,-2.733259439468384,-9.22596263885498
1775728232569733400,11.5477333984375,1.8351964950561523,-2.6919198036193848,-9.249650001525879
1775728232579804200,11.55780419921875,1.7860387563705444,-2.658468723297119,-9.268927574157715
1775728232589875000,11.567875,1.7480816841125488,-2.6347248554229736,-9.282933235168457
1775728232599946000,11.577946044921875,1.7323603630065918,-2.6256613731384277,-9.288445472717285
1775728232630036200,11.6080361328125,1.7312421798706055,-2.6511499881744385,-9.281411170959473
1775728232640137500,11.618137451171876,1.7731027603149414,-2.693652868270874,-9.261248588562012
1775728232650116900,11.628116943359375,1.88141930103302,-2.792834997177124,-9.210358619689941
1775728232660218000,11.638218017578126,1.9237276315689087,-2.837972402572632,-9.187795639038086
1775728232670228000,11.64822802734375,2.074002981185913,-2.9868030548095703,-9.107574462890625
1775728232680329200,11.6583291015625,2.1731016635894775,-3.1001858711242676,-9.046374320983887
1775728232690338800,11.6683388671875,2.21773624420166,-3.158082962036133,-9.015462875366211
1775728232700440300,11.6784404296875,2.368762731552124,-3.33085036277771,-8.914301872253418
1775728232750763800,11.728763671875,2.999315023422241,-3.84157133102417,-8.509808540344238
1775728232760804000,11.73880419921875,3.045405387878418,-3.874258279800415,-8.478562355041504
1775728232770813700,11.748813720703126,3.175806760787964,-3.9512763023376465,-8.394763946533203
1775728232780915200,11.758915283203125,3.3238418102264404,-4.030588150024414,-8.299206733703613
1775728232790924800,11.7689248046875,3.4756946563720703,-4.109409332275391,-8.197725296020508
1775728232801026300,11.7790263671875,3.6247220039367676,-4.186818599700928,-8.093352317810059
1775728232821167900,11.79916796875,3.983720064163208,-4.380396366119385,-7.817448139190674
1775728232831208200,11.809208251953125,4.114049911499023,-4.456531524658203,-7.706122875213623
1775728232841279000,11.819279052734375,4.173696041107178,-4.49406099319458,-7.652063846588135
1775728232851349800,11.829349853515625,4.294797897338867,-4.570099830627441,-7.539183139801025
1775728232861420500,11.839420654296875,4.408876895904541,-4.643924713134766,-7.427392959594727
1775728232871399700,11.849399658203126,4.518011569976807,-4.712302207946777,-7.317935466766357
1775728232881501000,11.8595009765625,4.6247992515563965,-4.772170543670654,-7.2116594314575195
1775728232891572000,11.869572021484375,4.785885810852051,-4.843746662139893,-7.057180881500244
1775728232901612000,11.879612060546876,4.834155082702637,-4.8645920753479,-7.009784698486328
1775728232941864700,11.91986474609375,5.196213722229004,-5.006580352783203,-6.641078472137451
1775728232951905000,11.929905029296876,5.2623066902160645,-5.049680709838867,-6.555856227874756
1775728232962006500,11.940006591796875,5.314640045166016,-5.100277423858643,-6.4739603996276855
1775728232972107800,11.950107666015626,5.367424011230469,-5.192995548248291,-6.355624198913574
1775728232982148000,11.960148193359375,5.376661777496338,-5.226927280426025,-6.319900035858154
1775728232992157700,11.97015771484375,5.385995388031006,-5.3020524978637695,-6.24897575378418
1775728233002259200,11.98025927734375,5.381521224975586,-5.382745742797852,-6.183499813079834
1775728233012330000,11.990330078125,5.3641037940979,-5.466742992401123,-6.124663829803467
1775728233032441000,12.010441162109375,5.296863079071045,-5.634769439697266,-6.030174732208252
1775728233042481200,12.020481201171876,5.2489519119262695,-5.713321685791016,-5.99807071685791
1775728233052491000,12.030490966796876,5.192821979522705,-5.784845352172852,-5.978340148925781
1775728233062592300,12.04059228515625,5.1306610107421875,-5.8469767570495605,-5.971563339233398
1775728233072632600,12.050632568359376,5.065454006195068,-5.897381782531738,-5.977664470672607
1775728233082734000,12.060734130859375,4.997612476348877,-5.933606147766113,-5.99888277053833
1775728233092804900,12.070804931640625,4.928636074066162,-5.953060150146484,-6.036556243896484
1775728233102875600,12.080875732421875,4.859477519989014,-5.954613208770752,-6.090848445892334
1775728233112946400,12.090946533203125,4.790937900543213,-5.937475204467773,-6.161468029022217
1775728233143067100,12.121067138671876,4.565124034881592,-5.761087417602539,-6.491524696350098
1775728233153077000,12.131076904296876,4.464640140533447,-5.627275466918945,-6.676163196563721
1775728233163178200,12.14117822265625,4.383286952972412,-5.4999237060546875,-6.834326267242432
1775728233173188000,12.15118798828125,4.312115669250488,-5.368048667907715,-6.982844352722168
1775728233183289300,12.161289306640626,4.247539520263672,-5.224704742431641,-7.129604339599609
1775728233193360100,12.171360107421876,4.182938098907471,-5.060271739959717,-7.28471565246582
1775728233203461400,12.18146142578125,4.118184566497803,-4.885425090789795,-7.439325332641602
1775728233213471200,12.19147119140625,4.050946235656738,-4.703833103179932,-7.5917181968688965
1775728233223542000,12.2015419921875,3.9778528213500977,-4.52188777923584,-7.739484786987305
1775728233263733800,12.241733642578126,3.6070139408111572,-3.8452775478363037,-8.268838882446289
1775728233273774000,12.251774169921875,3.492008686065674,-3.692225456237793,-8.387118339538574
1775728233283875300,12.261875244140626,3.368403911590576,-3.5475878715515137,-8.499344825744629
1775728233293915600,12.27191552734375,3.2375242710113525,-3.4095816612243652,-8.606019973754883
1775728233304017000,12.282016845703126,3.099064350128174,-3.2784183025360107,-8.70736312866211
1775728233314057200,12.29205712890625,2.9570560455322266,-3.153228759765625,-8.80246353149414
1775728233324128000,12.3021279296875,2.8134658336639404,-3.028156042098999,-8.892979621887207
1775728233364441600,12.342441650390626,2.348665714263916,-2.512965202331543,-9.183635711669922
1775728233374451500,12.352451416015626,2.2807343006134033,-2.396959066390991,-9.231643676757812
1775728233384522200,12.362522216796876,2.2277023792266846,-2.2943918704986572,-9.270570755004883
1775728233394562600,12.3725625,2.1867916584014893,-2.2093048095703125,-9.300930976867676
1775728233404663800,12.382663818359376,2.150869369506836,-2.1405837535858154,-9.325345039367676
1775728233414673700,12.392673583984376,2.108915328979492,-2.0823042392730713,-9.348094940185547
1775728233424775000,12.40277490234375,2.025024652481079,-2.0035035610198975,-9.383795738220215
1775728233434845700,12.412845703125,1.9961698055267334,-1.9838942289352417,-9.39414119720459
1775728233444886000,12.422885986328126,1.9294483661651611,-1.945450782775879,-9.416095733642578
1775728233464936200,12.442936279296875,1.8045909404754639,-1.8888722658157349,-9.452302932739258
1775728233475007000,12.453007080078125,1.7529478073120117,-1.8661247491836548,-9.46652889251709
1775728233485077800,12.463077880859375,1.7091975212097168,-1.8453339338302612,-9.478596687316895
1775728233495148500,12.4731484375,1.672010898590088,-1.8255951404571533,-9.489045143127441
1775728233505219300,12.48321923828125,1.6415040493011475,-1.8068071603775024,-9.49796199798584
1775728233515259600,12.493259765625,1.6153262853622437,-1.789771318435669,-9.505672454833984
1775728233525269200,12.503269287109376,1.5951181650161743,-1.7785098552703857,-9.511198043823242
1775728233535340000,12.513340087890626,1.5812270641326904,-1.77684485912323,-9.513829231262207
1775728233555451100,12.533451171875,1.5649404525756836,-1.7886861562728882,-9.514302253723145
1775728233585633000,12.563633056640626,1.59830904006958,-1.9638596773147583,-9.474124908447266
1775728233595643000,12.573642822265626,1.597442865371704,-2.006065607070923,-9.465426445007324
1775728233605744000,12.583744140625,1.5941431522369385,-2.0409622192382812,-9.458518981933594
1775728233615815000,12.59381494140625,1.5831260681152344,-2.060511350631714,-9.456128120422363
1775728233625885700,12.6038857421875,1.5852175951004028,-2.091390609741211,-9.44899845123291
1775728233635926000,12.613926025390626,1.5834944248199463,-2.1015942096710205,-9.447023391723633
1775728233656067600,12.634067626953126,1.5852689743041992,-2.1184122562408447,-9.442967414855957
1775728233676209400,12.65420947265625,1.5945961475372314,-2.115668773651123,-9.442012786865234
1775728233686249500,12.66424951171875,1.6005045175552368,-2.1117703914642334,-9.441885948181152
1775728233696320300,12.6743203125,1.6068904399871826,-2.1057798862457275,-9.442138671875
1775728233706391300,12.684391357421875,1.6151491403579712,-2.094027280807495,-9.443344116210938
1775728233716462000,12.694462158203125,1.6349793672561646,-2.065843105316162,-9.44614028930664
1775728233726532900,12.704532958984375,1.640415072441101,-2.0638811588287354,-9.445626258850098
1775728233736542500,12.71454248046875,1.6547067165374756,-2.0482892990112305,-9.446526527404785
1775728233746644000,12.72464404296875,1.6662615537643433,-2.0327329635620117,-9.447854995727539
1775728233776764700,12.7547646484375,1.6135385036468506,-2.027158260345459,-9.458197593688965
1775728233786866000,12.764865966796876,1.5995216369628906,-2.012348175048828,-9.463739395141602
1775728233796937000,12.77493701171875,1.5900135040283203,-1.9905445575714111,-9.469951629638672
1775728233807038200,12.7850380859375,1.5818912982940674,-1.9645041227340698,-9.476746559143066
1775728233817109000,12.79510888671875,1.575230360031128,-1.9369349479675293,-9.483529090881348
1775728233827179800,12.8051796875,1.5714999437332153,-1.9080042839050293,-9.490011215209961
1775728233837220000,12.81522021484375,1.5712854862213135,-1.8766493797302246,-9.496295928955078
1775728233847321300,12.8253212890625,1.5736390352249146,-1.8417110443115234,-9.5027437210083
1775728233887543600,12.86554345703125,1.582815170288086,-1.657875657081604,-9.535017013549805
1775728233897583900,12.875583984375,1.5936254262924194,-1.5768582820892334,-9.546950340270996
1775728233907593500,12.885593505859376,1.5907660722732544,-1.5554314851760864,-9.550942420959473
1775728233917603300,12.895603271484376,1.5978896617889404,-1.5046675205230713,-9.557883262634277
1775728233927674000,12.905674072265626,1.606089472770691,-1.4547654390335083,-9.564229965209961
1775728233937684000,12.91568408203125,1.6158350706100464,-1.4063371419906616,-9.569830894470215
1775728233967804700,12.9458046875,1.654252529144287,-1.2650188207626343,-9.582983016967773
1775728233977906200,12.95590625,1.668997049331665,-1.2260208129882812,-9.585494041442871
1775728233987977000,12.96597705078125,1.6841778755187988,-1.1949114799499512,-9.586769104003906
1775728233998047700,12.9760478515625,1.7018554210662842,-1.171105980873108,-9.58658504486084
1775728234008118500,12.986118408203126,1.7172080278396606,-1.1561673879623413,-9.58565902709961
1775728234018189300,12.996189208984376,1.7262011766433716,-1.1517934799194336,-9.584571838378906
1775728234028199200,13.00619921875,1.732275128364563,-1.157089352607727,-9.58283805847168
1775728234038239200,13.0162392578125,1.7357360124588013,-1.1715822219848633,-9.580449104309082
1775728234048310000,13.02631005859375,1.7331016063690186,-1.197305679321289,-9.57774543762207
1775728234068451800,13.046451904296875,1.7200623750686646,-1.2709405422210693,-9.57060432434082
1775728234078492000,13.056491943359376,1.7046558856964111,-1.3169701099395752,-9.567139625549316
1775728234088593400,13.066593505859375,1.6914900541305542,-1.3738936185836792,-9.561468124389648
1775728234098664200,13.076664306640625,1.6660714149475098,-1.414041519165039,-9.560078620910645
1775728234108765400,13.086765380859376,1.6456130743026733,-1.4685360193252563,-9.555403709411621
1775728234118836200,13.096836181640626,1.6243644952774048,-1.5023307800292969,-9.553786277770996
1775728234128907000,13.106906982421876,1.6023213863372803,-1.5407980680465698,-9.551382064819336
1775728234138977800,13.116977783203126,1.5789047479629517,-1.5758780241012573,-9.549558639526367
1775728234149048600,13.127048583984376,1.5553325414657593,-1.6085792779922485,-9.5479736328125
1775728234159058400,13.137058349609376,1.531954288482666,-1.6407650709152222,-9.546277046203613
1775728234219330600,13.19733056640625,1.4525045156478882,-1.9228081703186035,-9.505970001220703
1775728234229432000,13.20743212890625,1.4435368776321411,-1.9575737714767456,-9.500237464904785
1775728234239472000,13.21747216796875,1.4431569576263428,-2.0204789638519287,-9.487115859985352
1775728234249573600,13.22757373046875,1.448089838027954,-2.08817195892334,-9.471693992614746
1775728234269654000,13.247654052734376,1.4701184034347534,-2.2348597049713135,-9.434752464294434
1775728234279755500,13.257755615234375,1.484270453453064,-2.3154351711273193,-9.413081169128418
1775728234289826300,13.267826416015625,1.5007792711257935,-2.3981878757476807,-9.389714241027832
1775728234299897000,13.27789697265625,1.5137803554534912,-2.47296142578125,-9.368206977844238
1775728234309906700,13.28790673828125,1.5135473012924194,-2.520125150680542,-9.355669021606445
1775728234320008200,13.29800830078125,1.50571608543396,-2.541682243347168,-9.35110092163086
1775728234330079000,13.308078857421876,1.5281155109405518,-2.588094711303711,-9.334721565246582
1775728234340088600,13.318088623046876,1.5369501113891602,-2.6232757568359375,-9.323443412780762
1775728234350159600,13.32815966796875,1.4672657251358032,-2.601215362548828,-9.340836524963379
1775728234360199700,13.33819970703125,1.4569107294082642,-2.649867534637451,-9.32877254486084
1775728234390290200,13.368290283203125,1.4398084878921509,-2.736218214035034,-9.306473731994629
1775728234410462200,13.388462158203126,1.4003490209579468,-2.623006582260132,-9.345012664794922
1775728234420533000,13.398532958984376,1.3532086610794067,-2.503843069076538,-9.384561538696289
1775728234430573300,13.4085732421875,1.329594612121582,-2.4052178859710693,-9.413686752319336
1775728234440674600,13.418674560546876,1.286788821220398,-2.3023734092712402,-9.445298194885254
1775728234450684400,13.428684326171876,1.2699309587478638,-2.231276273727417,-9.464622497558594
1775728234460755200,13.438755126953126,1.25304114818573,-2.166649103164673,-9.481871604919434
1775728234490906600,13.46890673828125,1.1024019718170166,-1.9097572565078735,-9.555520057678223
1775728234500947000,13.478947021484375,1.059221625328064,-1.833730936050415,-9.575273513793945
1775728234510956500,13.48895654296875,1.017791986465454,-1.7532635927200317,-9.594820022583008
1775728234521058000,13.49905810546875,0.9853327870368958,-1.7125487327575684,-9.605555534362793
1775728234531067600,13.509067626953126,0.9492253065109253,-1.6652380228042603,-9.61750316619873
1775728234541138400,13.519138427734376,0.8866315484046936,-1.5900555849075317,-9.63618278503418
1775728234551178800,13.5291787109375,0.8444085717201233,-1.540207862854004,-9.648063659667969
1775728234561280000,13.539280029296876,0.7774207592010498,-1.4609951972961426,-9.665999412536621
1775728234601532700,13.57953271484375,0.5848605036735535,-1.230245590209961,-9.71158218383789
1775728234611603500,13.589603515625,0.5217053890228271,-1.156139850616455,-9.724276542663574
1775728234621613300,13.59961328125,0.45629942417144775,-1.0864678621292114,-9.735593795776367
1775728234631714600,13.609714599609376,0.38815367221832275,-1.0233248472213745,-9.745387077331543
1775728234641755000,13.6197548828125,0.3174026310443878,-0.9651833176612854,-9.753874778747559
1775728234651856400,13.6298564453125,0.20748905837535858,-0.8907061815261841,-9.763914108276367
1775728234661896400,13.639896484375,0.13443142175674438,-0.8481123447418213,-9.76898193359375
1775728234671967200,13.64996728515625,0.05873042345046997,-0.8124260902404785,-9.772765159606934
1775728234712159000,13.690158935546876,-0.1573755145072937,-0.6926444172859192,-9.780893325805664
1775728234722229800,13.700229736328126,-0.23571372032165527,-0.6542775630950928,-9.781962394714355
1775728234732300500,13.710300537109376,-0.25470075011253357,-0.6391223669052124,-9.782488822937012
1775728234742310400,13.720310302734376,-0.30218803882598877,-0.6076263189315796,-9.783143043518066
1775728234752350700,13.730350830078125,-0.3483237624168396,-0.569418728351593,-9.783907890319824
1775728234762421500,13.74042138671875,-0.39301395416259766,-0.5263891220092773,-9.784624099731445
1775728234772431000,13.75043115234375,-0.43799030780792236,-0.48036301136016846,-9.785080909729004
1775728234782441000,13.76044091796875,-0.4806384742259979,-0.43298283219337463,-9.785290718078613
1775728234822663200,13.8006630859375,-0.6370037794113159,-0.26458442211151123,-9.78236198425293
1775728234832734000,13.81073388671875,-0.6785489916801453,-0.23024901747703552,-9.780436515808105
1775728234842804700,13.8208046875,-0.7186965346336365,-0.19981706142425537,-9.778238296508789
1775728234852875500,13.83087548828125,-0.7600295543670654,-0.17409662902355194,-9.775605201721191
1775728234862915800,13.840915771484376,-0.8384633660316467,-0.12887363135814667,-9.769890785217285
1775728234872956200,13.8509560546875,-0.8922288417816162,-0.10241583734750748,-9.765439987182617
1775728234883027000,13.86102685546875,-0.9179288148880005,-0.09190759062767029,-9.763164520263672
1775728234913178400,13.891178466796875,-1.0811123847961426,-0.024841012433171272,-9.746845245361328
1775728234923188000,13.90118798828125,-1.132184386253357,-0.006041326094418764,-9.741074562072754
1775728234933258800,13.9112587890625,-1.1788100004196167,0.010433131828904152,-9.735535621643066
1775728234943329500,13.92132958984375,-1.2201119661331177,0.02483808994293213,-9.73042106628418
1775728234953339400,13.93133935546875,-1.2575500011444092,0.03714169189333916,-9.725615501403809
1775728234963410200,13.94141015625,-1.2911025285720825,0.04651537537574768,-9.721175193786621
1775728234973450500,13.951450439453126,-1.3318109512329102,0.05198036506772041,-9.715657234191895
1775728235003632400,13.98163232421875,-1.3939368724822998,0.03507978841662407,-9.707014083862305
1775728235013703200,13.991703125,-1.4112296104431152,0.027144905179739,-9.70453929901123
1775728235023682600,14.0016826171875,-1.4203922748565674,0.018831249326467514,-9.703221321105957
1775728235033783800,14.01178369140625,-1.4346535205841064,0.006729892920702696,-9.701141357421875
1775728235043793400,14.02179345703125,-1.4514648914337158,-0.010728606954216957,-9.698636054992676
1775728235053833700,14.031833740234376,-1.4594401121139526,-0.021191256120800972,-9.697421073913574
1775728235063904500,14.041904541015626,-1.469619631767273,-0.03758563473820686,-9.69583511352539
1775728235073944800,14.05194482421875,-1.4782391786575317,-0.05074848234653473,-9.694465637207031
1775728235083954700,14.06195458984375,-1.4843168258666992,-0.06050678342580795,-9.693479537963867
1775728235114136600,14.092136474609376,-1.495883584022522,-0.0701926052570343,-9.691635131835938
1775728235124207400,14.102207275390626,-1.5010370016098022,-0.07559622079133987,-9.690797805786133
1775728235134247700,14.11224755859375,-1.506969690322876,-0.07937456667423248,-9.689848899841309
1775728235144318500,14.122318359375,-1.5128289461135864,-0.08281038701534271,-9.6889066696167
1775728235154358800,14.13235888671875,-1.5215672254562378,-0.08879267424345016,-9.687483787536621
1775728235164399000,14.142399169921875,-1.535140037536621,-0.10135697573423386,-9.685220718383789
1775728235174408700,14.15240869140625,-1.5537550449371338,-0.12095920741558075,-9.682023048400879
1775728235184479500,14.1624794921875,-1.5741099119186401,-0.14054390788078308,-9.678471565246582
1775728235234803000,14.212802978515626,-1.6909809112548828,-0.25928717851638794,-9.656279563903809
1775728235244843300,14.22284326171875,-1.7089836597442627,-0.28065234422683716,-9.65251350402832
1775728235254944800,14.23294482421875,-1.7259166240692139,-0.30044397711753845,-9.648903846740723
1775728235265015600,14.243015625,-1.7370885610580444,-0.31199410557746887,-9.646531105041504
1775728235275086300,14.25308642578125,-1.7548686265945435,-0.3300716280937195,-9.642712593078613
1775728235285126700,14.263126708984375,-1.7714637517929077,-0.3453367054462433,-9.639141082763672
1775728235295228000,14.273227783203126,-1.7864164113998413,-0.36201605200767517,-9.635770797729492
1775728235305268200,14.283268310546875,-1.799955129623413,-0.3754945397377014,-9.632735252380371
1775728235325440300,14.303440185546876,-1.8272277116775513,-0.4091629981994629,-9.62622356414795
1775728235345521000,14.32352099609375,-1.8395962715148926,-0.42924511432647705,-9.622994422912598
1775728235355561200,14.333561279296875,-1.8472089767456055,-0.4448968470096588,-9.62082576751709
1775728235365632000,14.343632080078125,-1.8539018630981445,-0.4608876407146454,-9.618783950805664
1775728235375641600,14.3536416015625,-1.8591899871826172,-0.47730305790901184,-9.616962432861328
1775728235385712400,14.36371240234375,-1.863552212715149,-0.49473437666893005,-9.615238189697266
1775728235395752700,14.373752685546876,-1.8661142587661743,-0.5120724439620972,-9.6138334274292
1775728235405823500,14.383823486328126,-1.8672155141830444,-0.5301271677017212,-9.612641334533691
1775728235415894300,14.393894287109376,-1.8675135374069214,-0.5505854487419128,-9.611433029174805
1775728235446045700,14.424045654296876,-1.8636925220489502,-0.624610185623169,-9.607648849487305
1775728235456147000,14.43414697265625,-1.8612310886383057,-0.6537252068519592,-9.606188774108887
1775728235466156800,14.44415673828125,-1.858094573020935,-0.6848793625831604,-9.60462474822998
1775728235476227600,14.4542275390625,-1.8544704914093018,-0.7344479560852051,-9.601664543151855
1775728235486268000,14.464267822265626,-1.8498352766036987,-0.7481754422187805,-9.601495742797852
1775728235496369200,14.474369140625,-1.8417291641235352,-0.7755810618400574,-9.600879669189453
1775728235506379000,14.48437890625,-1.8300644159317017,-0.8027812242507935,-9.600874900817871
1775728235516388900,14.494388916015625,-1.8216748237609863,-0.8292790651321411,-9.600218772888184
1775728235536530400,14.514530517578125,-1.7926229238510132,-0.8489791750907898,-9.603965759277344
1775728235576813600,14.5548134765625,-1.76253342628479,-0.8901181221008301,-9.60580825805664
1775728235596924700,14.574924560546876,-1.7488843202590942,-0.9021496176719666,-9.60718059539795
1775728235606934300,14.584934326171876,-1.7377736568450928,-0.9081339836120605,-9.608633041381836
1775728235627076000,14.605076171875,-1.719691514968872,-0.9097642302513123,-9.611730575561523
1775728235637116200,14.6151162109375,-1.7132506370544434,-0.9093965291976929,-9.612916946411133
1775728235667298000,14.645298095703126,-1.687963604927063,-0.9218813180923462,-9.616198539733887
1775728235677399600,14.655399658203125,-1.6807886362075806,-0.929040253162384,-9.616769790649414
1775728235687409200,14.6654091796875,-1.6708319187164307,-0.9434268474578857,-9.617103576660156
1775728235697449500,14.675449462890626,-1.6652297973632812,-0.9476219415664673,-9.617660522460938
1775728235707520300,14.685520263671876,-1.654942274093628,-0.9676067233085632,-9.617447853088379
1775728235717560600,14.695560546875,-1.648718237876892,-0.9737921357154846,-9.617890357971191
1775728235727601000,14.705600830078126,-1.6409803628921509,-0.9895111322402954,-9.6176118850708
1775728235767823000,14.745822998046876,-1.6120126247406006,-1.0501788854599,-9.616077423095703
1775728235777894000,14.755893798828126,-1.593947410583496,-1.0659229755401611,-9.61735725402832
1775728235787903700,14.76590380859375,-1.586437463760376,-1.0696096420288086,-9.618188858032227
1775728235798005000,14.7760048828125,-1.5734037160873413,-1.077724814414978,-9.619422912597656
1775728235808014600,14.7860146484375,-1.5615403652191162,-1.0835864543914795,-9.620699882507324
1775728235818116000,14.7961162109375,-1.5512100458145142,-1.0891133546829224,-9.621744155883789
1775728235828187000,14.806186767578126,-1.5421406030654907,-1.0942021608352661,-9.622626304626465
1775728235838257700,14.816257568359376,-1.5351070165634155,-1.0987404584884644,-9.623233795166016
1775728235878449400,14.856449462890625,-1.522017240524292,-1.1102405786514282,-9.623991966247559
1775728235888489500,14.866489501953126,-1.5215823650360107,-1.1127142906188965,-9.623775482177734
1775728235898591000,14.876591064453125,-1.5198060274124146,-1.114696979522705,-9.62382698059082
1775728235908570000,14.886570068359376,-1.5172511339187622,-1.1176027059555054,-9.623893737792969
1775728235918671400,14.89667138671875,-1.5142215490341187,-1.1196426153182983,-9.62413215637207
1775728235928681200,14.90668115234375,-1.5099679231643677,-1.1201515197753906,-9.624743461608887
1775728235938782500,14.916782470703126,-1.5074124336242676,-1.1184958219528198,-9.625336647033691
1775728235958863000,14.936863037109376,-1.505124568939209,-1.1150561571121216,-9.626092910766602
1775728235968934000,14.946933837890626,-1.5065736770629883,-1.1130402088165283,-9.626099586486816
1775728235979004700,14.957004638671876,-1.5089707374572754,-1.1112749576568604,-9.625926971435547
1775728235988984000,14.966984130859375,-1.5109943151474,-1.1094775199890137,-9.625818252563477
1775728235999085300,14.977085205078126,-1.5161901712417603,-1.1080082654953003,-9.62516975402832
1775728236009095000,14.987094970703126,-1.5152409076690674,-1.1082783937454224,-9.625288009643555
1775728236019166000,14.997166015625,-1.516511082649231,-1.1086527109146118,-9.625044822692871
1775728236029145000,15.00714501953125,-1.5216525793075562,-1.1107614040374756,-9.623991012573242
1775728236039246300,15.017246337890626,-1.5233757495880127,-1.1137187480926514,-9.62337589263916
1775728236069367300,15.0473671875,-1.521586537361145,-1.12898850440979,-9.621880531311035
1775728236089539300,15.067539306640626,-1.514001727104187,-1.1408032178878784,-9.621683120727539
1775728236099610000,15.077610107421876,-1.510750651359558,-1.1474045515060425,-9.621407508850098
1775728236109650400,15.087650390625,-1.5062235593795776,-1.1557637453079224,-9.621115684509277
1775728236119751700,15.097751708984376,-1.4969079494476318,-1.1724307537078857,-9.620553016662598
1775728236129761500,15.107761474609376,-1.4882441759109497,-1.1851192712783813,-9.620345115661621
1775728236139862800,15.11786279296875,-1.4803472757339478,-1.19331955909729,-9.620548248291016
1775728236190155800,15.16815576171875,-1.4061895608901978,-1.296315312385559,-9.61834716796875
1775728236200226600,15.1782265625,-1.3856968879699707,-1.3225764036178589,-9.617743492126465
1775728236210267000,15.188266845703126,-1.370115876197815,-1.336732268333435,-9.618020057678223
1775728236220368100,15.1983681640625,-1.347287893295288,-1.3651056289672852,-9.617259979248047
1775728236230378000,15.2083779296875,-1.3223084211349487,-1.3942312002182007,-9.61655044555664
1775728236240387800,15.218387939453125,-1.288791298866272,-1.4428420066833496,-9.613930702209473
1775728236250458600,15.228458740234375,-1.2605541944503784,-1.4766206741333008,-9.612543106079102
1775728236280579300,15.258579345703126,-1.1783242225646973,-1.5668182373046875,-9.608696937561035
1775728236290650000,15.268650146484376,-1.1359878778457642,-1.623300552368164,-9.604416847229004
1775728236300721000,15.278720947265626,-1.1037006378173828,-1.6633046865463257,-9.601339340209961
1775728236310761200,15.28876123046875,-1.0830495357513428,-1.6835905313491821,-9.600152969360352
1775728236320771000,15.29877099609375,-1.0476205348968506,-1.7253029346466064,-9.596677780151367
1775728236330841900,15.308841796875,-1.0110176801681519,-1.7666046619415283,-9.59308910369873
1775728236340851700,15.318851806640625,-0.9738976359367371,-1.8086090087890625,-9.58910083770752
1775728236350892000,15.32889208984375,-0.9351277947425842,-1.8511525392532349,-9.584840774536133
1775728236360901600,15.338901611328126,-0.8752508163452148,-1.9144419431686401,-9.578059196472168
1775728236401154300,15.379154296875,-0.6698705554008484,-2.08652400970459,-9.55866527557373
1775728236411225000,15.38922509765625,-0.6379536390304565,-2.110144853591919,-9.555663108825684
1775728236421295900,15.3992958984375,-0.5789753794670105,-2.1549460887908936,-9.549419403076172
1775728236431275300,15.409275146484376,-0.49184390902519226,-2.217123508453369,-9.540066719055176
1775728236441376500,15.41937646484375,-0.45448243618011475,-2.2422900199890137,-9.536036491394043
1775728236451447300,15.429447265625,-0.3663268983364105,-2.30018949508667,-9.526034355163574
1775728236461518000,15.43951806640625,-0.3340151011943817,-2.3221237659454346,-9.521899223327637
1775728236481537800,15.459537841796875,-0.22128567099571228,-2.389545202255249,-9.508496284484863
1775728236491577900,15.469577880859376,-0.16266776621341705,-2.4194207191467285,-9.50212287902832
1775728236501679400,15.479679443359375,-0.10138795524835587,-2.446834087371826,-9.495953559875488
1775728236511750100,15.489750244140625,-0.039365503937006,-2.4705135822296143,-9.490281105041504
1775728236521821000,15.499821044921875,0.05261632427573204,-2.4964048862457275,-9.483436584472656
1775728236531891700,15.5098916015625,0.08609277009963989,-2.5088348388671875,-9.479911804199219
1775728236541901300,15.5199013671875,0.1492544561624527,-2.524944305419922,-9.474849700927734
1775728236551941600,15.529941650390626,0.21180589497089386,-2.540886640548706,-9.46939468383789
1775728236562043100,15.540043212890625,0.2735632658004761,-2.5579278469085693,-9.463221549987793
1775728236602326300,15.580326171875,0.5423398613929749,-2.7017884254455566,-9.411513328552246
1775728236612397000,15.59039697265625,0.5701602101325989,-2.7309908866882324,-9.401435852050781
1775728236622467800,15.6004677734375,0.6465829014778137,-2.77978777885437,-9.382168769836426
1775728236632477700,15.610477783203125,0.6734644770622253,-2.802255630493164,-9.373590469360352
1775728236642548500,15.620548583984375,0.7256158590316772,-2.8359262943267822,-9.3595609664917
1775728236652558000,15.63055810546875,0.7775371670722961,-2.8666882514953613,-9.346013069152832
1775728236662659600,15.64065966796875,0.8295023441314697,-2.895885705947876,-9.332531929016113
1775728236692810800,15.670810791015626,0.9856488704681396,-2.970947504043579,-9.293671607971191
1775728236702881500,15.680881591796876,1.0674725770950317,-2.9975697994232178,-9.276070594787598
1775728236712891400,15.690891357421876,1.0880366563796997,-3.0027451515197754,-9.272006034851074
1775728236722992600,15.70099267578125,1.139725923538208,-3.0180513858795166,-9.260819435119629
1775728236733033000,15.711032958984376,1.1878247261047363,-3.035109758377075,-9.24919319152832
1775728236743073300,15.7210732421875,1.2313565015792847,-3.055152654647827,-9.236893653869629
1775728236753144000,15.73114404296875,1.2958552837371826,-3.092684507369995,-9.215556144714355
1775728236763214800,15.74121484375,1.3285154104232788,-3.1200084686279297,-9.201684951782227
1775728236773285600,15.75128564453125,1.3297169208526611,-3.128798723220825,-9.198524475097656
1775728236803437000,15.78143701171875,1.294386863708496,-3.18314528465271,-9.18490982055664
1775728236813477400,15.791477294921876,1.2564994096755981,-3.1946611404418945,-9.186171531677246
1775728236823548200,15.801548095703126,1.222859501838684,-3.216050386428833,-9.183248519897461
1775728236833588500,15.81158837890625,1.197962999343872,-3.247727632522583,-9.175374984741211
1775728236853669000,15.831669189453125,1.201786994934082,-3.3519129753112793,-9.137328147888184
1775728236863740000,15.841739990234375,1.1959662437438965,-3.3779304027557373,-9.128507614135742
1775728236873810700,15.851810791015625,1.1891818046569824,-3.3841445446014404,-9.127091407775879
1775728236904053500,15.882053466796876,1.1532518863677979,-3.406270742416382,-9.1234712600708
1775728236924195000,15.902195068359376,1.1185511350631714,-3.3835699558258057,-9.13623046875
1775728236934265900,15.912265869140626,1.0994439125061035,-3.3662283420562744,-9.144949913024902
1775728236944336600,15.922336669921876,1.070704698562622,-3.3379533290863037,-9.158714294433594
1775728236954377000,15.932376953125,1.0519925355911255,-3.3187320232391357,-9.167864799499512
1775728236974518500,15.9525185546875,1.0135897397994995,-3.2819464206695557,-9.185416221618652
1775728236984528400,15.9625283203125,1.0206578969955444,-3.27067494392395,-9.188651084899902
1775728237014618600,15.99261865234375,0.9845331907272339,-3.2071118354797363,-9.214961051940918
1775728237024720100,16.00272021484375,0.9666216969490051,-3.179353952407837,-9.226469039916992
1775728237034760400,16.012760498046877,0.9449530243873596,-3.1460800170898438,-9.24010944366455
1775728237044800500,16.022800537109376,0.9202474355697632,-3.107581853866577,-9.25561809539795
1775728237054810400,16.032810302734376,0.8940075635910034,-3.0657846927642822,-9.272115707397461
1775728237064881200,16.042881103515626,0.8701149225234985,-3.0225372314453125,-9.288570404052734
1775728237074952000,16.052951904296876,0.8501862287521362,-2.9812450408935547,-9.303750991821289
1775728237084992300,16.0629921875,0.8349733352661133,-2.9441354274749756,-9.316934585571289
1775728237105011700,16.08301171875,0.7941191792488098,-2.87545108795166,-9.34192180633545
1775728237115021600,16.093021484375,0.8102987408638,-2.8862648010253906,-9.337198257446289
1775728237125122800,16.103122802734376,0.8000092506408691,-2.8698720932006836,-9.34313678741455
1775728237135193600,16.113193603515626,0.7900380492210388,-2.856921911239624,-9.347951889038086
1775728237145264400,16.123264404296876,0.7502850294113159,-2.8197124004364014,-9.362515449523926
1775728237155335200,16.133335205078126,0.7481963634490967,-2.8163788318634033,-9.363686561584473
1775728237165406000,16.143406005859376,0.7298954129219055,-2.8006937503814697,-9.369831085205078
1775728237175477000,16.15347705078125,0.7146876454353333,-2.7887227535247803,-9.37457275390625
1775728237185547800,16.1635478515625,0.7024231553077698,-2.7831618785858154,-9.377153396606445
1775728237205689300,16.183689453125,0.6831660866737366,-2.785404920578003,-9.377909660339355
1775728237215760100,16.193760009765626,0.6794120073318481,-2.7922401428222656,-9.376150131225586
1775728237225831000,16.203830810546876,0.6820145845413208,-2.802825450897217,-9.372801780700684
1775728237235840800,16.2138408203125,0.6910390257835388,-2.816265106201172,-9.368111610412598
1775728237245942000,16.22394189453125,0.7089847326278687,-2.8347434997558594,-9.36119556427002
1775728237255951600,16.23395166015625,0.7366223931312561,-2.8611583709716797,-9.351017951965332
1775728237266053000,16.24405322265625,0.7738742828369141,-2.8962182998657227,-9.337207794189453
1775728237276124000,16.2541240234375,0.818922221660614,-2.9384448528289795,-9.32015609741211
1775728237286225200,16.26422509765625,0.8970274925231934,-3.0070571899414062,-9.291036605834961
1775728237336579000,16.3145791015625,1.2127081155776978,-3.1965410709381104,-9.191401481628418
1775728237346649900,16.32464990234375,1.2863690853118896,-3.2399051189422607,-9.166169166564941
1775728237356721000,16.334720947265627,1.354501485824585,-3.284810781478882,-9.140336036682129
1775728237366822100,16.344822265625,1.4171581268310547,-3.32957124710083,-9.114605903625488
1775728237376893000,16.354892822265626,1.4752870798110962,-3.3710873126983643,-9.090087890625
1775728237386963700,16.364963623046876,1.5623139142990112,-3.432047128677368,-9.052658081054688
1775728237417176000,16.395176025390626,1.722656488418579,-3.538890838623047,-8.982154846191406
1775728237437317600,16.415317626953126,1.824465274810791,-3.6298906803131104,-8.925559043884277
1775728237447388400,16.425388427734376,1.8566315174102783,-3.668940544128418,-8.902931213378906
1775728237457398300,16.435398193359376,1.8479548692703247,-3.6793720722198486,-8.900430679321289
1775728237467469000,16.445468994140626,1.8534125089645386,-3.692502498626709,-8.893856048583984
1775728237477479000,16.45547900390625,1.8494998216629028,-3.6905221939086914,-8.895492553710938
1775728237487580200,16.465580078125,1.8328055143356323,-3.651395559310913,-8.915071487426758
1775728237497651000,16.47565087890625,1.8229873180389404,-3.6077072620391846,-8.93485164642334
1775728237517731600,16.495731689453127,1.807639241218567,-3.4889111518859863,-8.985006332397461
1775728237537873200,16.515873046875,1.7828665971755981,-3.368809223175049,-9.035645484924316
1775728237547883000,16.525883056640627,1.759765386581421,-3.2749440670013428,-9.074599266052246
1775728237557984300,16.535984375,1.7353569269180298,-3.1756389141082764,-9.114508628845215
1775728237568085500,16.54608544921875,1.7117829322814941,-3.0758376121520996,-9.15311050415039
1775728237578156300,16.55615625,1.684741735458374,-2.944592237472534,-9.201164245605469
1775728237588196600,16.566196533203126,1.6664035320281982,-2.8694961071014404,-9.228191375732422
1775728237598297900,16.5762978515625,1.6417045593261719,-2.8021464347839355,-9.253278732299805
1775728237628418800,16.606418701171876,1.5460546016693115,-2.6634411811828613,-9.310542106628418
1775728237648560400,16.626560302734376,1.4794799089431763,-2.5938403606414795,-9.340959548950195
1775728237658631200,16.636631103515626,1.4660835266113281,-2.580019950866699,-9.346898078918457
1775728237668671500,16.64667138671875,1.492295265197754,-2.611345052719116,-9.334043502807617
1775728237678681300,16.656681396484377,1.4985805749893188,-2.61662220954895,-9.331555366516113
1775728237688721400,16.666721435546876,1.5032143592834473,-2.620201826095581,-9.329806327819824
1775728237698792200,16.676792236328126,1.5191045999526978,-2.627368688583374,-9.325216293334961
1775728237728913200,16.7069130859375,1.537590742111206,-2.6581687927246094,-9.31344985961914
1775728237738892300,16.716892333984376,1.5419418811798096,-2.67941951751709,-9.306638717651367
1775728237748963300,16.72696337890625,1.5459513664245605,-2.70736026763916,-9.297882080078125
1775728237759003400,16.73700341796875,1.5512410402297974,-2.7431294918060303,-9.286511421203613
1775728237769074200,16.74707421875,1.561089038848877,-2.7861738204956055,-9.272034645080566
1775728237779053600,16.757053466796876,1.5770167112350464,-2.832195997238159,-9.25538158416748
1775728237789094000,16.767093994140627,1.5997692346572876,-2.8785219192504883,-9.237165451049805
1775728237799164700,16.77716455078125,1.6462877988815308,-2.9436705112457275,-9.208415985107422
1775728237809235500,16.7872353515625,1.6647361516952515,-2.9653069972991943,-9.198152542114258
1775728237839417300,16.817417236328126,1.7988722324371338,-3.0686891078948975,-9.13879680633545
1775728237849488100,16.827488037109376,1.8554255962371826,-3.0911953449249268,-9.119884490966797
1775728237859559000,16.837558837890626,1.948631763458252,-3.1087236404418945,-9.094451904296875
1775728237869599200,16.84759912109375,1.9840184450149536,-3.110363721847534,-9.086237907409668
1775728237879639600,16.8576396484375,2.101547956466675,-3.1154494285583496,-9.058028221130371
1775728237889710300,16.86771044921875,2.150587797164917,-3.1267058849334717,-9.042625427246094
1775728237899781000,16.877781005859376,2.238495349884033,-3.164475679397583,-9.008085250854492
1775728237909790700,16.887790771484376,2.319509744644165,-3.187844753265381,-8.979304313659668
1775728237940033800,16.91803369140625,2.547964572906494,-3.2108728885650635,-8.908904075622559
1775728237950104600,16.9281044921875,2.649796485900879,-3.2026913166046143,-8.882102966308594
1775728237960175400,16.93817529296875,2.7659668922424316,-3.202200174331665,-8.846793174743652
1775728237970246100,16.94824609375,2.9261205196380615,-3.247946262359619,-8.778327941894531
1775728237980256000,16.958256103515627,3.012864112854004,-3.309918165206909,-8.725679397583008
1775728237990326800,16.968326904296877,3.082383394241333,-3.3928208351135254,-8.6693754196167
1775728238000397600,16.9783974609375,3.1338791847229004,-3.4974076747894287,-8.609142303466797
1775728238010468400,16.98846826171875,3.1670730113983154,-3.6272788047790527,-8.54300308227539
1775728238020539100,16.9985390625,3.1831905841827393,-3.7813522815704346,-8.469893455505371
1775728238030610000,17.00860986328125,3.1865673065185547,-3.8643484115600586,-8.431073188781738
1775728238070862600,17.048862548828126,3.2022242546081543,-4.6898627281188965,-7.995081901550293
