time,seconds_elapsed,z,y,x
1775728220719732000,-0.30226806640625,0.272938996553421,-0.22026655077934265,-0.24420857429504395
1775728220729502700,-0.292497314453125,4.333505153656006,-1.6735470294952393,2.784456491470337
1775728220739243000,-0.282757080078125,0.11013327538967133,-0.2753331959247589,0.10773907601833344
1775728220748914000,-0.273086181640625,0.272938996553421,-0.507570743560791,0.06464344263076782
1775728220758754000,-0.263245849609375,0.33997663855552673,-0.4692635238170624,-0.08619125932455063
1775728220768625000,-0.253375,0.3471592366695404,-0.47405192255973816,-0.026336219161748886
1775728220778695700,-0.24330419921875,0.5339069962501526,-0.5434837937355042,-0.043095629662275314
1775728220788797200,-0.233202880859375,0.6224924325942993,-0.24181437492370605,-0.16519992053508759
1775728220798837200,-0.223162841796875,0.667982280254364,-0.10534487664699554,-0.1843535304069519
1775728220808908300,-0.213091796875,0.689530074596405,0.12928688526153564,-0.14844051003456116
1775728220818979000,-0.20302099609375,0.6129156351089478,0.014365210197865963,-0.22505496442317963
1775728220879281700,-0.14271826171875,-0.033518824726343155,-1.036689281463623,-0.26096799969673157
1775728220899353900,-0.122646240234375,-0.016759412363171577,-0.4381389021873474,-0.2968810200691223
1775728220919495400,-0.102504638671875,-0.11971008777618408,0.1628057211637497,-0.016759412363171577
1775728220939637000,-0.082363037109375,-0.13168109953403473,0.2513911724090576,-0.08379705995321274
1775728220949707800,-0.072292236328125,-0.0454898327589035,0.26575639843940735,-0.12689268589019775
1775728220959778600,-0.062221435546875,-0.043095629662275314,0.1364694982767105,-0.047884032130241394
1775728220969849300,-0.052150634765625,-0.004788403399288654,-0.0071826050989329815,-0.14604631066322327
1775728220979889700,-0.0421103515625,0.12449848651885986,-0.033518824726343155,-0.2537853717803955
1775728220989960400,-0.03203955078125,0.1364694982767105,-0.272938996553421,-0.24181437492370605
1775728220999970300,-0.02202978515625,0.12928688526153564,-0.13168109953403473,-0.23942017555236816
1775728221010041000,-0.011958984375,0.0071826050989329815,-0.1843535304069519,-0.07422025501728058
1775728221020081400,-0.001918701171875,-0.021547814831137657,-0.20350714027881622,-0.021547814831137657
1775728221030152200,0.008152099609375,-0.004788403399288654,-0.2585737705230713,-0.05267243832349777
1775728221040223000,0.018222900390625,0.13407529890537262,-0.2753331959247589,-0.12928688526153564
1775728221070465800,0.0484658203125,0.12928688526153564,-0.11252748221158981,-0.016759412363171577
1775728221080506000,0.058506103515625,0.1604115068912506,0.035913024097681046,0.05027823522686958
1775728221090546400,0.06854638671875,0.2059013396501541,0.0694318488240242,0.014365210197865963
1775728221100556300,0.078556396484375,0.15801730751991272,-0.1388636976480484,0.040701430290937424
1775728221110627000,0.088626953125,0.20111294090747833,-0.009576806798577309,0.0454898327589035
1775728221120697900,0.09869775390625,0.26336219906806946,-0.06703764945268631,-0.07182604819536209
1775728221130768600,0.1087685546875,0.33997663855552673,-0.038307227194309235,-0.09576806426048279
1775728221171021300,0.149021240234375,-0.004788403399288654,0.031124621629714966,0.12449848651885986
1775728221191193300,0.169193359375,0.021547814831137657,-0.19871874153614044,0.2082955539226532
1775728221211335000,0.1893349609375,0.1412578970193863,-0.5626373887062073,-0.12449848651885986
1775728221221406000,0.199406005859375,0.10295066982507706,-0.47165772318840027,-0.09576806426048279
1775728221231476700,0.209476806640625,0.10295066982507706,-0.2777273952960968,0.023942016065120697
1775728221241516800,0.219516845703125,0.16519992053508759,-0.019153613597154617,-0.002394201699644327
1775728221251587800,0.229587890625,0.40940847992897034,0.047884032130241394,-0.11252748221158981
1775728221281800200,0.25980029296875,0.3878606855869293,-0.016759412363171577,-0.3758896589279175
1775728221291901400,0.2699013671875,0.11971008777618408,-0.05746084079146385,-0.1412578970193863
1775728221301911300,0.279911376953125,-0.019153613597154617,-0.24899697303771973,-0.05985504388809204
1775728221311982000,0.289982177734375,-0.09576806426048279,-0.1867477297782898,-0.07900865375995636
1775728221322052900,0.300052978515625,-0.1867477297782898,-0.16759411990642548,-0.043095629662275314
1775728221342194400,0.3201943359375,-0.1149216815829277,-0.363918662071228,-0.023942016065120697
1775728221362275000,0.340275146484375,0.11971008777618408,-0.2777273952960968,0.028730420395731926
1775728221392548400,0.37054833984375,0.26096799969673157,-0.07661445438861847,0.011971008032560349
1775728221402619100,0.380619140625,0.26336219906806946,-0.4572925269603729,-0.1173158809542656
1775728221412690000,0.39068994140625,0.4165911078453064,-0.2825157940387726,-0.13168109953403473
1775728221422760700,0.4007607421875,0.3016694188117981,-0.3902548849582672,-0.016759412363171577
1775728221432831500,0.41083154296875,0.3232172429561615,-0.45250412821769714,0.05027823522686958
1775728221442902500,0.420902587890625,0.26575639843940735,-0.44771572947502136,0.031124621629714966
1775728221452912000,0.430912109375,0.2561795711517334,-0.4429273009300232,0.016759412363171577
1775728221483124500,0.46112451171875,0.18914192914962769,0.06224924325942993,-0.12689268589019775
1775728221513337000,0.491337158203125,-0.0933738648891449,0.8858546018600464,-0.3447650372982025
1775728221523438300,0.501438232421875,-0.3447650372982025,0.8690952062606812,-0.22505496442317963
1775728221533478700,0.511478759765625,-0.8451532125473022,0.47405192255973816,-0.07661445438861847
1775728221543549400,0.521549560546875,-0.9265560507774353,0.1149216815829277,0.13407529890537262
1775728221553589800,0.53158984375,-0.7541735172271729,0.3256114423274994,0.07900865375995636
1775728221573700900,0.551700927734375,-0.7445967197418213,0.3280056416988373,-0.19632454216480255
1775728221593750800,0.571750732421875,-1.2401964664459229,1.5897499322891235,-0.9074024558067322
1775728221613953500,0.59195361328125,-0.8427590131759644,0.6847416758537292,-1.139639973640442
1775728221624024300,0.6020244140625,-0.5937620401382446,0.5817909836769104,-0.9217676520347595
1775728221634064600,0.612064697265625,-0.6105214357376099,0.2322375625371933,-0.7709329724311829
1775728221644166000,0.622165771484375,-0.4357447028160095,-0.14365209639072418,-0.9409212470054626
1775728221654236700,0.632236572265625,-0.13407529890537262,-0.4189853072166443,-1.4700398445129395
1775728221664307500,0.642307373046875,0.17956513166427612,0.17717093229293823,-1.7764976024627686
1775728221684418600,0.66241845703125,0.7972691655158997,2.5713725090026855,-1.5442601442337036
1775728221694459000,0.672458984375,0.8044517636299133,2.5091233253479004,-1.845929503440857
1775728221704529700,0.68252978515625,0.9648633003234863,2.0422539710998535,-2.451662540435791
1775728221714570000,0.692570068359375,0.8164227604866028,1.5107412338256836,-2.8419175148010254
1775728221724610000,0.702610107421875,0.6177040338516235,1.3192051649093628,-3.1292216777801514
1775728221734711600,0.712711669921875,0.31364041566848755,1.1635819673538208,-2.942473888397217
1775728221744782300,0.7227822265625,-0.3447650372982025,0.8212111592292786,-2.31758713722229
1775728221764893400,0.7428935546875,-1.4652514457702637,-0.3447650372982025,-1.601720929145813
1775728221785004500,0.763004638671875,-2.293645143508911,-0.42616790533065796,-0.7254431247711182
1775728221795075300,0.773075439453125,-2.449268341064453,-0.6105214357376099,-0.17238251864910126
1775728221805115600,0.78311572265625,-2.63362193107605,-0.45489832758903503,0.20350714027881622
1775728221815186400,0.7931865234375,-3.028665065765381,-0.31364041566848755,0.6488286852836609
1775728221825226800,0.803226806640625,-3.021482467651367,-0.49799394607543945,0.28730419278144836
1775728221835297500,0.813297607421875,-2.4588451385498047,-0.5626373887062073,-0.6200982332229614
1775728221845307100,0.82330712890625,-1.6735470294952393,-0.45489832758903503,-1.256955862045288
1775728221855408600,0.83340869140625,-1.4724340438842773,-0.15322890877723694,-1.278503656387329
1775728221895630600,0.873630615234375,-1.3287819623947144,0.19632454216480255,-0.16519992053508759
1775728221905701400,0.883701416015625,-1.7046716213226318,-0.10055647045373917,0
1775728221915741700,0.89374169921875,-2.051830768585205,-0.3902548849582672,-0.10295066982507706
1775728221925782000,0.903781982421875,-2.27209734916687,-0.667982280254364,-0.10055647045373917
1775728221935852800,0.913852783203125,-2.2002713680267334,-0.5985504388809204,-0.08858546614646912
1775728221945893000,0.92389306640625,-2.078166961669922,-0.5195417404174805,-0.023942016065120697
1775728221955964000,0.9339638671875,-1.7118542194366455,-0.2585737705230713,-0.043095629662275314
1775728221976136000,0.954135986328125,-0.9050082564353943,0.009576806798577309,0.08619125932455063
1775728221996247000,0.9742470703125,-0.304063618183136,0,-0.10534487664699554
1775728222006287400,0.984287353515625,-0.10055647045373917,-0.05985504388809204,-0.1364694982767105
1775728222026429000,1.004428955078125,-0.40222588181495667,-1.1061211824417114,-0.05267243832349777
1775728222036499700,1.014499755859375,-0.4644751250743866,-1.2952631711959839,0.047884032130241394
1775728222046540000,1.0245400390625,-0.40462008118629456,-1.2306196689605713,0.11971008777618408
1775728222056580400,1.034580322265625,-0.1364694982767105,-1.0630255937576294,0.07422025501728058
1775728222066590200,1.044590087890625,-0.10055647045373917,-1.2330138683319092,0.05506663769483566
1775728222086762200,1.06476220703125,0.16519992053508759,-1.460463047027588,0.2322375625371933
1775728222106903800,1.08490380859375,-0.12689268589019775,-0.5410895943641663,0.15083470940589905
1775728222116974600,1.094974609375,0.06703764945268631,-0.23942017555236816,0.1867477297782898
1775728222127015000,1.105014892578125,0.11252748221158981,-0.16519992053508759,0.31603461503982544
1775728222147156500,1.125156494140625,0.45250412821769714,-0.689530074596405,0.11971008777618408
1775728222157227300,1.135227294921875,0.629675030708313,-0.6224924325942993,0.0694318488240242
1775728222177399600,1.155399658203125,0.6057330369949341,-0.5386953949928284,-0.021547814831137657
1775728222187470300,1.16547021484375,0.507570743560791,-0.5195417404174805,-0.09576806426048279
1775728222197510700,1.1755107421875,0.6200982332229614,-0.6057330369949341,-0.15562310814857483
1775728222207581400,1.18558154296875,0.7182605266571045,-0.5961562395095825,-0.23702596127986908
1775728222217652200,1.19565234375,0.6943184733390808,-0.4596867263317108,-0.2059013396501541
1775728222227723000,1.205722900390625,0.8140285611152649,-0.26575639843940735,-0.3016694188117981
1775728222237824300,1.21582421875,0.8906430602073669,0.15322890877723694,-0.1604115068912506
1775728222247895000,1.22589501953125,0.9145850539207458,0.3232172429561615,-0.10295066982507706
1775728222257965800,1.2359658203125,0.9002198576927185,0.3663128614425659,-0.08858546614646912
1775728222268036600,1.24603662109375,0.9050082564353943,0.22505496442317963,-0.1173158809542656
1775728222278077000,1.256076904296875,0.8307880163192749,0.3280056416988373,-0.15322890877723694
1775728222298249200,1.276249267578125,0.8667010068893433,0.14604631066322327,-0.26096799969673157
1775728222308320000,1.286320068359375,0.8882488012313843,0.1388636976480484,-0.40701428055763245
1775728222318390800,1.296390869140625,1.1803414821624756,0.15083470940589905,-0.4836287498474121
1775728222328461600,1.306461669921875,1.534683346748352,-0.0071826050989329815,-0.6368576288223267
1775728222338502000,1.316501953125,1.5753847360610962,-0.18914192914962769,-0.8619126081466675
1775728222348511500,1.326511474609375,1.5155296325683594,-0.49320554733276367,-0.9552865028381348
1775728222358612700,1.33661279296875,1.4197616577148438,-0.828393816947937,-1.0295066833496094
1775728222368683800,1.346683837890625,1.3024457693099976,-0.49799394607543945,-0.8786720037460327
1775728222378754600,1.356754638671875,1.1180921792984009,-0.05027823522686958,-0.7110779285430908
1775728222438996200,1.416996337890625,1.3838485479354858,0.6823474764823914,-0.5267243981361389
1775728222449036500,1.42703662109375,1.3982137441635132,0.8451532125473022,-0.48602294921875
1775728222459137800,1.4371376953125,1.292868971824646,0.8690952062606812,-0.45489832758903503
1775728222479249000,1.457248779296875,1.0630255937576294,0.507570743560791,-0.3064578175544739
1775728222499360000,1.477360107421875,0.9816226959228516,0.9169792532920837,-0.5363011956214905
1775728222509430800,1.4874306640625,0.9720458984375,1.0678139925003052,-0.6129156351089478
1775728222529450200,1.5074501953125,0.871489405632019,0.9696516990661621,-0.5626373887062073
1775728222559693000,1.537693115234375,0.5674257874488831,0.6655880808830261,-0.6105214357376099
1775728222569764000,1.54776416015625,0.5506663918495178,0.5722141861915588,-0.6871358752250671
1775728222579835000,1.5578349609375,0.43095630407333374,0.6440402865409851,-0.6105214357376099
1775728222589875000,1.567875,0.395043283700943,0.5578489899635315,-0.5434837937355042
1775728222599976400,1.5779765625,0.35673606395721436,0.6200982332229614,-0.6560112833976746
1775728222630158300,1.608158447265625,0.12689268589019775,0.6033388376235962,-0.48602294921875
1775728222640259600,1.618259521484375,0.12210428714752197,0.5027823448181152,-0.4692635238170624
1775728222660401200,1.638401123046875,-0.15801730751991272,0.18914192914962769,-0.4141969084739685
1775728222680542700,1.658542724609375,-0.24420857429504395,0.019153613597154617,-0.4812345504760742
1775728222690613500,1.668613525390625,-0.15322890877723694,0.23942017555236816,-0.5051765441894531
1775728222700715000,1.678715087890625,-0.17956513166427612,0.2777273952960968,-0.4165911078453064
1775728222741059000,1.71905908203125,-0.3064578175544739,0.5171475410461426,-0.35673606395721436
1775728222751069000,1.72906884765625,-0.3256114423274994,0.5650315880775452,-0.31842881441116333
1775728222761139700,1.7391396484375,-0.31124621629714966,0.40222588181495667,-0.2513911724090576
1775728222771210500,1.74921044921875,-0.2801215946674347,0.3998316824436188,-0.24899697303771973
1775728222781281300,1.75928125,-0.2537853717803955,0.30885201692581177,-0.44771572947502136
1775728222791352000,1.76935205078125,-0.2537853717803955,0.2849099934101105,-0.5913678407669067
1775728222801453300,1.779453369140625,-0.24660277366638184,0.4381389021873474,-0.7254431247711182
1775728222811524400,1.7895244140625,-0.22026655077934265,0.40222588181495667,-0.7637503147125244
1775728222831666000,1.809666015625,-0.1843535304069519,0.31124621629714966,-0.8020575642585754
1775728222851807500,1.829807373046875,-0.15801730751991272,0.2992752194404602,-0.8858546018600464
1775728222861878300,1.839878173828125,-0.15322890877723694,0.2849099934101105,-0.8834604024887085
1775728222871949000,1.849948974609375,-0.14844051003456116,0.40222588181495667,-0.8020575642585754
1775728222882050300,1.86005029296875,-0.15083470940589905,0.3902548849582672,-0.7876923680305481
1775728222892121000,1.87012109375,-0.16998831927776337,0.35434186458587646,-0.8643068075180054
1775728222902222600,1.88022265625,-0.038307227194309235,0.5386953949928284,-0.9792284965515137
1775728222912262700,1.8902626953125,0.002394201699644327,0.5315127968788147,-0.9840168952941895
1775728222942475300,1.920475341796875,0.19393034279346466,0.2753331959247589,-1.173158884048462
1775728222962616800,1.940616943359375,0.17238251864910126,0.24181437492370605,-1.161187767982483
1775728222972626400,1.95062646484375,0.20350714027881622,0.272938996553421,-1.1324573755264282
1775728222982697200,1.960697265625,0.49799394607543945,0.12449848651885986,-1.1779472827911377
1775728222992707000,1.97070703125,0.5626373887062073,-0.047884032130241394,-1.3239935636520386
1775728223002777900,1.98077783203125,0.6320692300796509,0.05746084079146385,-1.3623007535934448
1775728223012787700,1.99078759765625,0.6967126727104187,0.2346317619085312,-1.2617442607879639
1775728223022858500,2.0008583984375,0.7757213711738586,0.37828385829925537,-1.158793568611145
1775728223053040400,2.031040283203125,0.7565677165985107,0.3232172429561615,-0.7757213711738586
1775728223063141600,2.0411416015625,0.8762778043746948,0.33758243918418884,-0.569819986820221
1775728223073182000,2.051181884765625,1.0007762908935547,0.45489832758903503,-0.5961562395095825
1775728223093354000,2.07135400390625,1.5945383310317993,-0.15562310814857483,-0.9074024558067322
1775728223103424800,2.0814248046875,1.6496049165725708,-0.2082955539226532,-0.9792284965515137
1775728223113434600,2.0914345703125,1.5155296325683594,0.07900865375995636,-0.9911994934082031
1775728223123505400,2.10150537109375,1.4173674583435059,0.2825157940387726,-0.7158663272857666
1775728223133576200,2.111576171875,1.3527239561080933,0.05746084079146385,-0.44771572947502136
1775728223163758000,2.141758056640625,1.4987702369689941,-0.629675030708313,-0.21308395266532898
1775728223204041200,2.182041259765625,2.1380221843719482,-0.8571242094039917,0.1149216815829277
1775728223224152300,2.20215234375,1.9919757843017578,-1.091755986213684,0.7493851184844971
1775728223234192600,2.212192626953125,1.968033790588379,-1.0295066833496094,0.9624691009521484
1775728223244263400,2.222263427734375,2.0039467811584473,-1.0965443849563599,1.070208191871643
1775728223254334200,2.232334228515625,1.9393033981323242,-1.1109095811843872,1.1300631761550903
1775728223274445300,2.2524453125,1.9752163887023926,-0.6991068720817566,0.9552865028381348
1775728223284516000,2.26251611328125,2.1068975925445557,-0.3687070608139038,1.091755986213684
1775728223294526000,2.27252587890625,2.10210919380188,-0.21308395266532898,1.2425906658172607
1775728223304535800,2.282535888671875,1.965639591217041,0.026336219161748886,1.359906554222107
1775728223314545400,2.29254541015625,1.7717092037200928,0.1843535304069519,1.400607943534851
1775728223324647000,2.30264697265625,1.6160861253738403,0.28730419278144836,1.4293384552001953
1775728223334656500,2.312656494140625,1.4891934394836426,0.38307225704193115,1.3934253454208374
1775728223344727300,2.322727294921875,1.2258312702178955,0.14604631066322327,1.2090718746185303
1775728223364838400,2.34283837890625,0.9074024558067322,0.21308395266532898,0.8762778043746948
1775728223384949500,2.362949462890625,0.3711012601852417,0.9792284965515137,0.811634361743927
1775728223394989800,2.37298974609375,0.12928688526153564,1.338358759880066,0.7924807667732239
1775728223405060600,2.383060546875,-0.23942017555236816,1.5131354331970215,0.6967126727104187
1775728223415131400,2.39313134765625,-0.5315127968788147,1.5131354331970215,0.5913678407669067
1775728223425202200,2.4032021484375,-0.7637503147125244,1.41257905960083,0.5602431893348694
1775728223435181600,2.413181640625,-0.9768342971801758,1.2713210582733154,0.26096799969673157
1775728223445282800,2.42328271484375,-1.2880805730819702,1.2832920551300049,-0.10773907601833344
1775728223465424400,2.44342431640625,-1.944091796875,1.4173674583435059,-0.9361328482627869
1775728223485535500,2.463535400390625,-2.3702597618103027,1.173158884048462,-1.2042834758758545
1775728223495514600,2.4735146484375,-2.5474305152893066,1.2641384601593018,-0.9888052940368652
1775728223515595300,2.49359521484375,-3.227383852005005,1.3766659498214722,-0.7565677165985107
1775728223525635600,2.503635498046875,-3.3662476539611816,1.4293384552001953,-0.47405192255973816
1775728223535676000,2.513676025390625,-3.5218706130981445,1.6280571222305298,-0.21547815203666687
1775728223545716200,2.52371630859375,-3.663128614425659,1.7980455160140991,-0.22266076505184174
1775728223555756300,2.53375634765625,-3.5865142345428467,2.1332337856292725,-0.18914192914962769
1775728223565827300,2.543827392578125,-3.751713991165161,2.3558945655822754,-0.35913026332855225
1775728223575898000,2.553898193359375,-3.8570590019226074,2.2673089504241943,-0.751779317855835
1775728223585969000,2.563968994140625,-3.9671921730041504,2.056619167327881,-1.2090718746185303
1775728223595978500,2.573978515625,-4.072536945343018,1.8339585065841675,-1.5059528350830078
1775728223616120000,2.5941201171875,-4.230554580688477,1.9704279899597168,-2.2864625453948975
1775728223636231200,2.614231201171875,-4.5609540939331055,1.3934253454208374,-3.181894063949585
1775728223646332700,2.624332763671875,-4.671087741851807,0.8188169598579407,-3.648763418197632
1775728223656403500,2.634403564453125,-4.924872875213623,0.6655880808830261,-3.6176388263702393
1775728223676514600,2.6545146484375,-5.109226226806641,-0.2825157940387726,-2.6623523235321045
1775728223686615800,2.66461572265625,-4.6040496826171875,-0.5985504388809204,-2.7269957065582275
1775728223696686600,2.6746865234375,-3.84269380569458,-0.8786720037460327,-2.9448680877685547
1775728223706757400,2.68475732421875,-3.220201253890991,-1.259350061416626,-3.272873640060425
1775728223716797700,2.694797607421875,-2.7030537128448486,-1.4724340438842773,-3.375824451446533
1775728223726899000,2.70489892578125,-2.2673089504241943,-1.4053963422775269,-3.1292216777801514
1775728223736939300,2.714939208984375,-2.0661959648132324,-1.2545616626739502,-2.8131868839263916
1775728223747010000,2.725010009765625,-1.9153614044189453,-0.9097966551780701,-2.535459518432617
1775728223757080800,2.735080810546875,-1.6974890232086182,-0.6512228846549988,-2.3918075561523438
1775728223767151600,2.745151611328125,-1.6376339197158813,-0.5674257874488831,-2.31758713722229
1775728223837586200,2.815586181640625,0.790086567401886,-0.7374141216278076,-1.558625340461731
1775728223857636400,2.83563623046875,1.0749965906143188,-0.7876923680305481,-0.7398083209991455
1775728223877808400,2.855808349609375,1.2880805730819702,-0.5530605912208557,0.23702596127986908
1775728223887909600,2.86590966796875,1.2761094570159912,-1.1875240802764893,0.7469909191131592
1775728223897980400,2.87598046875,1.479616641998291,-1.4748282432556152,0.9193734526634216
1775728223907990300,2.885990234375,1.5203180313110352,-1.3072341680526733,1.1348515748977661
1775728223938233300,2.9162333984375,1.8938134908676147,-1.3311761617660522,1.7310078144073486
1775728223988556800,2.966556884765625,2.537853717803955,-2.3726539611816406,2.0159177780151367
1775728224038849800,3.016849853515625,4.194641590118408,-1.0821791887283325,1.6328455209732056
1775728224048951000,3.026950927734375,4.240131378173828,-0.993593692779541,0.8978256583213806
1775728224109345300,3.08734521484375,4.3861775398254395,-0.8140285611152649,-0.3256114423274994
1775728224139527200,3.117527099609375,5.149928092956543,-2.054224967956543,-0.6512228846549988
1775728224179779800,3.15777978515625,5.542576789855957,-3.0573954582214355,-1.2832920551300049
1775728224230133800,3.2081337890625,5.748478412628174,-3.2609026432037354,-4.8722004890441895
1775728224240204500,3.21820458984375,5.722142219543457,-3.847482204437256,-6.665457725524902
1775728224260285200,3.23828515625,4.714183330535889,-4.680664539337158,-8.576030731201172
1775728224280426800,3.2584267578125,3.3446998596191406,-5.219359874725342,-8.432378768920898
1775728224300537900,3.278537841796875,1.9488801956176758,-5.257667064666748,-7.671022415161133
1775728224310608600,3.288608642578125,1.0079588890075684,-4.78122091293335,-6.710947513580322
1775728224330750200,3.308750244140625,-1.1635819673538208,-3.3518824577331543,-4.414907932281494
1775728224381012700,3.3590126953125,-3.1459810733795166,-0.6272808313369751,-3.1675288677215576
1775728224401154300,3.379154296875,-2.846705913543701,0.26336219906806946,-3.2297780513763428
1775728224411225000,3.38922509765625,-2.6599581241607666,0.6057330369949341,-3.07415509223938
1775728224421295900,3.3992958984375,-2.22660756111145,0.9600749015808105,-2.9951462745666504
1775728224431336200,3.409336181640625,-1.9560627937316895,1.0007762908935547,-3.0334534645080566
1775728224441437400,3.4194375,-1.8076223134994507,1.015141487121582,-2.96162748336792
1775728224451508500,3.429508544921875,-2.006340980529785,1.2090718746185303,-2.985569477081299
1775728224461518000,3.43951806640625,-2.4396915435791016,1.5322890281677246,-2.8131868839263916
1775728224471588900,3.4495888671875,-2.9305028915405273,1.6735470294952393,-2.5761611461639404
1775728224481629200,3.459629150390625,-3.6391866207122803,1.8602946996688843,-2.2433669567108154
1775728224511780600,3.489780517578125,-5.384559631347656,3.2393548488616943,-1.1420341730117798
1775728224521821000,3.499821044921875,-5.698200225830078,3.5649664402008057,-0.9289502501487732
1775728224531861200,3.509861328125,-5.801150798797607,3.936067581176758,-0.6320692300796509
1775728224541932000,3.51993212890625,-5.808333396911621,4.14915132522583,-0.49320554733276367
1775728224552002800,3.5300029296875,-5.714959621429443,4.256890773773193,-0.3423708379268646
1775728224562104000,3.54010400390625,-5.681440830230713,4.323928356170654,-0.29209262132644653
1775728224592194300,3.5701943359375,-5.499481201171875,4.352658748626709,-0.3423708379268646
1775728224602295800,3.5802958984375,-5.693411827087402,4.477157115936279,-0.27054479718208313
1775728224612366600,3.59036669921875,-5.7341132164001465,4.570530891418457,-0.17717093229293823
1775728224622437400,3.600437255859375,-5.633556365966797,4.661510944366455,-0.1867477297782898
1775728224632477700,3.610477783203125,-5.427655220031738,4.7620673179626465,-0.26336219906806946
1775728224642518000,3.62051806640625,-5.295974254608154,4.8722004890441895,-0.2825157940387726
1775728224652619300,3.630619384765625,-5.2696380615234375,5.006275653839111,-0.37828385829925537
1775728224672699600,3.65069970703125,-5.2480902671813965,5.145139217376709,-0.6727706789970398
1775728224692810800,3.670810791015625,-5.2049946784973145,5.219359874725342,-0.9169792532920837
1775728224712921900,3.690921875,-4.900930881500244,4.884171485900879,-1.6400281190872192
1775728224733094100,3.71109423828125,-4.225766181945801,4.661510944366455,-2.2816741466522217
1775728224743165000,3.7211650390625,-3.7828385829925537,4.371812343597412,-2.580949544906616
1775728224753266200,3.73126611328125,-3.2369606494903564,4.129997730255127,-3.0190882682800293
1775728224763337000,3.7413369140625,-2.782062292098999,3.8379054069519043,-3.529053211212158
1775728224773407700,3.75140771484375,-2.6455929279327393,3.620033025741577,-4.201824188232422
1775728224803589600,3.781589599609375,-2.911349296569824,4.242525577545166,-6.279991149902344
1775728224823731200,3.801731201171875,-3.8738183975219727,4.19224739074707,-7.7643961906433105
1775728224833771500,3.811771484375,-4.517858505249023,4.228160381317139,-8.588001251220703
1775728224843842300,3.82184228515625,-5.250484466552734,4.046200752258301,-9.119514465332031
1775728224853882600,3.831882568359375,-6.011840343475342,3.971980571746826,-9.557653427124023
1775728224863953400,3.841953369140625,-6.404489517211914,3.708618402481079,-10.08437728881836
1775728224884095000,3.862094970703125,-6.01423454284668,2.980781078338623,-10.903194427490234
1775728224904236500,3.882236572265625,-4.446032524108887,1.5514427423477173,-10.182539939880371
1775728224914276900,3.89227685546875,-3.5649664402008057,0.7852981686592102,-9.136273384094238
1775728224924317200,3.902317138671875,-2.846705913543701,0.2082955539226532,-7.881711959838867
1775728224934418400,3.91241845703125,-2.078166961669922,-0.3687070608139038,-6.8043212890625
1775728224944489200,3.9224892578125,-1.5921441316604614,-0.7254431247711182,-5.882553577423096
1775728224954590700,3.9325908203125,-1.0606313943862915,-1.1180921792984009,-5.097255229949951
1775728224964661500,3.94266162109375,-0.6607996821403503,-1.4700398445129395,-4.522646903991699
1775728224974671000,3.952671142578125,-0.22744916379451752,-1.6424223184585571,-4.2090067863464355
1775728225015015400,3.993015380859375,0.5027823448181152,-2.363077163696289,-2.8634653091430664
1775728225025116700,4.00311669921875,0.47165772318840027,-2.715024709701538,-2.3726539611816406
1775728225035187500,4.0131875,0.2298433631658554,-3.112462282180786,-1.889025092124939
1775728225045227800,4.023227783203125,0.14365209639072418,-3.450044631958008,-1.522712230682373
1775728225055298600,4.033298583984375,0.002394201699644327,-3.663128614425659,-1.070208191871643
1775728225065369300,4.043369384765625,-0.15801730751991272,-3.7253777980804443,-0.730231523513794
1775728225075470800,4.053470947265625,-0.0933738648891449,-3.600879430770874,-0.3711012601852417
1775728225085541600,4.063541748046875,0.06464344263076782,-3.6343982219696045,-0.014365210197865963
1775728225115723500,4.0937236328125,0.8355764150619507,-4.189853191375732,0.8762778043746948
1775728225125702700,4.10370263671875,1.1300631761550903,-4.563348293304443,1.1468225717544556
1775728225135804000,4.113803955078125,1.3239935636520386,-4.9368438720703125,1.357512354850769
1775728225145875000,4.123875,1.4484920501708984,-5.1595048904418945,1.4867992401123047
1775728225155884500,4.133884521484375,1.647210717201233,-5.458779811859131,1.7597382068634033
1775728225165894400,4.143894287109375,1.8052281141281128,-5.78678560256958,2.140416383743286
1775728225175995600,4.15399560546875,2.011129379272461,-6.100425720214844,2.367865562438965
1775728225236298500,4.214298583984375,3.4548330307006836,-6.943184852600098,2.779668092727661
1775728225256440000,4.234440185546875,3.6080620288848877,-6.4164605140686035,2.674323320388794
1775728225266510800,4.2445107421875,3.8522706031799316,-6.445190906524658,2.5043349266052246
1775728225276551200,4.25455126953125,4.302380561828613,-6.277596950531006,2.1092917919158936
1775728225286560800,4.264560791015625,4.513070106506348,-6.236895561218262,1.7357962131500244
1775728225306733000,4.284733154296875,4.230554580688477,-5.5114521980285645,0.8379706144332886
1775728225316803800,4.294803955078125,4.194641590118408,-5.015852451324463,0.3495534360408783
1775728225326874600,4.30487451171875,4.151545524597168,-4.532223701477051,-0.016759412363171577
1775728225336945400,4.3149453125,4.2975921630859375,-4.132391929626465,-0.45489832758903503
1775728225347016200,4.32501611328125,4.314351558685303,-3.7876269817352295,-0.8667010068893433
1775728225357087000,4.3350869140625,4.529829502105713,-3.576937437057495,-1.455674648284912
1775728225367127300,4.345127197265625,4.5154643058776855,-3.2154128551483154,-2.0590133666992188
1775728225377228500,4.355228515625,4.309563159942627,-3.023876667022705,-2.513911724090576
1775728225387299300,4.36529931640625,3.993528366088867,-2.626439332962036,-2.959233283996582
1775728225397309200,4.37530908203125,3.4596214294433594,-2.255337953567505,-3.514688014984131
1775728225427430000,4.405429931640625,2.118868589401245,-1.45806884765625,-5.559336185455322
1775728225437531400,4.415531494140625,2.099714994430542,-1.6280571222305298,-6.069301128387451
1775728225447602200,4.425602294921875,2.1571757793426514,-1.8387469053268433,-6.564900875091553
1775728225457673000,4.4356728515625,2.0877439975738525,-2.2385785579681396,-6.48828649520874
1775728225467713300,4.44571337890625,1.8698714971542358,-2.365471363067627,-5.940014362335205
1775728225477814500,4.455814453125,1.4652514457702637,-2.408566951751709,-5.1116204261779785
1775728225487885300,4.46588525390625,0.768538773059845,-2.27209734916687,-4.189853191375732
1775728225538178300,4.51617822265625,-2.2218191623687744,-1.3455413579940796,-3.0166940689086914
1775728225548249000,4.5262490234375,-2.360682964324951,-0.8930372595787048,-3.1220390796661377
1775728225558350300,4.536350341796875,-2.5474305152893066,-0.5147533416748047,-3.002328872680664
1775728225568421000,4.546421142578125,-2.585737943649292,-0.30885201692581177,-2.920926094055176
1775728225578431000,4.556430908203125,-2.6216509342193604,-0.05746084079146385,-2.7533318996429443
1775728225598542000,4.5765419921875,-2.9496564865112305,0.14844051003456116,-2.8658595085144043
1775728225618683600,4.59668359375,-3.313575267791748,0.3758896589279175,-2.5522189140319824
1775728225628754400,4.60675439453125,-3.555389642715454,0.6440402865409851,-2.3942017555236816
1775728225638794800,4.616794677734375,-3.687070608139038,0.8259995579719543,-2.2194249629974365
1775728225648804600,4.6268046875,-3.912125587463379,1.0869675874710083,-1.98958158493042
1775728225658905900,4.63690576171875,-3.998316764831543,1.316810965538025,-1.7334020137786865
1775728225668976600,4.6469765625,-4.223371982574463,1.522712230682373,-1.4317326545715332
1775728225678986500,4.656986572265625,-4.338293552398682,1.7381904125213623,-1.2617442607879639
1775728225689026600,4.667026611328125,-4.278438568115234,1.7884687185287476,-1.0295066833496094
1775728225699128000,4.677128173828125,-4.400542736053467,1.8842366933822632,-0.9074024558067322
1775728225739350300,4.717350341796875,-4.853046894073486,2.4803929328918457,-0.5027823448181152
1775728225749421000,4.727421142578125,-4.874594688415527,2.604891538619995,-0.42856210470199585
1775728225759522300,4.737522216796875,-4.704606533050537,2.7940332889556885,-0.4405331015586853
1775728225769562600,4.747562744140625,-4.742913722991943,2.9879636764526367,-0.31842881441116333
1775728225779633400,4.75763330078125,-4.8051629066467285,3.155557870864868,-0.24899697303771973
1775728225789612500,4.767612548828125,-4.774038314819336,3.3423056602478027,-0.26096799969673157
1775728225799714000,4.777714111328125,-4.819528102874756,3.6296098232269287,-0.44771572947502136
1775728225809723600,4.7877236328125,-4.400542736053467,3.6511576175689697,-0.6057330369949341
1775728225819764000,4.797763916015625,-3.976768970489502,3.8307228088378906,-0.8427590131759644
1775728225839905500,4.817905517578125,-3.557783842086792,3.9240965843200684,-1.1755530834197998
1775728225849945900,4.82794580078125,-3.734954595565796,4.113238334655762,-1.2713210582733154
1775728225860016600,4.8380166015625,-3.77565598487854,4.335899353027344,-1.2880805730819702
1775728225869996000,4.84799609375,-3.821146011352539,4.460397720336914,-1.4077905416488647
1775728225880097300,4.85809716796875,-3.890577793121338,4.558559894561768,-1.403002142906189
1775728225890168000,4.86816796875,-3.8379054069519043,4.611232280731201,-1.6160861253738403
1775728225900269300,4.878269287109375,-3.840299606323242,4.776432514190674,-1.9129672050476074
1775728225910248700,4.888248779296875,-3.7708675861358643,4.884171485900879,-2.22660756111145
1775728225920319500,4.898319580078125,-3.778050184249878,4.960785865783691,-2.6455929279327393
1775728225950531800,4.92853173828125,-3.315969467163086,5.0254292488098145,-3.8307228088378906
1775728225960633000,4.938633056640625,-3.1459810733795166,5.07570743560791,-4.663905143737793
1775728225970643000,4.948642822265625,-2.918531894683838,5.0900726318359375,-5.530605792999268
1775728225980744200,4.958744140625,-2.736572504043579,5.099649429321289,-6.507440090179443
1775728225990784500,4.968784423828125,-2.875436305999756,5.104437828063965,-7.271190643310547
1775728226000885800,4.9788857421875,-3.2178070545196533,4.865017890930176,-7.8314337730407715
1775728226010895600,4.9888955078125,-4.046200752258301,4.903325080871582,-8.346187591552734
1775728226041138400,5.019138427734375,-5.813121795654297,4.857835292816162,-9.265560150146484
1775728226061280000,5.039280029296875,-5.702988624572754,4.0294413566589355,-9.95748519897461
1775728226071289900,5.049289794921875,-5.264849662780762,3.380612850189209,-10.216058731079102
1775728226091462000,5.0694619140625,-3.9911341667175293,2.0374655723571777,-9.282320022583008
1775728226101532700,5.07953271484375,-3.378218650817871,1.3120225667953491,-8.38688850402832
1775728226111603500,5.089603515625,-2.8347349166870117,0.6224924325942993,-7.527369976043701
1775728226121613300,5.09961328125,-2.3080103397369385,0.1173158809542656,-6.71334171295166
1775728226161805000,5.13980517578125,-1.1851298809051514,-1.3886369466781616,-5.17626428604126
1775728226171875800,5.149875732421875,-1.2521674633026123,-1.5322890281677246,-4.742913722991943
1775728226181885400,5.159885498046875,-1.3910311460494995,-1.5203180313110352,-4.225766181945801
1775728226191895300,5.169895263671875,-1.6352397203445435,-1.5634137392044067,-3.691859006881714
1775728226201996500,5.17999658203125,-1.7741034030914307,-1.6639702320098877,-3.1220390796661377
1775728226212067300,5.1900673828125,-1.8052281141281128,-1.6208745241165161,-2.626439332962036
1775728226222138400,5.200138427734375,-1.821987509727478,-1.723825216293335,-2.051830768585205
1775728226232209200,5.210209228515625,-1.802833914756775,-1.8626888990402222,-1.5873557329177856
1775728226262360300,5.2403603515625,-1.170764684677124,-2.161964178085327,-0.4596867263317108
1775728226282471400,5.260471435546875,-0.8044517636299133,-2.3080103397369385,0.4357447028160095
1775728226292542200,5.270542236328125,-0.569819986820221,-2.6001031398773193,0.7757213711738586
1775728226302613000,5.280613037109375,-0.49799394607543945,-2.868253707885742,1.2880805730819702
1775728226312684000,5.29068408203125,-0.40222588181495667,-3.205836057662964,1.702277421951294
1775728226322724000,5.30072412109375,-0.2106897532939911,-3.5051112174987793,2.1356279850006104
1775728226332734000,5.31073388671875,0.06464344263076782,-3.821146011352539,2.6431987285614014
1775728226342835200,5.320835205078125,0.3016694188117981,-3.993528366088867,2.9903578758239746
1775728226362976800,5.340976806640625,0.7445967197418213,-4.529829502105713,3.550601005554199
1775728226393128200,5.371128173828125,1.2042834758758545,-4.78122091293335,4.005499362945557
1775728226403229400,5.3812294921875,1.5610195398330688,-4.742913722991943,4.027047157287598
1775728226413300500,5.391300537109375,2.006340980529785,-4.903325080871582,3.794809579849243
1775728226423371300,5.401371337890625,3.160346269607544,-5.197812080383301,3.354276657104492
1775728226433442000,5.411442138671875,4.079719543457031,-5.372588634490967,2.7557260990142822
1775728226463593200,5.44159326171875,4.687847137451172,-5.556941986083984,1.3311761617660522
1775728226473664300,5.451664306640625,4.513070106506348,-5.351040840148926,1.0319008827209473
1775728226483735000,5.461735107421875,4.345476150512695,-5.20978307723999,0.667982280254364
1775728226493775000,5.471775146484375,4.271255970001221,-4.896142482757568,0.019153613597154617
1775728226503876600,5.481876708984375,4.477157115936279,-4.786009311676025,-0.6631938815116882
1775728226513947400,5.491947509765625,4.5825018882751465,-4.716577529907227,-1.3024457693099976
1775728226524018200,5.50201806640625,4.699818134307861,-4.405331134796143,-1.764526605606079
1775728226534089000,5.5120888671875,4.525041103363037,-4.2090067863464355,-2.0207061767578125
1775728226544129300,5.52212939453125,4.314351558685303,-3.9049429893493652,-2.1571757793426514
1775728226584351500,5.5623515625,2.8419175148010254,-3.31118106842041,-3.866635799407959
1775728226594422300,5.57242236328125,2.564189910888672,-3.3662476539611816,-4.886565685272217
1775728226604493000,5.5824931640625,2.542642116546631,-3.399766445159912,-6.038176536560059
1775728226614563800,5.592563720703125,2.6455929279327393,-3.3925838470458984,-6.94079065322876
1775728226624634600,5.602634521484375,2.7676970958709717,-3.5170822143554688,-7.412448406219482
1775728226634705400,5.612705322265625,2.9712042808532715,-3.581725835800171,-7.292738437652588
1775728226644776200,5.622776123046875,3.227383852005005,-3.6391866207122803,-6.766014099121094
1775728226654847000,5.632846923828125,3.251325845718384,-3.711012601852417,-6.165069580078125
1775728226715241200,5.6932412109375,-2.535459518432617,-0.730231523513794,-3.201047658920288
1775728226725312000,5.70331201171875,-3.1028854846954346,-0.181959331035614,-3.1531636714935303
1775728226735382800,5.7133828125,-3.375824451446533,0.31603461503982544,-2.983175277709961
1775728226755555000,5.73355517578125,-3.3446998596191406,0.8379706144332886,-2.4396915435791016
1775728226765656300,5.74365625,-2.9712042808532715,0.7876923680305481,-2.1475989818573
1775728226775727000,5.75372705078125,-2.8562827110290527,0.8667010068893433,-2.0374655723571777
1775728226826020000,5.80402001953125,-3.3877954483032227,1.015141487121582,-0.9217676520347595
1775728226836060400,5.814060302734375,-3.7277719974517822,1.256955862045288,-0.7733271718025208
1775728226846161700,5.82416162109375,-4.101267337799072,1.5490485429763794,-0.5339069962501526
1775728226856232400,5.834232421875,-4.513070106506348,1.824381709098816,-0.35434186458587646
1775728226866272800,5.844272705078125,-4.778826713562012,2.142810583114624,-0.2585737705230713
1775728226886353400,5.864353515625,-5.212177276611328,2.432508945465088,-0.1843535304069519
1775728226906464500,5.884464599609375,-4.867412090301514,2.5234885215759277,-0.31842881441116333
1775728226916474000,5.89447412109375,-4.616020679473877,2.4684219360351562,-0.4405331015586853
1775728226926575600,5.90457568359375,-4.627991676330566,2.6671407222747803,-0.5147533416748047
1775728226936676900,5.9146767578125,-4.819528102874756,2.87064790725708,-0.5578489899635315
1775728226946717200,5.92471728515625,-4.867412090301514,2.964021682739258,-0.7015010714530945
1775728226956726800,5.934726806640625,-5.123591423034668,3.203441858291626,-0.7206547260284424
1775728226966828300,5.944828369140625,-5.125985622406006,3.2848446369171143,-0.7876923680305481
1775728226976838000,5.954837890625,-5.228936672210693,3.4763808250427246,-0.7422025203704834
1775728227016999200,5.994999267578125,-4.268861770629883,3.780444383621216,-1.0630255937576294
1775728227027070000,6.005070068359375,-3.624821424484253,3.8810009956359863,-1.314416766166687
1775728227047150300,6.025150390625,-3.6128504276275635,4.0294413566589355,-1.7621324062347412
1775728227057221400,6.035221435546875,-3.7684733867645264,4.1395745277404785,-2.0422539710998535
1775728227067292200,6.045292236328125,-3.8570590019226074,4.211400985717773,-2.382230758666992
1775728227077301800,6.0553017578125,-4.129997730255127,4.378994941711426,-2.7916390895843506
1775728227097474000,6.07547412109375,-4.101267337799072,4.414907932281494,-3.6152446269989014
1775728227107544800,6.085544921875,-4.060565948486328,4.448426723480225,-4.151545524597168
1775728227117585200,6.095585205078125,-3.9384617805480957,4.369418144226074,-4.853046894073486
1775728227127686400,6.105686279296875,-3.756502389907837,4.534617900848389,-5.600037574768066
1775728227137726700,6.115726806640625,-3.4380736351013184,4.532223701477051,-6.050147533416748
1775728227147797500,6.125797607421875,-3.177105665206909,4.49870491027832,-6.715735912322998
1775728227157837800,6.135837890625,-3.3925838470458984,4.685452938079834,-7.285555839538574
1775728227167908600,6.14590869140625,-3.825934410095215,4.620809078216553,-7.814674377441406
1775728227177948700,6.15594873046875,-4.402936935424805,4.596867084503174,-8.283937454223633
1775728227197998800,6.175998779296875,-5.6455278396606445,4.73573112487793,-8.638279914855957
1775728227208100000,6.18610009765625,-5.959167957305908,4.683058738708496,-8.825027465820312
1775728227218140400,6.196140380859375,-5.841852188110352,4.563348293304443,-9.232041358947754
1775728227238312400,6.2163125,-5.04218864440918,3.8762125968933105,-9.93354320526123
1775728227248383500,6.226383544921875,-4.307168960571289,3.2752678394317627,-9.68694019317627
1775728227258454300,6.236454345703125,-3.5266590118408203,2.5306711196899414,-9.040505409240723
1775728227268525000,6.246525146484375,-2.849100112915039,1.802833914756775,-8.066065788269043
1775728227278595800,6.256595947265625,-2.2816741466522217,1.139639973640442,-7.132327079772949
1775728227288666600,6.26666650390625,-1.7693150043487549,0.6177040338516235,-6.323086738586426
1775728227298645800,6.276645751953125,-1.359906554222107,0.2513911724090576,-5.540182590484619
1775728227318787300,6.296787353515625,-1.1563993692398071,0.090979665517807,-4.398148536682129
1775728227328858000,6.306858154296875,-1.1755530834197998,0.13168109953403473,-3.9887399673461914
1775728227338868000,6.316867919921875,-1.292868971824646,0.272938996553421,-3.6343982219696045
1775728227348969200,6.32696923828125,-1.3431471586227417,0.47405192255973816,-3.4117374420166016
1775728227359040000,6.3370400390625,-1.4628572463989258,0.6153098344802856,-3.1316158771514893
1775728227369110800,6.34711083984375,-1.436521053314209,0.8140285611152649,-2.738966703414917
1775728227379151000,6.357151123046875,-1.3670891523361206,0.6488286852836609,-2.205059766769409
1775728227389252600,6.367252685546875,-1.4101848602294922,0.45010992884635925,-1.7334020137786865
1775728227409333000,6.3873330078125,-1.3910311460494995,0.011971008032560349,-0.7254431247711182
1775728227419403800,6.39740380859375,-1.3670891523361206,-0.14844051003456116,-0.31364041566848755
1775728227429505300,6.40750537109375,-1.2641384601593018,-0.272938996553421,0.09816227108240128
1775728227439545600,6.417545654296875,-1.072602391242981,-0.4189853072166443,0.44532153010368347
1775728227449555200,6.42755517578125,-0.8403648138046265,-0.5817909836769104,0.7038952708244324
1775728227459565000,6.43756494140625,-0.6560112833976746,-1.0319008827209473,0.9241618514060974
1775728227469666300,6.447666259765625,-0.3998316824436188,-1.4987702369689941,1.1085153818130493
1775728227479676200,6.45767626953125,-0.2753331959247589,-1.8339585065841675,1.2306196689605713
1775728227499726000,6.47772607421875,0.026336219161748886,-2.913743495941162,1.6352397203445435
1775728227519898400,6.4978984375,0.6512228846549988,-4.017470359802246,2.1595699787139893
1775728227550110700,6.52811083984375,1.3934253454208374,-4.876988887786865,2.477998733520508
1775728227560151000,6.538151123046875,1.7310078144073486,-4.955997467041016,2.715024709701538
1775728227570221800,6.548221923828125,2.097320795059204,-5.252878665924072,2.9089550971984863
1775728227580262100,6.55826220703125,2.4684219360351562,-5.480327606201172,3.0119056701660156
1775728227590363400,6.56836328125,2.8562827110290527,-5.6670756340026855,3.0550012588500977
1775728227600403700,6.57840380859375,3.2609026432037354,-5.609614372253418,2.9065608978271484
1775728227620514800,6.598514892578125,4.027047157287598,-5.537788391113281,1.8507179021835327
1775728227630616000,6.608615966796875,4.534617900848389,-5.5329999923706055,1.2617442607879639
1775728227640656400,6.618656494140625,5.185841083526611,-5.681440830230713,0.871489405632019
1775728227650727200,6.62872705078125,5.458779811859131,-5.600037574768066,0.4668693244457245
1775728227660767500,6.638767578125,5.513846397399902,-5.396530628204346,-0.05267243832349777
1775728227680848000,6.658847900390625,5.183446884155273,-4.474762916564941,-1.434126853942871
1775728227690949400,6.668949462890625,5.070919036865234,-3.9839515686035156,-2.1523873805999756
1775728227741242400,6.719242431640625,3.6343982219696045,-1.922544002532959,-5.616796970367432
1775728227751313200,6.729313232421875,2.8586769104003906,-1.482010841369629,-6.3302693367004395
1775728227761384000,6.739384033203125,2.0685901641845703,-0.9624691009521484,-7.201758861541748
1775728227771454700,6.749454833984375,1.3551181554794312,-0.6655880808830261,-7.754819393157959
1775728227791565800,6.76956591796875,0.45250412821769714,-0.45010992884635925,-7.441178798675537
1775728227801636600,6.77963671875,0.2106897532939911,-0.5530605912208557,-6.833051681518555
1775728227841858800,6.81985888671875,0.933738648891449,-1.1444283723831177,-4.551377296447754
1775728227862000400,6.84000048828125,0.10773907601833344,-0.727837324142456,-3.5434184074401855
1775728227872071200,6.8500712890625,-0.5578489899635315,-0.35434186458587646,-3.0885202884674072
1775728227892151600,6.870151611328125,-2.0925323963165283,0.3232172429561615,-2.6144683361053467
1775728227902191900,6.88019189453125,-2.6575639247894287,0.8020575642585754,-2.4684219360351562
1775728227912232200,6.890232177734375,-2.875436305999756,1.0534487962722778,-2.3032219409942627
1775728227932373800,6.910373779296875,-2.9879636764526367,1.3215993642807007,-1.9512743949890137
1775728227942444500,6.920444580078125,-2.9328970909118652,1.2761094570159912,-1.8507179021835327
1775728227952454400,6.930454345703125,-2.8419175148010254,1.170764684677124,-1.6831238269805908
1775728227962525200,6.940525146484375,-2.851494312286377,1.1252747774124146,-1.50355863571167
1775728227972565500,6.9505654296875,-3.0334534645080566,1.158793568611145,-1.335964560508728
1775728227992676600,6.970676513671875,-3.5027170181274414,1.525106430053711,-0.9720458984375
1775728228002686500,6.9806865234375,-3.821146011352539,1.9991583824157715,-0.8259995579719543
1775728228012787700,6.99078759765625,-4.235342979431152,2.43011474609375,-0.6009446382522583
1775728228043000000,7.021,-5.085284233093262,3.3494882583618164,0.014365210197865963
1775728228053070800,7.03107080078125,-5.154716491699219,3.359065055847168,0.14365209639072418
1775728228063141600,7.0411416015625,-5.171475887298584,3.4404678344726562,0.2298433631658554
1775728228073182000,7.051181884765625,-5.281609058380127,3.550601005554199,0.24660277366638184
1775728228083252700,7.061252685546875,-5.353435039520264,3.49314022064209,0.3256114423274994
1775728228093323500,7.071323486328125,-5.166687488555908,3.4979286193847656,0.31603461503982544
1775728228103394300,7.081394287109375,-4.874594688415527,3.445256233215332,0.26575639843940735
1775728228113495600,7.09149560546875,-4.623203277587891,3.4165258407592773,0.19153612852096558
1775728228153717800,7.1317177734375,-5.092466831207275,3.8762125968933105,-0.3878606855869293
1775728228163788500,7.14178857421875,-5.272032260894775,3.93367338180542,-0.5410895943641663
1775728228173859300,7.151859375,-5.298368453979492,3.9240965843200684,-0.7948749661445618
1775728228183930400,7.161930419921875,-5.109226226806641,3.861847400665283,-1.0582371950149536
1775728228193940000,7.17193994140625,-4.912901878356934,3.9480385780334473,-1.292868971824646
1775728228203980300,7.181980224609375,-4.8482584953308105,3.971980571746826,-1.50355863571167
1775728228214081500,7.19208154296875,-4.683058738708496,4.015076160430908,-1.7549498081207275
1775728228244294000,7.2222939453125,-4.343081951141357,3.840299606323242,-2.762908697128296
1775728228254365000,7.232364990234375,-4.173093795776367,3.9025487899780273,-3.5649664402008057
1775728228264405000,7.242405029296875,-4.201824188232422,3.847482204437256,-3.5266590118408203
1775728228274475800,7.252475830078125,-4.108449935913086,3.8091750144958496,-4.378994941711426
1775728228284516000,7.26251611328125,-4.0078935623168945,3.8163576126098633,-5.250484466552734
1775728228294587000,7.2725869140625,-3.957615375518799,3.794809579849243,-5.872976779937744
1775728228304657700,7.28265771484375,-3.866635799407959,3.7684733867645264,-6.308721542358398
1775728228314698000,7.292697998046875,-3.7612907886505127,3.797203779220581,-6.852205276489258
1775728228324768800,7.302768798828125,-3.931279182434082,3.711012601852417,-7.491456985473633
1775728228364991000,7.342990966796875,-6.301538944244385,4.23773717880249,-9.75397777557373
1775728228375092200,7.35309228515625,-6.323086738586426,4.156333923339844,-10.230423927307129
1775728228385071600,7.363071533203125,-6.00226354598999,3.8283286094665527,-10.584765434265137
1775728228395112000,7.37311181640625,-5.418078422546387,3.397372245788574,-10.960655212402344
1775728228405213200,7.383213134765625,-4.671087741851807,2.760514497756958,-11.003750801086426
1775728228415284000,7.393283935546875,-3.6535518169403076,1.9081788063049316,-10.189722061157227
1775728228455506200,7.433506103515625,-0.5554547905921936,-0.5554547905921936,-5.173870086669922
1775728228465577000,7.443576904296875,-0.026336219161748886,-0.8571242094039917,-4.503493309020996
1775728228475617300,7.4536171875,0.3256114423274994,-1.048660397529602,-3.93367338180542
1775728228485688000,7.46368798828125,0.7374141216278076,-0.9816226959228516,-3.4404678344726562
1775728228495758800,7.4737587890625,0.8451532125473022,-0.7757213711738586,-2.999934673309326
1775728228505829600,7.48382958984375,0.8954314589500427,-0.5386953949928284,-2.6168625354766846
1775728228515809000,7.49380908203125,0.8547300100326538,-0.1604115068912506,-2.248155355453491
1775728228525849000,7.50384912109375,0.706289529800415,-0.2513911724090576,-1.9273324012756348
1775728228545991000,7.523990966796875,0.3016694188117981,-0.2082955539226532,-1.0965443849563599
1775728228566132500,7.544132568359375,-0.304063618183136,0.019153613597154617,-0.07900865375995636
1775728228576233700,7.554233642578125,-0.569819986820221,0.05746084079146385,0.47405192255973816
1775728228586243600,7.56424365234375,-0.7086837291717529,0.05267243832349777,1.0007762908935547
1775728228596314400,7.574314453125,-0.7469909191131592,0.047884032130241394,1.2976573705673218
1775728228606385200,7.58438525390625,-0.6967126727104187,-0.05027823522686958,1.6831238269805908
1775728228616486400,7.594486328125,-0.5841852426528931,-0.1843535304069519,1.889025092124939
1775728228626557200,7.60455712890625,-0.3447650372982025,-0.5410895943641663,1.968033790588379
1775728228636628000,7.6146279296875,-0.21308395266532898,-0.8475474119186401,2.2433669567108154
1775728228666840300,7.64484033203125,0.5410895943641663,-1.9321208000183105,2.913743495941162
1775728228676911000,7.6549111328125,0.9217676520347595,-2.315192937850952,3.0358476638793945
1775728228686951400,7.664951416015625,1.0869675874710083,-2.6384103298187256,3.3016040325164795
1775728228697053000,7.675052978515625,1.3551181554794312,-3.021482467651367,3.4524388313293457
1775728228707123700,7.685123779296875,1.6400281190872192,-3.19865345954895,3.5721490383148193
1775728228717194500,7.695194580078125,1.9393033981323242,-3.507505416870117,3.6798880100250244
1775728228727265300,7.705265380859375,2.118868589401245,-3.756502389907837,3.643975019454956
1775728228737305600,7.7153056640625,2.3942017555236816,-3.912125587463379,3.464409828186035
1775728228757416400,7.73541650390625,3.047818660736084,-3.8594532012939453,3.2297780513763428
1775728228767456800,7.745456787109375,3.272873640060425,-3.7708675861358643,2.827552318572998
1775728228777527600,7.755527587890625,3.507505416870117,-3.7828385829925537,2.367865562438965
1775728228787598300,7.765598388671875,3.6104562282562256,-3.7277719974517822,1.9273324012756348
1775728228797669400,7.77566943359375,3.646369218826294,-3.689464807510376,1.434126853942871
1775728228807679000,7.785678955078125,3.643975019454956,-3.6296098232269287,1.0821791887283325
1775728228817780200,7.7957802734375,3.450044631958008,-3.5003228187561035,0.689530074596405
1775728228827851300,7.805851318359375,3.1459810733795166,-3.268085241317749,0.36152446269989014
1775728228837952500,7.815952392578125,2.9017724990844727,-2.918531894683838,-0.23942017555236816
1775728228858094000,7.836093994140625,2.367865562438965,-2.2649147510528564,-1.0630255937576294
1775728228868164900,7.846164794921875,2.2840683460235596,-2.126051187515259,-1.5131354331970215
1775728228878235600,7.856235595703125,2.2361843585968018,-1.9584569931030273,-1.8722656965255737
1775728228888306400,7.866306396484375,2.0805611610412598,-1.946485996246338,-2.4229321479797363
1775728228898316300,7.87631640625,1.8267759084701538,-1.8411411046981812,-2.873042106628418
1775728228908326000,7.886325927734375,1.3910311460494995,-1.6041151285171509,-3.5649664402008057
1775728228918396700,7.896396728515625,1.0749965906143188,-1.5203180313110352,-4.422090530395508
1775728228928437000,7.90643701171875,0.6967126727104187,-1.436521053314209,-5.669469833374023
1775728228938446800,7.91644677734375,0.8068459630012512,-1.534683346748352,-6.88332986831665
1775728228948487200,7.926487060546875,1.194706678390503,-1.7980455160140991,-7.754819393157959
1775728228968659200,7.9466591796875,2.0039467811584473,-2.33913516998291,-8.248024940490723
1775728228978760400,7.956760498046875,2.006340980529785,-2.3487119674682617,-7.805097579956055
1775728228988770300,7.966770263671875,1.556231141090393,-2.229001760482788,-6.7708024978637695
1775728228998871600,7.97687158203125,0.828393816947937,-2.0805611610412598,-5.305551052093506
1775728229008942300,7.9869423828125,-0.090979665517807,-1.7070658206939697,-4.220977783203125
1775728229018952200,7.9969521484375,-0.8930372595787048,-1.3623007535934448,-3.4572272300720215
1775728229028992500,8.006992431640626,-1.556231141090393,-0.9528923034667969,-3.0837318897247314
1775728229039032800,8.01703271484375,-2.1499931812286377,-0.3687070608139038,-2.7700912952423096
1775728229059174400,8.03717431640625,-2.853888511657715,0.6105214357376099,-2.604891538619995
1775728229079255000,8.057255126953125,-2.9520506858825684,0.811634361743927,-2.410961151123047
1775728229089295400,8.06729541015625,-2.7724854946136475,0.6392518281936646,-2.2170307636260986
1775728229099335400,8.07733544921875,-2.557007312774658,0.3663128614425659,-2.1116859912872314
1775728229109345300,8.08734521484375,-2.425326347351074,0.3064578175544739,-2.078166961669922
1775728229119446500,8.097446533203126,-2.425326347351074,0.35434186458587646,-2.013523578643799
1775728229129517300,8.107517333984376,-2.449268341064453,0.5913678407669067,-1.8770540952682495
1775728229139588000,8.117588134765626,-2.6024973392486572,0.9169792532920837,-1.6735470294952393
1775728229149659000,8.127658935546876,-3.004723072052002,1.2761094570159912,-1.3910311460494995
1775728229169709000,8.147708984375,-3.7828385829925537,2.049436569213867,-0.8164227604866028
1775728229179810300,8.157810302734376,-4.153939723968506,2.382230758666992,-0.5051765441894531
1775728229189789700,8.167789794921875,-4.4532151222229,2.698265314102173,-0.2968810200691223
1775728229199860500,8.177860595703125,-4.532223701477051,2.7892448902130127,-0.10055647045373917
1775728229209900800,8.18790087890625,-4.462791919708252,2.851494312286377,0
1775728229220002000,8.198001953125,-4.285621166229248,2.849100112915039,0.016759412363171577
1775728229230072800,8.20807275390625,-4.256890773773193,2.782062292098999,0
1775728229240143600,8.2181435546875,-4.146757125854492,2.8371291160583496,-0.05746084079146385
1775728229250214400,8.22821435546875,-3.7852327823638916,2.8107926845550537,-0.13168109953403473
1775728229290528300,8.2685283203125,-5.085284233093262,3.318363666534424,-0.507570743560791
1775728229300599000,8.27859912109375,-5.322310447692871,3.4835634231567383,-0.5219359993934631
1775728229310669800,8.288669921875,-5.3797712326049805,3.442862033843994,-0.5339069962501526
1775728229320710100,8.298710205078125,-5.305551052093506,3.4835634231567383,-0.6631938815116882
1775728229330750200,8.308750244140626,-5.1595048904418945,3.622427225112915,-0.8403648138046265
1775728229340851700,8.318851806640625,-5.039794445037842,3.6296098232269287,-1.1444283723831177
1775728229350922500,8.328922607421875,-5.145139217376709,3.797203779220581,-1.4628572463989258
1775728229360962800,8.338962890625,-5.044582843780518,3.907337188720703,-1.699883222579956
1775728229391083500,8.36908349609375,-5.152322292327881,3.931279182434082,-2.942473888397217
1775728229401184800,8.379184814453126,-5.207388877868652,3.928884983062744,-3.4811692237854004
1775728229411255800,8.389255859375,-5.197812080383301,3.9911341667175293,-3.931279182434082
1775728229421326600,8.39932666015625,-5.137956619262695,4.022258758544922,-4.5154643058776855
1775728229431397400,8.4093974609375,-5.260061264038086,4.027047157287598,-5.207388877868652
1775728229441468200,8.41946826171875,-5.284003257751465,4.019864559173584,-5.947196960449219
1775728229451447300,8.429447265625,-5.34625244140625,4.019864559173584,-6.744466304779053
1775728229461548500,8.439548583984376,-5.377377033233643,4.14915132522583,-7.553706169128418
1775728229481690400,8.4596904296875,-5.827486991882324,4.3191399574279785,-8.98543930053711
1775728229491761200,8.46976123046875,-6.191405773162842,4.333505153656006,-9.430760383605957
1775728229501832000,8.47983203125,-6.540958881378174,4.338293552398682,-9.591172218322754
1775728229511902700,8.48990283203125,-6.720524311065674,4.2090067863464355,-9.469067573547363
1775728229521973500,8.499973388671876,-6.670246124267578,3.864241600036621,-9.294290542602539
1775728229532013800,8.510013916015625,-6.36378812789917,3.5960910320281982,-9.260771751403809
1775728229542115000,8.520114990234376,-5.959167957305908,3.184288263320923,-9.033323287963867
1775728229552185900,8.530185791015626,-5.293580055236816,2.6791117191314697,-8.47786808013916
1775728229562226200,8.54022607421875,-4.383783340454102,2.2625205516815186,-7.838616371154785
1775728229572297000,8.550296875,-3.529053211212158,1.7621324062347412,-7.184999465942383
1775728229602448400,8.580448486328125,-1.0773907899856567,0.4213795065879822,-5.657498836517334
1775728229612488700,8.59048876953125,-0.871489405632019,0.2968810200691223,-5.427655220031738
1775728229622559500,8.6005595703125,-0.4884171485900879,0.011971008032560349,-4.977545261383057
1775728229632569000,8.610569091796876,-0.1604115068912506,-0.009576806798577309,-4.5394062995910645
1775728229642640000,8.620639892578126,-0.021547814831137657,0.10773907601833344,-4.077325344085693
1775728229652649700,8.630649658203126,0.07182604819536209,0.15322890877723694,-3.6966474056243896
1775728229662720500,8.640720458984376,-0.016759412363171577,0.2106897532939911,-3.5960910320281982
1775728229692841500,8.670841552734375,-0.38307225704193115,0.18914192914962769,-2.765302896499634
1775728229702912300,8.680912353515625,-0.629675030708313,0.3423708379268646,-2.1068975925445557
1775728229712921900,8.690921875,-0.8212111592292786,0.3974374830722809,-1.4652514457702637
1775728229723023400,8.7010234375,-0.9840168952941895,0.4908113479614258,-1.015141487121582
1775728229733094100,8.71109423828125,-1.0319008827209473,0.38067805767059326,-0.5147533416748047
1775728229743103700,8.721103759765626,-1.0342950820922852,0.23702596127986908,-0.17717093229293823
1775728229753113600,8.731113525390626,-0.9074024558067322,-0.0694318488240242,0.19153612852096558
1775728229763214800,8.74121484375,-0.569819986820221,-0.2561795711517334,0.49320554733276367
1775728229773255200,8.751255126953126,-0.3495534360408783,-0.6751648783683777,0.8451532125473022
1775728229813477400,8.791477294921876,0.9050082564353943,-2.1739351749420166,2.0039467811584473
1775728229823487200,8.8014873046875,1.0319008827209473,-2.3343467712402344,2.2864625453948975
1775728229833496800,8.811496826171876,1.1994950771331787,-2.604891538619995,2.6455929279327393
1775728229843567600,8.821567626953126,1.316810965538025,-2.935291290283203,2.8658595085144043
1775728229853608000,8.83160791015625,1.3910311460494995,-3.3207578659057617,3.1004912853240967
1775728229863678700,8.8416787109375,1.4053963422775269,-3.56017804145813,3.201047658920288
1775728229873688600,8.8516884765625,1.699883222579956,-3.8738183975219727,3.2752678394317627
1775728229883789800,8.861789794921876,2.0159177780151367,-4.1180267333984375,3.318363666534424
1775728229903931400,8.881931396484376,2.6408045291900635,-4.367023944854736,2.978386878967285
1775728229924042500,8.90204248046875,3.1220390796661377,-3.995922565460205,2.387019157409668
1775728229934052400,8.91205224609375,3.2417490482330322,-3.8810009956359863,1.8722656965255737
1775728229944153600,8.922153564453126,3.507505416870117,-3.8331170082092285,1.0965443849563599
1775728229954163500,8.93216357421875,3.7014358043670654,-3.8355112075805664,0.35673606395721436
1775728229964264700,8.9422646484375,3.758896589279175,-3.7158010005950928,-0.28969839215278625
1775728229974305000,8.952304931640626,3.6296098232269287,-3.5960910320281982,-0.689530074596405
1775728229984345300,8.962345458984375,3.35667085647583,-3.3638534545898438,-1.115697979927063
1775728230004456400,8.98245654296875,2.425326347351074,-2.7437551021575928,-1.7166426181793213
1775728230014527200,8.99252734375,2.1787235736846924,-2.5761611461639404,-2.008735179901123
1775728230024598000,9.002597900390626,2.075772762298584,-2.473210334777832,-2.209848165512085
1775728230034607600,9.012607666015626,2.1068975925445557,-2.4899697303771973,-2.4684219360351562
1775728230044678700,9.0226787109375,2.231395959854126,-2.432508945465088,-2.9759926795959473
1775728230054749400,9.03274951171875,2.2673089504241943,-2.425326347351074,-3.620033025741577
1775728230064850700,9.0428505859375,2.212242364883423,-2.343923568725586,-4.441244125366211
1775728230074891000,9.05289111328125,1.965639591217041,-2.2888567447662354,-5.348646640777588
1775728230084961800,9.0629619140625,1.6927006244659424,-2.166752576828003,-6.279991149902344
1775728230105011700,9.08301171875,1.2042834758758545,-2.0446481704711914,-7.151480674743652
1775728230115052000,9.093052001953126,0.9672574996948242,-2.123656988143921,-6.914454460144043
1775728230125122800,9.103122802734376,0.8810662031173706,-2.145204782485962,-6.44279670715332
1775728230135193600,9.113193603515626,0.7805097699165344,-2.0614075660705566,-5.87776517868042
1775728230145264400,9.123264404296876,0.7757213711738586,-1.987187385559082,-5.166687488555908
1775728230155304700,9.1333046875,0.6105214357376099,-1.7836803197860718,-4.381389141082764
1775728230165375500,9.14337548828125,0.10055647045373917,-1.4245500564575195,-3.533841609954834
1775728230175446300,9.1534462890625,-0.5410895943641663,-1.0414776802062988,-2.784456491470337
1775728230185517000,9.16351708984375,-1.194706678390503,-0.6105214357376099,-2.2840683460235596
1775728230215729700,9.193729736328125,-2.1811177730560303,0.2753331959247589,-2.849100112915039
1775728230225800400,9.203800537109375,-2.363077163696289,0.5722141861915588,-3.043030261993408
1775728230235871200,9.213871337890625,-2.499546527862549,0.8738836050033569,-2.8874073028564453
1775728230245942000,9.22394189453125,-2.540247917175293,1.0031704902648926,-2.408566951751709
1775728230256012800,9.2340126953125,-2.7078421115875244,0.9624691009521484,-2.049436569213867
1775728230266022400,9.2440224609375,-2.765302896499634,1.113303780555725,-1.8052281141281128
1775728230276062700,9.254062744140626,-2.829946517944336,1.2689268589019775,-1.6615760326385498
1775728230286103000,9.26410302734375,-2.9065608978271484,1.292868971824646,-1.400607943534851
1775728230296113000,9.27411279296875,-3.090914487838745,1.4963760375976562,-1.1971008777618408
1775728230306153200,9.2841533203125,-3.224989652633667,1.7908629179000854,-0.8355764150619507
1775728230326233600,9.304233642578126,-3.581725835800171,2.252943754196167,-0.3663128614425659
1775728230336243500,9.314243408203126,-3.773261785507202,2.434903144836426,-0.12449848651885986
1775728230346344700,9.3243447265625,-3.9384617805480957,2.719813108444214,0.043095629662275314
1775728230356415500,9.33441552734375,-4.146757125854492,2.87064790725708,0.09576806426048279
1775728230376526600,9.354526611328126,-4.458003520965576,2.9975404739379883,0.42856210470199585
1775728230386628000,9.364628173828125,-4.5394062995910645,3.1292216777801514,0.4908113479614258
1775728230396699000,9.374698974609375,-4.644751071929932,3.265691041946411,0.524330198764801
1775728230406769700,9.384769775390625,-4.460397720336914,3.227383852005005,0.5123591423034668
1775728230426911200,9.4049111328125,-4.513070106506348,3.4596214294433594,0.17238251864910126
1775728230447083300,9.425083251953126,-4.876988887786865,3.734954595565796,-0.1173158809542656
1775728230467255600,9.445255615234375,-5.137956619262695,4.146757125854492,-0.4357447028160095
1775728230477326300,9.455326416015625,-5.279214859008789,4.2090067863464355,-0.6847416758537292
1775728230487397000,9.465397216796875,-5.43723201751709,4.381389141082764,-0.8858546018600464
1775728230497468000,9.475468017578125,-5.57370138168335,4.455609321594238,-0.9744400978088379
1775728230507538700,9.48553857421875,-5.638344764709473,4.563348293304443,-1.1085153818130493
1775728230517579000,9.4955791015625,-5.590460777282715,4.558559894561768,-1.3431471586227417
1775728230527619300,9.505619384765625,-5.456385612487793,4.570530891418457,-1.766920804977417
1775728230547699700,9.52569970703125,-5.054159641265869,4.441244125366211,-3.0166940689086914
1775728230557709600,9.53570947265625,-5.116408824920654,4.417302131652832,-3.581725835800171
1775728230567810800,9.545810791015626,-5.238513469696045,4.565742492675781,-4.156333923339844
1775728230577790200,9.555790283203125,-5.284003257751465,4.551377296447754,-4.608838081359863
1775728230587891500,9.565891357421876,-5.343858242034912,4.60165548324585,-4.927267074584961
1775728230597931800,9.575931884765625,-5.118803024291992,4.414907932281494,-5.281609058380127
1775728230608002600,9.58600244140625,-4.9583916664123535,4.331110954284668,-6.0836663246154785
1775728230618073300,9.5960732421875,-4.757278919219971,4.23773717880249,-7.079654216766357
1775728230648255200,9.626255126953126,-4.6734819412231445,3.9049429893493652,-7.800309181213379
1775728230658265000,9.63626513671875,-4.666299343109131,3.7900211811065674,-7.790732383728027
1775728230668335900,9.6463359375,-4.632780075073242,3.73016619682312,-7.99184513092041
1775728230678376000,9.6563759765625,-4.32871675491333,3.648763418197632,-8.300697326660156
1775728230688446700,9.66644677734375,-3.9839515686035156,3.5410242080688477,-8.470685958862305
1775728230698517800,9.676517822265625,-3.428496837615967,3.294421434402466,-8.681375503540039
1775728230708588500,9.686588623046875,-2.4181437492370605,2.868253707885742,-8.834604263305664
1775728230718659300,9.696659423828125,-1.501164436340332,2.3750481605529785,-8.825027465820312
1775728230748871700,9.72687158203125,0.5650315880775452,0.5027823448181152,-7.565677165985107
1775728230758912000,9.736912109375,0.9145850539207458,0.14604631066322327,-6.660669326782227
1775728230768921600,9.746921630859376,1.0558429956436157,-0.07422025501728058,-5.942408561706543
1775728230778962000,9.7569619140625,1.216254472732544,-0.08379705995321274,-5.489904403686523
1775728230789032700,9.76703271484375,1.2258312702178955,-0.06703764945268631,-5.023035049438477
1775728230799073000,9.777072998046876,1.2497732639312744,-0.1149216815829277,-4.462791919708252
1775728230809174300,9.78717431640625,1.1563993692398071,0.06464344263076782,-3.9647979736328125
1775728230819245300,9.797245361328125,0.9409212470054626,0.2322375625371933,-3.3255462646484375
1775728230839356200,9.817356201171876,0.4381389021873474,0.4165911078453064,-2.2673089504241943
1775728230849427000,9.827427001953126,-0.002394201699644327,0.49320554733276367,-1.7094600200653076
1775728230859436800,9.837436767578126,-0.37828385829925537,0.3758896589279175,-1.1252747774124146
1775728230869507600,9.847507568359376,-0.8331822156906128,0.08140286058187485,-0.5386953949928284
1775728230879578400,9.857578369140626,-1.0295066833496094,-0.11252748221158981,-0.10295066982507706
1775728230889649200,9.867649169921876,-0.9840168952941895,-0.181959331035614,-0.0694318488240242
1775728230899720000,9.877719970703126,-1.0007762908935547,-0.31124621629714966,0.4189853072166443
1775728230909760300,9.88776025390625,-0.9241618514060974,-0.47165772318840027,0.7757213711738586
1775728230919739600,9.89773974609375,-0.9576807022094727,-0.7757213711738586,1.01753568649292
1775728230949860400,9.9278603515625,-0.42616790533065796,-1.5825673341751099,1.5322890281677246
1775728230959931100,9.93793115234375,-0.2585737705230713,-1.7908629179000854,1.6950948238372803
1775728230970002000,9.948001953125,-0.06224924325942993,-2.0207061767578125,1.9273324012756348
1775728230980011800,9.95801171875,0.07182604819536209,-2.1930887699127197,2.121262788772583
1775728230990113000,9.968113037109376,0.33279404044151306,-2.5115175247192383,2.360682964324951
1775728231000183800,9.978183837890626,0.6344634294509888,-2.75812029838562,2.583343744277954
1775728231010254600,9.988254638671876,1.039083480834961,-2.9496564865112305,2.765302896499634
1775728231020325600,9.99832568359375,1.5131354331970215,-3.0382418632507324,2.8993782997131348
1775728231050446300,10.0284462890625,1.702277421951294,-2.5737667083740234,3.1747114658355713
1775728231060517000,10.03851708984375,1.4844050407409668,-2.22660756111145,3.2848446369171143
1775728231070588000,10.048587890625,1.259350061416626,-1.968033790588379,3.2824504375457764
1775728231080658700,10.05865869140625,1.2401964664459229,-1.7741034030914307,3.272873640060425
1775728231090729500,10.0687294921875,1.3479355573654175,-1.647210717201233,3.2297780513763428
1775728231100800300,10.07880029296875,1.3623007535934448,-1.6328455209732056,2.8610711097717285
1775728231110871000,10.08887109375,1.580173134803772,-1.556231141090393,2.3942017555236816
1775728231120911400,10.098911376953126,1.7166426181793213,-1.5131354331970215,1.8148049116134644
1775728231130921200,10.108921142578126,1.6400281190872192,-1.4221558570861816,1.1851298809051514
1775728231151032300,10.1290322265625,1.256955862045288,-1.1180921792984009,0.3447650372982025
1775728231161072600,10.13907275390625,1.0845733880996704,-0.950498104095459,0.1628057211637497
1775728231171143400,10.149143310546876,0.8690952062606812,-0.7709329724311829,0.031124621629714966
1775728231181183700,10.159183837890625,0.9074024558067322,-0.6775590777397156,-0.2561795711517334
1775728231191285000,10.169284912109376,1.0247182846069336,-0.5171475410461426,-0.8068459630012512
1775728231201355800,10.179355712890626,1.048660397529602,-0.5219359993934631,-1.3096283674240112
1775728231211365600,10.18936572265625,1.1420341730117798,-0.3687070608139038,-2.0207061767578125
1775728231221436400,10.1994365234375,1.05105459690094,-0.13407529890537262,-2.6599581241607666
1775728231231507200,10.209507080078126,0.7805097699165344,0.10773907601833344,-3.205836057662964
1775728231271790300,10.249790283203126,-0.9983820915222168,0.6919242739677429,-6.574477672576904
1775728231281861000,10.259861083984376,-1.0295066833496094,0.7613561153411865,-7.572859764099121
1775728231291932000,10.269931884765626,-0.8403648138046265,0.5578489899635315,-8.300697326660156
1775728231301972200,10.27997216796875,-0.5817909836769104,0.20111294090747833,-8.329427719116211
1775728231312012500,10.290012451171876,-0.3758896589279175,-0.1173158809542656,-7.752425193786621
1775728231322083300,10.300083251953126,-0.22505496442317963,-0.33997663855552673,-6.495469093322754
1775728231332093200,10.31009326171875,-0.23942017555236816,-0.3519476354122162,-5.145139217376709
1775728231342133200,10.32013330078125,-0.5219359993934631,-0.31603461503982544,-3.8355112075805664
1775728231382325000,10.360324951171876,-2.5929205417633057,0.7541735172271729,-1.4915876388549805
1775728231402466600,10.380466552734376,-2.7700912952423096,1.256955862045288,-1.778891921043396
1775728231412476400,10.390476318359376,-2.631227731704712,1.37906014919281,-2.0231003761291504
1775728231422547200,10.400547119140626,-2.52109432220459,1.4772224426269531,-2.161964178085327
1775728231432587500,10.41058740234375,-2.3989901542663574,1.4652514457702637,-2.190694570541382
1775728231442627800,10.4206279296875,-2.31758713722229,1.4987702369689941,-1.9105730056762695
1775728231462800000,10.4407998046875,-2.4444799423217773,1.659181833267212,-1.0821791887283325
1775728231482911000,10.460910888671876,-2.691082715988159,1.98958158493042,-0.31842881441116333
1775728231492981800,10.470981689453126,-2.920926094055176,2.212242364883423,0.05746084079146385
1775728231502991600,10.48099169921875,-3.0142998695373535,2.477998733520508,0.5147533416748047
1775728231513062400,10.4910625,-3.160346269607544,2.765302896499634,0.7422025203704834
1775728231523163600,10.50116357421875,-3.3494882583618164,2.911349296569824,0.9840168952941895
1775728231543244300,10.521244384765625,-3.5721490383148193,3.028665065765381,1.158793568611145
1775728231573426200,10.55142626953125,-3.861847400665283,3.004723072052002,1.213860273361206
1775728231583497000,10.5614970703125,-3.8498764038085938,3.0142998695373535,1.0893617868423462
1775728231593537300,10.571537353515625,-3.861847400665283,3.1244332790374756,1.0295066833496094
1775728231603608000,10.581608154296875,-3.8522706031799316,3.2393548488616943,0.8523358106613159
1775728231613709300,10.591709228515626,-3.8762125968933105,3.35667085647583,0.7206547260284424
1775728231623780000,10.601780029296876,-3.995922565460205,3.4596214294433594,0.6655880808830261
1775728231633820400,10.6118203125,-3.9240965843200684,3.670311212539673,0.4357447028160095
1775728231643891200,10.62189111328125,-3.7421371936798096,3.713406801223755,0.2106897532939911
1775728231663941000,10.641941162109376,-3.643975019454956,3.6583402156829834,0.033518824726343155
1775728231684113400,10.662113525390625,-3.751713991165161,3.4955344200134277,0.0933738648891449
1775728231694184200,10.67218408203125,-3.869029998779297,3.490746021270752,0.07182604819536209
1775728231704255000,10.6822548828125,-3.84269380569458,3.4739866256713867,-0.17238251864910126
1775728231714325800,10.69232568359375,-3.8115692138671875,3.2393548488616943,-0.45250412821769714
1775728231724335600,10.702335693359375,-3.7277719974517822,3.201047658920288,-0.7589619159698486
1775728231734436900,10.712436767578126,-3.531447410583496,2.9903578758239746,-0.9409212470054626
1775728231744507600,10.722507568359376,-3.44765043258667,2.918531894683838,-1.113303780555725
1775728231754517500,10.732517578125,-3.268085241317749,2.786850690841675,-1.3000515699386597
1775728231764588300,10.74258837890625,-3.157952070236206,2.7102363109588623,-1.5658079385757446
1775728231774689500,10.752689453125,-3.045424461364746,2.5689783096313477,-2.070984363555908
1775728231825074000,10.803073974609376,-1.5729905366897583,1.9967641830444336,-4.932055473327637
1775728231835145000,10.81314501953125,-1.3096283674240112,1.7932571172714233,-5.679046630859375
1775728231845154600,10.823154541015626,-1.0462661981582642,1.702277421951294,-6.4164605140686035
1775728231855225300,10.833225341796876,-1.0438719987869263,1.580173134803772,-6.916848659515381
1775728231875367000,10.853366943359376,-1.7884687185287476,1.723825216293335,-8.018181800842285
1775728231885437700,10.863437744140626,-2.4157495498657227,1.9943699836730957,-8.281543731689453
1775728231895478000,10.87347802734375,-2.853888511657715,2.2409727573394775,-8.425195693969727
1775728231905548800,10.883548828125,-3.1292216777801514,2.1332337856292725,-8.398859977722168
1775728231915589000,10.893589111328126,-3.098097085952759,2.0877439975738525,-8.698134422302246
1775728231925660000,10.903659912109376,-2.8131868839263916,1.7477672100067139,-9.042900085449219
1775728231935761400,10.913761474609375,-2.209848165512085,1.3431471586227417,-9.313444137573242
1775728231945832200,10.923832275390625,-1.3623007535934448,0.6200982332229614,-9.028534889221191
1775728231955872300,10.933872314453126,-0.5554547905921936,0.05267243832349777,-8.003816604614258
1775728231965973800,10.943973876953125,0.021547814831137657,-0.7493851184844971,-6.576871871948242
1775728231996247000,10.9742470703125,0.40462008118629456,-1.0989385843276978,-2.5330653190612793
1775728232026459600,11.004459716796875,-0.023942016065120697,1.4508862495422363,-0.4668693244457245
1775728232036530400,11.014530517578125,-0.043095629662275314,1.9919757843017578,-0.3016694188117981
1775728232046601200,11.024601318359375,-0.20111294090747833,2.5019407272338867,-0.05746084079146385
1775728232056672000,11.034672119140625,-0.3423708379268646,2.6001031398773193,0.24660277366638184
1775728232066742800,11.04474267578125,-0.6344634294509888,2.1045033931732178,0.7086837291717529
1775728232086792700,11.064792724609376,-0.9385270476341248,1.3838485479354858,1.4077905416488647
1775728232096802600,11.074802490234376,-1.0247182846069336,0.9552865028381348,1.6974890232086182
1775728232106843000,11.0848427734375,-1.1061211824417114,0.9026140570640564,1.8507179021835327
1775728232116944100,11.094944091796876,-1.0295066833496094,0.8930372595787048,2.2218191623687744
1775728232127015000,11.105014892578126,-1.0534487962722778,0.6967126727104187,2.3918075561523438
1775728232137085700,11.115085693359376,-0.9864110946655273,1.2497732639312744,2.5905263423919678
1775728232147095600,11.125095458984376,-0.9433154463768005,2.2864625453948975,2.6240451335906982
1775728232157196800,11.13519677734375,-0.7038952708244324,2.87064790725708,2.6862943172454834
1775728232167206700,11.14520654296875,-0.7230489253997803,2.937685489654541,2.63362193107605
1775728232177308000,11.155307861328126,-0.7086837291717529,2.6144683361053467,2.604891538619995
1775728232187378700,11.165378662109376,-0.9241618514060974,2.4229321479797363,2.3032219409942627
1775728232207520300,11.185520263671876,-1.3934253454208374,2.31758713722229,1.7956513166427612
1775728232257843700,11.23584375,-2.31758713722229,0.3256114423274994,1.766920804977417
1775728232267853600,11.245853515625,-2.300827741622925,-0.7206547260284424,1.4772224426269531
1775728232277954800,11.255954833984376,-2.2194249629974365,-1.2210428714752197,1.0654197931289673
1775728232287964700,11.265964599609376,-2.169146776199341,-0.9169792532920837,0.8738836050033569
1775728232308075800,11.28607568359375,-2.3080103397369385,-0.1388636976480484,0.8595184087753296
1775728232318146600,11.296146484375,-2.3343467712402344,0.002394201699644327,0.9217676520347595
1775728232328187000,11.306186767578126,-2.2912509441375732,-0.12449848651885986,0.9169792532920837
1775728232338288000,11.3162880859375,-1.9057846069335938,0.12928688526153564,0.8690952062606812
1775728232348328400,11.326328369140626,-1.5682021379470825,0.5291185975074768,0.7781155705451965
1775728232358429700,11.3364296875,-1.4293384552001953,0.6967126727104187,0.7134721279144287
1775728232368470000,11.346469970703126,-0.9481038451194763,0.6943184733390808,0.6823474764823914
1775728232378571300,11.3565712890625,-0.3495534360408783,1.0007762908935547,0.4644751250743866
1775728232408722700,11.38672265625,0.24660277366638184,1.2761094570159912,-0.031124621629714966
1775728232418763000,11.396762939453126,0.4118026793003082,1.1276689767837524,-0.08140286058187485
1775728232428803300,11.40680322265625,0.6200982332229614,1.0606313943862915,-0.11252748221158981
1775728232438904600,11.416904541015626,0.8355764150619507,0.8954314589500427,-0.033518824726343155
1775728232448975400,11.426975341796876,1.1540051698684692,0.8164227604866028,0.1364694982767105
1775728232459046100,11.437046142578126,1.8100165128707886,0.811634361743927,0.1412578970193863
1775728232469056000,11.447055908203126,2.2242133617401123,0.5746083855628967,-0.009576806798577309
1775728232479157200,11.4571572265625,2.2218191623687744,-0.21308395266532898,-0.38307225704193115
1775728232489228000,11.46722802734375,2.073378562927246,-0.7158663272857666,-0.9145850539207458
1775728232539582200,11.517582275390625,1.599326729774475,-0.6129156351089478,-3.883395195007324
1775728232549653000,11.527653076171875,1.314416766166687,-0.7972691655158997,-4.8267107009887695
1775728232559662600,11.53766259765625,1.0893617868423462,-1.1444283723831177,-5.837063789367676
1775728232569733400,11.5477333984375,0.993593692779541,-1.5275006294250488,-6.665457725524902
1775728232579804200,11.55780419921875,0.9672574996948242,-1.8195933103561401,-7.252037048339844
1775728232589875000,11.567875,1.2090718746185303,-2.3343467712402344,-7.565677165985107
1775728232620026400,11.5980263671875,2.497152328491211,-3.7636849880218506,-6.868964672088623
1775728232630036200,11.6080361328125,2.5522189140319824,-3.799597978591919,-6.033388137817383
1775728232640137500,11.618137451171876,2.229001760482788,-3.780444383621216,-4.9368438720703125
1775728232650116900,11.628116943359375,1.482010841369629,-3.4739866256713867,-3.7445313930511475
1775728232660218000,11.638218017578126,0.5554547905921936,-2.873042106628418,-2.6144683361053467
1775728232670228000,11.64822802734375,-0.4596867263317108,-2.169146776199341,-1.6879122257232666
1775728232680329200,11.6583291015625,-1.3000515699386597,-1.479616641998291,-1.2545616626739502
1775728232690338800,11.6683388671875,-1.8698714971542358,-0.9289502501487732,-1.3120225667953491
1775728232700440300,11.6784404296875,-2.121262788772583,-0.5746083855628967,-1.889025092124939
1775728232710450000,11.688449951171876,-2.298433542251587,-0.047884032130241394,-2.5115175247192383
1775728232750763800,11.728763671875,-2.1164743900299072,0.9145850539207458,-2.145204782485962
1775728232760804000,11.73880419921875,-2.188300371170044,1.01753568649292,-1.7573440074920654
1775728232770813700,11.748813720703126,-2.4013843536376953,0.9959878921508789,-1.436521053314209
1775728232780915200,11.758915283203125,-2.6839001178741455,1.0438719987869263,-1.158793568611145
1775728232790924800,11.7689248046875,-2.9927520751953125,1.1803414821624756,-1.0295066833496094
1775728232801026300,11.7790263671875,-3.294421434402466,1.3527239561080933,-0.8762778043746948
1775728232821167900,11.79916796875,-3.998316764831543,1.7621324062347412,-0.7469909191131592
1775728232831208200,11.809208251953125,-4.309563159942627,1.8531121015548706,-0.727837324142456
1775728232841279000,11.819279052734375,-4.594472885131836,1.920149803161621,-0.629675030708313
1775728232851349800,11.829349853515625,-4.932055473327637,1.922544002532959,-0.507570743560791
1775728232861420500,11.839420654296875,-5.2049946784973145,1.764526605606079,-0.45250412821769714
1775728232871399700,11.849399658203126,-5.513846397399902,1.644816517829895,-0.47884035110473633
1775728232881501000,11.8595009765625,-5.7556610107421875,1.5490485429763794,-0.4692635238170624
1775728232891572000,11.869572021484375,-5.963956356048584,1.678335428237915,-0.5315127968788147
1775728232901612000,11.879612060546876,-6.200982570648193,1.7717092037200928,-0.586579442024231
1775728232941864700,11.91986474609375,-6.782773494720459,2.3750481605529785,-0.8523358106613159
1775728232951905000,11.929905029296876,-6.818686485290527,2.406172752380371,-0.8068459630012512
1775728232962006500,11.940006591796875,-6.98628044128418,2.4229321479797363,-0.9002198576927185
1775728232972107800,11.950107666015626,-7.079654216766357,2.4133553504943848,-0.9313444495201111
1775728232982148000,11.960148193359375,-7.182605266571045,2.4396915435791016,-0.9433154463768005
1775728232992157700,11.97015771484375,-7.187393665313721,2.5306711196899414,-0.8667010068893433
1775728233002259200,11.98025927734375,-7.4100542068481445,2.4468741416931152,-0.8810662031173706
1775728233012330000,11.990330078125,-7.486668586730957,2.473210334777832,-0.811634361743927
1775728233032441000,12.010441162109375,-7.4986395835876465,2.609679937362671,-0.9433154463768005
1775728233042481200,12.020481201171876,-7.390900611877441,2.6886885166168213,-0.9840168952941895
1775728233052491000,12.030490966796876,-7.2783732414245605,2.676717519760132,-1.1085153818130493
1775728233062592300,12.04059228515625,-7.01979923248291,2.6455929279327393,-1.3192051649093628
1775728233072632600,12.050632568359376,-6.497863292694092,2.5929205417633057,-1.50355863571167
1775728233082734000,12.060734130859375,-6.030993938446045,2.5115175247192383,-1.525106430053711
1775728233092804900,12.070804931640625,-5.5760955810546875,2.403778553009033,-1.7357962131500244
1775728233102875600,12.080875732421875,-5.0900726318359375,2.408566951751709,-1.9728221893310547
1775728233112946400,12.090946533203125,-4.766855716705322,2.3750481605529785,-2.094926595687866
1775728233143067100,12.121067138671876,-4.0294413566589355,2.3750481605529785,-2.6001031398773193
1775728233153077000,12.131076904296876,-3.3303346633911133,2.0422539710998535,-2.8419175148010254
1775728233163178200,12.14117822265625,-2.6144683361053467,1.98958158493042,-2.913743495941162
1775728233173188000,12.15118798828125,-2.3367409706115723,1.8698714971542358,-3.0573954582214355
1775728233183289300,12.161289306640626,-2.1787235736846924,1.8171991109848022,-3.1220390796661377
1775728233193360100,12.171360107421876,-2.099714994430542,1.7812861204147339,-3.093308687210083
1775728233203461400,12.18146142578125,-2.2912509441375732,2.051830768585205,-3.0382418632507324
1775728233213471200,12.19147119140625,-2.410961151123047,2.205059766769409,-3.095702886581421
1775728233223542000,12.2015419921875,-2.3271639347076416,2.346317768096924,-3.050212860107422
1775728233263733800,12.241733642578126,-1.5179238319396973,2.583343744277954,-3.0310592651367188
1775728233273774000,12.251774169921875,-1.1444283723831177,2.5665841102600098,-3.0765492916107178
1775728233283875300,12.261875244140626,-1.1683704853057861,2.564189910888672,-3.2082302570343018
1775728233293915600,12.27191552734375,-1.115697979927063,2.209848165512085,-3.49314022064209
1775728233304017000,12.282016845703126,-0.9409212470054626,1.9297266006469727,-3.6822822093963623
1775728233314057200,12.29205712890625,-0.5051765441894531,1.41257905960083,-3.928884983062744
1775728233324128000,12.3021279296875,0.12449848651885986,0.7709329724311829,-4.122815132141113
1775728233364441600,12.342441650390626,1.9033904075622559,-1.113303780555725,-3.2632968425750732
1775728233374451500,12.352451416015626,1.6903064250946045,-1.2282254695892334,-2.4636335372924805
1775728233384522200,12.362522216796876,1.213860273361206,-1.314416766166687,-1.7262194156646729
1775728233394562600,12.3725625,0.6536170840263367,-1.3958195447921753,-1.0749965906143188
1775728233404663800,12.382663818359376,0.12210428714752197,-1.237802267074585,-0.5985504388809204
1775728233414673700,12.392673583984376,-0.14604631066322327,-1.2042834758758545,-0.4596867263317108
1775728233424775000,12.40277490234375,-0.3471592366695404,-1.3527239561080933,-0.6799532771110535
1775728233434845700,12.412845703125,-0.272938996553421,-1.5275006294250488,-1.2282254695892334
1775728233444886000,12.422885986328126,-0.1149216815829277,-1.6759412288665771,-1.8507179021835327
1775728233464936200,12.442936279296875,0.002394201699644327,-1.9776105880737305,-2.2888567447662354
1775728233475007000,12.453007080078125,0.033518824726343155,-2.1140801906585693,-2.1811177730560303
1775728233485077800,12.463077880859375,0.11013327538967133,-2.2577321529388428,-1.946485996246338
1775728233495148500,12.4731484375,0.2585737705230713,-2.451662540435791,-1.647210717201233
1775728233505219300,12.48321923828125,0.33758243918418884,-2.5953147411346436,-1.403002142906189
1775728233515259600,12.493259765625,0.5171475410461426,-2.604891538619995,-1.070208191871643
1775728233525269200,12.503269287109376,0.45250412821769714,-2.6360161304473877,-0.8667010068893433
1775728233555451100,12.533451171875,0.17477671802043915,-2.5761611461639404,-0.11971008777618408
1775728233585633000,12.563633056640626,-0.4668693244457245,-2.4229321479797363,0.629675030708313
1775728233595643000,12.573642822265626,-0.5913678407669067,-2.561795711517334,0.8212111592292786
1775728233605744000,12.583744140625,-0.6967126727104187,-2.6024973392486572,0.7972691655158997
1775728233615815000,12.59381494140625,-0.8331822156906128,-2.647987127304077,0.8403648138046265
1775728233625885700,12.6038857421875,-0.9193734526634216,-2.5905263423919678,0.8595184087753296
1775728233635926000,12.613926025390626,-0.9289502501487732,-2.6408045291900635,0.9385270476341248
1775728233656067600,12.634067626953126,-1.1420341730117798,-2.499546527862549,0.9888052940368652
1775728233676209400,12.65420947265625,-1.3479355573654175,-2.389413356781006,1.1180921792984009
1775728233686249500,12.66424951171875,-1.5059528350830078,-2.319981336593628,1.1875240802764893
1775728233696320300,12.6743203125,-1.6735470294952393,-2.3774423599243164,1.158793568611145
1775728233706391300,12.684391357421875,-1.7812861204147339,-2.387019157409668,1.1659762859344482
1775728233716462000,12.694462158203125,-1.946485996246338,-2.279279947280884,1.2976573705673218
1775728233726532900,12.704532958984375,-2.070984363555908,-2.3295583724975586,1.50355863571167
1775728233736542500,12.71454248046875,-2.1284453868865967,-2.2912509441375732,1.5634137392044067
1775728233746644000,12.72464404296875,-2.3127987384796143,-2.2888567447662354,1.4939818382263184
1775728233776764700,12.7547646484375,-2.782062292098999,-2.027888774871826,0.4884171485900879
1775728233786866000,12.764865966796876,-2.959233283996582,-2.126051187515259,0.040701430290937424
1775728233796937000,12.77493701171875,-2.8993782997131348,-2.1140801906585693,-0.4884171485900879
1775728233807038200,12.7850380859375,-2.920926094055176,-2.1284453868865967,-0.912190854549408
1775728233817109000,12.79510888671875,-2.9448680877685547,-2.2433669567108154,-1.2689268589019775
1775728233827179800,12.8051796875,-3.098097085952759,-2.492363929748535,-1.3910311460494995
1775728233837220000,12.81522021484375,-3.157952070236206,-2.676717519760132,-1.3335703611373901
1775728233847321300,12.8253212890625,-3.3207578659057617,-2.849100112915039,-1.3670891523361206
1775728233887543600,12.86554345703125,-4.067748546600342,-3.354276657104492,-1.6041151285171509
1775728233897583900,12.875583984375,-4.175487995147705,-3.404554843902588,-1.5753847360610962
1775728233907593500,12.885593505859376,-4.24970817565918,-3.5625722408294678,-1.4700398445129395
1775728233917603300,12.895603271484376,-4.400542736053467,-3.6535518169403076,-1.357512354850769
1775728233927674000,12.905674072265626,-4.5394062995910645,-3.7852327823638916,-1.3192051649093628
1775728233937684000,12.91568408203125,-4.553771495819092,-4.0533833503723145,-1.2545616626739502
1775728233967804700,12.9458046875,-4.831499099731445,-4.307168960571289,-1.1013327836990356
1775728233977906200,12.95590625,-5.032611846923828,-4.359841346740723,-0.9576807022094727
1775728233987977000,12.96597705078125,-5.130774021148682,-4.266467571258545,-0.6200982332229614
1775728233998047700,12.9760478515625,-5.238513469696045,-4.223371982574463,-0.40940847992897034
1775728234008118500,12.986118408203126,-5.147533416748047,-4.264073371887207,-0.4141969084739685
1775728234018189300,12.996189208984376,-4.955997467041016,-4.225766181945801,-0.3687070608139038
1775728234028199200,13.00619921875,-4.879383087158203,-4.141968727111816,-0.23702596127986908
1775728234038239200,13.0162392578125,-4.721365928649902,-4.173093795776367,-0.21547815203666687
1775728234068451800,13.046451904296875,-4.2544965744018555,-4.410119533538818,-0.06703764945268631
1775728234078492000,13.056491943359376,-4.2544965744018555,-4.55616569519043,0.05506663769483566
1775728234088593400,13.066593505859375,-4.235342979431152,-4.563348293304443,0.14365209639072418
1775728234098664200,13.076664306640625,-4.230554580688477,-4.637568473815918,0.1843535304069519
1775728234108765400,13.086765380859376,-4.046200752258301,-4.699818134307861,0.17717093229293823
1775728234118836200,13.096836181640626,-3.97916316986084,-4.829104900360107,0.14844051003456116
1775728234128907000,13.106906982421876,-3.8163576126098633,-4.843470096588135,0
1775728234138977800,13.116977783203126,-3.773261785507202,-4.747702121734619,-0.090979665517807
1775728234149048600,13.127048583984376,-3.751713991165161,-4.63517427444458,-0.14604631066322327
1775728234209321000,13.187321044921875,-3.450044631958008,-4.216189384460449,-0.5339069962501526
1775728234229432000,13.20743212890625,-3.4141316413879395,-3.8786067962646484,-0.6248866319656372
1775728234239472000,13.21747216796875,-3.3925838470458984,-3.883395195007324,-0.6440402865409851
1775728234249573600,13.22757373046875,-3.3518824577331543,-3.7277719974517822,-0.7206547260284424
1775728234269654000,13.247654052734376,-3.1507694721221924,-3.49314022064209,-1.0630255937576294
1775728234279755500,13.257755615234375,-2.920926094055176,-3.2776620388031006,-1.094150185585022
1775728234289826300,13.267826416015625,-2.7724854946136475,-2.9975404739379883,-1.070208191871643
1775728234299897000,13.27789697265625,-2.631227731704712,-2.0614075660705566,-1.091755986213684
1775728234309906700,13.28790673828125,-2.6839001178741455,-0.5817909836769104,-0.9193734526634216
1775728234320008200,13.29800830078125,-2.736572504043579,0.933738648891449,-0.5027823448181152
1775728234330079000,13.308078857421876,-2.9041666984558105,1.7286136150360107,0.12689268589019775
1775728234340088600,13.318088623046876,-2.978386878967285,2.126051187515259,0.4884171485900879
1775728234350159600,13.32815966796875,-3.023876667022705,1.8746598958969116,0.22026655077934265
1775728234360199700,13.33819970703125,-3.021482467651367,1.213860273361206,-0.15562310814857483
1775728234390290200,13.368290283203125,-2.3319525718688965,-0.6488286852836609,-0.7924807667732239
1775728234410462200,13.388462158203126,-2.542642116546631,0.49799394607543945,-0.5506663918495178
1775728234420533000,13.398532958984376,-2.7916390895843506,0.9433154463768005,-0.33039984107017517
1775728234430573300,13.4085732421875,-2.96162748336792,1.3192051649093628,-0.12689268589019775
1775728234440674600,13.418674560546876,-2.9951462745666504,1.194706678390503,-0.028730420395731926
1775728234450684400,13.428684326171876,-2.9664158821105957,0.7038952708244324,-0.1149216815829277
1775728234460755200,13.438755126953126,-2.7437551021575928,0.038307227194309235,-0.40940847992897034
1775728234490906600,13.46890673828125,-2.6431987285614014,0.6440402865409851,-0.3232172429561615
1775728234500947000,13.478947021484375,-2.7533318996429443,1.070208191871643,-0.05267243832349777
1775728234510956500,13.48895654296875,-2.7078421115875244,1.1276689767837524,0.10773907601833344
1775728234521058000,13.49905810546875,-2.715024709701538,1.45806884765625,0.2585737705230713
1775728234531067600,13.509067626953126,-2.473210334777832,1.1803414821624756,0.2992752194404602
1775728234541138400,13.519138427734376,-2.0877439975738525,0.7493851184844971,0.304063618183136
1775728234551178800,13.5291787109375,-1.647210717201233,0.42616790533065796,-0.07422025501728058
1775728234561280000,13.539280029296876,-1.1803414821624756,0.12210428714752197,-0.45010992884635925
1775728234601532700,13.57953271484375,0.2825157940387726,-0.6751648783683777,-1.381454348564148
1775728234611603500,13.589603515625,0.40701428055763245,-0.629675030708313,-1.3072341680526733
1775728234621613300,13.59961328125,0.33997663855552673,-0.7086837291717529,-1.2330138683319092
1775728234631714600,13.609714599609376,0.35434186458587646,-0.8954314589500427,-1.0534487962722778
1775728234641755000,13.6197548828125,0.3998316824436188,-0.871489405632019,-0.9385270476341248
1775728234651856400,13.6298564453125,0.4357447028160095,-0.5530605912208557,-0.9169792532920837
1775728234661896400,13.639896484375,0.5339069962501526,-0.48602294921875,-0.8619126081466675
1775728234702088200,13.680088134765626,0.8834604024887085,-0.17477671802043915,-0.6033388376235962
1775728234712159000,13.690158935546876,0.993593692779541,-0.19871874153614044,-0.18914192914962769
1775728234722229800,13.700229736328126,1.0893617868423462,-0.35913026332855225,0.10295066982507706
1775728234732300500,13.710300537109376,1.2210428714752197,-0.5482721924781799,0.27054479718208313
1775728234742310400,13.720310302734376,1.3000515699386597,-0.6727706789970398,0.3998316824436188
1775728234752350700,13.730350830078125,1.335964560508728,-0.6847416758537292,0.5315127968788147
1775728234762421500,13.74042138671875,1.316810965538025,-0.5099649429321289,0.6105214357376099
1775728234772431000,13.75043115234375,1.3646949529647827,-0.5171475410461426,0.6967126727104187
1775728234822663200,13.8006630859375,1.2066776752471924,-1.2952631711959839,0.19632454216480255
1775728234832734000,13.81073388671875,1.0582371950149536,-1.2258312702178955,0.021547814831137657
1775728234842804700,13.8208046875,0.8307880163192749,-1.2761094570159912,0.05027823522686958
1775728234852875500,13.83087548828125,0.8427590131759644,-1.2713210582733154,0.05027823522686958
1775728234862915800,13.840915771484376,0.7038952708244324,-1.3718775510787964,-0.07422025501728058
1775728234872956200,13.8509560546875,0.5267243981361389,-1.3000515699386597,-0.21308395266532898
1775728234883027000,13.86102685546875,0.3758896589279175,-1.2689268589019775,-0.45489832758903503
1775728234913178400,13.891178466796875,0.08140286058187485,-1.316810965538025,-1.2449848651885986
1775728234923188000,13.90118798828125,0.0454898327589035,-1.3335703611373901,-1.3694833517074585
1775728234933258800,13.9112587890625,0.033518824726343155,-1.4484920501708984,-1.4053963422775269
1775728234943329500,13.92132958984375,-0.05506663769483566,-1.4101848602294922,-1.3263877630233765
1775728234953339400,13.93133935546875,-0.16519992053508759,-1.2210428714752197,-1.3120225667953491
1775728234963410200,13.94141015625,-0.2825157940387726,-1.1324573755264282,-1.173158884048462
1775728234973450500,13.951450439453126,-0.3878606855869293,-1.0462661981582642,-0.9768342971801758
1775728235003632400,13.98163232421875,-0.47644615173339844,-0.950498104095459,-0.4596867263317108
1775728235013703200,13.991703125,-0.4596867263317108,-0.7326257228851318,-0.4357447028160095
1775728235023682600,14.0016826171875,-0.5027823448181152,-0.7493851184844971,-0.4141969084739685
1775728235033783800,14.01178369140625,-0.4644751250743866,-0.9289502501487732,-0.3687070608139038
1775728235043793400,14.02179345703125,-0.5530605912208557,-0.9026140570640564,-0.3711012601852417
1775728235053833700,14.031833740234376,-0.6751648783683777,-1.0007762908935547,-0.31124621629714966
1775728235063904500,14.041904541015626,-0.6560112833976746,-0.9720458984375,-0.272938996553421
1775728235073944800,14.05194482421875,-0.6655880808830261,-1.1204863786697388,-0.14604631066322327
1775728235083954700,14.06195458984375,-0.6943184733390808,-0.993593692779541,-0.1388636976480484
1775728235114136600,14.092136474609376,-0.7565677165985107,-0.8571242094039917,-0.28730419278144836
1775728235124207400,14.102207275390626,-0.7493851184844971,-0.8882488012313843,-0.3232172429561615
1775728235134247700,14.11224755859375,-0.7398083209991455,-0.8906430602073669,-0.2753331959247589
1775728235144318500,14.122318359375,-0.7422025203704834,-0.7781155705451965,-0.2322375625371933
1775728235154358800,14.13235888671875,-0.6871358752250671,-0.7182605266571045,-0.24420857429504395
1775728235164399000,14.142399169921875,-0.7589619159698486,-0.7613561153411865,-0.14365209639072418
1775728235174408700,14.15240869140625,-0.6943184733390808,-0.8044517636299133,0.023942016065120697
1775728235184479500,14.1624794921875,-0.7110779285430908,-0.790086567401886,0.06464344263076782
1775728235234803000,14.212802978515626,-0.5913678407669067,-0.6057330369949341,0.06464344263076782
1775728235244843300,14.22284326171875,-0.5482721924781799,-0.49799394607543945,0.05267243832349777
1775728235254944800,14.23294482421875,-0.4836287498474121,-0.44532153010368347,-0.07900865375995636
1775728235265015600,14.243015625,-0.45250412821769714,-0.3447650372982025,-0.1388636976480484
1775728235275086300,14.25308642578125,-0.40701428055763245,-0.33279404044151306,-0.08858546614646912
1775728235285126700,14.263126708984375,-0.3447650372982025,-0.19871874153614044,0.019153613597154617
1775728235295228000,14.273227783203126,-0.31842881441116333,-0.05746084079146385,0.040701430290937424
1775728235305268200,14.283268310546875,-0.3447650372982025,-0.12689268589019775,0.028730420395731926
1775728235325440300,14.303440185546876,-0.19871874153614044,0,0.08140286058187485
1775728235345521000,14.32352099609375,-0.14365209639072418,0.009576806798577309,-0.16998831927776337
1775728235355561200,14.333561279296875,-0.0933738648891449,-0.0694318488240242,-0.3423708379268646
1775728235365632000,14.343632080078125,-0.12210428714752197,-0.17477671802043915,-0.48602294921875
1775728235375641600,14.3536416015625,-0.05027823522686958,-0.2777273952960968,-0.5817909836769104
1775728235385712400,14.36371240234375,0.004788403399288654,-0.2322375625371933,-0.6248866319656372
1775728235395752700,14.373752685546876,-0.08858546614646912,-0.21787235140800476,-0.7326257228851318
1775728235405823500,14.383823486328126,-0.090979665517807,-0.09816227108240128,-0.7924807667732239
1775728235446045700,14.424045654296876,0.009576806798577309,-0.14604631066322327,-0.7589619159698486
1775728235456147000,14.43414697265625,0.05506663769483566,-0.05985504388809204,-0.608127236366272
1775728235466156800,14.44415673828125,0.0933738648891449,-0.08379705995321274,-0.4429273009300232
1775728235476227600,14.4542275390625,0.1867477297782898,-0.090979665517807,-0.4213795065879822
1775728235486268000,14.464267822265626,0.2753331959247589,-0.004788403399288654,-0.2992752194404602
1775728235496369200,14.474369140625,0.3471592366695404,0.14365209639072418,-0.2753331959247589
1775728235506379000,14.48437890625,0.4189853072166443,0.2322375625371933,-0.15562310814857483
1775728235516388900,14.494388916015625,0.5219359993934631,0.19632454216480255,-0.07422025501728058
1775728235536530400,14.514530517578125,0.545877993106842,0.5937620401382446,-0.06224924325942993
1775728235576813600,14.5548134765625,0.49320554733276367,0.7709329724311829,-0.45250412821769714
1775728235596924700,14.574924560546876,0.3878606855869293,0.5889736413955688,-0.5171475410461426
1775728235606934300,14.584934326171876,0.3998316824436188,0.4644751250743866,-0.49799394607543945
1775728235627076000,14.605076171875,0.35673606395721436,0.26336219906806946,-0.5027823448181152
1775728235637116200,14.6151162109375,0.3998316824436188,0.22266076505184174,-0.569819986820221
1775728235667298000,14.645298095703126,0.3447650372982025,-0.17717093229293823,-0.6440402865409851
1775728235677399600,14.655399658203125,0.3256114423274994,-0.05746084079146385,-0.6392518281936646
1775728235687409200,14.6654091796875,0.22266076505184174,-0.10295066982507706,-0.7134721279144287
1775728235697449500,14.675449462890626,0.2753331959247589,-0.0694318488240242,-0.6177040338516235
1775728235707520300,14.685520263671876,0.24420857429504395,-0.047884032130241394,-0.5315127968788147
1775728235717560600,14.695560546875,0.1867477297782898,-0.090979665517807,-0.44532153010368347
1775728235727601000,14.705600830078126,0.20111294090747833,-0.14365209639072418,-0.31842881441116333
1775728235767823000,14.745822998046876,0.016759412363171577,-0.47644615173339844,-0.23702596127986908
1775728235777894000,14.755893798828126,0.1149216815829277,-0.27054479718208313,-0.07422025501728058
1775728235787903700,14.76590380859375,0.0454898327589035,-0.19393034279346466,-0.07182604819536209
1775728235798005000,14.7760048828125,0.011971008032560349,-0.1364694982767105,-0.10773907601833344
1775728235808014600,14.7860146484375,0.040701430290937424,-0.12210428714752197,-0.17238251864910126
1775728235828187000,14.806186767578126,0,-0.031124621629714966,-0.23702596127986908
1775728235838257700,14.816257568359376,0.011971008032560349,-0.038307227194309235,-0.2585737705230713
1775728235878449400,14.856449462890625,-0.05027823522686958,-0.011971008032560349,-0.31364041566848755
1775728235888489500,14.866489501953126,-0.10534487664699554,0,-0.3256114423274994
1775728235898591000,14.876591064453125,-0.181959331035614,0.06464344263076782,-0.2585737705230713
1775728235908570000,14.886570068359376,-0.1412578970193863,0.0694318488240242,-0.21308395266532898
1775728235918671400,14.89667138671875,-0.10295066982507706,-0.05267243832349777,-0.09816227108240128
1775728235928681200,14.90668115234375,-0.07661445438861847,-0.031124621629714966,-0.11013327538967133
1775728235938782500,14.916782470703126,0.040701430290937424,0.038307227194309235,-0.26815059781074524
1775728235958863000,14.936863037109376,0.08379705995321274,-0.07182604819536209,-0.26096799969673157
1775728235968934000,14.946933837890626,0.07900865375995636,-0.09816227108240128,-0.2346317619085312
1775728235979004700,14.957004638671876,0.05506663769483566,-0.16519992053508759,-0.3687070608139038
1775728235988984000,14.966984130859375,0.08858546614646912,-0.2585737705230713,-0.33518823981285095
1775728235999085300,14.977085205078126,0.1388636976480484,-0.2346317619085312,-0.2801215946674347
1775728236009095000,14.987094970703126,0.19393034279346466,-0.30885201692581177,-0.3208230137825012
1775728236019166000,14.997166015625,0.2346317619085312,-0.2825157940387726,-0.31603461503982544
1775728236029145000,15.00714501953125,0.31603461503982544,-0.3232172429561615,-0.3495534360408783
1775728236039246300,15.017246337890626,0.31124621629714966,-0.42616790533065796,-0.47884035110473633
1775728236069367300,15.0473671875,0.22266076505184174,-0.3208230137825012,-0.45010992884635925
1775728236089539300,15.067539306640626,0.15801730751991272,-0.26336219906806946,-0.4405331015586853
1775728236099610000,15.077610107421876,0.21547815203666687,-0.21787235140800476,-0.4668693244457245
1775728236109650400,15.087650390625,0.10295066982507706,-0.1149216815829277,-0.5027823448181152
1775728236119751700,15.097751708984376,0.12210428714752197,-0.1628057211637497,-0.4668693244457245
1775728236129761500,15.107761474609376,0.22266076505184174,-0.19393034279346466,-0.4668693244457245
1775728236139862800,15.11786279296875,0.21547815203666687,-0.22026655077934265,-0.45010992884635925
1775728236190155800,15.16815576171875,0.36152446269989014,-0.23702596127986908,-0.26336219906806946
1775728236200226600,15.1782265625,0.37828385829925537,-0.22744916379451752,-0.3471592366695404
1775728236210267000,15.188266845703126,0.4357447028160095,-0.19632454216480255,-0.26096799969673157
1775728236220368100,15.1983681640625,0.38546648621559143,-0.12449848651885986,-0.23942017555236816
1775728236230378000,15.2083779296875,0.4381389021873474,-0.08619125932455063,-0.2585737705230713
1775728236240387800,15.218387939453125,0.4644751250743866,0.011971008032560349,-0.24899697303771973
1775728236250458600,15.228458740234375,0.5434837937355042,-0.09576806426048279,-0.26336219906806946
1775728236280579300,15.258579345703126,0.47884035110473633,-0.019153613597154617,-0.2059013396501541
1775728236290650000,15.268650146484376,0.45010992884635925,-0.002394201699644327,-0.2801215946674347
1775728236300721000,15.278720947265626,0.3902548849582672,-0.08140286058187485,-0.35673606395721436
1775728236310761200,15.28876123046875,0.3998316824436188,-0.22026655077934265,-0.40462008118629456
1775728236320771000,15.29877099609375,0.4381389021873474,-0.15562310814857483,-0.4189853072166443
1775728236330841900,15.308841796875,0.4165911078453064,-0.2825157940387726,-0.40462008118629456
1775728236340851700,15.318851806640625,0.44532153010368347,-0.2537853717803955,-0.569819986820221
1775728236350892000,15.32889208984375,0.42856210470199585,-0.31842881441116333,-0.7254431247711182
1775728236360901600,15.338901611328126,0.5195417404174805,-0.3926490843296051,-0.8140285611152649
1775728236401154300,15.379154296875,0.5530605912208557,-0.40940847992897034,-0.45250412821769714
1775728236411225000,15.38922509765625,0.4812345504760742,-0.524330198764801,-0.3256114423274994
1775728236421295900,15.3992958984375,0.40701428055763245,-0.4908113479614258,-0.304063618183136
1775728236431275300,15.409275146484376,0.37828385829925537,-0.5267243981361389,-0.15322890877723694
1775728236441376500,15.41937646484375,0.3758896589279175,-0.49559974670410156,-0.0933738648891449
1775728236451447300,15.429447265625,0.3926490843296051,-0.4644751250743866,-0.05027823522686958
1775728236461518000,15.43951806640625,0.5027823448181152,-0.6009446382522583,-0.15322890877723694
1775728236481537800,15.459537841796875,0.5386953949928284,-0.8212111592292786,-0.3998316824436188
1775728236491577900,15.469577880859376,0.4668693244457245,-0.8475474119186401,-0.4596867263317108
1775728236501679400,15.479679443359375,0.4405331015586853,-0.9457096457481384,-0.35673606395721436
1775728236511750100,15.489750244140625,0.35434186458587646,-0.9097966551780701,-0.29209262132644653
1775728236521821000,15.499821044921875,0.2992752194404602,-0.8786720037460327,-0.30885201692581177
1775728236531891700,15.5098916015625,0.1843535304069519,-0.8427590131759644,-0.2585737705230713
1775728236541901300,15.5199013671875,0.20111294090747833,-0.9169792532920837,-0.26096799969673157
1775728236551941600,15.529941650390626,0.2082955539226532,-0.8954314589500427,-0.2513911724090576
1775728236562043100,15.540043212890625,0.16759411990642548,-0.8547300100326538,-0.20350714027881622
1775728236602326300,15.580326171875,-0.12210428714752197,-0.9385270476341248,0.33518823981285095
1775728236612397000,15.59039697265625,-0.08379705995321274,-0.9217676520347595,0.3687070608139038
1775728236622467800,15.6004677734375,-0.1173158809542656,-1.0438719987869263,0.2322375625371933
1775728236632477700,15.610477783203125,-0.090979665517807,-1.0414776802062988,0.13168109953403473
1775728236642548500,15.620548583984375,0.047884032130241394,-1.015141487121582,0.0071826050989329815
1775728236652558000,15.63055810546875,0.033518824726343155,-0.8882488012313843,-0.05506663769483566
1775728236662659600,15.64065966796875,0.031124621629714966,-0.8020575642585754,-0.24420857429504395
1775728236692810800,15.670810791015626,-0.48602294921875,-0.4908113479614258,-0.4668693244457245
1775728236702881500,15.680881591796876,-0.5937620401382446,-0.1867477297782898,-0.6440402865409851
1775728236712891400,15.690891357421876,-0.8044517636299133,0.2082955539226532,-0.6943184733390808
1775728236722992600,15.70099267578125,-1.0989385843276978,0.40701428055763245,-0.7781155705451965
1775728236733033000,15.711032958984376,-1.4748282432556152,0.4357447028160095,-1.0773907899856567
1775728236743073300,15.7210732421875,-1.9105730056762695,0.47165772318840027,-1.2832920551300049
1775728236753144000,15.73114404296875,-2.4013843536376953,0.5650315880775452,-1.4317326545715332
1775728236763214800,15.74121484375,-2.650381326675415,0.9289502501487732,-1.4077905416488647
1775728236773285600,15.75128564453125,-2.9975404739379883,1.278503656387329,-1.2880805730819702
1775728236803437000,15.78143701171875,-3.3303346633911133,2.0590133666992188,-0.4908113479614258
1775728236813477400,15.791477294921876,-3.1723172664642334,2.207453966140747,-0.38067805767059326
1775728236823548200,15.801548095703126,-2.920926094055176,2.1475989818573,-0.5554547905921936
1775728236833588500,15.81158837890625,-2.741360902786255,2.0422539710998535,-0.6224924325942993
1775728236853669000,15.831669189453125,-1.8171991109848022,1.8986018896102905,-0.31603461503982544
1775728236863740000,15.841739990234375,-1.4987702369689941,1.7717092037200928,-0.22026655077934265
1775728236873810700,15.851810791015625,-1.2114660739898682,1.7070658206939697,-0.19153612852096558
1775728236904053500,15.882053466796876,-0.42616790533065796,1.2761094570159912,0.2968810200691223
1775728236924195000,15.902195068359376,0.08140286058187485,0.9696516990661621,0.40940847992897034
1775728236934265900,15.912265869140626,0.15562310814857483,0.912190854549408,0.5291185975074768
1775728236944336600,15.922336669921876,0.22026655077934265,0.8810662031173706,0.751779317855835
1775728236954377000,15.932376953125,0.36152446269989014,0.8044517636299133,0.8523358106613159
1775728236974518500,15.9525185546875,0.45010992884635925,0.5363011956214905,0.5530605912208557
1775728236984528400,15.9625283203125,0.6344634294509888,0.3711012601852417,0.3423708379268646
1775728237014618600,15.99261865234375,1.4437036514282227,0.1173158809542656,-0.22266076505184174
1775728237034760400,16.012760498046877,1.9728221893310547,-0.1628057211637497,-0.5267243981361389
1775728237044800500,16.022800537109376,2.0398597717285156,-0.2106897532939911,-0.6607996821403503
1775728237054810400,16.032810302734376,1.9919757843017578,-0.2777273952960968,-0.6129156351089478
1775728237064881200,16.042881103515626,1.7908629179000854,-0.4429273009300232,-0.45489832758903503
1775728237074952000,16.052951904296876,1.5658079385757446,-0.5123591423034668,-0.1149216815829277
1775728237105011700,16.08301171875,1.173158884048462,-0.8475474119186401,0.524330198764801
1775728237115021600,16.093021484375,1.2018892765045166,-0.9911994934082031,0.6560112833976746
1775728237125122800,16.103122802734376,1.37906014919281,-1.2473790645599365,0.7829039692878723
1775728237135193600,16.113193603515626,1.5298948287963867,-1.2114660739898682,0.8571242094039917
1775728237145264400,16.123264404296876,1.5466543436050415,-1.2976573705673218,0.9265560507774353
1775728237155335200,16.133335205078126,1.5418659448623657,-1.216254472732544,1.1085153818130493
1775728237165406000,16.143406005859376,1.601720929145813,-1.1803414821624756,1.3096283674240112
1775728237175477000,16.15347705078125,1.5705963373184204,-1.192312479019165,1.3958195447921753
1775728237185547800,16.1635478515625,1.6687586307525635,-1.115697979927063,1.5107412338256836
1775728237205689300,16.183689453125,1.5298948287963867,-1.0821791887283325,1.7405846118927002
1775728237215760100,16.193760009765626,1.5945383310317993,-1.0414776802062988,1.9823989868164062
1775728237225831000,16.203830810546876,1.4844050407409668,-0.706289529800415,2.126051187515259
1775728237235840800,16.2138408203125,1.3527239561080933,-0.5506663918495178,2.2697031497955322
1775728237245942000,16.22394189453125,1.259350061416626,-0.5267243981361389,2.6384103298187256
1775728237255951600,16.23395166015625,1.2497732639312744,-0.2777273952960968,2.980781078338623
1775728237266053000,16.24405322265625,1.0271124839782715,-0.2082955539226532,3.361459255218506
1775728237276124000,16.2541240234375,0.828393816947937,-0.3663128614425659,3.6128504276275635
1775728237286225200,16.26422509765625,0.7613561153411865,-0.6200982332229614,3.6607344150543213
1775728237296296000,16.2742958984375,0.6224924325942993,-0.4596867263317108,3.536235809326172
1775728237336579000,16.3145791015625,-0.040701430290937424,1.9800047874450684,2.717418909072876
1775728237346649900,16.32464990234375,-0.12210428714752197,2.030282974243164,2.3367409706115723
1775728237356721000,16.334720947265627,-0.090979665517807,2.1380221843719482,1.9081788063049316
1775728237366822100,16.344822265625,-0.181959331035614,2.118868589401245,1.381454348564148
1775728237376893000,16.354892822265626,-0.2059013396501541,1.9776105880737305,1.0869675874710083
1775728237386963700,16.364963623046876,-0.2561795711517334,2.011129379272461,1.0606313943862915
1775728237397034500,16.375034423828126,-0.3758896589279175,1.8052281141281128,1.0223240852355957
1775728237417176000,16.395176025390626,-0.8355764150619507,1.8555063009262085,1.7166426181793213
1775728237437317600,16.415317626953126,-1.9728221893310547,1.7621324062347412,1.8052281141281128
1775728237447388400,16.425388427734376,-2.365471363067627,1.6927006244659424,1.2186486721038818
1775728237457398300,16.435398193359376,-2.5953147411346436,1.6112977266311646,0.35434186458587646
1775728237467469000,16.445468994140626,-2.499546527862549,1.4484920501708984,-1.0558429956436157
1775728237477479000,16.45547900390625,-1.8770540952682495,1.3215993642807007,-2.7916390895843506
1775728237487580200,16.465580078125,-1.3239935636520386,1.2282254695892334,-4.651933670043945
1775728237497651000,16.47565087890625,-1.3910311460494995,1.161187767982483,-6.069301128387451
1775728237507630000,16.485630126953126,-1.900996208190918,1.256955862045288,-6.998251438140869
1775728237517731600,16.495731689453127,-2.5498247146606445,1.0749965906143188,-7.587224960327148
1775728237537873200,16.515873046875,-2.9233202934265137,0.35673606395721436,-8.449137687683105
1775728237547883000,16.525883056640627,-2.4875755310058594,-0.1867477297782898,-8.506598472595215
1775728237557984300,16.535984375,-2.38462495803833,-0.7733271718025208,-8.056488990783691
1775728237568085500,16.54608544921875,-2.2912509441375732,-1.161187767982483,-7.417236804962158
1775728237578156300,16.55615625,-2.456450939178467,-1.1899182796478271,-6.275202751159668
1775728237588196600,16.566196533203126,-2.604891538619995,-0.8259995579719543,-5.219359874725342
1775728237598297900,16.5762978515625,-2.741360902786255,-0.5722141861915588,-4.632780075073242
1775728237608368600,16.58636865234375,-2.4636335372924805,-0.43095630407333374,-4.458003520965576
1775728237628418800,16.606418701171876,-1.4939818382263184,-0.22026655077934265,-4.525041103363037
1775728237638489600,16.616489501953126,-0.6416460275650024,-0.2825157940387726,-4.1180267333984375
1775728237648560400,16.626560302734376,-0.009576806798577309,-0.3878606855869293,-3.222595453262329
1775728237658631200,16.636631103515626,0.3687070608139038,-0.5506663918495178,-2.0685901641845703
1775728237668671500,16.64667138671875,0.3974374830722809,-0.8427590131759644,-0.9026140570640564
1775728237678681300,16.656681396484377,0.304063618183136,-0.8690952062606812,0.3998316824436188
1775728237688721400,16.666721435546876,-0.019153613597154617,-0.7445967197418213,1.6280571222305298
1775728237698792200,16.676792236328126,-0.2944868206977844,-0.7374141216278076,2.6144683361053467
1775728237708832500,16.68683251953125,-0.5554547905921936,-0.5219359993934631,3.2968156337738037
1775728237728913200,16.7069130859375,-0.35434186458587646,-0.1604115068912506,4.1395745277404785
