time,seconds_elapsed,z,y,x
1775728220719732000,-0.30226806640625,0.10995574295520782,0.3640756905078888,0.4605923891067505
1775728220729502700,-0.292497314453125,-0.17959438264369965,0.3836233615875244,0.2590068578720093
1775728220739243000,-0.282757080078125,-0.31642818450927734,0.6682865619659424,0.6414085030555725
1775728220748914000,-0.273086181640625,0.18448130786418915,-0.2687807083129883,-0.8148942589759827
1775728220758754000,-0.263245849609375,0.15271630883216858,-0.1966986060142517,-0.6976081132888794
1775728220768625000,-0.253375,0.039095375686883926,-0.01466076634824276,-0.34574973583221436
1775728220778695700,-0.24330419921875,0.030543262138962746,-0.019547687843441963,-0.2919935882091522
1775728220788797200,-0.233202880859375,0.024434609338641167,-0.024434609338641167,-0.27122417092323303
1775728220798837200,-0.223162841796875,0.013439035043120384,-0.0403171069920063,-0.26145032048225403
1775728220808908300,-0.213091796875,0.02687807008624077,-0.0403171069920063,-0.22846360504627228
1775728220818979000,-0.20302099609375,0.05619960278272629,-0.02076941914856434,-0.14782938361167908
1775728220859170600,-0.162829345703125,-0.010995574295520782,-0.05375614017248154,-0.07330382615327835
1775728220899353900,-0.122646240234375,-0.045204028487205505,-0.0708603709936142,0.11850785464048386
1775728220929596700,-0.0924033203125,-0.03176499158143997,-0.009773843921720982,0.045204028487205505
1775728220939637000,-0.082363037109375,-0.030543262138962746,-0.019547687843441963,0.045204028487205505
1775728220949707800,-0.072292236328125,-0.02932153269648552,-0.02076941914856434,0.02932153269648552
1775728220959778600,-0.062221435546875,-0.024434609338641167,-0.0024434609804302454,0.02932153269648552
1775728220969849300,-0.052150634765625,-0.025656340643763542,0,0.021991148591041565
1775728220979889700,-0.0421103515625,-0.02932153269648552,-0.004886921960860491,0.010995574295520782
1775728220989960400,-0.03203955078125,-0.028099801391363144,-0.013439035043120384,0.00855211354792118
1775728220999970300,-0.02202978515625,-0.02321287989616394,-0.02321287989616394,0.012217304669320583
1775728221010041000,-0.011958984375,-0.018325956538319588,-0.02687807008624077,0.012217304669320583
1775728221020081400,-0.001918701171875,-0.01466076634824276,-0.015882495790719986,0.0012217304902151227
1775728221030152200,0.008152099609375,-0.012217304669320583,-0.004886921960860491,0.015882495790719986
1775728221040223000,0.018222900390625,-0.015882495790719986,-0.0024434609804302454,0.036651913076639175
1775728221070465800,0.0484658203125,-0.018325956538319588,-0.025656340643763542,0.024434609338641167
1775728221080506000,0.058506103515625,-0.019547687843441963,-0.025656340643763542,0.00733038317412138
1775728221090546400,0.06854638671875,-0.025656340643763542,-0.010995574295520782,-0.013439035043120384
1775728221100556300,0.078556396484375,-0.02321287989616394,-0.00366519158706069,-0.012217304669320583
1775728221110627000,0.088626953125,-0.021991148591041565,-0.010995574295520782,-0.00733038317412138
1775728221120697900,0.09869775390625,-0.021991148591041565,-0.012217304669320583,-0.01466076634824276
1775728221130768600,0.1087685546875,-0.018325956538319588,-0.012217304669320583,-0.012217304669320583
1775728221140809000,0.11880908203125,-0.00855211354792118,-0.02076941914856434,0.018325956538319588
1775728221171021300,0.149021240234375,-0.015882495790719986,-0.030543262138962746,0.03176499158143997
1775728221191193300,0.169193359375,-0.028099801391363144,0.02687807008624077,-0.0024434609804302454
1775728221211335000,0.1893349609375,-0.03420845419168472,0.03420845419168472,0.06719517707824707
1775728221221406000,0.199406005859375,-0.04398229718208313,0.021991148591041565,0.09407325088977814
1775728221231476700,0.209476806640625,-0.04886921867728233,0.019547687843441963,0.09651670604944229
1775728221241516800,0.219516845703125,-0.04764748737215996,0.02321287989616394,0.09529497474431992
1775728221261658600,0.23965869140625,-0.051312681287527084,0.02321287989616394,0.08429940044879913
1775728221281800200,0.25980029296875,-0.05619960278272629,-0.0354301854968071,0.07452555745840073
1775728221291901400,0.2699013671875,-0.05742133408784866,-0.04398229718208313,0.0806342139840126
1775728221301911300,0.279911376953125,-0.05497787147760391,-0.03420845419168472,0.1014036312699318
1775728221311982000,0.289982177734375,-0.05253441259264946,-0.024434609338641167,0.10751228034496307
1775728221322052900,0.300052978515625,-0.04886921867728233,-0.010995574295520782,0.10751228034496307
1775728221342194400,0.3201943359375,-0.05009094998240471,0.021991148591041565,0.09529497474431992
1775728221362275000,0.340275146484375,-0.06230825558304787,0.01710422709584236,0.09773843735456467
1775728221392548400,0.37054833984375,-0.06475171446800232,0.03420845419168472,0.13072516024112701
1775728221402619100,0.380619140625,-0.07696902006864548,0.02932153269648552,0.1514945775270462
1775728221412690000,0.39068994140625,-0.0757472887635231,0.006108652334660292,0.1612684279680252
1775728221422760700,0.4007607421875,-0.08552113175392151,-0.00733038317412138,0.16249015927314758
1775728221432831500,0.41083154296875,-0.11728613078594208,-0.013439035043120384,0.12828169763088226
1775728221442902500,0.420902587890625,-0.12339477986097336,0.00855211354792118,0.13316862285137177
1775728221452912000,0.430912109375,-0.12339477986097336,0.00855211354792118,0.13316862285137177
1775728221493226000,0.47122607421875,-0.051312681287527084,0.021991148591041565,0.3335324227809906
1775728221523438300,0.501438232421875,-0.03787364438176155,-0.08429940044879913,-0.045204028487205505
1775728221533478700,0.511478759765625,-0.03787364438176155,-0.08429940044879913,-0.045204028487205505
1775728221543549400,0.521549560546875,-0.01466076634824276,-0.08674286305904388,-0.09773843735456467
1775728221553589800,0.53158984375,-0.01710422709584236,-0.06719517707824707,-0.1612684279680252
1775728221563629800,0.5416298828125,-0.00733038317412138,-0.03787364438176155,-0.21013765037059784
1775728221573700900,0.551700927734375,0.02687807008624077,-0.021991148591041565,-0.28588494658470154
1775728221603852000,0.58185205078125,0.2981022298336029,-0.12217304855585098,-1.0690141916275024
1775728221613953500,0.59195361328125,0.37140607833862305,-0.2174680233001709,-1.284038782119751
1775728221624024300,0.6020244140625,0.40194934606552124,-0.27000242471694946,-1.4147639274597168
1775728221634064600,0.612064697265625,0.39217549562454224,-0.2565633952617645,-1.4966198205947876
1775728221644166000,0.622165771484375,0.38606682419776917,-0.25045475363731384,-1.5308283567428589
1775728221654236700,0.632236572265625,0.4251621961593628,-0.2919935882091522,-1.529606580734253
1775728221664307500,0.642307373046875,0.5192354321479797,-0.4056145250797272,-1.4978415966033936
1775728221684418600,0.66241845703125,0.7379252314567566,-0.646295428276062,-1.7434093952178955
1775728221694459000,0.672458984375,0.6536257863044739,-0.66584312915802,-2.183232307434082
1775728221704529700,0.68252978515625,0.618195652961731,-0.740368664264679,-2.604729413986206
1775728221714570000,0.692570068359375,0.6499606370925903,-0.911410927772522,-2.92848801612854
1775728221724610000,0.702610107421875,0.6059783101081848,-1.1520918607711792,-3.2705724239349365
1775728221734711600,0.712711669921875,0.5497786998748779,-1.4098769426345825,-3.6163222789764404
1775728221744782300,0.7227822265625,0.513126790523529,-1.5968017578125,-3.8069121837615967
1775728221774964200,0.752964111328125,0.6328563690185547,-1.8106045722961426,-3.2168164253234863
1775728221785004500,0.763004638671875,0.7171558141708374,-1.794722080230713,-2.989574432373047
1775728221795075300,0.773075439453125,0.7525860071182251,-1.6664403676986694,-2.7757716178894043
1775728221805115600,0.78311572265625,0.8014551997184753,-1.4844025373458862,-2.548529863357544
1775728221815186400,0.7931865234375,0.8796459436416626,-1.2571606636047363,-2.317622661590576
1775728221825226800,0.803226806640625,0.9285151958465576,-0.9969320893287659,-2.068389654159546
1775728221835297500,0.813297607421875,0.9468411207199097,-0.8808676600456238,-1.742187738418579
1775728221845307100,0.82330712890625,0.9871582388877869,-0.9419541954994202,-1.3744467496871948
1775728221855408600,0.83340869140625,1.0604621171951294,-1.0409144163131714,-1.056796908378601
1775728221895630600,0.873630615234375,1.1374311447143555,-0.9370672702789307,-0.48380526900291443
1775728221905701400,0.883701416015625,1.1191051006317139,-0.7855727076530457,-0.4105014503002167
1775728221915741700,0.89374169921875,1.1325441598892212,-0.6731734871864319,-0.31154128909111023
1775728221925782000,0.903781982421875,1.177748203277588,-0.5778785347938538,-0.21991148591041565
1775728221935852800,0.913852783203125,1.224173903465271,-0.5119050741195679,-0.11972958594560623
1775728221945893000,0.92389306640625,1.2596040964126587,-0.44715335965156555,-0.024434609338641167
1775728221955964000,0.9339638671875,1.291369080543518,-0.38606682419776917,0.03176499158143997
1775728221976136000,0.954135986328125,1.33168625831604,-0.24190263450145721,0.02321287989616394
1775728221996247000,0.9742470703125,1.330464482307434,-0.10262536257505417,-0.04398229718208313
1775728222006287400,0.984287353515625,1.3170254230499268,-0.039095375686883926,-0.04764748737215996
1775728222026429000,1.004428955078125,1.3829989433288574,0.11728613078594208,0.32498031854629517
1775728222036499700,1.014499755859375,1.4501941204071045,0.16249015927314758,0.6536257863044739
1775728222046540000,1.0245400390625,1.518610954284668,0.2076941877603531,1.0103710889816284
1775728222056580400,1.034580322265625,1.5723671913146973,0.2773328125476837,1.3634512424468994
1775728222066590200,1.044590087890625,1.6139060258865356,0.34208452701568604,1.6957619190216064
1775728222086762200,1.06476220703125,1.6713273525238037,0.4899139404296875,2.409252643585205
1775728222106903800,1.08490380859375,1.644449234008789,0.5302310585975647,2.8124237060546875
1775728222116974600,1.094974609375,1.568701982498169,0.5534439086914062,2.7061331272125244
1775728222127015000,1.105014892578125,1.4844025373458862,0.6401867866516113,2.4495697021484375
1775728222137085700,1.115085693359375,1.4184291362762451,0.7586946487426758,2.166128158569336
1775728222147156500,1.125156494140625,1.3536773920059204,0.8295549750328064,1.9144517183303833
1775728222157227300,1.135227294921875,1.281595230102539,0.8918632864952087,1.7177530527114868
1775728222177399600,1.155399658203125,1.1704177856445312,0.9199630618095398,1.4587461948394775
1775728222187470300,1.16547021484375,1.0848966836929321,0.9358455538749695,1.320690631866455
1775728222197510700,1.1755107421875,1.0152580738067627,0.9468411207199097,1.1630873680114746
1775728222207581400,1.18558154296875,0.979827880859375,0.9529497623443604,1.0250319242477417
1775728222217652200,1.19565234375,0.9566149711608887,0.9321803450584412,0.911410927772522
1775728222227723000,1.205722900390625,0.8943067193031311,0.9162978529930115,0.7391469478607178
1775728222237824300,1.21582421875,0.8307767510414124,0.9334021210670471,0.5216789245605469
1775728222247895000,1.22589501953125,0.7953465580940247,0.9566149711608887,0.3188716471195221
1775728222257965800,1.2359658203125,0.7550294399261475,0.9834930300712585,0.1417207419872284
1775728222268036600,1.24603662109375,0.6951646208763123,1.0030407905578613,-0.042760565876960754
1775728222298249200,1.276249267578125,0.5778785347938538,1.0152580738067627,-0.43615779280662537
1775728222308320000,1.286320068359375,0.5644394755363464,0.9810495972633362,-0.4801400899887085
1775728222318390800,1.296390869140625,0.5461135506629944,0.9468411207199097,-0.5155702829360962
1775728222328461600,1.306461669921875,0.5155702829360962,0.9419541954994202,-0.5546656250953674
1775728222338502000,1.316501953125,0.4960225820541382,0.9334021210670471,-0.5363397002220154
1775728222348511500,1.326511474609375,0.49235737323760986,0.8747590184211731,-0.43249258399009705
1775728222358612700,1.33661279296875,0.47280970215797424,0.7831292152404785,-0.3176499307155609
1775728222368683800,1.346683837890625,0.45326200127601624,0.6951646208763123,-0.23335053026676178
1775728222378754600,1.356754638671875,0.43615779280662537,0.6243042945861816,-0.17837265133857727
1775728222438996200,1.416996337890625,0.16859880089759827,0.3225368559360504,-0.19547687470912933
1775728222449036500,1.42703662109375,0.1612684279680252,0.2675589919090271,-0.26145032048225403
1775728222459137800,1.4371376953125,0.14538592100143433,0.24190263450145721,-0.3604104816913605
1775728222469208600,1.44720849609375,0.1466076523065567,0.23579397797584534,-0.4202753007411957
1775728222479249000,1.457248779296875,0.1661553531885147,0.21502456068992615,-0.4434881806373596
1775728222499360000,1.477360107421875,0.1771509200334549,0.15760323405265808,-0.4899139404296875
1775728222509430800,1.4874306640625,0.16493362188339233,0.12950342893600464,-0.5461135506629944
1775728222529450200,1.5074501953125,0.15515977144241333,0.10384709388017654,-0.5962044596672058
1775728222559693000,1.537693115234375,0.2125810980796814,0,-0.4764748811721802
1775728222569764000,1.54776416015625,0.21991148591041565,-0.02687807008624077,-0.4642575979232788
1775728222579835000,1.5578349609375,0.2272418737411499,-0.04642575979232788,-0.4691445231437683
1775728222589875000,1.567875,0.22479841113090515,-0.06352998316287994,-0.4691445231437683
1775728222599976400,1.5779765625,0.21013765037059784,-0.07819075137376785,-0.47280970215797424
1775728222630158300,1.608158447265625,0.16004669666290283,-0.12217304855585098,-0.4447098970413208
1775728222640259600,1.618259521484375,0.1417207419872284,-0.12217304855585098,-0.43615779280662537
1775728222660401200,1.638401123046875,0.10873401165008545,-0.11850785464048386,-0.40194934606552124
1775728222680542700,1.658542724609375,0.10751228034496307,-0.1111774742603302,-0.28466320037841797
1775728222690613500,1.668613525390625,0.10262536257505417,-0.1160643994808197,-0.23579397797584534
1775728222700715000,1.678715087890625,0.09651670604944229,-0.11484266817569733,-0.18814650177955627
1775728222741059000,1.71905908203125,0.09162978827953339,-0.09162978827953339,-0.13316862285137177
1775728222751069000,1.72906884765625,0.07819075137376785,-0.0757472887635231,-0.19303341209888458
1775728222761139700,1.7391396484375,0.07819075137376785,-0.05253441259264946,-0.251676470041275
1775728222771210500,1.74921044921875,0.09773843735456467,-0.028099801391363144,-0.2736676335334778
1775728222781281300,1.75928125,0.11362093687057495,-0.01466076634824276,-0.27122417092323303
1775728222791352000,1.76935205078125,0.11728613078594208,-0.021991148591041565,-0.28099802136421204
1775728222801453300,1.779453369140625,0.11972958594560623,-0.036651913076639175,-0.31154128909111023
1775728222811524400,1.7895244140625,0.11850785464048386,-0.04398229718208313,-0.3640756905078888
1775728222831666000,1.809666015625,0.1319468915462494,-0.08307767659425735,-0.455705463886261
1775728222851807500,1.829807373046875,0.13805554807186127,-0.16004669666290283,-0.49724429845809937
1775728222861878300,1.839878173828125,0.1319468915462494,-0.1966986060142517,-0.5302310585975647
1775728222871949000,1.849948974609375,0.1319468915462494,-0.1966986060142517,-0.5302310585975647
1775728222882050300,1.86005029296875,0.13439035415649414,-0.2272418737411499,-0.5607742667198181
1775728222892121000,1.87012109375,0.12339477986097336,-0.2565633952617645,-0.6133087277412415
1775728222902222600,1.88022265625,0.10873401165008545,-0.27611109614372253,-0.675616979598999
1775728222912262700,1.8902626953125,0.10751228034496307,-0.29077184200286865,-0.7244861721992493
1775728222942475300,1.920475341796875,0.09162978827953339,-0.33475416898727417,-0.8283332586288452
1775728222962616800,1.940616943359375,0.07330382615327835,-0.3738495409488678,-0.8576548099517822
1775728222972626400,1.95062646484375,0.06963863968849182,-0.36529740691185,-0.8491026759147644
1775728222982697200,1.960697265625,0.0659734457731247,-0.3604104816913605,-0.8063421249389648
1775728222992707000,1.97070703125,0.06108652427792549,-0.3738495409488678,-0.7330383062362671
1775728223002777900,1.98077783203125,0.05497787147760391,-0.4105014503002167,-0.6633996367454529
1775728223012787700,1.99078759765625,0.0403171069920063,-0.45204028487205505,-0.6316346526145935
1775728223022858500,2.0008583984375,0.013439035043120384,-0.48258355259895325,-0.6572909951210022
1775728223053040400,2.031040283203125,-0.04764748737215996,-0.5314527750015259,-0.8124507665634155
1775728223063141600,2.0411416015625,-0.04642575979232788,-0.5461135506629944,-0.8405506014823914
1775728223073182000,2.051181884765625,-0.04153883829712868,-0.5400048494338989,-0.8710938692092896
1775728223093354000,2.07135400390625,0.00366519158706069,-0.5534439086914062,-0.769690215587616
1775728223103424800,2.0814248046875,0.019547687843441963,-0.6133087277412415,-0.7244861721992493
1775728223113434600,2.0914345703125,0.02321287989616394,-0.685390830039978,-0.7611380815505981
1775728223123505400,2.10150537109375,0.009773843921720982,-0.7220427393913269,-0.8552113175392151
1775728223133576200,2.111576171875,-0.006108652334660292,-0.7195992469787598,-0.9419541954994202
1775728223163758000,2.141758056640625,0.006108652334660292,-0.7648032903671265,-0.9297369122505188
1775728223204041200,2.182041259765625,-0.07330382615327835,-1.0286970138549805,-0.6328563690185547
1775728223214112300,2.1921123046875,-0.11850785464048386,-1.0702359676361084,-0.626747727394104
1775728223224152300,2.20215234375,-0.17104226350784302,-1.0971139669418335,-0.6340781450271606
1775728223234192600,2.212192626953125,-0.2223549485206604,-1.1117748022079468,-0.6524040699005127
1775728223244263400,2.222263427734375,-0.26022860407829285,-1.1142182350158691,-0.6499606370925903
1775728223254334200,2.232334228515625,-0.28588494658470154,-1.1142182350158691,-0.5925393104553223
1775728223274445300,2.2524453125,-0.33597588539123535,-1.1789699792861938,-0.43127086758613586
1775728223284516000,2.26251611328125,-0.375071257352829,-1.226617455482483,-0.4190535545349121
1775728223294526000,2.27252587890625,-0.4190535545349121,-1.2412781715393066,-0.4715879559516907
1775728223304535800,2.282535888671875,-0.45326200127601624,-1.2424999475479126,-0.5607742667198181
1775728223314545400,2.29254541015625,-0.4642575979232788,-1.2302825450897217,-0.6352998614311218
1775728223324647000,2.30264697265625,-0.46547931432724,-1.2082914113998413,-0.6866125464439392
1775728223334656500,2.312656494140625,-0.455705463886261,-1.1630873680114746,-0.675616979598999
1775728223344727300,2.322727294921875,-0.4178318381309509,-1.1313223838806152,-0.5558874011039734
1775728223364838400,2.34283837890625,-0.304210901260376,-1.1545352935791016,-0.21013765037059784
1775728223384949500,2.362949462890625,-0.18814650177955627,-1.1789699792861938,-0.03176499158143997
1775728223394989800,2.37298974609375,-0.14538592100143433,-1.1508700847625732,-0.04886921867728233
1775728223405060600,2.383060546875,-0.10384709388017654,-1.0958921909332275,-0.1062905490398407
1775728223415131400,2.39313134765625,-0.059864792972803116,-1.0335839986801147,-0.18325957655906677
1775728223425202200,2.4032021484375,-0.004886921960860491,-0.9578366875648499,-0.2626720666885376
1775728223435181600,2.413181640625,0.0757472887635231,-0.8588765263557434,-0.3323107063770294
1775728223445282800,2.42328271484375,0.17592918872833252,-0.7513642311096191,-0.39095374941825867
1775728223455353600,2.433353515625,0.2724458873271942,-0.6805039048194885,-0.4337143301963806
1775728223475495200,2.4534951171875,0.4105014503002167,-0.5974262356758118,-0.5436700582504272
1775728223495514600,2.4735146484375,0.4349360466003418,-0.5778785347938538,-0.7269296646118164
1775728223515595300,2.49359521484375,0.5338962078094482,-0.46547931432724,-0.8833111524581909
1775728223525635600,2.503635498046875,0.5766568183898926,-0.4251621961593628,-0.9285151958465576
1775728223535676000,2.513676025390625,0.6096435189247131,-0.3543018400669098,-0.9724974632263184
1775728223545716200,2.52371630859375,0.66584312915802,-0.2541199326515198,-1.027475357055664
1775728223555756300,2.53375634765625,0.7257078886032104,-0.1514945775270462,-1.1068878173828125
1775728223565827300,2.543827392578125,0.8002334833145142,-0.02076941914856434,-1.1630873680114746
1775728223585969000,2.563968994140625,0.9749409556388855,0.2076941877603531,-1.2596040964126587
1775728223595978500,2.573978515625,1.0934487581253052,0.28099802136421204,-1.302364706993103
1775728223626191000,2.604191162109375,1.5137240886688232,0.5326744914054871,-1.5247195959091187
1775728223636231200,2.614231201171875,1.653001308441162,0.5962044596672058,-1.568701982498169
1775728223646332700,2.624332763671875,1.7690657377243042,0.6157521605491638,-1.6383405923843384
1775728223656403500,2.634403564453125,1.8692476749420166,0.5827654600143433,-1.6664403676986694
1775728223686615800,2.66461572265625,2.0781636238098145,0.8283332586288452,-1.585806131362915
1775728223696686600,2.6746865234375,2.0781636238098145,0.9553932547569275,-1.577254056930542
1775728223706757400,2.68475732421875,2.046398639678955,1.0396926403045654,-1.490511178970337
1775728223716797700,2.694797607421875,1.9657644033432007,1.047023057937622,-1.3756685256958008
1775728223726899000,2.70489892578125,1.8387043476104736,1.0592403411865234,-1.281595230102539
1775728223736939300,2.714939208984375,1.7079792022705078,1.0971139669418335,-1.2180652618408203
1775728223747010000,2.725010009765625,1.5552629232406616,1.1313223838806152,-1.2217304706573486
1775728223757080800,2.735080810546875,1.3720033168792725,1.176526427268982,-1.2803735733032227
1775728223767151600,2.745151611328125,1.1911872625350952,1.2412781715393066,-1.3536773920059204
1775728223847626500,2.82562646484375,0.14416420459747314,0.9932668805122375,-1.986533761024475
1775728223857636400,2.83563623046875,0.0354301854968071,0.9138544201850891,-2.3603832721710205
1775728223877808400,2.855808349609375,-0.11850785464048386,0.8185594081878662,-3.160616874694824
1775728223887909600,2.86590966796875,-0.12217304855585098,0.8124507665634155,-3.2986724376678467
1775728223897980400,2.87598046875,-0.11484266817569733,0.7489207983016968,-3.293785333633423
1775728223907990300,2.885990234375,-0.1270599663257599,0.675616979598999,-3.2925636768341064
1775728223938233300,2.9162333984375,-0.14049901068210602,0.5791002511978149,-3.330437421798706
1775728223998627600,2.976627685546875,0.16737708449363708,0.4043927788734436,-1.2302825450897217
1775728224038849800,3.016849853515625,0.1722639948129654,0.5106833577156067,-1.3829989433288574
1775728224048951000,3.026950927734375,0.1661553531885147,0.5510004758834839,-1.5149458646774292
1775728224109345300,3.08734521484375,-0.18814650177955627,-0.10262536257505417,-1.976759910583496
1775728224139527200,3.117527099609375,-0.4190535545349121,-0.3543018400669098,-1.665218710899353
1775728224179779800,3.15777978515625,-0.6328563690185547,-0.8698720932006836,-0.6511823534965515
1775728224230133800,3.2081337890625,-0.5925393104553223,-0.43127086758613586,-0.051312681287527084
1775728224240204500,3.21820458984375,-0.6670648455619812,-0.5705481171607971,0.030543262138962746
1775728224260285200,3.23828515625,-0.7525860071182251,-0.7293730974197388,0.04886921867728233
1775728224280426800,3.2584267578125,-0.8943067193031311,-0.9126327037811279,0.17592918872833252
1775728224300537900,3.278537841796875,-1.1484266519546509,-1.0971139669418335,0.43737950921058655
1775728224310608600,3.288608642578125,-1.3634512424468994,-1.2424999475479126,0.5791002511978149
1775728224330750200,3.308750244140625,-1.8399261236190796,-1.4086552858352661,0.817337691783905
1775728224381012700,3.3590126953125,-2.7171285152435303,-1.0897835493087769,1.3377948999404907
1775728224401154300,3.379154296875,-2.7623326778411865,-0.9920451641082764,1.7629570960998535
1775728224411225000,3.38922509765625,-2.765997886657715,-0.9651671051979065,1.9437731504440308
1775728224421295900,3.3992958984375,-2.737898111343384,-0.9529497623443604,2.070833206176758
1775728224431336200,3.409336181640625,-2.6670377254486084,-0.9468411207199097,2.1759018898010254
1775728224441437400,3.4194375,-2.5815165042877197,-0.9627236127853394,2.2284364700317383
1775728224451508500,3.429508544921875,-2.492330312728882,-0.9847147464752197,2.2149972915649414
1775728224471588900,3.4495888671875,-2.3041837215423584,-1.0604621171951294,1.987755537033081
1775728224481629200,3.459629150390625,-2.1954495906829834,-1.1129964590072632,1.8252654075622559
1775728224511780600,3.489780517578125,-1.8496999740600586,-1.2388347387313843,1.2192870378494263
1775728224521821000,3.499821044921875,-1.7458528280258179,-1.264491081237793,1.0018190145492554
1775728224531861200,3.509861328125,-1.6615535020828247,-1.282817006111145,0.7867944240570068
1775728224541932000,3.51993212890625,-1.5906931161880493,-1.282817006111145,0.5778785347938538
1775728224552002800,3.5300029296875,-1.5320500135421753,-1.253495454788208,0.38117989897727966
1775728224562104000,3.54010400390625,-1.4892895221710205,-1.2095131874084473,0.21502456068992615
1775728224592194300,3.5701943359375,-1.330464482307434,-1.0934487581253052,-0.08552113175392151
1775728224602295800,3.5802958984375,-1.274264931678772,-1.0384708642959595,-0.1417207419872284
1775728224612366600,3.59036669921875,-1.2046263217926025,-0.9651671051979065,-0.1869247704744339
1775728224622437400,3.600437255859375,-1.1203268766403198,-0.8747590184211731,-0.20402899384498596
1775728224632477700,3.610477783203125,-1.0286970138549805,-0.7709119319915771,-0.18570303916931152
1775728224642518000,3.62051806640625,-0.9358455538749695,-0.6633996367454529,-0.1466076523065567
1775728224652619300,3.630619384765625,-0.8417723178863525,-0.5461135506629944,-0.08429940044879913
1775728224662628900,3.64062890625,-0.740368664264679,-0.42149701714515686,-0.03298672288656235
1775728224682709500,3.66070947265625,-0.4801400899887085,-0.16737708449363708,0.025656340643763542
1775728224702881500,3.680881591796875,-0.17348572611808777,0.13439035415649414,0.02687807008624077
1775728224722992600,3.70099267578125,0.2382374405860901,0.44226643443107605,0.16982053220272064
1775728224733094100,3.71109423828125,0.43737950921058655,0.5864306092262268,0.2993239760398865
1775728224743165000,3.7211650390625,0.6243042945861816,0.7440338730812073,0.4300491213798523
1775728224753266200,3.73126611328125,0.8210029006004333,0.9126327037811279,0.5754350423812866
1775728224763337000,3.7413369140625,1.0213667154312134,1.076344609260559,0.7574729323387146
1775728224783478500,3.761478515625,1.4147639274597168,1.398881435394287,1.0751228332519531
1775728224803589600,3.781589599609375,1.7580702304840088,1.6407840251922607,1.056796908378601
1775728224823731200,3.801731201171875,2.0610592365264893,1.8399261236190796,0.5998696684837341
1775728224833771500,3.811771484375,2.2040019035339355,1.872912883758545,0.2675589919090271
1775728224843842300,3.82184228515625,2.3432791233062744,1.852143406867981,-0.1270599663257599
1775728224853882600,3.831882568359375,2.5167648792266846,1.8191566467285156,-0.5473352670669556
1775728224863953400,3.841953369140625,2.741563320159912,1.8008307218551636,-0.9395107626914978
1775728224884095000,3.862094970703125,3.141069173812866,1.6701055765151978,-1.712866187095642
1775728224904236500,3.882236572265625,3.3255503177642822,1.4282029867172241,-2.4165828227996826
1775728224914276900,3.89227685546875,3.3646457195281982,1.3463469743728638,-2.6951375007629395
1775728224924317200,3.902317138671875,3.3964107036590576,1.3145819902420044,-2.9321532249450684
1775728224934418400,3.91241845703125,3.419623613357544,1.3048081398010254,-3.145956039428711
1775728224944489200,3.9224892578125,3.4037411212921143,1.291369080543518,-3.332880735397339
1775728224954590700,3.9325908203125,3.352428436279297,1.2962560653686523,-3.447723388671875
1775728224964661500,3.94266162109375,3.2815680503845215,1.3182471990585327,-3.445280075073242
1775728224974671000,3.952671142578125,3.1899383068084717,1.3255776166915894,-3.316998243331909
1775728225015015400,3.993015380859375,2.593733787536621,1.1191051006317139,-2.274862289428711
1775728225025116700,4.00311669921875,2.4300220012664795,1.037249207496643,-2.0146336555480957
1775728225035187500,4.0131875,2.269975185394287,0.9443976879119873,-1.7910568714141846
1775728225045227800,4.023227783203125,2.1258111000061035,0.8393288254737854,-1.607797384262085
1775728225055298600,4.033298583984375,1.99752938747406,0.7342600226402283,-1.4746286869049072
1775728225065369300,4.043369384765625,1.872912883758545,0.6426302194595337,-1.4245377779006958
1775728225075470800,4.053470947265625,1.7495180368423462,0.5534439086914062,-1.451415777206421
1775728225085541600,4.063541748046875,1.6285667419433594,0.45204028487205505,-1.547932505607605
1775728225095612400,4.0736123046875,1.5125023126602173,0.3579670190811157,-1.6908750534057617
1775728225115723500,4.0937236328125,1.3048081398010254,0.24923302233219147,-2.0341813564300537
1775728225125702700,4.10370263671875,1.207069754600525,0.19547687470912933,-2.1954495906829834
1775728225135804000,4.113803955078125,1.1093312501907349,0.15882496535778046,-2.339613914489746
1775728225145875000,4.123875,1.009149432182312,0.12217304855585098,-2.439795732498169
1775728225155884500,4.133884521484375,0.9053022861480713,0.0708603709936142,-2.4911084175109863
1775728225165894400,4.143894287109375,0.807563841342926,0.03420845419168472,-2.495995283126831
1775728225175995600,4.15399560546875,0.7134906053543091,0.04153883829712868,-2.442239284515381
1775728225236298500,4.214298583984375,0.00855211354792118,0.12828169763088226,-1.076344609260559
1775728225256440000,4.234440185546875,-0.28588494658470154,0.17104226350784302,-0.4862487316131592
1775728225266510800,4.2445107421875,-0.42760565876960754,0.19547687470912933,-0.17470745742321014
1775728225276551200,4.25455126953125,-0.5717698931694031,0.2064724564552307,0.1661553531885147
1775728225286560800,4.264560791015625,-0.6988298296928406,0.19425514340400696,0.5412266254425049
1775728225306733000,4.284733154296875,-0.8955284357070923,0.11728613078594208,1.2705997228622437
1775728225316803800,4.294803955078125,-0.988379955291748,0.03298672288656235,1.528384804725647
1775728225326874600,4.30487451171875,-1.0604621171951294,-0.06230825558304787,1.7067575454711914
1775728225336945400,4.3149453125,-1.1227703094482422,-0.16371189057826996,1.8216001987457275
1775728225347016200,4.32501611328125,-1.176526427268982,-0.25045475363731384,1.881464958190918
1775728225357087000,4.3350869140625,-1.225395679473877,-0.33719760179519653,1.9132299423217773
1775728225367127300,4.345127197265625,-1.274264931678772,-0.4386012554168701,1.9181169271469116
1775728225377228500,4.355228515625,-1.3267992734909058,-0.5448917746543884,1.8851301670074463
1775728225387299300,4.36529931640625,-1.3927727937698364,-0.6426302194595337,1.7886134386062622
1775728225397309200,4.37530908203125,-1.4624114036560059,-0.6988298296928406,1.624901533126831
1775728225427430000,4.405429931640625,-1.6517796516418457,-0.779464066028595,0.9321803450584412
1775728225437531400,4.415531494140625,-1.7006487846374512,-0.8295549750328064,0.769690215587616
1775728225447602200,4.425602294921875,-1.7592918872833252,-0.9065240025520325,0.6890559792518616
1775728225457673000,4.4356728515625,-1.833817481994629,-1.0299187898635864,0.6633996367454529
1775728225467713300,4.44571337890625,-1.8973474502563477,-1.1533136367797852,0.66584312915802
1775728225477814500,4.455814453125,-1.9364428520202637,-1.226617455482483,0.6988298296928406
1775728225487885300,4.46588525390625,-1.9718730449676514,-1.2571606636047363,0.7464773058891296
1775728225538178300,4.51617822265625,-2.1514673233032227,-1.056796908378601,1.3573426008224487
1775728225548249000,4.5262490234375,-2.1783454418182373,-1.0677924156188965,1.5503759384155273
1775728225558350300,4.536350341796875,-2.1905627250671387,-1.0751228332519531,1.7201964855194092
1775728225568421000,4.546421142578125,-2.185675859451294,-1.0800096988677979,1.8509217500686646
1775728225578431000,4.556430908203125,-2.14902400970459,-1.0787880420684814,1.9449949264526367
1775728225598542000,4.5765419921875,-2.0916025638580322,-1.0800096988677979,2.001194477081299
1775728225618683600,4.59668359375,-1.9950858354568481,-1.0983357429504395,1.9914207458496094
1775728225628754400,4.60675439453125,-1.9511035680770874,-1.1068878173828125,1.9144517183303833
1775728225638794800,4.616794677734375,-1.9120081663131714,-1.1117748022079468,1.7910568714141846
1775728225648804600,4.6268046875,-1.8777997493743896,-1.0983357429504395,1.4294246435165405
1775728225658905900,4.63690576171875,-1.8777997493743896,-1.0983357429504395,1.4294246435165405
1775728225668976600,4.6469765625,-1.8680258989334106,-1.0775662660598755,1.225395679473877
1775728225678986500,4.656986572265625,-1.8594738245010376,-1.0494664907455444,1.036027431488037
1775728225689026600,4.667026611328125,-1.853365182876587,-1.0115928649902344,0.8686503767967224
1775728225699128000,4.677128173828125,-1.8484781980514526,-0.9724974632263184,0.7293730974197388
1775728225739350300,4.717350341796875,-1.8264870643615723,-0.8026769161224365,0.39584067463874817
1775728225749421000,4.727421142578125,-1.8191566467285156,-0.7648032903671265,0.3579670190811157
1775728225759522300,4.737522216796875,-1.8118263483047485,-0.7379252314567566,0.32986724376678467
1775728225769562600,4.747562744140625,-1.794722080230713,-0.7049384713172913,0.3323107063770294
1775728225779633400,4.75763330078125,-1.7702875137329102,-0.6572909951210022,0.3640756905078888
1775728225789612500,4.767612548828125,-1.7360789775848389,-0.5974262356758118,0.40194934606552124
1775728225799714000,4.777714111328125,-1.6798794269561768,-0.5314527750015259,0.43737950921058655
1775728225809723600,4.7877236328125,-1.607797384262085,-0.4715879559516907,0.4715879559516907
1775728225839905500,4.817905517578125,-1.3084733486175537,-0.3530801236629486,0.7428121566772461
1775728225849945900,4.82794580078125,-1.1899654865264893,-0.3188716471195221,0.8723155856132507
1775728225860016600,4.8380166015625,-1.0555751323699951,-0.2736676335334778,0.978606104850769
1775728225869996000,4.84799609375,-0.9028588533401489,-0.2174680233001709,1.0555751323699951
1775728225880097300,4.85809716796875,-0.7428121566772461,-0.14294247329235077,1.1105530261993408
1775728225890168000,4.86816796875,-0.5766568183898926,-0.05497787147760391,1.1459832191467285
1775728225900269300,4.878269287109375,-0.3995058834552765,0.045204028487205505,1.1716395616531372
1775728225910248700,4.888248779296875,-0.21135938167572021,0.15882496535778046,1.1838568449020386
1775728225950531800,4.92853173828125,0.5485569834709167,0.6976081132888794,1.0421360731124878
1775728225960633000,4.938633056640625,0.7806857824325562,0.911410927772522,0.9957103729248047
1775728225970643000,4.948642822265625,1.0140362977981567,1.1007791757583618,0.940732479095459
1775728225980744200,4.958744140625,1.243721604347229,1.225395679473877,0.8784242272377014
1775728225990784500,4.968784423828125,1.480737328529358,1.313360333442688,0.8026769161224365
1775728226000885800,4.9788857421875,1.6969836950302124,1.4086552858352661,0.6646214127540588
1775728226010895600,4.9888955078125,1.8765780925750732,1.5015068054199219,0.4105014503002167
1775728226041138400,5.019138427734375,2.4361305236816406,1.6774359941482544,-0.8735373020172119
1775728226061280000,5.039280029296875,2.858849287033081,1.82404363155365,-1.880243182182312
1775728226071289900,5.049289794921875,3.00423526763916,1.8106045722961426,-2.344500780105591
1775728226091462000,5.0694619140625,3.1923818588256836,1.673770785331726,-3.1141910552978516
1775728226101532700,5.07953271484375,3.271794319152832,1.6212363243103027,-3.3487632274627686
1775728226111603500,5.089603515625,3.327993869781494,1.5821410417556763,-3.4660494327545166
1775728226121613300,5.09961328125,3.363424062728882,1.5442672967910767,-3.4538321495056152
1775728226171875800,5.149875732421875,3.050661087036133,1.1740829944610596,-1.7116444110870361
1775728226181885400,5.159885498046875,2.8771753311157227,1.0494664907455444,-1.3255776166915894
1775728226191895300,5.169895263671875,2.689028739929199,0.9431759119033813,-1.0323622226715088
1775728226201996500,5.17999658203125,2.4947736263275146,0.8552113175392151,-0.8662069439888
1775728226212067300,5.1900673828125,2.302962064743042,0.7843509912490845,-0.8429940342903137
1775728226222138400,5.200138427734375,2.118480682373047,0.7257078886032104,-0.9248499870300293
1775728226242280000,5.220280029296875,1.7568484544754028,0.608421802520752,-1.2620476484298706
1775728226272370200,5.2503701171875,1.2620476484298706,0.4495968222618103,-2.0280725955963135
1775728226282471400,5.260471435546875,1.1154398918151855,0.4153883755207062,-2.3298399448394775
1775728226292542200,5.270542236328125,0.9896016716957092,0.3799581825733185,-2.604729413986206
1775728226302613000,5.280613037109375,0.8833111524581909,0.34697145223617554,-2.833193063735962
1775728226312684000,5.29068408203125,0.7904596328735352,0.3127630054950714,-2.99812650680542
1775728226322724000,5.30072412109375,0.7159340381622314,0.27977627515792847,-3.084869384765625
1775728226332734000,5.31073388671875,0.6621779203414917,0.2590068578720093,-3.0921998023986816
1775728226362976800,5.340976806640625,0.5534439086914062,0.2565633952617645,-2.5973989963531494
1775728226393128200,5.371128173828125,0.5082398653030396,0.3543018400669098,-1.6139060258865356
1775728226403229400,5.3812294921875,0.5155702829360962,0.4080579876899719,-1.254717230796814
1775728226413300500,5.391300537109375,0.5351179838180542,0.5057964324951172,-0.8686503767967224
1775728226423371300,5.401371337890625,0.5497786998748779,0.5974262356758118,-0.4715879559516907
1775728226433442000,5.411442138671875,0.5668829679489136,0.6609562039375305,-0.05375614017248154
1775728226463593200,5.44159326171875,0.5546656250953674,0.6243042945861816,1.1215485334396362
1775728226473664300,5.451664306640625,0.5375614166259766,0.6059783101081848,1.3781119585037231
1775728226483735000,5.461735107421875,0.50335294008255,0.618195652961731,1.5515977144241333
1775728226493775000,5.471775146484375,0.44104471802711487,0.6120869517326355,1.6578882932662964
1775728226503876600,5.481876708984375,0.34208452701568604,0.5619960427284241,1.7055357694625854
1775728226513947400,5.491947509765625,0.2174680233001709,0.44837507605552673,1.6945401430130005
1775728226524018200,5.50201806640625,0.059864792972803116,0.2883284091949463,1.6322319507598877
1775728226534089000,5.5120888671875,-0.12461651116609573,0.13316862285137177,1.528384804725647
1775728226544129300,5.52212939453125,-0.3225368559360504,0.010995574295520782,1.3903292417526245
1775728226584351500,5.5623515625,-1.026253581047058,-0.0806342139840126,0.950506329536438
1775728226594422300,5.57242236328125,-1.1288789510726929,-0.02687807008624077,0.9468411207199097
1775728226604493000,5.5824931640625,-1.2034045457839966,-0.05253441259264946,0.9834930300712585
1775728226614563800,5.592563720703125,-1.274264931678772,-0.20525072515010834,1.0506882667541504
1775728226624634600,5.602634521484375,-1.3524556159973145,-0.43249258399009705,1.1508700847625732
1775728226634705400,5.612705322265625,-1.4465289115905762,-0.6597344875335693,1.2803735733032227
1775728226644776200,5.622776123046875,-1.5454890727996826,-0.8319984674453735,1.4123204946517944
1775728226654847000,5.632846923828125,-1.6481144428253174,-0.9541715383529663,1.5308283567428589
1775728226715241200,5.6932412109375,-2.4080307483673096,-1.4782938957214355,1.7287486791610718
1775728226725312000,5.70331201171875,-2.498438835144043,-1.5454890727996826,1.6615535020828247
1775728226735382800,5.7133828125,-2.559525489807129,-1.6102408170700073,1.578475832939148
1775728226755555000,5.73355517578125,-2.56563401222229,-1.6713273525238037,1.4208725690841675
1775728226765656300,5.74365625,-2.5424211025238037,-1.6872098445892334,1.341460108757019
1775728226785828400,5.763828369140625,-2.445904493331909,-1.6957619190216064,1.1728612184524536
1775728226826020000,5.80402001953125,-2.2174408435821533,-1.606575608253479,0.6988298296928406
1775728226836060400,5.814060302734375,-2.1563544273376465,-1.5467108488082886,0.5644394755363464
1775728226846161700,5.82416162109375,-2.096489429473877,-1.4770721197128296,0.43737950921058655
1775728226856232400,5.834232421875,-2.0366246700286865,-1.398881435394287,0.32009339332580566
1775728226866272800,5.844272705078125,-1.9828685522079468,-1.3072515726089478,0.2076941877603531
1775728226886353400,5.864353515625,-1.8875735998153687,-1.1129964590072632,0.015882495790719986
1775728226906464500,5.884464599609375,-1.7825047969818115,-0.9297369122505188,-0.0403171069920063
1775728226916474000,5.89447412109375,-1.7311921119689941,-0.856433093547821,-0.0024434609804302454
1775728226926575600,5.90457568359375,-1.6859880685806274,-0.7965682744979858,0.06475171446800232
1775728226936676900,5.9146767578125,-1.6493362188339233,-0.7550294399261475,0.13439035415649414
1775728226946717200,5.92471728515625,-1.6493362188339233,-0.7550294399261475,0.13439035415649414
1775728226956726800,5.934726806640625,-1.566258430480957,-0.6817256212234497,0.22968533635139465
1775728226966828300,5.944828369140625,-1.566258430480957,-0.6817256212234497,0.22968533635139465
1775728226976838000,5.954837890625,-1.5234979391098022,-0.6328563690185547,0.2626720666885376
1775728227016999200,5.994999267578125,-1.273043155670166,-0.32986724376678467,0.5656611919403076
1775728227027070000,6.005070068359375,-1.187522053718567,-0.2590068578720093,0.6731734871864319
1775728227047150300,6.025150390625,-0.9932668805122375,-0.10751228034496307,0.9749409556388855
1775728227057221400,6.035221435546875,-0.8796459436416626,-0.018325956538319588,1.1239920854568481
1775728227067292200,6.045292236328125,-0.7318165898323059,0.10262536257505417,1.2498302459716797
1775728227077301800,6.0553017578125,-0.5717698931694031,0.2223549485206604,1.340238332748413
1775728227097474000,6.07547412109375,-0.22357667982578278,0.4288274049758911,1.4184291362762451
1775728227107544800,6.085544921875,-0.015882495790719986,0.5925393104553223,1.4440854787826538
1775728227117585200,6.095585205078125,0.18936823308467865,0.7550294399261475,1.4587461948394775
1775728227127686400,6.105686279296875,0.3933972120285034,0.8833111524581909,1.4477506875991821
1775728227137726700,6.115726806640625,0.5937610268592834,0.998153805732727,1.4428637027740479
1775728227147797500,6.125797607421875,0.799011766910553,1.1252137422561646,1.4025466442108154
1775728227157837800,6.135837890625,1.007927656173706,1.2571606636047363,1.3536773920059204
1775728227167908600,6.14590869140625,1.187522053718567,1.3866641521453857,1.2412781715393066
1775728227177948700,6.15594873046875,1.3353514671325684,1.4819591045379639,1.0201449394226074
1775728227188019700,6.166019775390625,1.4782938957214355,1.5467108488082886,0.6792821288108826
1775728227208100000,6.18610009765625,1.7983872890472412,1.712866187095642,-0.18325957655906677
1775728227218140400,6.196140380859375,1.9938641786575317,1.843591332435608,-0.5974262356758118
1775728227238312400,6.2163125,2.3469443321228027,1.9853121042251587,-1.291369080543518
1775728227248383500,6.226383544921875,2.465452194213867,1.9816468954086304,-1.578475832939148
1775728227258454300,6.236454345703125,2.5729644298553467,1.9633208513259888,-1.7849482297897339
1775728227268525000,6.246525146484375,2.660928964614868,1.948660135269165,-1.8936822414398193
1775728227278595800,6.256595947265625,2.7281241416931152,1.938886284828186,-1.9034560918807983
1775728227288666600,6.26666650390625,2.769663095474243,1.927890658378601,-1.8154915571212769
1775728227298645800,6.276645751953125,2.778215169906616,1.9083430767059326,-1.6591099500656128
1775728227318787300,6.296787353515625,2.680476665496826,1.8350391387939453,-1.2278391122817993
1775728227328858000,6.306858154296875,2.585181713104248,1.7812830209732056,-0.9908234477043152
1775728227338868000,6.316867919921875,2.4666738510131836,1.7275269031524658,-0.7745771408081055
1775728227348969200,6.32696923828125,2.333505153656006,1.655444860458374,-0.5998696684837341
1775728227359040000,6.3370400390625,2.1905627250671387,1.5503759384155273,-0.5082398653030396
1775728227369110800,6.34711083984375,2.046398639678955,1.4257594347000122,-0.5204572081565857
1775728227379151000,6.357151123046875,1.9034560918807983,1.2962560653686523,-0.6218608021736145
1775728227389252600,6.367252685546875,1.7727309465408325,1.176526427268982,-0.7916813492774963
1775728227409333000,6.3873330078125,1.5699236392974854,0.9468411207199097,-1.2583824396133423
1775728227419403800,6.39740380859375,1.4929546117782593,0.8417723178863525,-1.5540411472320557
1775728227429505300,6.40750537109375,1.4233160018920898,0.750142514705658,-1.890017032623291
1775728227439545600,6.417545654296875,1.3524556159973145,0.675616979598999,-2.246762275695801
1775728227449555200,6.42755517578125,1.281595230102539,0.6133087277412415,-2.5900685787200928
1775728227459565000,6.43756494140625,1.2217304706573486,0.5595525503158569,-2.8857274055480957
1775728227469666300,6.447666259765625,1.1716395616531372,0.5082398653030396,-3.123964786529541
1775728227479676200,6.45767626953125,1.1301007270812988,0.4544837474822998,-3.302337408065796
1775728227509827600,6.48782763671875,1.0836749076843262,0.32986724376678467,-3.3731977939605713
1775728227519898400,6.4978984375,1.076344609260559,0.3225368559360504,-3.224146842956543
1775728227550110700,6.52811083984375,1.0005972385406494,0.35063666105270386,-2.394591808319092
1775728227560151000,6.538151123046875,0.9590584635734558,0.3677408695220947,-2.0415115356445312
1775728227570221800,6.548221923828125,0.9065240025520325,0.41661009192466736,-1.644449234008789
1775728227580262100,6.55826220703125,0.836885392665863,0.4948008358478546,-1.1985175609588623
1775728227590363400,6.56836328125,0.759916365146637,0.5998696684837341,-0.7086036801338196
1775728227620514800,6.598514892578125,0.48869219422340393,0.9334021210670471,0.6633996367454529
1775728227630616000,6.608615966796875,0.384845107793808,0.9639453291893005,1.0384708642959595
1775728227640656400,6.618656494140625,0.28466320037841797,0.9566149711608887,1.4098769426345825
1775728227650727200,6.62872705078125,0.18936823308467865,0.9663888216018677,1.7910568714141846
1775728227660767500,6.638767578125,0.1111774742603302,0.9920451641082764,2.155132532119751
1775728227680848000,6.658847900390625,-0.01466076634824276,0.8979719281196594,2.5912904739379883
1775728227690949400,6.668949462890625,-0.09651670604944229,0.7941248416900635,2.6474900245666504
1775728227741242400,6.719242431640625,-0.6352998614311218,-0.1417207419872284,2.0256290435791016
1775728227751313200,6.729313232421875,-0.7379252314567566,-0.32498031854629517,1.7861700057983398
1775728227761384000,6.739384033203125,-0.8527678847312927,-0.5571091175079346,1.480737328529358
1775728227771454700,6.749454833984375,-0.998153805732727,-0.8784242272377014,1.1117748022079468
1775728227791565800,6.76956591796875,-1.2950342893600464,-1.508837103843689,0.46547931432724
1775728227801636600,6.77963671875,-1.4453071355819702,-1.7287486791610718,0.24923302233219147
1775728227841858800,6.81985888671875,-2.0537290573120117,-2.163684606552124,-0.15271630883216858
1775728227862000400,6.84000048828125,-2.3823745250701904,-2.263866662979126,-0.27977627515792847
1775728227872071200,6.8500712890625,-2.526538610458374,-2.2284364700317383,-0.34697145223617554
1775728227892151600,6.870151611328125,-2.746450185775757,-2.0341813564300537,-0.4056145250797272
1775728227902191900,6.88019189453125,-2.822197437286377,-1.938886284828186,-0.37751471996307373
1775728227912232200,6.890232177734375,-2.867401361465454,-1.8496999740600586,-0.32498031854629517
1775728227932373800,6.910373779296875,-2.8209757804870605,-1.6420058012008667,-0.14049901068210602
1775728227942444500,6.920444580078125,-2.715906858444214,-1.5320500135421753,0.00733038317412138
1775728227952454400,6.930454345703125,-2.5668556690216064,-1.431868076324463,0.19425514340400696
1775728227962525200,6.940525146484375,-2.4019222259521484,-1.3390166759490967,0.39706242084503174
1775728227972565500,6.9505654296875,-2.230879783630371,-1.2510520219802856,0.5900958180427551
1775728227982636300,6.96063623046875,-2.0610592365264893,-1.1655309200286865,0.7525860071182251
1775728227992676600,6.970676513671875,-1.8985692262649536,-1.0885618925094604,0.8747590184211731
1775728228002686500,6.9806865234375,-1.7507398128509521,-1.0238101482391357,0.9590584635734558
1775728228012787700,6.99078759765625,-1.6200146675109863,-0.9639453291893005,1.0140362977981567
1775728228043000000,7.021,-1.36955988407135,-0.7904596328735352,0.9749409556388855
1775728228053070800,7.03107080078125,-1.3170254230499268,-0.7257078886032104,0.9272934198379517
1775728228063141600,7.0411416015625,-1.274264931678772,-0.6633996367454529,0.8833111524581909
1775728228073182000,7.051181884765625,-1.2376129627227783,-0.5998696684837341,0.8454375267028809
1775728228083252700,7.061252685546875,-1.2095131874084473,-0.5351179838180542,0.8100073337554932
1775728228093323500,7.071323486328125,-1.1801916360855103,-0.46792277693748474,0.7770205736160278
1775728228103394300,7.081394287109375,-1.1459832191467285,-0.39706242084503174,0.7611380815505981
1775728228113495600,7.09149560546875,-1.1142182350158691,-0.3323107063770294,0.7648032903671265
1775728228153717800,7.1317177734375,-0.9480628371238708,-0.13072516024112701,0.8478809595108032
1775728228163788500,7.14178857421875,-0.8857545852661133,-0.06352998316287994,0.8246681094169617
1775728228173859300,7.151859375,-0.8136724829673767,0.00366519158706069,0.8026769161224365
1775728228183930400,7.161930419921875,-0.7244861721992493,0.07696902006864548,0.7953465580940247
1775728228193940000,7.17193994140625,-0.6291912198066711,0.15882496535778046,0.8087855577468872
1775728228203980300,7.181980224609375,-0.5326744914054871,0.22357667982578278,0.8393288254737854
1775728228214081500,7.19208154296875,-0.42638394236564636,0.2822197377681732,0.8710938692092896
1775728228244294000,7.2222939453125,-0.01466076634824276,0.6914994716644287,0.9590584635734558
1775728228254365000,7.232364990234375,0.14905111491680145,0.8478809595108032,1.007927656173706
1775728228264405000,7.242405029296875,0.3225368559360504,0.9871582388877869,1.0506882667541504
1775728228274475800,7.252475830078125,0.3225368559360504,0.9871582388877869,1.0506882667541504
1775728228284516000,7.26251611328125,0.4948008358478546,1.0946705341339111,1.0897835493087769
1775728228294587000,7.2725869140625,0.6511823534965515,1.166752576828003,1.1105530261993408
1775728228304657700,7.28265771484375,0.8051204085350037,1.2486085891723633,1.0995573997497559
1775728228314698000,7.292697998046875,0.9871582388877869,1.3365731239318848,1.0225883722305298
1775728228364991000,7.342990966796875,1.813048005104065,1.6774359941482544,-0.31154128909111023
1775728228375092200,7.35309228515625,2.0024163722991943,1.7165313959121704,-0.7293730974197388
1775728228385071600,7.363071533203125,2.194227933883667,1.7629570960998535,-1.1044443845748901
1775728228395112000,7.37311181640625,2.367713689804077,1.7641788721084595,-1.4245377779006958
1775728228405213200,7.383213134765625,2.500882387161255,1.6994271278381348,-1.6957619190216064
1775728228415284000,7.393283935546875,2.5839600563049316,1.6029103994369507,-1.9315558671951294
1775728228425354800,7.403354736328125,2.643824815750122,1.5125023126602173,-2.1148154735565186
1775728228465577000,7.443576904296875,2.6230554580688477,1.480737328529358,-1.958433985710144
1775728228485688000,7.46368798828125,2.3909265995025635,1.4428637027740479,-1.2424999475479126
1775728228495758800,7.4737587890625,2.2101104259490967,1.3964380025863647,-0.8576548099517822
1775728228505829600,7.48382958984375,1.9950858354568481,1.340238332748413,-0.5387831330299377
1775728228515809000,7.49380908203125,1.7727309465408325,1.2718214988708496,-0.3139847218990326
1775728228545991000,7.523990966796875,1.1826350688934326,0.9346238374710083,-0.2223549485206604
1775728228566132500,7.544132568359375,0.8698720932006836,0.6218608021736145,-0.6120869517326355
1775728228576233700,7.554233642578125,0.750142514705658,0.48258355259895325,-0.8943067193031311
1775728228586243600,7.56424365234375,0.6499606370925903,0.37262779474258423,-1.197295904159546
1775728228596314400,7.574314453125,0.5595525503158569,0.2834414839744568,-1.5137240886688232
1775728228606385200,7.58438525390625,0.4899139404296875,0.20891591906547546,-1.8362609148025513
1775728228616486400,7.594486328125,0.4398229718208313,0.1563815027475357,-2.1319196224212646
1775728228626557200,7.60455712890625,0.3982841372489929,0.10995574295520782,-2.3823745250701904
1775728228666840300,7.64484033203125,0.3066543638706207,-0.06963863968849182,-2.8625144958496094
1775728228676911000,7.6549111328125,0.31154128909111023,-0.08185594528913498,-2.824640989303589
1775728228686951400,7.664951416015625,0.3286454975605011,-0.07941248267889023,-2.713463306427002
1775728228697053000,7.675052978515625,0.3481931984424591,-0.07819075137376785,-2.5497515201568604
1775728228707123700,7.685123779296875,0.3738495409488678,-0.0659734457731247,-2.3408355712890625
1775728228717194500,7.695194580078125,0.4129449129104614,-0.01710422709584236,-2.0610592365264893
1775728228727265300,7.705265380859375,0.44715335965156555,0.05742133408784866,-1.7116444110870361
1775728228757416400,7.73541650390625,0.5094616413116455,0.2590068578720093,-0.4141666293144226
1775728228767456800,7.745456787109375,0.49357911944389343,0.34574973583221436,-0.0012217304902151227
1775728228777527600,7.755527587890625,0.46303585171699524,0.4202753007411957,0.3787364661693573
1775728228787598300,7.765598388671875,0.4251621961593628,0.47280970215797424,0.7257078886032104
1775728228797669400,7.77566943359375,0.37140607833862305,0.48869219422340393,1.036027431488037
1775728228807679000,7.785678955078125,0.30543261766433716,0.4801400899887085,1.2950342893600464
1775728228817780200,7.7957802734375,0.2370157092809677,0.46792277693748474,1.4941763877868652
1775728228827851300,7.805851318359375,0.1661553531885147,0.4544837474822998,1.6297885179519653
1775728228837952500,7.815952392578125,0.09529497474431992,0.42638394236564636,1.6957619190216064
1775728228858094000,7.836093994140625,-0.05864306539297104,0.2834414839744568,1.7043139934539795
1775728228868164900,7.846164794921875,-0.1661553531885147,0.19792033731937408,1.6468926668167114
1775728228878235600,7.856235595703125,-0.27000242471694946,0.10384709388017654,1.567480206489563
1775728228888306400,7.866306396484375,-0.38117989897727966,0.015882495790719986,1.4758504629135132
1775728228898316300,7.87631640625,-0.4899139404296875,-0.05375614017248154,1.3903292417526245
1775728228908326000,7.886325927734375,-0.5693264007568359,-0.08674286305904388,1.3194689750671387
1775728228918396700,7.896396728515625,-0.616973876953125,-0.07208210229873657,1.244943380355835
1775728228928437000,7.90643701171875,-0.6524040699005127,-0.059864792972803116,1.147204875946045
1775728228948487200,7.926487060546875,-0.769690215587616,-0.3885102868080139,0.978606104850769
1775728228968659200,7.9466591796875,-0.9517280459403992,-0.8588765263557434,0.9126327037811279
1775728228978760400,7.956760498046875,-1.0971139669418335,-1.1252137422561646,0.8503243923187256
1775728228988770300,7.966770263671875,-1.2583824396133423,-1.3744467496871948,0.7672467231750488
1775728228998871600,7.97687158203125,-1.4208725690841675,-1.5308283567428589,0.6707300543785095
1775728229008942300,7.9869423828125,-1.576032280921936,-1.576032280921936,0.5839871764183044
1775728229018952200,7.9969521484375,-1.7287486791610718,-1.5454890727996826,0.5253441333770752
1775728229028992500,8.006992431640626,-1.8863518238067627,-1.490511178970337,0.5021312236785889
1775728229039032800,8.01703271484375,-2.040289878845215,-1.4355332851409912,0.5094616413116455
1775728229069184300,8.047184326171875,-2.3322834968566895,-1.273043155670166,0.588874101638794
1775728229079255000,8.057255126953125,-2.353052854537964,-1.236391305923462,0.6511823534965515
1775728229089295400,8.06729541015625,-2.348165988922119,-1.19607412815094,0.7574729323387146
1775728229099335400,8.07733544921875,-2.317622661590576,-1.1557570695877075,0.901637077331543
1775728229109345300,8.08734521484375,-2.2626447677612305,-1.1301007270812988,1.0677924156188965
1775728229119446500,8.097446533203126,-2.1991147994995117,-1.1325441598892212,1.2217304706573486
1775728229129517300,8.107517333984376,-2.1343631744384766,-1.1435397863388062,1.3353514671325684
1775728229139588000,8.117588134765626,-2.070833206176758,-1.1435397863388062,1.4074335098266602
1775728229149659000,8.127658935546876,-2.007303237915039,-1.1313223838806152,1.4367550611495972
1775728229169709000,8.147708984375,-1.880243182182312,-1.0836749076843262,1.3768903017044067
1775728229179810300,8.157810302734376,-1.8264870643615723,-1.0531316995620728,1.29381263256073
1775728229189789700,8.167789794921875,-1.7788395881652832,-1.0067058801651,1.1911872625350952
1775728229199860500,8.177860595703125,-1.7299703359603882,-0.9468411207199097,1.0922271013259888
1775728229209900800,8.18790087890625,-1.6798794269561768,-0.8857545852661133,1.0067058801651
1775728229220002000,8.198001953125,-1.6310101747512817,-0.827111542224884,0.9456194043159485
1775728229230072800,8.20807275390625,-1.587027907371521,-0.7819074988365173,0.901637077331543
1775728229240143600,8.2181435546875,-1.540602207183838,-0.7525860071182251,0.8723155856132507
1775728229250214400,8.22821435546875,-1.4880677461624146,-0.7354817390441895,0.8613200187683105
1775728229290528300,8.2685283203125,-1.2889256477355957,-0.7232644557952881,0.856433093547821
1775728229300599000,8.27859912109375,-1.224173903465271,-0.7122688889503479,0.8185594081878662
1775728229310669800,8.288669921875,-1.1594222784042358,-0.685390830039978,0.7770205736160278
1775728229320710100,8.298710205078125,-1.086118459701538,-0.6438519954681396,0.7489207983016968
1775728229330750200,8.308750244140626,-1.0103710889816284,-0.5839871764183044,0.7391469478607178
1775728229340851700,8.318851806640625,-0.9358455538749695,-0.5180137157440186,0.7305948138237
1775728229350922500,8.328922607421875,-0.8613200187683105,-0.45814892649650574,0.7049384713172913
1775728229360962800,8.338962890625,-0.7745771408081055,-0.3897320330142975,0.6475171446800232
1775728229391083500,8.36908349609375,-0.45814892649650574,-0.09285151958465576,0.4239404797554016
1775728229401184800,8.379184814453126,-0.3323107063770294,0.013439035043120384,0.36651915311813354
1775728229411255800,8.389255859375,-0.19547687470912933,0.12095131725072861,0.3139847218990326
1775728229421326600,8.39932666015625,-0.04642575979232788,0.2321287989616394,0.24434609711170197
1775728229431397400,8.4093974609375,0.12217304855585098,0.37751471996307373,0.15393804013729095
1775728229441468200,8.41946826171875,0.3029891550540924,0.5277875661849976,0.059864792972803116
1775728229451447300,8.429447265625,0.48747047781944275,0.6597344875335693,-0.02687807008624077
1775728229461548500,8.439548583984376,0.6927211880683899,0.7648032903671265,-0.13439035415649414
1775728229481690400,8.4596904296875,1.1056660413742065,0.9334021210670471,-0.3738495409488678
1775728229491761200,8.46976123046875,1.281595230102539,0.988379955291748,-0.5558874011039734
1775728229501832000,8.47983203125,1.4624114036560059,1.0152580738067627,-0.8038986921310425
1775728229511902700,8.48990283203125,1.665218710899353,1.0604621171951294,-1.0739010572433472
1775728229521973500,8.499973388671876,1.890017032623291,1.1398745775222778,-1.312138557434082
1775728229532013800,8.510013916015625,2.118480682373047,1.2278391122817993,-1.5210545063018799
1775728229542115000,8.520114990234376,2.3273966312408447,1.2950342893600464,-1.6847662925720215
1775728229552185900,8.530185791015626,2.5057692527770996,1.3548991680145264,-1.8106045722961426
1775728229562226200,8.54022607421875,2.648711681365967,1.4282029867172241,-1.9046778678894043
1775728229572297000,8.550296875,2.772106409072876,1.5161675214767456,-1.9327776432037354
1775728229602448400,8.580448486328125,2.9602530002593994,1.7067575454711914,-1.4563027620315552
1775728229612488700,8.59048876953125,2.9602530002593994,1.7067575454711914,-1.4563027620315552
1775728229622559500,8.6005595703125,2.9517009258270264,1.7299703359603882,-1.1337659358978271
1775728229632569000,8.610569091796876,2.8942794799804688,1.7360789775848389,-0.8051204085350037
1775728229642640000,8.620639892578126,2.7965409755706787,1.7336355447769165,-0.5143485069274902
1775728229652649700,8.630649658203126,2.6755897998809814,1.7336355447769165,-0.2785545587539673
1775728229662720500,8.640720458984376,2.5326473712921143,1.7092009782791138,-0.10384709388017654
1775728229692841500,8.670841552734375,2.012190103530884,1.3255776166915894,-0.01466076634824276
1775728229702912300,8.680912353515625,1.843591332435608,1.1643091440200806,-0.1722639948129654
1775728229712921900,8.690921875,1.6823228597640991,1.026253581047058,-0.4141666293144226
1775728229723023400,8.7010234375,1.5320500135421753,0.9028588533401489,-0.720820963382721
1775728229733094100,8.71109423828125,1.4001030921936035,0.7929030656814575,-1.0482447147369385
1775728229743103700,8.721103759765626,1.2767083644866943,0.6939429044723511,-1.370781660079956
1775728229753113600,8.731113525390626,1.1594222784042358,0.5949827432632446,-1.6859880685806274
1775728229763214800,8.74121484375,1.0433578491210938,0.49724429845809937,-1.9950858354568481
1775728229773255200,8.751255126953126,0.93095862865448,0.40683624148368835,-2.2907447814941406
1775728229813477400,8.791477294921876,0.6450737118721008,0.15271630883216858,-2.8759536743164062
1775728229823487200,8.8014873046875,0.5998696684837341,0.10384709388017654,-2.8747317790985107
1775728229833496800,8.811496826171876,0.5644394755363464,0.04642575979232788,-2.841745138168335
1775728229843567600,8.821567626953126,0.5473352670669556,0.02076941914856434,-2.76111102104187
1775728229853608000,8.83160791015625,0.5400048494338989,0.03787364438176155,-2.613281488418579
1775728229863678700,8.8416787109375,0.5363397002220154,0.059864792972803116,-2.3884830474853516
1775728229873688600,8.8516884765625,0.5375614166259766,0.06841690838336945,-2.1001546382904053
1775728229883789800,8.861789794921876,0.5424483418464661,0.09529497474431992,-1.7592918872833252
1775728229903931400,8.881931396484376,0.5265658497810364,0.19425514340400696,-0.911410927772522
1775728229924042500,8.90204248046875,0.48380526900291443,0.29565876722335815,-0.09651670604944229
1775728229934052400,8.91205224609375,0.45692721009254456,0.36163222789764404,0.23579397797584534
1775728229944153600,8.922153564453126,0.4251621961593628,0.4056145250797272,0.5167919993400574
1775728229954163500,8.93216357421875,0.3897320330142975,0.4178318381309509,0.750142514705658
1775728229964264700,8.9422646484375,0.3530801236629486,0.37751471996307373,0.9529497623443604
1775728229974305000,8.952304931640626,0.3078760802745819,0.3066543638706207,1.1032226085662842
1775728229984345300,8.962345458984375,0.2541199326515198,0.2370157092809677,1.1801916360855103
1775728230004456400,8.98245654296875,0.09407325088977814,0.08185594528913498,1.1264355182647705
1775728230014527200,8.99252734375,-0.00733038317412138,0.0024434609804302454,1.0299187898635864
1775728230024598000,9.002597900390626,-0.10873401165008545,-0.045204028487205505,0.9480628371238708
1775728230034607600,9.012607666015626,-0.2223549485206604,-0.06230825558304787,0.8894197940826416
1775728230044678700,9.0226787109375,-0.3530801236629486,-0.06719517707824707,0.8478809595108032
1775728230054749400,9.03274951171875,-0.4862487316131592,-0.06719517707824707,0.8197811841964722
1775728230064850700,9.0428505859375,-0.6010913848876953,-0.04886921867728233,0.797789990901947
1775728230074891000,9.05289111328125,-0.7000515460968018,-0.036651913076639175,0.7757988572120667
1775728230084961800,9.0629619140625,-0.8087855577468872,-0.10506882518529892,0.750142514705658
1775728230105011700,9.08301171875,-1.0421360731124878,-0.45814892649650574,0.7159340381622314
1775728230115052000,9.093052001953126,-1.1398745775222778,-0.6316346526145935,0.7354817390441895
1775728230125122800,9.103122802734376,-1.23394775390625,-0.7745771408081055,0.7745771408081055
1775728230135193600,9.113193603515626,-1.3280210494995117,-0.8918632864952087,0.8087855577468872
1775728230145264400,9.123264404296876,-1.4367550611495972,-0.9932668805122375,0.8356636762619019
1775728230155304700,9.1333046875,-1.5650367736816406,-1.0910053253173828,0.8503243923187256
1775728230165375500,9.14337548828125,-1.7043139934539795,-1.1704177856445312,0.856433093547821
1775728230175446300,9.1534462890625,-1.8252654075622559,-1.1838568449020386,0.8600982427597046
1775728230185517000,9.16351708984375,-1.9242255687713623,-1.1337659358978271,0.8686503767967224
1775728230215729700,9.193729736328125,-2.1258111000061035,-0.9480628371238708,0.9517280459403992
1775728230225800400,9.203800537109375,-2.180788993835449,-1.027475357055664,0.9847147464752197
1775728230235871200,9.213871337890625,-2.216219186782837,-1.1288789510726929,1.0067058801651
1775728230245942000,9.22394189453125,-2.222327709197998,-1.187522053718567,1.0323622226715088
1775728230256012800,9.2340126953125,-2.194227933883667,-1.2021827697753906,1.0580185651779175
1775728230266022400,9.2440224609375,-2.1368067264556885,-1.2021827697753906,1.0787880420684814
1775728230276062700,9.254062744140626,-2.074498414993286,-1.2082914113998413,1.086118459701538
1775728230286103000,9.26410302734375,-2.020742177963257,-1.2217304706573486,1.0702359676361084
1775728230296113000,9.27411279296875,-1.976759910583496,-1.235169529914856,1.0286970138549805
1775728230326233600,9.304233642578126,-1.8777997493743896,-1.197295904159546,0.8246681094169617
1775728230336243500,9.314243408203126,-1.852143406867981,-1.1606439352035522,0.7440338730812073
1775728230346344700,9.3243447265625,-1.8301522731781006,-1.1203268766403198,0.6621779203414917
1775728230356415500,9.33441552734375,-1.8081611394882202,-1.0751228332519531,0.5852088928222656
1775728230376526600,9.354526611328126,-1.7654005289077759,-0.970054030418396,0.4764748811721802
1775728230386628000,9.364628173828125,-1.7373007535934448,-0.9089674949645996,0.4495968222618103
1775728230396699000,9.374698974609375,-1.703092336654663,-0.8454375267028809,0.4398229718208313
1775728230406769700,9.384769775390625,-1.6627751588821411,-0.7843509912490845,0.4495968222618103
1775728230426911200,9.4049111328125,-1.5650367736816406,-0.66584312915802,0.5009095072746277
1775728230447083300,9.425083251953126,-1.4501941204071045,-0.6010913848876953,0.5265658497810364
1775728230457184500,9.4351845703125,-1.36955988407135,-0.5522221922874451,0.5167919993400574
1775728230467255600,9.445255615234375,-1.284038782119751,-0.4899139404296875,0.49846604466438293
1775728230477326300,9.455326416015625,-1.1911872625350952,-0.43737950921058655,0.46670106053352356
1775728230487397000,9.465397216796875,-1.0873401165008545,-0.3897320330142975,0.42638394236564636
1775728230497468000,9.475468017578125,-0.9749409556388855,-0.33597588539123535,0.37629300355911255
1775728230507538700,9.48553857421875,-0.8527678847312927,-0.2626720666885376,0.31031954288482666
1775728230527619300,9.505619384765625,-0.5583308339118958,-0.03420845419168472,0.17592918872833252
1775728230547699700,9.52569970703125,-0.2382374405860901,0.16493362188339233,0.05253441259264946
1775728230557709600,9.53570947265625,-0.06719517707824707,0.2565633952617645,-0.03176499158143997
1775728230567810800,9.545810791015626,0.1062905490398407,0.33597588539123535,-0.13439035415649414
1775728230577790200,9.555790283203125,0.2871066629886627,0.39706242084503174,-0.2541199326515198
1775728230587891500,9.565891357421876,0.4813618063926697,0.48747047781944275,-0.3677408695220947
1775728230597931800,9.575931884765625,0.685390830039978,0.636521577835083,-0.4593706727027893
1775728230608002600,9.58600244140625,0.9089674949645996,0.8026769161224365,-0.5375614166259766
1775728230618073300,9.5960732421875,1.1398745775222778,0.9162978529930115,-0.5815436840057373
1775728230648255200,9.626255126953126,1.645671010017395,1.0103710889816284,-0.6572909951210022
1775728230658265000,9.63626513671875,1.842369556427002,1.1191051006317139,-0.6927211880683899
1775728230668335900,9.6463359375,2.0427334308624268,1.2498302459716797,-0.7281513810157776
1775728230678376000,9.6563759765625,2.230879783630371,1.3475687503814697,-0.7611380815505981
1775728230688446700,9.66644677734375,2.4300220012664795,1.4379768371582031,-0.7660250067710876
1775728230698517800,9.676517822265625,2.621833562850952,1.5454890727996826,-0.7452555894851685
1775728230708588500,9.686588623046875,2.7879889011383057,1.6407840251922607,-0.7147123217582703
1775728230718659300,9.696659423828125,2.937040090560913,1.7116444110870361,-0.6621779203414917
1775728230748871700,9.72687158203125,3.1202995777130127,1.6994271278381348,-0.36163222789764404
1775728230758912000,9.736912109375,3.1031954288482666,1.6811012029647827,-0.2370157092809677
1775728230768921600,9.746921630859376,3.039665460586548,1.6615535020828247,-0.11972958594560623
1775728230778962000,9.7569619140625,2.9248228073120117,1.6175711154937744,-0.013439035043120384
1775728230789032700,9.76703271484375,2.76111102104187,1.5234979391098022,0.08185594528913498
1775728230799073000,9.777072998046876,2.5558602809906006,1.380555510520935,0.16493362188339233
1775728230809174300,9.78717431640625,2.324953079223633,1.2205088138580322,0.21502456068992615
1775728230819245300,9.797245361328125,2.0781636238098145,1.0580185651779175,0.20525072515010834
1775728230839356200,9.817356201171876,1.587027907371521,0.7281513810157776,-0.02932153269648552
1775728230849427000,9.827427001953126,1.3573426008224487,0.5644394755363464,-0.24678955972194672
1775728230859436800,9.837436767578126,1.1496484279632568,0.4080579876899719,-0.5009095072746277
1775728230869507600,9.847507568359376,0.9663888216018677,0.26145032048225403,-0.7635815739631653
1775728230879578400,9.857578369140626,0.807563841342926,0.12828169763088226,-1.027475357055664
1775728230889649200,9.867649169921876,0.807563841342926,0.12828169763088226,-1.027475357055664
1775728230899720000,9.877719970703126,0.6621779203414917,0.01710422709584236,-1.2974777221679688
1775728230909760300,9.88776025390625,0.5351179838180542,-0.06841690838336945,-1.5638149976730347
1775728230919739600,9.89773974609375,0.4288274049758911,-0.12461651116609573,-1.7812830209732056
1775728230949860400,9.9278603515625,0.1661553531885147,-0.2528982162475586,-2.1905627250671387
1775728230959931100,9.93793115234375,0.10018189996480942,-0.29077184200286865,-2.2846360206604004
1775728230970002000,9.948001953125,0.05009094998240471,-0.3335324227809906,-2.350609540939331
1775728230980011800,9.95801171875,0.018325956538319588,-0.3591887652873993,-2.3664920330047607
1775728230990113000,9.968113037109376,0,-0.3701843321323395,-2.326174736022949
1775728231000183800,9.978183837890626,-0.00855211354792118,-0.3677408695220947,-2.2259929180145264
1775728231010254600,9.988254638671876,-0.01710422709584236,-0.3628539443016052,-2.0622811317443848
1775728231020325600,9.99832568359375,-0.03298672288656235,-0.3579670190811157,-1.8448129892349243
1775728231050446300,10.0284462890625,-0.10506882518529892,-0.24556782841682434,-1.086118459701538
1775728231060517000,10.03851708984375,-0.14049901068210602,-0.21013765037059784,-0.8613200187683105
1775728231070588000,10.048587890625,-0.1869247704744339,-0.17348572611808777,-0.6695083379745483
1775728231080658700,10.05865869140625,-0.23945917189121246,-0.11972958594560623,-0.4911356568336487
1775728231090729500,10.0687294921875,-0.28588494658470154,-0.04398229718208313,-0.30054569244384766
1775728231100800300,10.07880029296875,-0.32498031854629517,0.03787364438176155,-0.09040805697441101
1775728231110871000,10.08887109375,-0.3604104816913605,0.10018189996480942,0.11972958594560623
1775728231120911400,10.098911376953126,-0.3897320330142975,0.1368338167667389,0.3017674386501312
1775728231130921200,10.108921142578126,-0.40683624148368835,0.15760323405265808,0.4715879559516907
1775728231151032300,10.1290322265625,-0.41661009192466736,0.08429940044879913,0.8148942589759827
1775728231161072600,10.13907275390625,-0.41661009192466736,0.028099801391363144,0.9627236127853394
1775728231171143400,10.149143310546876,-0.41172316670417786,0.009773843921720982,1.0873401165008545
1775728231181183700,10.159183837890625,-0.39095374941825867,0.021991148591041565,1.156978726387024
1775728231191285000,10.169284912109376,-0.3738495409488678,0.03787364438176155,1.2302825450897217
1775728231201355800,10.179355712890626,-0.3897320330142975,0.04153883829712868,1.282817006111145
1775728231211365600,10.18936572265625,-0.4129449129104614,0.015882495790719986,1.2950342893600464
1775728231221436400,10.1994365234375,-0.4398229718208313,-0.02932153269648552,1.2657127380371094
1775728231231507200,10.209507080078126,-0.485027015209198,-0.0757472887635231,1.1985175609588623
1775728231271790300,10.249790283203126,-0.5583308339118958,0.04153883829712868,0.6035348773002625
1775728231281861000,10.259861083984376,-0.5766568183898926,-0.04764748737215996,0.394618958234787
1775728231291932000,10.269931884765626,-0.616973876953125,-0.20036379992961884,0.21991148591041565
1775728231301972200,10.27997216796875,-0.685390830039978,-0.3885102868080139,0.10873401165008545
1775728231312012500,10.290012451171876,-0.7635815739631653,-0.5766568183898926,0.04886921867728233
1775728231322083300,10.300083251953126,-0.8417723178863525,-0.7134906053543091,0.013439035043120384
1775728231332093200,10.31009326171875,-0.9285151958465576,-0.7806857824325562,-0.009773843921720982
1775728231342133200,10.32013330078125,-1.018923282623291,-0.7843509912490845,-0.018325956538319588
1775728231382325000,10.360324951171876,-1.36955988407135,-0.3995058834552765,0.2871066629886627
1775728231402466600,10.380466552734376,-1.4587461948394775,-0.2076941877603531,0.608421802520752
1775728231412476400,10.390476318359376,-1.4538593292236328,-0.15882496535778046,0.7709119319915771
1775728231422547200,10.400547119140626,-1.431868076324463,-0.1612684279680252,0.9248499870300293
1775728231432587500,10.41058740234375,-1.4074335098266602,-0.2174680233001709,1.0494664907455444
1775728231442627800,10.4206279296875,-1.36955988407135,-0.2822197377681732,1.147204875946045
1775728231472809700,10.450809814453125,-1.2424999475479126,-0.37629300355911255,1.1252137422561646
1775728231482911000,10.460910888671876,-1.216843605041504,-0.39217549562454224,1.0409144163131714
1775728231492981800,10.470981689453126,-1.1997393369674683,-0.40072759985923767,0.950506329536438
1775728231502991600,10.48099169921875,-1.1899654865264893,-0.39095374941825867,0.8600982427597046
1775728231513062400,10.4910625,-1.1850786209106445,-0.36529740691185,0.769690215587616
1775728231523163600,10.50116357421875,-1.1826350688934326,-0.3335324227809906,0.6792821288108826
1775728231533234400,10.511234375,-1.177748203277588,-0.3017674386501312,0.5949827432632446
1775728231543244300,10.521244384765625,-1.1655309200286865,-0.27000242471694946,0.5216789245605469
1775728231573426200,10.55142626953125,-1.0641272068023682,-0.17470745742321014,0.4153883755207062
1775728231583497000,10.5614970703125,-1.009149432182312,-0.1466076523065567,0.42149701714515686
1775728231593537300,10.571537353515625,-0.9517280459403992,-0.12339477986097336,0.43615779280662537
1775728231603608000,10.581608154296875,-0.8881980776786804,-0.10384709388017654,0.4434881806373596
1775728231613709300,10.591709228515626,-0.8185594081878662,-0.08674286305904388,0.4398229718208313
1775728231623780000,10.601780029296876,-0.7415903806686401,-0.06475171446800232,0.4153883755207062
1775728231633820400,10.6118203125,-0.6609562039375305,-0.030543262138962746,0.3701843321323395
1775728231643891200,10.62189111328125,-0.5778785347938538,-0.013439035043120384,0.3017674386501312
1775728231674042600,10.652042724609375,-0.3323107063770294,0.025656340643763542,0.09285151958465576
1775728231684113400,10.662113525390625,-0.23945917189121246,0.07208210229873657,0.028099801391363144
1775728231694184200,10.67218408203125,-0.14049901068210602,0.13439035415649414,-0.03787364438176155
1775728231704255000,10.6822548828125,-0.0403171069920063,0.21135938167572021,-0.09651670604944229
1775728231714325800,10.69232568359375,0.059864792972803116,0.2932153046131134,-0.13439035415649414
1775728231724335600,10.702335693359375,0.15271630883216858,0.3494149148464203,-0.13439035415649414
1775728231734436900,10.712436767578126,0.2431243658065796,0.39706242084503174,-0.09529497474431992
1775728231744507600,10.722507568359376,0.33597588539123535,0.4715879559516907,-0.03176499158143997
1775728231754517500,10.732517578125,0.42271876335144043,0.5619960427284241,0.039095375686883926
1775728231774689500,10.752689453125,0.608421802520752,0.7574729323387146,0.18936823308467865
1775728231825074000,10.803073974609376,1.2217304706573486,1.2498302459716797,0.8136724829673767
1775728231835145000,10.81314501953125,1.3475687503814697,1.3182471990585327,0.9639453291893005
1775728231845154600,10.823154541015626,1.4575244188308716,1.3646728992462158,1.1362093687057495
1775728231855225300,10.833225341796876,1.5796974897384644,1.4013248682022095,1.330464482307434
1775728231875367000,10.853366943359376,1.7666223049163818,1.3829989433288574,1.519832730293274
1775728231885437700,10.863437744140626,1.8008307218551636,1.3255776166915894,1.3976596593856812
1775728231895478000,10.87347802734375,1.8203784227371216,1.2510520219802856,1.1435397863388062
1775728231905548800,10.883548828125,1.842369556427002,1.197295904159546,0.8246681094169617
1775728231915589000,10.893589111328126,1.8643606901168823,1.1740829944610596,0.5070181488990784
1775728231925660000,10.903659912109376,1.8777997493743896,1.1545352935791016,0.2370157092809677
1775728231935761400,10.913761474609375,1.8460347652435303,1.0592403411865234,0.02076941914856434
1775728231945832200,10.923832275390625,1.7409659624099731,0.8735373020172119,-0.16493362188339233
1775728231955872300,10.933872314453126,1.5748106241226196,0.6572909951210022,-0.3188716471195221
1775728231965973800,10.943973876953125,1.3927727937698364,0.4740314185619354,-0.43249258399009705
1775728231986145800,10.964145751953126,0.9615018963813782,0.18081611394882202,-0.4715879559516907
1775728232026459600,11.004459716796875,0.16982053220272064,0.09529497474431992,0.0659734457731247
1775728232036530400,11.014530517578125,0.015882495790719986,0.05497787147760391,0.08429940044879913
1775728232046601200,11.024601318359375,-0.10018189996480942,-0.04398229718208313,0.021991148591041565
1775728232056672000,11.034672119140625,-0.14294247329235077,-0.16004669666290283,0.02687807008624077
1775728232066742800,11.04474267578125,-0.11239920556545258,-0.26145032048225403,0.13561208546161652
1775728232086792700,11.064792724609376,0.12095131725072861,-0.4495968222618103,0.675616979598999
1775728232106843000,11.0848427734375,0.4801400899887085,-0.6646214127540588,1.4343116283416748
1775728232116944100,11.094944091796876,0.656069278717041,-0.7623597979545593,1.843591332435608
1775728232127015000,11.105014892578126,0.8148942589759827,-0.8588765263557434,2.20278000831604
1775728232137085700,11.115085693359376,0.8784242272377014,-0.9395107626914978,2.2711970806121826
1775728232147095600,11.125095458984376,0.8491026759147644,-0.9419541954994202,1.966986060142517
1775728232157196800,11.13519677734375,0.7648032903671265,-0.8686503767967224,1.3487904071807861
1775728232167206700,11.14520654296875,0.6426302194595337,-0.7672467231750488,0.5766568183898926
1775728232177308000,11.155307861328126,0.5106833577156067,-0.6621779203414917,-0.1918116807937622
1775728232207520300,11.185520263671876,0.1160643994808197,-0.4948008358478546,-2.2821924686431885
1775728232257843700,11.23584375,-0.34086281061172485,-0.1820378452539444,-4.177096366882324
1775728232267853600,11.245853515625,-0.31520646810531616,-0.13439035415649414,-3.679852247238159
1775728232277954800,11.255954833984376,-0.27000242471694946,-0.17959438264369965,-3.028669834136963
1775728232287964700,11.265964599609376,-0.24678955972194672,-0.2724458873271942,-2.037846565246582
1775728232308075800,11.28607568359375,-0.26633724570274353,-0.26145032048225403,-1.7849482297897339
1775728232318146600,11.296146484375,-0.25045475363731384,-0.21013765037059784,-1.5308283567428589
1775728232328187000,11.306186767578126,-0.21380282938480377,-0.1563815027475357,-1.2278391122817993
1775728232338288000,11.3162880859375,-0.19425514340400696,-0.09407325088977814,-0.9040805697441101
1775728232348328400,11.326328369140626,-0.17348572611808777,-0.01710422709584236,-0.6047565937042236
1775728232358429700,11.3364296875,-0.14416420459747314,0.0757472887635231,-0.3530801236629486
1775728232368470000,11.346469970703126,-0.12217304855585098,0.1612684279680252,-0.18570303916931152
1775728232378571300,11.3565712890625,-0.10873401165008545,0.23945917189121246,-0.11362093687057495
1775728232408722700,11.38672265625,-0.08429940044879913,0.49846604466438293,-0.18936823308467865
1775728232418763000,11.396762939453126,-0.05742133408784866,0.5546656250953674,-0.19303341209888458
1775728232428803300,11.40680322265625,-0.02687807008624077,0.5949827432632446,-0.15760323405265808
1775728232438904600,11.416904541015626,0.0012217304902151227,0.6352998614311218,-0.09529497474431992
1775728232448975400,11.426975341796876,0.04642575979232788,0.6890559792518616,0.006108652334660292
1775728232459046100,11.437046142578126,0.10506882518529892,0.7428121566772461,0.1417207419872284
1775728232469056000,11.447055908203126,0.16737708449363708,0.8222246170043945,0.3176499307155609
1775728232479157200,11.4571572265625,0.2125810980796814,0.9089674949645996,0.48869219422340393
1775728232489228000,11.46722802734375,0.2370157092809677,0.9260717034339905,0.618195652961731
1775728232539582200,11.517582275390625,0.3995058834552765,0.8869763612747192,0.8185594081878662
1775728232549653000,11.527653076171875,0.3982841372489929,0.8735373020172119,0.685390830039978
1775728232559662600,11.53766259765625,0.38240164518356323,0.8087855577468872,0.5314527750015259
1775728232569733400,11.5477333984375,0.3396410644054413,0.6939429044723511,0.37629300355911255
1775728232579804200,11.55780419921875,0.2724458873271942,0.5448917746543884,0.24190263450145721
1775728232589875000,11.567875,0.18081611394882202,0.384845107793808,0.1368338167667389
1775728232620026400,11.5980263671875,-0.2687807083129883,-0.12828169763088226,0.18814650177955627
1775728232630036200,11.6080361328125,-0.485027015209198,-0.32986724376678467,0.3543018400669098
1775728232640137500,11.618137451171876,-0.7244861721992493,-0.5241223573684692,0.5778785347938538
1775728232650116900,11.628116943359375,-0.9663888216018677,-0.6768386960029602,0.8344419002532959
1775728232660218000,11.638218017578126,-1.1911872625350952,-0.7586946487426758,1.1032226085662842
1775728232670228000,11.64822802734375,-1.389107584953308,-0.7538077235221863,1.3646728992462158
1775728232680329200,11.6583291015625,-1.5613715648651123,-0.6695083379745483,1.5894713401794434
1775728232690338800,11.6683388671875,-1.6982053518295288,-0.5607742667198181,1.7531832456588745
1775728232700440300,11.6784404296875,-1.7886134386062622,-0.5021312236785889,1.8509217500686646
1775728232750763800,11.728763671875,-1.7996090650558472,-1.0714576244354248,2.059837579727173
1775728232760804000,11.73880419921875,-1.7580702304840088,-1.1594222784042358,1.9425514936447144
1775728232770813700,11.748813720703126,-1.712866187095642,-1.2229522466659546,1.7861700057983398
1775728232780915200,11.758915283203125,-1.6676621437072754,-1.263269305229187,1.6102408170700073
1775728232790924800,11.7689248046875,-1.616349458694458,-1.2864822149276733,1.431868076324463
1775728232801026300,11.7790263671875,-1.566258430480957,-1.2999212741851807,1.254717230796814
1775728232821167900,11.79916796875,-1.4734070301055908,-1.310916781425476,0.9334021210670471
1775728232831208200,11.809208251953125,-1.4233160018920898,-1.2999212741851807,0.7941248416900635
1775728232841279000,11.819279052734375,-1.3720033168792725,-1.291369080543518,0.6731734871864319
1775728232851349800,11.829349853515625,-1.3145819902420044,-1.274264931678772,0.5839871764183044
1775728232861420500,11.839420654296875,-1.246165156364441,-1.2473868131637573,0.5510004758834839
1775728232871399700,11.849399658203126,-1.1691961288452148,-1.2119566202163696,0.5693264007568359
1775728232881501000,11.8595009765625,-1.086118459701538,-1.1728612184524536,0.6059783101081848
1775728232891572000,11.869572021484375,-1.0103710889816284,-1.1386528015136719,0.6279694437980652
1775728232901612000,11.879612060546876,-0.9480628371238708,-1.1081095933914185,0.618195652961731
1775728232941864700,11.91986474609375,-0.8161159753799438,-0.9224064946174622,0.2174680233001709
1775728232951905000,11.929905029296876,-0.8038986921310425,-0.8527678847312927,0.04886921867728233
1775728232962006500,11.940006591796875,-0.8002334833145142,-0.7770205736160278,-0.12339477986097336
1775728232972107800,11.950107666015626,-0.8014551997184753,-0.6914994716644287,-0.2871066629886627
1775728232982148000,11.960148193359375,-0.807563841342926,-0.5998696684837341,-0.43249258399009705
1775728232992157700,11.97015771484375,-0.8002334833145142,-0.48869219422340393,-0.5522221922874451
1775728233002259200,11.98025927734375,-0.7855727076530457,-0.3677408695220947,-0.6352998614311218
1775728233012330000,11.990330078125,-0.7709119319915771,-0.23945917189121246,-0.6805039048194885
1775728233032441000,12.010441162109375,-0.6963863968849182,0.059864792972803116,-0.675616979598999
1775728233042481200,12.020481201171876,-0.6328563690185547,0.2223549485206604,-0.6304129362106323
1775728233052491000,12.030490966796876,-0.5558874011039734,0.3885102868080139,-0.5448917746543884
1775728233062592300,12.04059228515625,-0.4703662395477295,0.5522221922874451,-0.42638394236564636
1775728233072632600,12.050632568359376,-0.36651915311813354,0.7147123217582703,-0.2834414839744568
1775728233082734000,12.060734130859375,-0.24678955972194672,0.8772025108337402,-0.1160643994808197
1775728233092804900,12.070804931640625,-0.12095131725072861,1.0421360731124878,0.07330382615327835
1775728233102875600,12.080875732421875,0.00366519158706069,1.1997393369674683,0.2687807083129883
1775728233112946400,12.090946533203125,0.1319468915462494,1.341460108757019,0.46670106053352356
1775728233132996400,12.110996337890626,0.36163222789764404,1.607797384262085,0.8234463334083557
1775728233143067100,12.121067138671876,0.46792277693748474,1.7165313959121704,0.9810495972633362
1775728233153077000,12.131076904296876,0.5668829679489136,1.7922786474227905,1.1362093687057495
1775728233163178200,12.14117822265625,0.6633996367454529,1.8411478996276855,1.310916781425476
1775728233173188000,12.15118798828125,0.7513642311096191,1.8753563165664673,1.508837103843689
1775728233183289300,12.161289306640626,0.827111542224884,1.8887953758239746,1.6920967102050781
1775728233193360100,12.171360107421876,0.8955284357070923,1.8936822414398193,1.813048005104065
1775728233203461400,12.18146142578125,0.9761626720428467,1.8851301670074463,1.8203784227371216
1775728233213471200,12.19147119140625,1.0494664907455444,1.8643606901168823,1.7348573207855225
1775728233223542000,12.2015419921875,1.1081095933914185,1.842369556427002,1.6126842498779297
1775728233263733800,12.241733642578126,1.3048081398010254,1.7275269031524658,0.799011766910553
1775728233273774000,12.251774169921875,1.3463469743728638,1.6872098445892334,0.5681046843528748
1775728233283875300,12.261875244140626,1.3829989433288574,1.6566665172576904,0.3384193480014801
1775728233293915600,12.27191552734375,1.4037683010101318,1.626123309135437,0.1014036312699318
1775728233304017000,12.282016845703126,1.431868076324463,1.5845844745635986,-0.11728613078594208
1775728233314057200,12.29205712890625,1.4746286869049072,1.5369369983673096,-0.26145032048225403
1775728233324128000,12.3021279296875,1.5076154470443726,1.4685200452804565,-0.2993239760398865
1775728233354340400,12.33234033203125,1.4025466442108154,1.0030407905578613,-0.04153883829712868
1775728233364441600,12.342441650390626,1.2950342893600464,0.8295549750328064,0.04153883829712868
1775728233374451500,12.352451416015626,1.166752576828003,0.7024950385093689,0.10384709388017654
1775728233384522200,12.362522216796876,1.0250319242477417,0.6194173693656921,0.15760323405265808
1775728233394562600,12.3725625,0.8747590184211731,0.5827654600143433,0.21135938167572021
1775728233404663800,12.382663818359376,0.7269296646118164,0.607200026512146,0.27611109614372253
1775728233414673700,12.392673583984376,0.5876523852348328,0.6841690540313721,0.35552358627319336
1775728233424775000,12.40277490234375,0.4593706727027893,0.7843509912490845,0.46303585171699524
1775728233434845700,12.412845703125,0.3433062732219696,0.8539896011352539,0.5900958180427551
1775728233444886000,12.422885986328126,0.24068090319633484,0.8637634515762329,0.720820963382721
1775728233464936200,12.442936279296875,0.1270599663257599,0.7867944240570068,1.0335839986801147
1775728233475007000,12.453007080078125,0.09773843735456467,0.7379252314567566,1.186300277709961
1775728233485077800,12.463077880859375,0.0806342139840126,0.7037167549133301,1.330464482307434
1775728233495148500,12.4731484375,0.06963863968849182,0.6780604124069214,1.4660766124725342
1775728233505219300,12.48321923828125,0.05497787147760391,0.66584312915802,1.5906931161880493
1775728233515259600,12.493259765625,0.024434609338641167,0.6524040699005127,1.6945401430130005
1775728233525269200,12.503269287109376,-0.013439035043120384,0.6291912198066711,1.7825047969818115
1775728233535340000,12.513340087890626,-0.05253441259264946,0.607200026512146,1.8509217500686646
1775728233555451100,12.533451171875,-0.09407325088977814,0.5925393104553223,1.901012659072876
1775728233585633000,12.563633056640626,-0.1722639948129654,0.6010913848876953,1.996307611465454
1775728233595643000,12.573642822265626,-0.19792033731937408,0.6010913848876953,2.101376533508301
1775728233605744000,12.583744140625,-0.19792033731937408,0.6010913848876953,2.101376533508301
1775728233615815000,12.59381494140625,-0.2064724564552307,0.5876523852348328,2.1759018898010254
1775728233625885700,12.6038857421875,-0.21135938167572021,0.5656611919403076,2.2565362453460693
1775728233635926000,12.613926025390626,-0.20891591906547546,0.5473352670669556,2.3383922576904297
1775728233656067600,12.634067626953126,-0.2015855312347412,0.5216789245605469,2.5057692527770996
1775728233676209400,12.65420947265625,-0.19547687470912933,0.4996877610683441,2.649933338165283
1775728233686249500,12.66424951171875,-0.18814650177955627,0.49846604466438293,2.718350410461426
1775728233696320300,12.6743203125,-0.18936823308467865,0.4911356568336487,2.785545587539673
1775728233706391300,12.684391357421875,-0.19792033731937408,0.475253164768219,2.844188690185547
1775728233716462000,12.694462158203125,-0.21013765037059784,0.45692721009254456,2.9052751064300537
1775728233726532900,12.704532958984375,-0.22479841113090515,0.4508185386657715,2.972470283508301
1775728233736542500,12.71454248046875,-0.2370157092809677,0.4642575979232788,3.032335042953491
1775728233746644000,12.72464404296875,-0.24068090319633484,0.50335294008255,3.081204414367676
1775728233776764700,12.7547646484375,-0.21502456068992615,0.608421802520752,3.1007518768310547
1775728233786866000,12.764865966796876,-0.19058994948863983,0.6218608021736145,3.073873996734619
1775728233796937000,12.77493701171875,-0.16493362188339233,0.6243042945861816,3.0298917293548584
1775728233807038200,12.7850380859375,-0.13439035415649414,0.5962044596672058,2.965139865875244
1775728233817109000,12.79510888671875,-0.09773843735456467,0.5363397002220154,2.8845057487487793
1775728233827179800,12.8051796875,-0.05619960278272629,0.47280970215797424,2.802649736404419
1775728233837220000,12.81522021484375,-0.006108652334660292,0.4190535545349121,2.7207937240600586
1775728233847321300,12.8253212890625,0.051312681287527084,0.38728857040405273,2.635272741317749
1775728233887543600,12.86554345703125,0.23335053026676178,0.26633724570274353,2.2992968559265137
1775728233897583900,12.875583984375,0.2480112910270691,0.21502456068992615,2.2284364700317383
1775728233907593500,12.885593505859376,0.2541199326515198,0.1661553531885147,2.1759018898010254
1775728233917603300,12.895603271484376,0.2577851414680481,0.13561208546161652,2.140471935272217
1775728233927674000,12.905674072265626,0.2541199326515198,0.10018189996480942,2.124589204788208
1775728233937684000,12.91568408203125,0.2480112910270691,0.06841690838336945,2.135584831237793
1775728233967804700,12.9458046875,0.16249015927314758,-0.0659734457731247,2.2235496044158936
1775728233977906200,12.95590625,0.10384709388017654,-0.12095131725072861,2.2003366947174072
1775728233987977000,12.96597705078125,0.0403171069920063,-0.15760323405265808,2.1368067264556885
1775728233998047700,12.9760478515625,-0.024434609338641167,-0.1661553531885147,2.048841953277588
1775728234008118500,12.986118408203126,-0.09407325088977814,-0.1563815027475357,1.9547687768936157
1775728234018189300,12.996189208984376,-0.1661553531885147,-0.14416420459747314,1.86191725730896
1775728234028199200,13.00619921875,-0.23457226157188416,-0.12339477986097336,1.7763961553573608
1775728234038239200,13.0162392578125,-0.3017674386501312,-0.09285151958465576,1.6957619190216064
1775728234048310000,13.02631005859375,-0.3591887652873993,-0.06475171446800232,1.6273449659347534
1775728234068451800,13.046451904296875,-0.43249258399009705,0.021991148591041565,1.576032280921936
1775728234078492000,13.056491943359376,-0.4544837474822998,0.06841690838336945,1.5919147729873657
1775728234088593400,13.066593505859375,-0.46181413531303406,0.1270599663257599,1.624901533126831
1775728234098664200,13.076664306640625,-0.46547931432724,0.1918116807937622,1.6798794269561768
1775728234108765400,13.086765380859376,-0.47280970215797424,0.25534167885780334,1.7592918872833252
1775728234118836200,13.096836181640626,-0.4740314185619354,0.3066543638706207,1.8582520484924316
1775728234128907000,13.106906982421876,-0.4691445231437683,0.3494149148464203,1.9706512689590454
1775728234138977800,13.116977783203126,-0.47280970215797424,0.3836233615875244,2.079385280609131
1775728234149048600,13.127048583984376,-0.48869219422340393,0.4031710624694824,2.1624629497528076
1775728234159058400,13.137058349609376,-0.5180137157440186,0.4105014503002167,2.211332082748413
1775728234219330600,13.19733056640625,-0.8417723178863525,0.3237585723400116,2.1795670986175537
1775728234229432000,13.20743212890625,-0.8943067193031311,0.30054569244384766,2.1587977409362793
1775728234239472000,13.21747216796875,-0.9578366875648499,0.2626720666885376,2.1319196224212646
1775728234249573600,13.22757373046875,-1.0128145217895508,0.2370157092809677,2.085494041442871
1775728234269654000,13.247654052734376,-1.1239920854568481,0.20525072515010834,1.9792033433914185
1775728234279755500,13.257755615234375,-1.1924089193344116,0.16859880089759827,1.930334210395813
1775728234289826300,13.267826416015625,-1.2315043210983276,0.13439035415649414,1.8777997493743896
1775728234299897000,13.27789697265625,-1.2302825450897217,0.09285151958465576,1.793500304222107
1775728234309906700,13.28790673828125,-1.186300277709961,0.019547687843441963,1.6957619190216064
1775728234320008200,13.29800830078125,-1.1496484279632568,-0.07941248267889023,1.5821410417556763
1775728234330079000,13.308078857421876,-1.1386528015136719,-0.11728613078594208,1.4123204946517944
1775728234340088600,13.318088623046876,-1.0897835493087769,-0.04764748737215996,1.2278391122817993
1775728234350159600,13.32815966796875,-0.9724974632263184,0.059864792972803116,1.0787880420684814
1775728234360199700,13.33819970703125,-0.8136724829673767,0.1062905490398407,0.9676105380058289
1775728234390290200,13.368290283203125,-0.09896016865968704,0.12095131725072861,1.1191051006317139
1775728234410462200,13.388462158203126,0.25045475363731384,0.10995574295520782,1.3878858089447021
1775728234420533000,13.398532958984376,0.3127630054950714,0.09529497474431992,1.4526375532150269
1775728234430573300,13.4085732421875,0.3237585723400116,0.10506882518529892,1.4330898523330688
1775728234440674600,13.418674560546876,0.34086281061172485,0.14294247329235077,1.3854423761367798
1775728234450684400,13.428684326171876,0.33475416898727417,0.21135938167572021,1.302364706993103
1775728234460755200,13.438755126953126,0.30543261766433716,0.2736676335334778,1.2217304706573486
1775728234490906600,13.46890673828125,0.2431243658065796,0.22602014243602753,1.1288789510726929
1775728234500947000,13.478947021484375,0.2076941877603531,0.22479841113090515,1.0629055500030518
1775728234510956500,13.48895654296875,0.17470745742321014,0.2590068578720093,0.9175195693969727
1775728234521058000,13.49905810546875,0.1918116807937622,0.2871066629886627,0.8100073337554932
1775728234531067600,13.509067626953126,0.23457226157188416,0.3335324227809906,0.7660250067710876
1775728234541138400,13.519138427734376,0.2968805134296417,0.42149701714515686,0.7391469478607178
1775728234551178800,13.5291787109375,0.39706242084503174,0.5119050741195679,0.7550294399261475
1775728234561280000,13.539280029296876,0.49235737323760986,0.5839871764183044,0.7929030656814575
1775728234601532700,13.57953271484375,0.6768386960029602,0.7831292152404785,1.0922271013259888
1775728234611603500,13.589603515625,0.6414085030555725,0.8100073337554932,1.1679743528366089
1775728234621613300,13.59961328125,0.5766568183898926,0.8332201838493347,1.1899654865264893
1775728234631714600,13.609714599609376,0.5143485069274902,0.8576548099517822,1.1924089193344116
1775728234641755000,13.6197548828125,0.4593706727027893,0.8710938692092896,1.1948524713516235
1775728234651856400,13.6298564453125,0.4105014503002167,0.8723155856132507,1.2095131874084473
1775728234661896400,13.639896484375,0.33597588539123535,0.8869763612747192,1.1826350688934326
1775728234671967200,13.64996728515625,0.2675589919090271,0.8967501521110535,1.1044443845748901
1775728234712159000,13.690158935546876,0.21868975460529327,0.6829473376274109,0.8637634515762329
1775728234722229800,13.700229736328126,0.2565633952617645,0.6536257863044739,0.807563841342926
1775728234732300500,13.710300537109376,0.32131510972976685,0.626747727394104,0.7806857824325562
1775728234742310400,13.720310302734376,0.3836233615875244,0.598647952079773,0.7745771408081055
1775728234752350700,13.730350830078125,0.44104471802711487,0.5766568183898926,0.7770205736160278
1775728234762421500,13.74042138671875,0.49235737323760986,0.5607742667198181,0.7929030656814575
1775728234772431000,13.75043115234375,0.5229006409645081,0.5473352670669556,0.8100073337554932
1775728234822663200,13.8006630859375,0.5277875661849976,0.6255260109901428,1.0140362977981567
1775728234832734000,13.81073388671875,0.4996877610683441,0.6157521605491638,1.0543533563613892
1775728234842804700,13.8208046875,0.4996877610683441,0.6157521605491638,1.0543533563613892
1775728234852875500,13.83087548828125,0.47280970215797424,0.6120869517326355,1.0824532508850098
1775728234862915800,13.840915771484376,0.44593164324760437,0.6145304441452026,1.0995573997497559
1775728234872956200,13.8509560546875,0.4288274049758911,0.6120869517326355,1.1081095933914185
1775728234883027000,13.86102685546875,0.40683624148368835,0.6059783101081848,1.1117748022079468
1775728234913178400,13.891178466796875,0.35552358627319336,0.5400048494338989,1.0335839986801147
1775728234923188000,13.90118798828125,0.33597588539123535,0.48869219422340393,1.0140362977981567
1775728234933258800,13.9112587890625,0.3078760802745819,0.4300491213798523,0.9822713136672974
1775728234943329500,13.92132958984375,0.28466320037841797,0.3836233615875244,0.9456194043159485
1775728234953339400,13.93133935546875,0.2541199326515198,0.33597588539123535,0.9101892113685608
1775728234963410200,13.94141015625,0.20525072515010834,0.27977627515792847,0.8759807348251343
1775728234973450500,13.951450439453126,0.14905111491680145,0.2321287989616394,0.8197811841964722
1775728235003632400,13.98163232421875,0.05375614017248154,0.15882496535778046,0.6438519954681396
1775728235013703200,13.991703125,0.03787364438176155,0.13927727937698364,0.6047565937042236
1775728235023682600,14.0016826171875,0.015882495790719986,0.11239920556545258,0.5632177591323853
1775728235033783800,14.01178369140625,0.004886921960860491,0.09162978827953339,0.5302310585975647
1775728235043793400,14.02179345703125,0.010995574295520782,0.06352998316287994,0.5204572081565857
1775728235053833700,14.031833740234376,0.024434609338641167,0.0403171069920063,0.5314527750015259
1775728235063904500,14.041904541015626,0.045204028487205505,0.02076941914856434,0.5644394755363464
1775728235073944800,14.05194482421875,0.07696902006864548,-0.0024434609804302454,0.608421802520752
1775728235083954700,14.06195458984375,0.1111774742603302,-0.018325956538319588,0.6499606370925903
1775728235114136600,14.092136474609376,0.13072516024112701,-0.009773843921720982,0.6524040699005127
1775728235124207400,14.102207275390626,0.11850785464048386,-0.0012217304902151227,0.6120869517326355
1775728235134247700,14.11224755859375,0.10873401165008545,0.00366519158706069,0.5632177591323853
1775728235144318500,14.122318359375,0.09040805697441101,0.010995574295520782,0.5119050741195679
1775728235154358800,14.13235888671875,0.05619960278272629,0.02687807008624077,0.44715335965156555
1775728235164399000,14.142399169921875,0.01710422709584236,0.03787364438176155,0.3738495409488678
1775728235174408700,14.15240869140625,-0.018325956538319588,0.05009094998240471,0.31154128909111023
1775728235184479500,14.1624794921875,-0.04886921867728233,0.06475171446800232,0.2675589919090271
1775728235234803000,14.212802978515626,-0.13316862285137177,0.13072516024112701,0.21624629199504852
1775728235244843300,14.22284326171875,-0.12828169763088226,0.13072516024112701,0.27122417092323303
1775728235254944800,14.23294482421875,-0.11362093687057495,0.13072516024112701,0.3225368559360504
1775728235265015600,14.243015625,-0.10262536257505417,0.12217304855585098,0.35552358627319336
1775728235275086300,14.25308642578125,-0.10262536257505417,0.1014036312699318,0.3689626157283783
1775728235285126700,14.263126708984375,-0.09529497474431992,0.08918632566928864,0.3689626157283783
1775728235295228000,14.273227783203126,-0.08429940044879913,0.09651670604944229,0.36529740691185
1775728235305268200,14.283268310546875,-0.08796459436416626,0.09529497474431992,0.3335324227809906
1775728235325440300,14.303440185546876,-0.09529497474431992,0.07696902006864548,0.25045475363731384
1775728235345521000,14.32352099609375,-0.11972958594560623,0.08307767659425735,0.17470745742321014
1775728235355561200,14.333561279296875,-0.11972958594560623,0.07941248267889023,0.15515977144241333
1775728235365632000,14.343632080078125,-0.12950342893600464,0.06963863968849182,0.1514945775270462
1775728235375641600,14.3536416015625,-0.1417207419872284,0.05497787147760391,0.15882496535778046
1775728235385712400,14.36371240234375,-0.1466076523065567,0.03787364438176155,0.16982053220272064
1775728235395752700,14.373752685546876,-0.15271630883216858,0.025656340643763542,0.1722639948129654
1775728235405823500,14.383823486328126,-0.17348572611808777,0.019547687843441963,0.16004669666290283
1775728235425904000,14.403904052734376,-0.2321287989616394,0.0012217304902151227,0.09529497474431992
1775728235446045700,14.424045654296876,-0.29565876722335815,-0.00855211354792118,0.02687807008624077
1775728235456147000,14.43414697265625,-0.3225368559360504,-0.00733038317412138,0.004886921960860491
1775728235466156800,14.44415673828125,-0.34574973583221436,-0.0024434609804302454,-0.0024434609804302454
1775728235476227600,14.4542275390625,-0.35552358627319336,0.00733038317412138,0.00733038317412138
1775728235486268000,14.464267822265626,-0.34208452701568604,0.0024434609804302454,0.04886921867728233
1775728235496369200,14.474369140625,-0.32986724376678467,-0.0012217304902151227,0.10384709388017654
1775728235506379000,14.48437890625,-0.31154128909111023,-0.0012217304902151227,0.16859880089759827
1775728235516388900,14.494388916015625,-0.2773328125476837,-0.0024434609804302454,0.2382374405860901
1775728235536530400,14.514530517578125,-0.2076941877603531,0.006108652334660292,0.3127630054950714
1775728235566742800,14.54474267578125,-0.14905111491680145,-0.00366519158706069,0.14294247329235077
1775728235596924700,14.574924560546876,-0.1014036312699318,-0.04764748737215996,-0.05375614017248154
1775728235606934300,14.584934326171876,-0.08796459436416626,-0.06230825558304787,-0.1160643994808197
1775728235627076000,14.605076171875,-0.07330382615327835,-0.0659734457731247,-0.17837265133857727
1775728235647187200,14.625187255859375,-0.08552113175392151,-0.06230825558304787,-0.18448130786418915
1775728235667298000,14.645298095703126,-0.11728613078594208,-0.06352998316287994,-0.18081611394882202
1775728235677399600,14.655399658203125,-0.13439035415649414,-0.06352998316287994,-0.18448130786418915
1775728235687409200,14.6654091796875,-0.16004669666290283,-0.06475171446800232,-0.19792033731937408
1775728235697449500,14.675449462890626,-0.18814650177955627,-0.07208210229873657,-0.23579397797584534
1775728235707520300,14.685520263671876,-0.2015855312347412,-0.07941248267889023,-0.2871066629886627
1775728235717560600,14.695560546875,-0.20402899384498596,-0.07819075137376785,-0.32620203495025635
1775728235727601000,14.705600830078126,-0.19792033731937408,-0.06475171446800232,-0.3176499307155609
1775728235767823000,14.745822998046876,-0.10995574295520782,-0.09773843735456467,0.02687807008624077
1775728235777894000,14.755893798828126,-0.09285151958465576,-0.10384709388017654,0.10262536257505417
1775728235787903700,14.76590380859375,-0.07452555745840073,-0.09407325088977814,0.16249015927314758
1775728235798005000,14.7760048828125,-0.059864792972803116,-0.0806342139840126,0.20036379992961884
1775728235808014600,14.7860146484375,-0.051312681287527084,-0.06841690838336945,0.2064724564552307
1775728235828187000,14.806186767578126,-0.05619960278272629,-0.051312681287527084,0.11239920556545258
1775728235838257700,14.816257568359376,-0.06108652427792549,-0.04398229718208313,0.03420845419168472
1775728235878449400,14.856449462890625,-0.0806342139840126,-0.02687807008624077,-0.11850785464048386
1775728235888489500,14.866489501953126,-0.07452555745840073,-0.03420845419168472,-0.09529497474431992
1775728235898591000,14.876591064453125,-0.0659734457731247,-0.036651913076639175,-0.0659734457731247
1775728235908570000,14.886570068359376,-0.05619960278272629,-0.03420845419168472,-0.04398229718208313
1775728235918671400,14.89667138671875,-0.04153883829712868,-0.028099801391363144,-0.028099801391363144
1775728235928681200,14.90668115234375,-0.02321287989616394,-0.010995574295520782,-0.01466076634824276
1775728235938782500,14.916782470703126,-0.00366519158706069,0.006108652334660292,-0.004886921960860491
1775728235958863000,14.936863037109376,0.01466076634824276,0.03176499158143997,-0.00855211354792118
1775728235968934000,14.946933837890626,0.02076941914856434,0.04398229718208313,-0.02076941914856434
1775728235979004700,14.957004638671876,0.018325956538319588,0.04642575979232788,-0.02932153269648552
1775728235988984000,14.966984130859375,0.01466076634824276,0.05375614017248154,-0.03787364438176155
1775728235999085300,14.977085205078126,0.00733038317412138,0.05375614017248154,-0.04153883829712868
1775728236009095000,14.987094970703126,0.0024434609804302454,0.05375614017248154,-0.04642575979232788
1775728236019166000,14.997166015625,-0.006108652334660292,0.05497787147760391,-0.04642575979232788
1775728236029145000,15.00714501953125,-0.01466076634824276,0.059864792972803116,-0.04398229718208313
1775728236039246300,15.017246337890626,-0.02321287989616394,0.05742133408784866,-0.030543262138962746
1775728236069367300,15.0473671875,-0.04886921867728233,0.018325956538319588,0.013439035043120384
1775728236089539300,15.067539306640626,-0.059864792972803116,0.00733038317412138,0.015882495790719986
1775728236099610000,15.077610107421876,-0.07330382615327835,-0.0024434609804302454,0.00855211354792118
1775728236109650400,15.087650390625,-0.10751228034496307,-0.030543262138962746,-0.019547687843441963
1775728236119751700,15.097751708984376,-0.10751228034496307,-0.030543262138962746,-0.019547687843441963
1775728236129761500,15.107761474609376,-0.1270599663257599,-0.04642575979232788,-0.04153883829712868
1775728236139862800,15.11786279296875,-0.14294247329235077,-0.05253441259264946,-0.06352998316287994
1775728236190155800,15.16815576171875,-0.24434609711170197,-0.1111774742603302,-0.08674286305904388
1775728236200226600,15.1782265625,-0.26511552929878235,-0.12095131725072861,-0.06841690838336945
1775728236210267000,15.188266845703126,-0.28588494658470154,-0.13072516024112701,-0.05009094998240471
1775728236220368100,15.1983681640625,-0.3090978264808655,-0.14294247329235077,-0.039095375686883926
1775728236230378000,15.2083779296875,-0.32620203495025635,-0.14905111491680145,-0.03420845419168472
1775728236240387800,15.218387939453125,-0.34086281061172485,-0.1612684279680252,-0.028099801391363144
1775728236250458600,15.228458740234375,-0.35674530267715454,-0.18325957655906677,-0.02687807008624077
1775728236260529400,15.238529296875,-0.37140607833862305,-0.2015855312347412,-0.03298672288656235
1775728236280579300,15.258579345703126,-0.39095374941825867,-0.2382374405860901,-0.05253441259264946
1775728236290650000,15.268650146484376,-0.40072759985923767,-0.2577851414680481,-0.0659734457731247
1775728236300721000,15.278720947265626,-0.41172316670417786,-0.2773328125476837,-0.07819075137376785
1775728236310761200,15.28876123046875,-0.42149701714515686,-0.304210901260376,-0.08674286305904388
1775728236320771000,15.29877099609375,-0.42760565876960754,-0.3286454975605011,-0.08307767659425735
1775728236330841900,15.308841796875,-0.43249258399009705,-0.3433062732219696,-0.07452555745840073
1775728236340851700,15.318851806640625,-0.4349360466003418,-0.3579670190811157,-0.06108652427792549
1775728236350892000,15.32889208984375,-0.43249258399009705,-0.37629300355911255,-0.045204028487205505
1775728236360901600,15.338901611328126,-0.4288274049758911,-0.3982841372489929,-0.024434609338641167
1775728236401154300,15.379154296875,-0.4080579876899719,-0.4948008358478546,0.03787364438176155
1775728236411225000,15.38922509765625,-0.4043927788734436,-0.5106833577156067,0.036651913076639175
1775728236421295900,15.3992958984375,-0.39584067463874817,-0.5277875661849976,0.030543262138962746
1775728236431275300,15.409275146484376,-0.384845107793808,-0.5400048494338989,0.021991148591041565
1775728236441376500,15.41937646484375,-0.3677408695220947,-0.5461135506629944,0.015882495790719986
1775728236451447300,15.429447265625,-0.34697145223617554,-0.5363397002220154,0.010995574295520782
1775728236461518000,15.43951806640625,-0.3188716471195221,-0.5204572081565857,0.012217304669320583
1775728236481537800,15.459537841796875,-0.2528982162475586,-0.5485569834709167,0.03787364438176155
1775728236491577900,15.469577880859376,-0.21991148591041565,-0.5668829679489136,0.05864306539297104
1775728236501679400,15.479679443359375,-0.18570303916931152,-0.5791002511978149,0.07208210229873657
1775728236511750100,15.489750244140625,-0.14905111491680145,-0.588874101638794,0.07941248267889023
1775728236521821000,15.499821044921875,-0.1160643994808197,-0.5962044596672058,0.07819075137376785
1775728236531891700,15.5098916015625,-0.09896016865968704,-0.6010913848876953,0.06230825558304787
1775728236541901300,15.5199013671875,-0.09407325088977814,-0.6096435189247131,0.028099801391363144
1775728236551941600,15.529941650390626,-0.09407325088977814,-0.616973876953125,-0.018325956538319588
1775728236562043100,15.540043212890625,-0.1062905490398407,-0.6206390857696533,-0.06719517707824707
1775728236602326300,15.580326171875,-0.21013765037059784,-0.6206390857696533,-0.22846360504627228
1775728236612397000,15.59039697265625,-0.2272418737411499,-0.5900958180427551,-0.2028072625398636
1775728236622467800,15.6004677734375,-0.2431243658065796,-0.5681046843528748,-0.14905111491680145
1775728236632477700,15.610477783203125,-0.25534167885780334,-0.5558874011039734,-0.08307767659425735
1775728236642548500,15.620548583984375,-0.26145032048225403,-0.5436700582504272,-0.01466076634824276
1775728236652558000,15.63055810546875,-0.26022860407829285,-0.5314527750015259,0.051312681287527084
1775728236662659600,15.64065966796875,-0.26145032048225403,-0.5326744914054871,0.11239920556545258
1775728236692810800,15.670810791015626,-0.24068090319633484,-0.5326744914054871,0.2822197377681732
1775728236702881500,15.680881591796876,-0.23457226157188416,-0.5485569834709167,0.2773328125476837
1775728236712891400,15.690891357421876,-0.22968533635139465,-0.5705481171607971,0.22846360504627228
1775728236722992600,15.70099267578125,-0.2382374405860901,-0.5742133259773254,0.1417207419872284
1775728236733033000,15.711032958984376,-0.2577851414680481,-0.5778785347938538,0.025656340643763542
1775728236743073300,15.7210732421875,-0.27611109614372253,-0.598647952079773,-0.10995574295520782
1775728236753144000,15.73114404296875,-0.3066543638706207,-0.636521577835083,-0.27488934993743896
1775728236763214800,15.74121484375,-0.34086281061172485,-0.6805039048194885,-0.4703662395477295
1775728236773285600,15.75128564453125,-0.37262779474258423,-0.7367035150527954,-0.6609562039375305
1775728236803437000,15.78143701171875,-0.475253164768219,-0.7721336483955383,-1.207069754600525
1775728236813477400,15.791477294921876,-0.48258355259895325,-0.7367035150527954,-1.3487904071807861
1775728236823548200,15.801548095703126,-0.4703662395477295,-0.7024950385093689,-1.4465289115905762
1775728236833588500,15.81158837890625,-0.43127086758613586,-0.6976081132888794,-1.4880677461624146
1775728236853669000,15.831669189453125,-0.2736676335334778,-0.6670648455619812,-1.5821410417556763
1775728236863740000,15.841739990234375,-0.14294247329235077,-0.5962044596672058,-1.6200146675109863
1775728236873810700,15.851810791015625,-0.030543262138962746,-0.5387831330299377,-1.6468926668167114
1775728236904053500,15.882053466796876,0.2565633952617645,-0.39217549562454224,-1.568701982498169
1775728236924195000,15.902195068359376,0.3384193480014801,-0.28099802136421204,-1.36955988407135
1775728236934265900,15.912265869140626,0.3494149148464203,-0.24556782841682434,-1.2718214988708496
1775728236944336600,15.922336669921876,0.33597588539123535,-0.20891591906547546,-1.1850786209106445
1775728236954377000,15.932376953125,0.3188716471195221,-0.1514945775270462,-1.0848966836929321
1775728236964447700,15.94244775390625,0.29565876722335815,-0.0757472887635231,-0.9615018963813782
1775728236974518500,15.9525185546875,0.27000242471694946,-0.009773843921720982,-0.8234463334083557
1775728236984528400,15.9625283203125,0.26022860407829285,0.045204028487205505,-0.6829473376274109
1775728237014618600,15.99261865234375,0.33475416898727417,0.19303341209888458,-0.3433062732219696
1775728237024720100,16.00272021484375,0.3897320330142975,0.24678955972194672,-0.28466320037841797
1775728237034760400,16.012760498046877,0.4434881806373596,0.2968805134296417,-0.24190263450145721
1775728237044800500,16.022800537109376,0.4899139404296875,0.3274237811565399,-0.22113321721553802
1775728237054810400,16.032810302734376,0.5290092825889587,0.34086281061172485,-0.22357667982578278
1775728237064881200,16.042881103515626,0.5534439086914062,0.3445279896259308,-0.24678955972194672
1775728237074952000,16.052951904296876,0.5668829679489136,0.3543018400669098,-0.27611109614372253
1775728237084992300,16.0629921875,0.5632177591323853,0.37262779474258423,-0.2981022298336029
1775728237105011700,16.08301171875,0.513126790523529,0.4105014503002167,-0.27000242471694946
1775728237115021600,16.093021484375,0.47769662737846375,0.4239404797554016,-0.1966986060142517
1775728237125122800,16.103122802734376,0.43737950921058655,0.43615779280662537,-0.1014036312699318
1775728237135193600,16.113193603515626,0.39584067463874817,0.45204028487205505,0.013439035043120384
1775728237145264400,16.123264404296876,0.34208452701568604,0.45204028487205505,0.13439035415649414
1775728237155335200,16.133335205078126,0.2785545587539673,0.4349360466003418,0.24434609711170197
1775728237165406000,16.143406005859376,0.21502456068992615,0.4202753007411957,0.3384193480014801
1775728237175477000,16.15347705078125,0.14538592100143433,0.4043927788734436,0.4129449129104614
1775728237185547800,16.1635478515625,0.0708603709936142,0.3738495409488678,0.4642575979232788
1775728237205689300,16.183689453125,-0.0659734457731247,0.2773328125476837,0.5583308339118958
1775728237215760100,16.193760009765626,-0.12217304855585098,0.21380282938480377,0.6206390857696533
1775728237225831000,16.203830810546876,-0.16737708449363708,0.1563815027475357,0.7037167549133301
1775728237235840800,16.2138408203125,-0.2382374405860901,0.07941248267889023,0.7916813492774963
1775728237245942000,16.22394189453125,-0.33475416898727417,-0.01710422709584236,0.8442157506942749
1775728237255951600,16.23395166015625,-0.4288274049758911,-0.1111774742603302,0.8649851679801941
1775728237266053000,16.24405322265625,-0.5082398653030396,-0.18448130786418915,0.8869763612747192
1775728237276124000,16.2541240234375,-0.5644394755363464,-0.21380282938480377,0.9676105380058289
1775728237286225200,16.26422509765625,-0.5876523852348328,-0.22479841113090515,1.1227703094482422
1775728237296296000,16.2742958984375,-0.5962044596672058,-0.24556782841682434,1.3158037662506104
1775728237336579000,16.3145791015625,-0.6670648455619812,-0.32498031854629517,1.3072515726089478
1775728237346649900,16.32464990234375,-0.6805039048194885,-0.3237585723400116,1.1191051006317139
1775728237356721000,16.334720947265627,-0.6682865619659424,-0.3176499307155609,0.9443976879119873
1775728237366822100,16.344822265625,-0.6218608021736145,-0.3188716471195221,0.8063421249389648
1775728237376893000,16.354892822265626,-0.5827654600143433,-0.37262779474258423,0.6719517707824707
1775728237386963700,16.364963623046876,-0.5827654600143433,-0.37262779474258423,0.6719517707824707
1775728237417176000,16.395176025390626,-0.5400048494338989,-0.5424483418464661,0.1062905490398407
1775728237437317600,16.415317626953126,-0.48747047781944275,-0.4386012554168701,0.012217304669320583
1775728237447388400,16.425388427734376,-0.38606682419776917,-0.2785545587539673,0.013439035043120384
1775728237457398300,16.435398193359376,-0.24068090319633484,-0.0659734457731247,0.12461651116609573
1775728237467469000,16.445468994140626,-0.07330382615327835,0.14538592100143433,0.28955012559890747
1775728237477479000,16.45547900390625,0.11484266817569733,0.3029891550540924,0.45692721009254456
1775728237487580200,16.465580078125,0.27977627515792847,0.3640756905078888,0.5974262356758118
1775728237497651000,16.47565087890625,0.394618958234787,0.3384193480014801,0.6585127115249634
1775728237517731600,16.495731689453127,0.685390830039978,0.28099802136421204,0.43737950921058655
1775728237537873200,16.515873046875,0.988379955291748,0.3127630054950714,0.19058994948863983
1775728237547883000,16.525883056640627,1.0677924156188965,0.2822197377681732,0.07696902006864548
1775728237557984300,16.535984375,1.0751228332519531,0.24190263450145721,0.010995574295520782
1775728237568085500,16.54608544921875,0.9920451641082764,0.1820378452539444,-0.03176499158143997
1775728237578156300,16.55615625,0.8674286603927612,0.12828169763088226,-0.06475171446800232
1775728237588196600,16.566196533203126,0.7721336483955383,0.1514945775270462,-0.09773843735456467
1775728237598297900,16.5762978515625,0.6951646208763123,0.2480112910270691,-0.12095131725072861
1775728237628418800,16.606418701171876,0.3995058834552765,0.4740314185619354,0.1966986060142517
1775728237648560400,16.626560302734376,0.13072516024112701,0.3237585723400116,0.43127086758613586
1775728237658631200,16.636631103515626,0.024434609338641167,0.2382374405860901,0.475253164768219
1775728237668671500,16.64667138671875,-0.051312681287527084,0.14905111491680145,0.47769662737846375
1775728237678681300,16.656681396484377,-0.08185594528913498,0.05375614017248154,0.43249258399009705
