time,seconds_elapsed,z,y,x
1775728160725529900,0.09852978515625,0,0,0
1775728160744057600,0.1170576171875,0.011738061904907227,-0.023703575134277344,0.012891054153442383
1775728160762585300,0.13558544921875,-0.020766496658325195,-0.07417488098144531,0.024194836616516113
1775728160781113300,0.15411328125,0.015584707260131836,-0.06985282897949219,0.10886481404304504
1775728160799641000,0.17264111328125,0.021219968795776367,0.046321868896484375,0.13700854778289795
1775728160818169000,0.191169189453125,-0.10559725761413574,-0.008161544799804688,0.14134642481803894
1775728160836696800,0.20969677734375,-0.1315762996673584,-0.029786109924316406,-0.0026851296424865723
1775728160855224600,0.228224609375,0.02696537971496582,0.044830322265625,-0.005985468626022339
1775728160873752600,0.246752685546875,0.16703343391418457,0.12213897705078125,0.10368397831916809
1775728160892280300,0.2652802734375,0.061177968978881836,-0.04386711120605469,0.21221822500228882
1775728160910808000,0.28380810546875,-0.13477325439453125,-0.16484928131103516,0.2409437596797943
1775728160929336000,0.302336181640625,-0.04067230224609375,-0.20438003540039062,0.0796385407447815
1775728160947863800,0.32086376953125,0.18311595916748047,-0.047675132751464844,-0.06673228740692139
1775728160966391800,0.339391845703125,0.13411402702331543,0.09755802154541016,0.014447212219238281
1775728160984919600,0.35791943359375,0.029299259185791016,0.15520954132080078,0.006465435028076172
1775728161003447600,0.376447509765625,0.027028560638427734,0.16787052154541016,0.00807410478591919
1775728161021975300,0.394975341796875,-0.046456098556518555,0.04737663269042969,-0.07792869210243225
1775728161040503000,0.4135029296875,-0.04209470748901367,-0.05162811279296875,-0.05141252279281616
1775728161059031000,0.432031005859375,0.03865480422973633,-0.08353424072265625,-0.03349056839942932
1775728161077558800,0.450558837890625,0.030524730682373047,-0.08060169219970703,-0.046659260988235474
1775728161096086500,0.46908642578125,0.06384825706481934,-0.016539573669433594,-0.11025109887123108
1775728161114614500,0.487614501953125,0.0033817291259765625,0.017576217651367188,-0.10164844989776611
1775728161133142300,0.506142333984375,-0.05872201919555664,0.00589752197265625,-0.1070641279220581
1775728161151670300,0.524670166015625,-0.0404200553894043,-0.03866291046142578,-0.049072265625
1775728161170198000,0.543197998046875,-0.017714500427246094,-0.08437252044677734,-0.07032981514930725
1775728161188725800,0.561725830078125,0.09163904190063477,0.03780555725097656,-0.07517915964126587
1775728161207253800,0.580253662109375,0.016402721405029297,0.02191638946533203,-0.0030823051929473877
1775728161225781500,0.598781494140625,-0.14384818077087402,-0.057549476623535156,-0.0005888938903808594
1775728161244309500,0.6173095703125,-0.07762908935546875,-0.040793418884277344,-0.043720245361328125
1775728161262837200,0.635837158203125,0.08569717407226562,0.04632759094238281,0.013517260551452637
1775728161281365200,0.654365234375,0.030973196029663086,-0.022788047790527344,0.04940938949584961
1775728161299893000,0.67289306640625,0.00699615478515625,-0.01946544647216797,-0.04232773184776306
1775728161318420700,0.691420654296875,-0.08832383155822754,0.04256725311279297,-0.11303535103797913
1775728161336948700,0.70994873046875,-0.0807790756225586,0.008345603942871094,-0.11688432097434998
1775728161355476500,0.7284765625,0.028681039810180664,-0.009185791015625,-0.06933575868606567
1775728161374004200,0.747004150390625,0.01691126823425293,-0.024126052856445312,-0.02702602744102478
1775728161392532200,0.7655322265625,0.02144026756286621,0.10344314575195312,-0.025715351104736328
1775728161411060000,0.78406005859375,-0.01827239990234375,0.08465385437011719,-0.11827123165130615
1775728161429588000,0.802587890625,-0.05367088317871094,-0.09039974212646484,0.07764923572540283
1775728161448115700,0.82111572265625,0.03853273391723633,-0.05600452423095703,0.24149903655052185
1775728161466643500,0.8396435546875,0.10392332077026367,0.09360408782958984,-0.02874988317489624
1775728161485171500,0.85817138671875,0.08852767944335938,0.03029632568359375,-0.07340319454669952
1775728161503699200,0.87669921875,0.002338409423828125,-0.2264699935913086,-0.2778054475784302
1775728161522227200,0.895227294921875,-0.015597105026245117,-0.17879867553710938,-0.2940540313720703
1775728161540755000,0.9137548828125,0.10242795944213867,-0.030057907104492188,0.2543886601924896
1775728161559283000,0.932282958984375,0.25096869468688965,0.06330490112304688,0.6172890663146973
1775728161577810700,0.950810791015625,0.13349390029907227,-0.056464195251464844,-0.08810703456401825
1775728161596338700,0.969338623046875,-0.11341977119445801,-0.02222728729248047,-0.09851522743701935
1775728161614866400,0.987866455078125,-0.16553711891174316,0.17550182342529297,-0.07014048099517822
1775728161633394400,1.00639453125,-0.15389657020568848,0.07761096954345703,-0.14609138667583466
1775728161651922200,1.024922119140625,-0.035761356353759766,-0.09140205383300781,0.11220180988311768
1775728161670450000,1.043449951171875,0.07161164283752441,-0.08244991302490234,0.25005459785461426
1775728161688978000,1.06197802734375,0.15850496292114258,0.04258537292480469,0.14836494624614716
1775728161707505700,1.080505615234375,0.1499795913696289,0.03520393371582031,-0.11618375778198242
1775728161726033700,1.09903369140625,0.09254169464111328,0.045311927795410156,-0.051850371062755585
1775728161744561400,1.1175615234375,0.05406641960144043,0.04378509521484375,-0.040199752897024155
1775728161763089400,1.13608935546875,-0.011747360229492188,-0.03302764892578125,-0.15085966885089874
1775728161781617200,1.1546171875,0.06938719749450684,0.09065532684326172,-0.033998046070337296
1775728161800145200,1.173145263671875,0.00837254524230957,0.024509429931640625,-0.09716633707284927
1775728161818673000,1.1916728515625,-0.018433094024658203,-0.08777904510498047,-0.09174453467130661
1775728161837201000,1.210200927734375,-0.022237062454223633,0.05449199676513672,-0.06280189007520676
1775728161855728600,1.228728759765625,-0.0279843807220459,-0.057480812072753906,-0.06662732362747192
1775728161874256400,1.24725634765625,-0.01112222671508789,-0.14143085479736328,-0.08879102021455765
1775728161892784400,1.265784423828125,-0.030764102935791016,-0.06496047973632812,-0.08492840826511383
1775728161911312100,1.28431201171875,-0.09450888633728027,0.03750133514404297,0.08637171983718872
1775728161929840000,1.302840087890625,-0.016465425491333008,0.042906761169433594,0.05613723024725914
1775728161948368000,1.321367919921875,-0.06944847106933594,0.0025110244750976562,-0.10065522789955139
1775728161966895900,1.339895751953125,-0.020385026931762695,-0.013388633728027344,-0.09180399030447006
1775728161985423600,1.358423583984375,0.014896154403686523,-0.004963874816894531,0.08378730714321136
1775728162003951600,1.37695166015625,-0.04738950729370117,0.053404808044433594,0.03636929392814636
1775728162022479600,1.395479736328125,-0.02246880531311035,0.1451864242553711,0.04158119857311249
1775728162041007400,1.41400732421875,-0.009312629699707031,0.11461925506591797,0.04807377979159355
1775728162059535400,1.432535400390625,0.17694950103759766,-0.03909492492675781,-0.06872333586215973
1775728162078063000,1.45106298828125,-0.3352830410003662,-0.09665870666503906,-0.15787172317504883
1775728162096591000,1.469591064453125,-0.05163383483886719,-0.07969856262207031,0.33140498399734497
1775728162115118800,1.488118896484375,0.13294458389282227,0.10707378387451172,0.05665577948093414
1775728162133646600,1.506646484375,0.5677022933959961,-0.1886281967163086,-0.12190420925617218
1775728162152174600,1.525174560546875,-0.13275837898254395,-0.18033504486083984,-0.11712417751550674
1775728162170702300,1.543702392578125,-0.5606298446655273,-0.2401895523071289,-0.0262557715177536
1775728162189230300,1.562230224609375,-0.3215517997741699,-0.021228790283203125,-0.28268173336982727
1775728162207758000,1.580758056640625,-0.11394309997558594,-0.017294883728027344,-0.2813659906387329
1775728162226286000,1.5992861328125,-0.14401459693908691,0.2673187255859375,-0.5157327651977539
1775728162244814000,1.61781396484375,-0.1952970027923584,0.2600231170654297,-0.4282119572162628
1775728162263341800,1.636341796875,-0.18087339401245117,0.04471111297607422,0.07593956589698792
1775728162281869600,1.65486962890625,-0.04810976982116699,-0.5374765396118164,0.7459756731987
1775728162300397600,1.6733974609375,0.22214674949645996,-0.3082904815673828,0.6593270301818848
1775728162318925600,1.691925537109375,0.16275811195373535,0.46629905700683594,0.4996817111968994
1775728162337453300,1.710453369140625,-0.03907513618469238,-0.2151021957397461,0.4099413752555847
1775728162355981300,1.728981201171875,-0.1384906768798828,-0.3908109664916992,-0.4067949652671814
1775728162374509000,1.747509033203125,0.02405405044555664,0.3841667175292969,-0.16379529237747192
1775728162393037000,1.766037109375,-0.31151676177978516,0.43082332611083984,-0.5829549431800842
1775728162411565000,1.78456494140625,-0.11528992652893066,0.24738407135009766,-0.23408877849578857
1775728162430092800,1.8030927734375,0.15737199783325195,-0.029654502868652344,0.20597684383392334
1775728162448620500,1.82162060546875,0.05863833427429199,-0.2326517105102539,-0.03020298480987549
1775728162467148500,1.8401484375,-0.03455519676208496,-0.16864395141601562,0.01891493797302246
1775728162485676300,1.85867626953125,0.4401054382324219,-0.13899707794189453,0.3981136083602905
1775728162504204300,1.877204345703125,0.15590381622314453,0.03143787384033203,0.5511928796768188
1775728162522732300,1.895732177734375,-0.1269526481628418,0.025742530822753906,1.9322407245635986
1775728162541260000,1.914260009765625,0.06045413017272949,0.24611473083496094,0.177748441696167
1775728162559788000,1.9327880859375,0.33496856689453125,0.677882194519043,-0.7736424207687378
1775728162578315800,1.951315673828125,-0.3937547206878662,0.3901548385620117,-1.1266429424285889
1775728162596843800,1.96984375,-0.14242267608642578,-1.0370540618896484,0.666128396987915
1775728162615371800,1.988371826171875,0.6896610260009766,-0.5105438232421875,-0.3785940408706665
1775728162633899500,2.0068994140625,-0.12134957313537598,-0.0036344528198242188,-0.38698744773864746
1775728162652427500,2.025427490234375,-0.4375345706939697,-0.06777095794677734,-0.08371305465698242
1775728162670955300,2.043955322265625,-0.033203125,0.02375030517578125,0.7477004528045654
1775728162689483300,2.062483154296875,0.6954474449157715,0.37244606018066406,0.11328327655792236
1775728162708011300,2.08101123046875,0.335601806640625,0.31955432891845703,-0.5022953748703003
1775728162726539000,2.0995390625,-0.28193092346191406,0.1646585464477539,-0.1369229555130005
1775728162745067000,2.11806689453125,-0.47155046463012695,-0.2368612289428711,-0.3465815782546997
1775728162763594800,2.1365947265625,0.2670252323150635,-0.3941230773925781,0.593437910079956
1775728162782122800,2.155122802734375,-0.19878053665161133,0.3914480209350586,-0.31946897506713867
1775728162800650800,2.173650634765625,-0.029789447784423828,-0.25002384185791016,-0.5723572969436646
1775728162819178500,2.192178466796875,-0.25905632972717285,-0.27402687072753906,-0.11096572875976562
1775728162837706500,2.21070654296875,0.17660856246948242,-0.3716115951538086,1.1498527526855469
1775728162856234200,2.229234130859375,0.7699713706970215,0.1390094757080078,0.7069063186645508
1775728162874762200,2.24776220703125,0.8195185661315918,-0.13268375396728516,1.7405728101730347
1775728162893290200,2.266290283203125,1.4139490127563477,-0.3796224594116211,0.40397799015045166
1775728162911818000,2.28481787109375,1.6221752166748047,0.45528602600097656,-1.9734485149383545
1775728162930346000,2.303345947265625,0.17580914497375488,-0.28592586517333984,-0.794713020324707
1775728162948874000,2.3218740234375,-0.07436704635620117,-0.1929464340209961,0.8360536098480225
1775728162967401700,2.340401611328125,-0.3369612693786621,-0.19398117065429688,-0.8361806869506836
1775728162985929700,2.3589296875,-1.7188174724578857,0.2433757781982422,-1.9805793762207031
1775728163004457500,2.37745751953125,-1.620410680770874,0.9619789123535156,-0.015874862670898438
1775728163022985500,2.3959853515625,-0.3544807434082031,-0.48833465576171875,0.3290215730667114
1775728163041513500,2.414513427734375,-1.1398050785064697,-0.8077793121337891,0.16180801391601562
1775728163060041200,2.433041259765625,-2.5234758853912354,0.7967720031738281,0.8396143913269043
1775728163078569200,2.4515693359375,-0.9652001857757568,0.5524091720581055,0.7491590976715088
1775728163097097200,2.47009716796875,0.2442636489868164,-0.11257076263427734,-1.140176773071289
1775728163115625000,2.488625,3.6418187618255615,0.09851455688476562,-0.9780361652374268
1775728163134153000,2.507153076171875,2.2640559673309326,-0.031172752380371094,0.6822724342346191
1775728163152681000,2.525680908203125,-0.2592000961303711,0.12689971923828125,1.1168265342712402
1775728163171208700,2.544208740234375,-0.13043856620788574,-0.2454671859741211,-0.20703768730163574
1775728163189736700,2.56273681640625,0.9605965614318848,-0.18033599853515625,-0.15347647666931152
1775728163208264700,2.5812646484375,-0.23545575141906738,0.12679576873779297,0.09615373611450195
1775728163226792400,2.59979248046875,-1.3967664241790771,-0.24251365661621094,-0.8895182609558105
1775728163245320400,2.618320556640625,-0.12885594367980957,-0.058419227600097656,-0.5183203220367432
1775728163263848400,2.636848388671875,0.9385895729064941,0.3476572036743164,0.8762141466140747
1775728163282376200,2.655376220703125,-0.7410304546356201,0.017675399780273438,0.47260069847106934
1775728163300904200,2.673904296875,-0.5063602924346924,-0.17568588256835938,-0.2791886329650879
1775728163319432200,2.69243212890625,-0.4291720390319824,-0.050124168395996094,0.10514497756958008
1775728163337960000,2.7109599609375,-0.09219527244567871,0.02500152587890625,0.37857091426849365
1775728163356488000,2.729488037109375,0.5859847068786621,0.03127098083496094,0.36625850200653076
1775728163375016000,2.748015869140625,0.6198477745056152,-0.06682205200195312,0.04407072067260742
1775728163393544000,2.7665439453125,0.5345230102539062,-0.2907295227050781,0.19597196578979492
1775728163412072000,2.785072021484375,0.04362082481384277,-0.40035247802734375,-0.07458662986755371
1775728163430599700,2.803599609375,-0.5129165649414062,-0.10235309600830078,-0.08185863494873047
1775728163449127700,2.822127685546875,-0.25339674949645996,0.03179740905761719,-0.05588030815124512
1775728163467655700,2.84065576171875,0.027091026306152344,-0.060016632080078125,-0.0928807258605957
1775728163486183400,2.859183349609375,0.18186092376708984,0.08783817291259766,0.07777523994445801
1775728163504711400,2.87771142578125,0.062111854553222656,0.06381702423095703,-0.15568828582763672
1775728163523239400,2.896239501953125,-0.030900239944458008,0.12208271026611328,-0.01671004295349121
1775728163541767400,2.914767333984375,0.17145466804504395,-0.031365394592285156,-0.10769152641296387
1775728163560295200,2.933295166015625,0.18628883361816406,-0.0897054672241211,-0.04624056816101074
1775728163578823200,2.9518232421875,0.1696174144744873,0.13409996032714844,-0.06176400184631348
1775728163597351200,2.97035107421875,-0.21589303016662598,0.24470043182373047,-0.28565001487731934
1775728163615879000,2.98887890625,-0.18050360679626465,-0.1234445571899414,-0.06537175178527832
1775728163634407000,3.007406982421875,-0.0012331008911132812,-0.10911083221435547,0.10957813262939453
1775728163652935000,3.025934814453125,0.05249333381652832,0.09484004974365234,0.0868067741394043
1775728163671463000,3.044462890625,0.06855893135070801,-0.05338096618652344,0.016948699951171875
1775728163689990700,3.06299072265625,-0.10137581825256348,-0.07131290435791016,0.005032777786254883
1775728163708518700,3.0815185546875,-0.030875682830810547,0.046710968017578125,0.0007412433624267578
1775728163727046700,3.100046630859375,0.09557795524597168,0.07031726837158203,-0.07079672813415527
1775728163745574700,3.11857470703125,0.07752585411071777,0.016814231872558594,-0.029987096786499023
1775728163764102700,3.1371025390625,-0.06354451179504395,-0.1685800552368164,-0.03283524513244629
1775728163782630400,3.15563037109375,-0.026647329330444336,0.0077877044677734375,0.064056396484375
1775728163801158400,3.174158447265625,-0.08823800086975098,0.05108833312988281,-0.09815812110900879
1775728163819686400,3.192686279296875,-0.10423755645751953,0.06981372833251953,-0.029491186141967773
1775728163838214400,3.21121435546875,-0.0668799877166748,0.04463768005371094,0.03000330924987793
1775728163856742100,3.2297421875,-0.016263484954833984,-0.059391021728515625,-0.13553071022033691
1775728163875270100,3.248270263671875,0.17855143547058105,0.03168773651123047,0.04969048500061035
1775728163893798100,3.266798095703125,0.061064720153808594,-0.0004558563232421875,-0.014752864837646484
1775728163912326100,3.285326171875,-0.16015076637268066,-0.16934490203857422,-0.01168203353881836
1775728163930854100,3.303854248046875,-2.2306809425354004,-0.1723337173461914,-0.22886896133422852
1775728163949382100,3.322382080078125,-0.34025144577026367,0.4195842742919922,0.7643084526062012
1775728163967910000,3.340909912109375,0.7316174507141113,0.22982215881347656,0.49090802669525146
1775728163995702000,3.368701904296875,0.3549494743347168,-0.06898880004882812,-0.03493452072143555
1775728164014229800,3.387229736328125,0.23067879676818848,-0.18922138214111328,-0.1615462303161621
1775728164032757800,3.4057578125,-0.2711324691772461,0.08475685119628906,-0.22851204872131348
1775728164051285800,3.42428564453125,-0.19502711296081543,-0.045085906982421875,-0.13131093978881836
1775728164069813800,3.442813720703125,0.4835233688354492,-0.16054630279541016,0.2691190242767334
1775728164088341800,3.461341796875,0.32363462448120117,-0.051537513732910156,0.07584142684936523
1775728164106869500,3.479869384765625,-0.08757400512695312,0.2696666717529297,-0.20951128005981445
1775728164125397500,3.4983974609375,-0.056090593338012695,0.23730850219726562,-0.30658817291259766
1775728164143925500,3.516925537109375,0.23641347885131836,0.1339406967163086,0.03540849685668945
1775728164162453500,3.53545361328125,0.29509806632995605,0.35385608673095703,-0.0028133392333984375
1775728164180981500,3.5539814453125,0.2385396957397461,-0.014107704162597656,-0.18852448463439941
1775728164199509500,3.572509521484375,0.3058319091796875,-0.19640350341796875,-0.12691545486450195
1775728164218037500,3.59103759765625,0.1381669044494629,-0.0617218017578125,0.027129411697387695
1775728164236565200,3.609565185546875,0.12426900863647461,0.15906906127929688,0.0932927131652832
1775728164255093200,3.62809326171875,0.2769625186920166,0.058452606201171875,0.13940811157226562
1775728164273621200,3.646621337890625,0.6372368335723877,0.21987247467041016,-0.0002827644348144531
1775728164292149200,3.665149169921875,1.0349431037902832,0.48179054260253906,-0.024160385131835938
1775728164310677200,3.68367724609375,1.468534231185913,0.9005870819091797,-0.16235876083374023
1775728164329205200,3.702205322265625,1.8589568138122559,1.1174678802490234,-0.003702878952026367
1775728164347733200,3.720733154296875,0.19852900505065918,0.9144139289855957,0.835582971572876
1775728164366261000,3.739260986328125,-0.9004099369049072,0.36037158966064453,1.3739640712738037
1775728164384789000,3.7577890625,0.1046602725982666,0.03988456726074219,0.8746659755706787
1775728164403317000,3.77631689453125,1.3650462627410889,0.14176273345947266,0.6924440860748291
1775728164421845000,3.794844970703125,1.8976061344146729,0.46163463592529297,-0.1644153594970703
1775728164440373000,3.813373046875,1.7022016048431396,0.34597301483154297,-0.8738772869110107
1775728164458901000,3.83190087890625,1.0984535217285156,0.520991325378418,0.08241510391235352
1775728164477429000,3.850428955078125,0.8281040191650391,0.33786487579345703,0.6457897424697876
1775728164495957000,3.86895703125,0.7401957511901855,0.2173147201538086,0.4276316165924072
1775728164514485000,3.887485107421875,1.4241769313812256,0.735804557800293,-0.0014662742614746094
1775728164533012700,3.9060126953125,1.9371349811553955,0.7164340019226074,0.10144233703613281
1775728164551541000,3.924541015625,1.1348819732666016,0.3351106643676758,0.09588766098022461
1775728164570068700,3.94306884765625,-0.7034711837768555,0.4344015121459961,-0.19133567810058594
1775728164588596700,3.9615966796875,-1.3232810497283936,0.6316328048706055,0.5313987731933594
1775728164607124700,3.980124755859375,-0.5760378837585449,0.8091630935668945,1.6522371768951416
1775728164625652700,3.99865283203125,-0.4475269317626953,0.3694772720336914,1.3516294956207275
1775728164644180700,4.0171806640625,-0.1961991786956787,0.15048694610595703,0.34839892387390137
1775728164662708700,4.035708740234375,0.19838213920593262,-0.37146472930908203,-0.2020103931427002
1775728164681236700,4.05423681640625,-0.8970556259155273,-0.8953447341918945,-0.051261186599731445
1775728164699764700,4.0727646484375,-2.2007381916046143,-1.1621437072753906,-0.4245905876159668
1775728164718292700,4.091292724609375,-2.0394535064697266,-1.319136619567871,-1.2795391082763672
1775728164736820700,4.10982080078125,-1.1420831680297852,-0.8011932373046875,-2.597153425216675
1775728164755348700,4.1283486328125,0.4015531539916992,0.1146688461303711,-1.938476800918579
1775728164773876500,4.14687646484375,0.253079891204834,0.31567955017089844,-1.9296627044677734
1775728164792404700,4.16540478515625,-1.3241286277770996,0.22816848754882812,-1.6260080337524414
1775728164810932700,4.1839326171875,-2.0845963954925537,0.11342144012451172,-0.3881673812866211
1775728164829460700,4.202460693359375,-0.7163532972335815,0.19930267333984375,-0.5200695991516113
1775728164847988500,4.220988525390625,0.6711804866790771,0.33822059631347656,-2.1639935970306396
1775728164866516500,4.2395166015625,-0.23013055324554443,0.3439302444458008,-3.3623242378234863
1775728164885044700,4.258044677734375,-0.5557253360748291,0.3854045867919922,-1.5991177558898926
1775728164903572500,4.276572509765625,-0.24765360355377197,0.9382772445678711,0.4415358304977417
1775728164922100500,4.2951005859375,-0.2044602632522583,0.9260396957397461,0.07965588569641113
1775728164940628500,4.31362841796875,-0.004248261451721191,0.6624164581298828,-0.7174971103668213
1775728164959156500,4.332156494140625,0.48985934257507324,0.7498311996459961,-0.28449511528015137
1775728164977684500,4.3506845703125,0.4015936255455017,0.6395969390869141,-0.5361218452453613
1775728164996212500,4.36921240234375,0.5089589357376099,0.6922245025634766,-0.9477264881134033
1775728165014740500,4.387740478515625,0.9073234796524048,0.7990350723266602,-0.23065900802612305
1775728165033268500,4.4062685546875,1.3646436929702759,0.859710693359375,0.08415031433105469
1775728165051796500,4.42479638671875,1.5682213306427002,0.07632923126220703,-1.0234394073486328
1775728165070324500,4.443324462890625,2.1767544746398926,-0.3921928405761719,-1.3850016593933105
1775728165088852500,4.4618525390625,2.553908109664917,-0.3419055938720703,-0.5156867504119873
1775728165107380500,4.48038037109375,3.107142925262451,-0.2780466079711914,-0.541519045829773
1775728165125908500,4.498908447265625,4.014021396636963,0.1602182388305664,-1.2637985944747925
1775728165144436500,4.5174365234375,5.053709030151367,-0.41988658905029297,-2.3854598999023438
1775728165162964500,4.535964599609375,4.777022361755371,-1.3944902420043945,-3.886080503463745
1775728165181492700,4.55449267578125,3.0587916374206543,-2.3970556259155273,-3.8937125205993652
1775728165200020500,4.5730205078125,0.930561900138855,-3.2932357788085938,-3.613370895385742
1775728165218548500,4.591548583984375,0.524310827255249,-3.8080129623413086,-3.5786209106445312
1775728165237076500,4.610076416015625,2.8453049659729004,-4.19948673248291,-3.4983603954315186
1775728165255604700,4.628604736328125,6.341641426086426,-3.135557174682617,-2.7157671451568604
1775728165274132700,4.6471328125,6.557061195373535,-3.650634765625,-2.9528396129608154
1775728165292660700,4.66566064453125,1.2610852718353271,-4.819766044616699,-0.707512617111206
1775728165311188700,4.684188720703125,-3.189342737197876,-5.518026351928711,1.7628947496414185
1775728165329716700,4.702716796875,-5.384986877441406,-5.831731796264648,0.2940244674682617
1775728165348244700,4.72124462890625,-4.958180904388428,-4.959275245666504,-2.9427061080932617
1775728165366772700,4.739772705078125,-3.4741830825805664,-3.002908706665039,-3.8571693897247314
1775728165385300700,4.75830078125,-2.0913243293762207,-4.185525894165039,-3.9935107231140137
1775728165403828700,4.776828857421875,-1.7943882942199707,-3.197869300842285,-1.108611822128296
1775728165422356700,4.795356689453125,-0.8483619689941406,-2.1694202423095703,1.216555118560791
1775728165440884700,4.813884765625,-0.9586992263793945,-1.3793740272521973,0.7851895093917847
1775728165459412700,4.832412841796875,-4.356200695037842,-2.05948543548584,-0.9836586713790894
1775728165477940700,4.850940673828125,-6.869752883911133,-3.4726290702819824,-2.457162380218506
1775728165496468700,4.86946875,-8.266860961914062,-2.4539079666137695,-1.1650828123092651
1775728165514996700,4.887996826171875,-7.3061089515686035,0.41188907623291016,1.1087061166763306
1775728165533524700,4.906524658203125,-5.881101608276367,1.5094642639160156,1.7112780809402466
1775728165552052700,4.925052734375,-6.321109771728516,1.6724379062652588,2.6355204582214355
1775728165570581000,4.9435810546875,-6.608802795410156,1.9806015491485596,3.7757740020751953
1775728165589109000,4.96210888671875,-6.0066447257995605,1.6206774711608887,2.927001476287842
1775728165607637000,4.980636962890625,-4.804306507110596,2.4544200897216797,2.188262462615967
1775728165626165000,4.9991650390625,-3.703038215637207,3.0319199562072754,1.3116519451141357
1775728165644693000,5.01769287109375,-2.467815399169922,2.930845022201538,1.0112460851669312
1775728165663221000,5.036220947265625,-2.673036575317383,2.520477294921875,1.3735415935516357
1775728165681749000,5.0547490234375,-2.260481834411621,2.4155659675598145,0.8418598771095276
1775728165700277200,5.07327734375,2.165562629699707,2.757779598236084,-1.1163601875305176
1775728165718805200,5.09180517578125,11.78459644317627,1.1498212814331055,-3.5339395999908447
1775728165737333200,5.110333251953125,9.567008972167969,-2.8939547538757324,0.7609899044036865
1775728165755861200,5.128861328125,-5.309703826904297,-5.224920272827148,2.8281989097595215
1775728165774389200,5.14738916015625,-7.516791820526123,-2.3229312896728516,3.1600589752197266
1775728165792917200,5.165917236328125,-2.715440273284912,-3.477916717529297,0.814883828163147
1775728165811445200,5.1844453125,2.1347713470458984,-2.4577226638793945,-2.1091809272766113
1775728165829973200,5.20297314453125,-0.34295225143432617,-3.8464341163635254,0.2648833990097046
1775728165848501500,5.22150146484375,-2.5128517150878906,-4.411336898803711,0.758042573928833
1775728165867029500,5.240029541015625,-2.962217092514038,-3.814152240753174,-0.46964454650878906
1775728165885557500,5.2585576171875,-2.3043746948242188,-2.0592098236083984,-1.207357406616211
1775728165904085500,5.27708544921875,-0.5556535720825195,-1.072235107421875,-1.477066993713379
1775728165922613500,5.295613525390625,-1.0251383781433105,-2.268838405609131,-1.3014039993286133
1775728165941141500,5.3141416015625,-2.8033642768859863,-2.7753090858459473,-0.773296594619751
1775728165959669500,5.33266943359375,-2.583853006362915,-2.3107776641845703,0.6859637498855591
1775728165978197800,5.35119775390625,-0.5395803451538086,-0.7538337707519531,0.3710756301879883
1775728165996725800,5.369725830078125,-0.33604001998901367,-0.08036994934082031,0.20116472244262695
1775728166015253800,5.388253662109375,-1.2359814643859863,0.5048208236694336,0.11536574363708496
1775728166033781800,5.40678173828125,-0.9010157585144043,0.23414039611816406,-1.570901870727539
1775728166052309800,5.425309814453125,-0.29733800888061523,0.09549617767333984,-1.8336162567138672
1775728166070837800,5.443837646484375,-0.4453926086425781,0.8728427886962891,-1.2706198692321777
1775728166089365800,5.46236572265625,-0.450009822845459,0.9839496612548828,-1.650374412536621
1775728166107894000,5.48089404296875,0.2406783103942871,1.280573844909668,-1.0588648319244385
1775728166126422000,5.499422119140625,0.35165905952453613,1.5907964706420898,-0.6541972160339355
1775728166144950000,5.517949951171875,0.2130361795425415,1.5471644401550293,-1.5304286479949951
1775728166163478000,5.53647802734375,-0.2259458303451538,1.0412101745605469,-1.192631483078003
1775728166182006300,5.55500634765625,-0.06096971035003662,0.9220075607299805,-0.2714066505432129
1775728166200534300,5.5735341796875,-0.08084225654602051,1.1289606094360352,-0.06706953048706055
1775728166219062300,5.592062255859375,0.6277494430541992,1.311619758605957,0.4786883592605591
1775728166237590300,5.61059033203125,1.7852472066879272,1.146754264831543,0.5203322172164917
1775728166256118300,5.6291181640625,1.8210818767547607,0.5947170257568359,-0.15433812141418457
1775728166274646300,5.647646240234375,1.1202552318572998,0.18184947967529297,-0.8145533800125122
1775728166293174500,5.666174560546875,0.34971266984939575,-0.8865537643432617,-1.4652800559997559
1775728166311702500,5.68470263671875,0.8060242533683777,-2.054292678833008,-2.0063724517822266
1775728166330230500,5.70323046875,2.2959885597229004,-1.9550657272338867,-1.9744514226913452
1775728166348758500,5.721758544921875,5.212455749511719,-1.9368181228637695,-1.5369163751602173
1775728166367286500,5.74028662109375,5.765039920806885,-2.7357730865478516,-1.2018526792526245
1775728166385814800,5.758814697265625,3.8509128093719482,-4.547262191772461,-0.42871296405792236
1775728166404342800,5.7773427734375,1.3539395332336426,-6.424175262451172,0.21394383907318115
1775728166422870800,5.795870849609375,-1.0576759576797485,-6.893360137939453,-1.9217549562454224
1775728166441398800,5.814398681640625,-1.157899260520935,-5.7558393478393555,-3.2438740730285645
1775728166459927000,5.832927001953125,1.1969234943389893,-3.597792625427246,-1.9903579950332642
1775728166478455000,5.851455078125,4.7437744140625,-2.195150375366211,0.09986627101898193
1775728166496983000,5.869983154296875,8.149773597717285,-1.8976554870605469,0.8066713809967041
1775728166515511000,5.888510986328125,9.625282287597656,-2.172928810119629,-0.5147066116333008
1775728166534039300,5.907039306640625,6.550950050354004,-4.763479232788086,-3.304572343826294
1775728166552567300,5.9255673828125,0.4945669174194336,-6.535021781921387,-5.4964919090271
1775728166571095300,5.94409521484375,-6.264064311981201,-6.034734725952148,-4.860174179077148
1775728166589623300,5.962623291015625,-8.596383094787598,-3.277369499206543,-2.0854811668395996
1775728166608151600,5.981151611328125,-8.218013763427734,-1.4755849838256836,1.461759090423584
1775728166626679600,5.999679443359375,-8.478208541870117,0.8468747138977051,5.151360034942627
1775728166645207600,6.01820751953125,-8.094340324401855,2.931128978729248,7.8841400146484375
1775728166663735600,6.036735595703125,-4.589985370635986,3.247098445892334,6.858924388885498
1775728166682263800,6.055263916015625,0.12252569198608398,3.7821130752563477,3.4166088104248047
1775728166700791800,6.073791748046875,1.6048197746276855,2.501020908355713,-0.7964513301849365
1775728166719319800,6.09231982421875,-2.508251190185547,1.708634853363037,-1.6064534187316895
1775728166737848000,6.11084814453125,-5.929384231567383,1.5458545684814453,0.25626325607299805
1775728166756376000,6.1293759765625,-6.398980140686035,1.3680229187011719,0.684532642364502
1775728166774904000,6.147904052734375,-6.893698692321777,1.9435911178588867,0.6047433614730835
1775728166793432000,6.16643212890625,-6.705471038818359,2.42608642578125,-0.031972408294677734
1775728166811960300,6.184960205078125,-5.816168785095215,2.419050693511963,0.940315842628479
1775728166830488300,6.20348828125,-5.155900478363037,1.9860434532165527,1.6912750005722046
1775728166849016300,6.222016357421875,-4.833754539489746,0.647672176361084,2.3713924884796143
1775728166867544300,6.24054443359375,-4.0703959465026855,0.9065303802490234,1.638256311416626
1775728166886072600,6.259072509765625,-1.9933409690856934,0.8750910758972168,0.9847466349601746
1775728166904600600,6.2776005859375,-1.4916367530822754,1.148780345916748,1.5341278314590454
1775728166923128600,6.296128662109375,-0.14307928085327148,1.762082576751709,2.285491466522217
1775728166941656800,6.31465673828125,9.745256423950195,2.460096836090088,2.8622775077819824
1775728166960184800,6.333184814453125,13.513754844665527,0.8814554214477539,5.242979049682617
1775728166978712800,6.351712890625,-3.577200174331665,-3.1727609634399414,3.0313053131103516
1775728166997241000,6.370240966796875,1.3452644348144531,-4.047881126403809,-2.849764108657837
1775728167015769000,6.38876904296875,-1.4739670753479004,-7.336869716644287,-4.952591896057129
1775728167034297000,6.407297119140625,-3.4205729961395264,-5.135745525360107,-3.8135111331939697
1775728167052825300,6.425825439453125,0.7383737564086914,-3.1518211364746094,-1.0400233268737793
1775728167071353300,6.444353271484375,-1.4672431945800781,-2.467106819152832,0.2150871753692627
1775728167089881300,6.46288134765625,-1.497793197631836,-1.1830720901489258,-0.24264955520629883
1775728167108409600,6.48140966796875,-1.077627182006836,-0.270967960357666,0.33653783798217773
1775728167126937600,6.4999375,-1.3957133293151855,-0.19048261642456055,2.4064903259277344
1775728167145465600,6.518465576171875,-3.2508370876312256,-0.7799901962280273,2.0004351139068604
1775728167163993900,6.536993896484375,-2.0068206787109375,-1.1889877319335938,1.2436068058013916
1775728167182521900,6.55552197265625,-1.3129868507385254,-1.6507349014282227,0.49497222900390625
1775728167201049900,6.5740498046875,-1.2229809761047363,-1.6771173477172852,-0.9471368789672852
1775728167219578000,6.592578125,-0.9089651107788086,-1.3211841583251953,-1.9042308330535889
1775728167238106000,6.611106201171875,0.3734445571899414,-0.2283954620361328,-1.1537253856658936
1775728167256634000,6.629634033203125,0.7978835105895996,0.6043272018432617,-0.17656397819519043
1775728167275162400,6.648162353515625,-0.4146709442138672,0.9026298522949219,-0.4310872554779053
1775728167293690400,6.6666904296875,-0.3585447072982788,1.8985986709594727,-0.9939002990722656
1775728167312218400,6.68521826171875,0.5461364984512329,2.8082022666931152,-1.032712459564209
1775728167330746600,6.70374658203125,-0.18048393726348877,3.1322593688964844,-1.5030152797698975
1775728167349274600,6.722274658203125,-0.4915284514427185,2.796131134033203,-0.712609052658081
1775728167367802600,6.740802734375,0.47065436840057373,2.980851173400879,1.6179620027542114
1775728167386331000,6.759330810546875,0.9624091386795044,2.7440567016601562,1.1592063903808594
1775728167404859000,6.77785888671875,0.3348366618156433,2.156190872192383,-0.9466533660888672
1775728167423387100,6.79638720703125,0.02057623863220215,1.7165741920471191,-2.251185894012451
1775728167441915100,6.8149150390625,1.0598909854888916,0.6932668685913086,-2.1008057594299316
1775728167460443400,6.833443359375,2.071617841720581,0.4350595474243164,-1.117161750793457
1775728167478971400,6.851971435546875,2.1781113147735596,-0.36915111541748047,-0.9480085372924805
1775728167497499400,6.87049951171875,2.1279349327087402,-2.140777587890625,-2.208770751953125
1775728167516027600,6.889027587890625,2.5455706119537354,-3.0940332412719727,-2.5967400074005127
1775728167534555600,6.9075556640625,1.7104359865188599,-3.1320505142211914,-2.3439323902130127
1775728167553083600,6.926083740234375,1.4510470628738403,-2.949899673461914,-1.155287742614746
1775728167571612000,6.94461181640625,1.4109854698181152,-3.454174041748047,-0.5483968257904053
1775728167590140000,6.963139892578125,2.408881187438965,-3.732670783996582,-0.3693225383758545
1775728167608668200,6.981668212890625,3.170344352722168,-4.446216583251953,-0.6951582431793213
1775728167627196200,7.000196044921875,2.3195111751556396,-5.230674743652344,-0.913529634475708
1775728167645724200,7.01872412109375,0.05990713834762573,-4.433929443359375,-1.1622378826141357
1775728167664252400,7.03725244140625,0.9551166296005249,-3.7194643020629883,-0.9920063018798828
1775728167682780400,7.055780517578125,4.7840256690979,-2.7431716918945312,-1.1394069194793701
1775728167701308700,7.07430859375,7.997408390045166,-1.3298282623291016,-1.3408353328704834
1775728167719836700,7.092836669921875,8.828865051269531,-1.3052587509155273,-0.9591279029846191
1775728167738364700,7.11136474609375,7.909253120422363,-3.409881591796875,-1.4192402362823486
1775728167756893000,7.129892822265625,3.576894521713257,-5.315584182739258,-2.1442131996154785
1775728167775421000,7.1484208984375,-2.8418960571289062,-5.271358489990234,-2.281715154647827
1775728167793949200,7.16694921875,-7.27187967300415,-4.619027137756348,-1.692098617553711
1775728167812477200,7.185477294921875,-6.926514148712158,-3.5096969604492188,-0.6402106285095215
1775728167831005400,7.20400537109375,-5.901028633117676,-1.6850910186767578,1.6268138885498047
1775728167849533400,7.222533447265625,-7.164064407348633,0.701077938079834,4.149236679077148
1775728167868061400,7.2410615234375,-6.027346134185791,2.1621336936950684,5.335866451263428
1775728167886589700,7.259589599609375,-0.34224939346313477,3.378474712371826,4.707121849060059
1775728167905117700,7.27811767578125,3.5105204582214355,2.2125964164733887,2.3258185386657715
1775728167923646000,7.29664599609375,-1.0393424034118652,-0.05188131332397461,-0.4585840702056885
1775728167942174000,7.315174072265625,-5.727051734924316,-0.7144813537597656,-2.211561679840088
1775728167960702200,7.3337021484375,-7.614554405212402,-0.0048065185546875,-0.9291419982910156
1775728167979230200,7.352230224609375,-6.9328508377075195,1.4857468605041504,0.620415449142456
1775728167997758500,7.370758544921875,-5.589255332946777,2.803051233291626,1.097672939300537
1775728168016286500,7.389286376953125,-5.300943374633789,2.5045599937438965,0.9165647029876709
1775728168034814500,7.407814453125,-6.652508735656738,2.8247179985046387,1.9626169204711914
1775728168053342700,7.4263427734375,-6.880433082580566,3.3013875484466553,2.8523523807525635
1775728168071870700,7.44487060546875,-4.532697677612305,3.34155535697937,2.5372092723846436
1775728168090399000,7.46339892578125,-3.459941864013672,2.787459373474121,1.1263009309768677
1775728168108927000,7.481927001953125,-3.175539016723633,2.354367256164551,0.9413262605667114
1775728168127455200,7.500455322265625,-2.2449917793273926,2.5657715797424316,1.2176927328109741
1775728168145983200,7.518983154296875,2.312856674194336,3.436469554901123,1.827640414237976
1775728168164511500,7.537511474609375,14.111166000366211,2.6631221771240234,4.034615993499756
1775728168183039500,7.55603955078125,3.167330265045166,-1.2132959365844727,7.338144779205322
1775728168201567700,7.574567626953125,-6.517060279846191,-2.457648277282715,2.9271998405456543
1775728168220095700,7.593095703125,2.8033394813537598,-5.831254959106445,-4.570697784423828
1775728168238624000,7.6116240234375,1.717392921447754,-6.209083080291748,-3.3438875675201416
1775728168257152000,7.630152099609375,-2.843886375427246,-6.295105934143066,-1.4259843826293945
1775728168275680300,7.64868017578125,-0.8999042510986328,-5.485783576965332,-1.6136949062347412
1775728168294208300,7.667208251953125,-1.1065764427185059,-3.135976791381836,-1.254289150238037
1775728168312736500,7.685736572265625,-1.412031650543213,-1.4396400451660156,-1.2279610633850098
1775728168331264500,7.704264404296875,-0.8533129692077637,-0.8351230621337891,-0.7055754661560059
1775728168349792800,7.722792724609375,-1.5068235397338867,-0.19334983825683594,1.6011412143707275
1775728168368320800,7.74132080078125,-1.90769624710083,0.37102794647216797,3.689723253250122
1775728168386848800,7.759848876953125,-1.9797546863555908,-0.14357948303222656,2.8504934310913086
1775728168405377000,7.778376953125,-1.1190450191497803,-1.3062448501586914,0.5824494361877441
1775728168423905000,7.796905029296875,-1.297337532043457,-1.8795557022094727,-1.0316903591156006
1775728168442433300,7.815433349609375,-1.72852623462677,-1.2996892929077148,-1.7766761779785156
1775728168460961300,7.833961181640625,-1.3496675491333008,-1.18719482421875,-2.0010366439819336
1775728168479489500,7.852489501953125,-0.5253984928131104,0.6895761489868164,-0.9080672264099121
1775728168498017500,7.871017578125,0.26726245880126953,1.2714180946350098,-0.6444189548492432
1775728168516545800,7.8895458984375,-0.0953361988067627,1.3311161994934082,-1.4441964626312256
1775728168535073800,7.90807373046875,-0.21266591548919678,1.782444953918457,-1.8251667022705078
1775728168553602000,7.92660205078125,0.5979654788970947,2.5463428497314453,-1.8700273036956787
1775728168572130300,7.94513037109375,1.1300350427627563,2.9664430618286133,-1.510894536972046
1775728168590658300,7.963658203125,0.9609297513961792,3.1364846229553223,-1.5932414531707764
1775728168609186600,7.9821865234375,0.498160719871521,2.8060264587402344,-0.790107250213623
1775728168627714600,8.000714599609376,0.3421079218387604,2.2138190269470215,-0.25733160972595215
1775728168646242800,8.019242919921876,0.5283615589141846,1.3927364349365234,0.656883716583252
1775728168664770800,8.037770751953126,0.9458848834037781,1.0354270935058594,1.4784775972366333
1775728168683299000,8.056299072265626,1.4393724203109741,0.3107776641845703,0.1761484146118164
1775728168701827000,8.0748271484375,2.6238338947296143,-0.6243219375610352,-0.26680994033813477
1775728168720355300,8.093355224609375,3.1232986450195312,-2.487362861633301,-0.7613856792449951
1775728168738883600,8.111883544921875,3.256251335144043,-3.195955276489258,-2.377612590789795
1775728168757411600,8.13041162109375,4.029650688171387,-4.090472221374512,-2.868373394012451
1775728168775939800,8.14893994140625,3.4020228385925293,-4.429234504699707,-2.8325634002685547
1775728168794467800,8.1674677734375,2.3503456115722656,-4.675461769104004,-2.8053507804870605
1775728168812996000,8.18599609375,2.7202515602111816,-5.01107120513916,-1.6601673364639282
1775728168831524000,8.204524169921875,2.6176695823669434,-4.745855331420898,0.2527656555175781
1775728168850052400,8.22305224609375,1.2251936197280884,-3.8048133850097656,1.0553154945373535
1775728168868580400,8.241580322265625,0.45035502314567566,-2.7879371643066406,0.3439524173736572
1775728168887108600,8.260108642578125,1.5944454669952393,-1.9158382415771484,-1.3956080675125122
1775728168905636600,8.27863671875,4.660789966583252,-1.6473617553710938,-2.4125301837921143
1775728168924164900,8.297164794921875,8.260873794555664,-1.0808038711547852,-1.340983271598816
1775728168942693000,8.315693115234374,9.91678524017334,-1.9342584609985352,-1.8652701377868652
1775728168961221000,8.33422119140625,7.262336730957031,-3.8467044830322266,-4.410887718200684
1775728168979749400,8.352749267578124,1.4780852794647217,-4.953092575073242,-4.761938571929932
1775728168998277400,8.37127734375,-4.864089012145996,-3.328096389770508,-1.6264457702636719
1775728169016805600,8.3898056640625,-5.994325637817383,-2.83644962310791,0.049330949783325195
1775728169035334000,8.408333984375,-4.836735725402832,-0.32413387298583984,1.6973472833633423
1775728169053862000,8.42686181640625,-4.876513481140137,2.448878765106201,4.179208755493164
1775728169072390100,8.44539013671875,-6.757188320159912,2.327692985534668,4.818036079406738
1775728169090918100,8.463918212890626,-6.535525321960449,-0.7580294609069824,3.145693778991699
1775728169109446400,8.4824462890625,-3.0448925495147705,-0.6477980613708496,0.6664597988128662
1775728169127974400,8.500974365234375,4.3528618812561035,0.10365581512451172,-0.9402694702148438
1775728169146502700,8.519502685546875,3.1720218658447266,-1.9514579772949219,-2.730614423751831
1775728169165030700,8.53803076171875,-5.838078022003174,-3.2492246627807617,-1.0825953483581543
1775728169183559000,8.556558837890625,-10.775765419006348,-2.8310041427612305,0.0546417236328125
1775728169202087200,8.575087158203125,-9.694612503051758,-1.6818828582763672,0.863624095916748
1775728169220615200,8.593615234375,-6.239841938018799,1.703580379486084,1.9293979406356812
1775728169239143400,8.612143310546875,-4.984874725341797,2.2829720973968506,1.5234856605529785
1775728169257671700,8.630671630859375,-7.045511722564697,2.8807034492492676,1.290922999382019
1775728169276199700,8.64919970703125,-7.654571533203125,2.526216506958008,2.2147161960601807
1775728169294728000,8.66772802734375,-4.538265705108643,2.000293731689453,2.861833333969116
1775728169313256200,8.686256103515625,-2.0806021690368652,1.4551901817321777,2.8705410957336426
1775728169331784200,8.7047841796875,-1.8651466369628906,0.5589156150817871,0.2241426706314087
1775728169350312400,8.7233125,0.03277730941772461,3.251493453979492,2.1791365146636963
1775728169368840400,8.74184033203125,10.143998146057129,6.439640998840332,5.091221332550049
1775728169387368700,8.76036865234375,1.2558650970458984,-0.23443841934204102,4.960782527923584
1775728169405896700,8.778896728515624,-7.3592071533203125,-2.894129753112793,2.488417625427246
1775728169424425000,8.797425048828124,2.313480854034424,-3.4373621940612793,-0.4952813386917114
1775728169442953200,8.815953125,2.2202067375183105,-6.087277412414551,-4.251297950744629
1775728169461481500,8.8344814453125,1.132615089416504,-5.632007598876953,-3.246713399887085
1775728169480009500,8.853009521484376,0.2994399070739746,-6.638704776763916,-2.4969913959503174
1775728169498537700,8.871537841796876,-0.5173444747924805,-4.1247782707214355,-1.5966980457305908
1775728169517066000,8.89006591796875,-0.4587883949279785,-1.582674503326416,-1.7854924201965332
1775728169535594000,8.908593994140626,-0.9925539493560791,0.19974231719970703,-1.4183695316314697
1775728169554122200,8.927122314453126,-0.5154514312744141,0.33495140075683594,0.7219202518463135
1775728169572650200,8.945650146484375,-1.520792007446289,0.873316764831543,2.63247013092041
1775728169591178500,8.964178466796875,-2.032869577407837,0.9226455688476562,2.4893887042999268
1775728169609706800,8.982706787109375,-2.0123939514160156,0.47933006286621094,0.4534029960632324
1775728169628234800,9.00123486328125,-1.795846700668335,1.3854260444641113,-0.21768569946289062
1775728169646763000,9.019762939453125,-1.870926022529602,0.9248828887939453,-1.0643947124481201
1775728169665291300,9.038291259765625,-1.274675726890564,1.1943349838256836,-1.061739206314087
1775728169683819300,9.0568193359375,-0.2016587257385254,1.6615028381347656,-0.3589897155761719
1775728169702347500,9.075347412109375,0.40781593322753906,1.501028060913086,0.15365386009216309
1775728169720875500,9.09387548828125,-0.30822861194610596,0.1971912384033203,-1.1009137630462646
1775728169739403800,9.11240380859375,-1.0844299793243408,0.15088176727294922,-2.4746081829071045
1775728169757932000,9.13093212890625,0.06880927085876465,1.0743827819824219,-2.9468495845794678
1775728169776460300,9.149460205078125,0.9025965332984924,0.7836713790893555,-2.478001832962036
1775728169794988300,9.16798828125,1.4857559204101562,0.8477468490600586,0.9798247814178467
1775728169813516500,9.1865166015625,0.6112397909164429,1.1118860244750977,1.532456636428833
1775728169832044800,9.205044921875,1.6072406768798828,1.4997482299804688,-0.19689488410949707
1775728169850573000,9.223572998046874,2.1045684814453125,1.3905258178710938,-1.177000880241394
1775728169869101000,9.24210107421875,1.1392526626586914,0.176544189453125,-2.118309259414673
1775728169887629300,9.26062939453125,0.21258988976478577,-0.17913246154785156,-1.619717001914978
1775728169906157300,9.2791572265625,1.7855859994888306,-0.0941009521484375,0.27023327350616455
1775728169924685600,9.297685546875,3.379427433013916,-0.4659280776977539,-0.05781567096710205
1775728169943213800,9.3162138671875,3.6133296489715576,-0.954279899597168,-1.0888434648513794
1775728169961742000,9.3347421875,3.255756139755249,-1.407048225402832,-1.9457588195800781
1775728169980270000,9.35327001953125,2.7178328037261963,-2.5021791458129883,-2.647183895111084
1775728169998798300,9.37179833984375,2.0204594135284424,-3.7269983291625977,-2.3824386596679688
1775728170017326600,9.39032666015625,1.0527172088623047,-4.349810600280762,-1.7838495969772339
1775728170035854800,9.408854736328125,1.0901298522949219,-5.526060104370117,-1.1274288892745972
1775728170054382800,9.4273828125,1.129929780960083,-5.955791473388672,-0.6092619895935059
1775728170072911000,9.4459111328125,1.0819711685180664,-5.300045967102051,-0.2353421449661255
1775728170091439000,9.464439208984375,3.1116487979888916,-4.607439041137695,-0.6622821092605591
1775728170109967400,9.48296728515625,6.110650062561035,-3.563943862915039,-1.99175226688385
1775728170128495600,9.50149560546875,7.037590503692627,-1.9419708251953125,-1.780042290687561
1775728170147024000,9.52002392578125,6.55069637298584,-1.6075782775878906,-1.5054470300674438
1775728170165552000,9.53855224609375,5.8080220222473145,-2.483449935913086,-2.6309614181518555
1775728170184080100,9.557080078125,4.835634231567383,-3.52596378326416,-2.482917308807373
1775728170202608400,9.5756083984375,0.9014279842376709,-3.963094711303711,-2.4438936710357666
1775728170221136600,9.59413671875,-4.459959983825684,-4.009510040283203,-1.3461925983428955
1775728170239664600,9.61266455078125,-6.086598873138428,-3.5601348876953125,-2.0153934955596924
1775728170258193000,9.63119287109375,-3.9598212242126465,-3.882819175720215,-2.4733636379241943
1775728170276721200,9.64972119140625,-5.586882591247559,-1.917679786682129,1.3392276763916016
1775728170295249400,9.66824951171875,-8.603231430053711,-0.2452239990234375,3.8927412033081055
1775728170313777700,9.686777587890624,-6.578359127044678,0.007325172424316406,4.941833972930908
1775728170332305700,9.7053056640625,-0.9199037551879883,2.001528739929199,2.885993480682373
1775728170350834000,9.723833984375,1.7171053886413574,2.1186418533325195,0.7341644763946533
1775728170369362200,9.742362060546874,-2.016754150390625,1.171736240386963,0.4702799320220947
1775728170387890200,9.76089013671875,-7.123207092285156,0.3521003723144531,1.0285720825195312
1775728170406418400,9.77941845703125,-8.290611267089844,0.8031158447265625,2.5715484619140625
1775728170424946700,9.79794677734375,-6.6242265701293945,1.8667569160461426,2.6315975189208984
1775728170443475000,9.816474853515626,-4.787333965301514,2.3616580963134766,1.1696875095367432
1775728170462003000,9.8350029296875,-5.028069972991943,2.8807878494262695,0.8897260427474976
1775728170480531200,9.85353125,-6.161870002746582,3.013801097869873,2.7005972862243652
1775728170499059500,9.8720595703125,-6.069407939910889,2.5577845573425293,2.5171921253204346
1775728170517587700,9.890587646484375,-5.21121883392334,1.6041779518127441,0.5092837810516357
1775728170536116000,9.909115966796875,-4.1959614753723145,2.118100166320801,1.0274673700332642
1775728170554644200,9.927644287109375,-3.1854591369628906,2.413480281829834,1.550126552581787
1775728170573172200,9.946172119140625,-2.9287776947021484,1.9852910041809082,3.039419174194336
1775728170591700500,9.964700439453125,-0.6270875930786133,2.341808795928955,4.13958740234375
1775728170610228700,9.983228759765625,10.730487823486328,3.6088297367095947,3.879112720489502
1775728170628757000,10.001757080078125,11.456278800964355,0.2984166145324707,4.95664644241333
1775728170647285000,10.020284912109375,-6.343498706817627,-3.92562198638916,2.2423324584960938
1775728170665813200,10.038813232421875,1.0023083686828613,-3.9127564430236816,-1.3725407123565674
1775728170684341500,10.057341552734375,-1.5436744689941406,-7.2694268226623535,-4.780117988586426
1775728170702869800,10.075869873046875,-3.308542251586914,-6.228093147277832,-3.9066455364227295
1775728170721397800,10.094397705078125,1.1547560691833496,-5.873818397521973,-2.6635918617248535
1775728170739926000,10.112926025390625,-1.4302008152008057,-3.7948317527770996,-3.515629291534424
1775728170758454300,10.131454345703125,-2.0566186904907227,-3.0549983978271484,-3.926006317138672
1775728170776982500,10.149982421875,-0.6865460872650146,-1.4227170944213867,-0.33893609046936035
1775728170795510800,10.1685107421875,0.031790733337402344,0.6308555603027344,2.338900327682495
1775728170814039000,10.1870390625,-1.8148465156555176,0.811802864074707,1.5737485885620117
1775728170832567000,10.205567138671874,-2.397063732147217,1.0520706176757812,1.8217072486877441
1775728170851095300,10.22409521484375,-1.220411777496338,0.8155384063720703,2.0663046836853027
1775728170869623600,10.24262353515625,-0.18903040885925293,0.7123003005981445,1.3821296691894531
1775728170888151800,10.26115185546875,0.13873553276062012,1.1736421585083008,0.6119496822357178
1775728170906680000,10.27968017578125,-0.33394384384155273,0.9754371643066406,-1.0773508548736572
1775728170925208300,10.298208251953126,-0.550175666809082,0.6071290969848633,-2.1909120082855225
1775728170943736300,10.316736328125,0.1082465648651123,0.9485130310058594,-1.5523791313171387
1775728170962264600,10.3352646484375,0.49807047843933105,1.1891851425170898,-0.7234218120574951
1775728170980792800,10.353792724609375,0.919727087020874,0.7640657424926758,-1.5537488460540771
1775728170999321000,10.372321044921875,0.8365704417228699,1.2081708908081055,-1.7274816036224365
1775728171017849300,10.390849365234375,1.5176414251327515,2.042881965637207,-0.34283995628356934
1775728171036377600,10.409377685546875,1.802661418914795,2.0125694274902344,0.5961029529571533
1775728171054905900,10.42790576171875,1.4616001844406128,2.4233531951904297,1.2243144512176514
1775728171073434000,10.44643408203125,1.424075722694397,1.7738361358642578,0.4646153450012207
1775728171091962000,10.464962158203125,0.39866748452186584,0.105316162109375,-1.5978147983551025
1775728171110490400,10.483490478515625,-0.2498254030942917,-0.6776466369628906,-2.9167842864990234
1775728171129018600,10.5020185546875,0.06504939496517181,-1.3913335800170898,-2.90083909034729
1775728171147547000,10.520546875,0.5755313634872437,-1.909566879272461,-2.39815092086792
1775728171166075100,10.5390751953125,1.2330926656723022,-1.3833942413330078,-0.4020707607269287
1775728171184603400,10.557603271484375,2.2851884365081787,-1.2049741744995117,0.09501290321350098
1775728171203131400,10.57613134765625,3.366793394088745,-2.012542724609375,-1.2491326332092285
1775728171221659600,10.59465966796875,3.1344614028930664,-1.4524450302124023,-2.0064265727996826
1775728171240188000,10.61318798828125,2.5669121742248535,-2.204141616821289,-3.3226311206817627
1775728171258716200,10.631716064453125,1.5480287075042725,-4.173664093017578,-4.020966529846191
1775728171277244400,10.650244384765625,0.47921645641326904,-6.0251617431640625,-3.256462812423706
1775728171305036800,10.678036865234375,0.5142076015472412,-5.255654335021973,-0.36397218704223633
1775728171323565000,10.69656494140625,1.193474292755127,-4.378739356994629,0.7514803409576416
1775728171342093300,10.71509326171875,2.217524528503418,-2.93203067779541,0.987079381942749
1775728171360621600,10.73362158203125,4.577085971832275,-1.593301773071289,-0.5619959831237793
1775728171379149800,10.75214990234375,7.408658504486084,-0.8415031433105469,-1.1739213466644287
1775728171397678000,10.770677978515625,8.221575736999512,-1.4644927978515625,-1.3272769451141357
1775728171416206000,10.7892060546875,7.016791820526123,-1.8556632995605469,-2.868265390396118
1775728171434734300,10.807734375,3.23759388923645,-3.8327627182006836,-5.045941352844238
1775728171453262600,10.8262626953125,-0.42194032669067383,-5.562868118286133,-5.558953285217285
1775728171471790800,10.844790771484375,-4.25503396987915,-3.751469612121582,-2.5764784812927246
1775728171490319000,10.863319091796875,-3.941026449203491,-2.794252395629883,-0.9298186302185059
1775728171508847400,10.881847412109375,-5.164541244506836,-2.598287582397461,1.8079814910888672
1775728171527375600,10.900375732421875,-9.459131240844727,-0.8291959762573242,4.61356258392334
1775728171545903900,10.91890380859375,-10.322380065917969,1.727494239807129,5.953420639038086
1775728171564432100,10.93743212890625,-5.152608394622803,2.4433236122131348,4.055277347564697
1775728171582960400,10.95596044921875,3.5860695838928223,2.4278202056884766,1.8678405284881592
1775728171601488600,10.974488525390624,4.197237968444824,1.8284111022949219,1.744316816329956
1775728171620017000,10.993016845703124,-4.2637481689453125,0.5047574043273926,1.9820573329925537
1775728171638545200,11.011545166015624,-9.671035766601562,-0.1440906524658203,1.3013379573822021
1775728171657073200,11.0300732421875,-7.767831325531006,-0.09490346908569336,0.4544796943664551
1775728171675601400,11.048601318359376,-4.066601753234863,1.448523998260498,1.116114616394043
1775728171694129700,11.067129638671876,-3.8832221031188965,2.0953502655029297,2.3084611892700195
1775728171712658200,11.085658203125,-5.769802093505859,2.050804615020752,2.31656551361084
1775728171731186200,11.104186279296876,-5.750042915344238,2.0611534118652344,2.8187103271484375
1775728171749714400,11.12271435546875,-3.94296932220459,2.292536735534668,1.8498830795288086
1775728171768242700,11.14124267578125,-3.848557472229004,1.8974075317382812,1.230179786682129
1775728171786771000,11.15977099609375,-5.1469645500183105,1.4576430320739746,1.3845324516296387
1775728171805299200,11.17829931640625,-4.854593276977539,1.0324978828430176,1.5729477405548096
1775728171823827500,11.196827392578125,1.285597801208496,2.965726375579834,2.4540867805480957
1775728171842355700,11.215355712890625,16.854385375976562,4.161705493927002,4.776040077209473
1775728171860884000,11.233884033203125,3.7415852546691895,-1.5491080284118652,6.349238395690918
1775728171879412200,11.252412109375,-11.416851043701172,-5.138705730438232,1.89383864402771
1775728171897940500,11.2709404296875,-1.0720419883728027,-1.841627597808838,-0.7751610279083252
1775728171916468700,11.28946875,4.21821403503418,-4.256240367889404,-4.082831382751465
1775728171934997000,11.3079970703125,-0.8714232444763184,-4.525577068328857,-3.2253851890563965
1775728171953525200,11.326525146484375,-2.5185141563415527,-6.926598072052002,-1.4943194389343262
1775728171972053500,11.345053466796875,-2.1989827156066895,-4.174234867095947,-2.4427618980407715
1775728171990581800,11.363581787109375,1.1732707023620605,-2.600527763366699,-3.962570905685425
1775728172009110000,11.382110107421875,0.7151055335998535,-1.8478727340698242,-2.1161844730377197
1775728172027638300,11.40063818359375,-1.539788007736206,-1.3630685806274414,0.6236763000488281
1775728172046166500,11.41916650390625,-2.2394516468048096,-0.18436050415039062,1.2088069915771484
1775728172064694800,11.43769482421875,-1.3203809261322021,-0.2108297348022461,0.6421170234680176
1775728172083223000,11.45622314453125,-0.6517012119293213,-0.8565082550048828,0.7761232852935791
1775728172101751300,11.474751220703125,-0.3541557788848877,0.34535980224609375,2.007288932800293
1775728172120279600,11.493279541015625,0.03416872024536133,0.5346965789794922,1.5109539031982422
1775728172138807800,11.511807861328125,0.42462992668151855,1.3643789291381836,1.2433722019195557
1775728172157336000,11.530336181640624,-0.03886818885803223,1.7247447967529297,0.7711825370788574
1775728172175864300,11.5488642578125,-0.945349931716919,1.8807811737060547,-0.8388605117797852
1775728172194392600,11.567392578125,0.3221166133880615,1.5213041305541992,-1.392688512802124
1775728172212920800,11.5859208984375,1.5321905612945557,1.3731889724731445,-1.6393940448760986
1775728172231449000,11.604448974609374,0.617499828338623,1.3961176872253418,-2.548262596130371
1775728172249977300,11.622977294921874,-0.4647514224052429,1.680659294128418,-2.230903148651123
1775728172268505600,11.641505615234376,-0.699653685092926,1.8792214393615723,-0.7496805191040039
1775728172287034000,11.6600341796875,-0.4721446633338928,2.119147300720215,0.4831809997558594
1775728172305562000,11.67856201171875,0.18283945322036743,2.0337772369384766,0.47164487838745117
1775728172324090400,11.69709033203125,1.2750957012176514,0.8911285400390625,-0.01650714874267578
1775728172342619000,11.715618896484376,2.640054941177368,0.3581876754760742,-0.08223176002502441
1775728172361147100,11.734147216796876,2.835517168045044,0.30121707916259766,-0.6018140316009521
1775728172379675400,11.75267529296875,1.7391067743301392,-0.31357479095458984,-1.4796249866485596
1775728172398203600,11.77120361328125,0.6910595893859863,-0.9150781631469727,-1.6291685104370117
1775728172416732000,11.78973193359375,0.837558925151825,-0.7844343185424805,-1.1895017623901367
1775728172435260200,11.80826025390625,2.0008347034454346,-0.8955278396606445,-1.4038653373718262
1775728172453788400,11.826788330078125,2.7617709636688232,-2.386702537536621,-2.034120798110962
1775728172472316700,11.845316650390625,3.224936008453369,-3.2470598220825195,-2.3815486431121826
1775728172490845000,11.863844970703125,2.580857992172241,-3.922430992126465,-3.042149066925049
1775728172509373200,11.882373291015625,1.0673648118972778,-4.5977325439453125,-2.7551956176757812
1775728172527901400,11.9009013671875,-0.47283273935317993,-5.609078407287598,-1.2515742778778076
1775728172546429700,11.9194296875,-1.3529531955718994,-6.191838264465332,-1.0420341491699219
1775728172564958000,11.9379580078125,0.6867812871932983,-4.875146865844727,-1.3291492462158203
1775728172583486200,11.956486328125,4.552411079406738,-2.411410331726074,-0.5502357482910156
1775728172602014700,11.9750146484375,7.1022186279296875,-0.45722103118896484,0.007490396499633789
1775728172620543000,11.99354296875,7.8402628898620605,0.07842445373535156,-0.5313985347747803
1775728172639071200,12.0120712890625,7.161468505859375,-1.0318565368652344,-0.7770035266876221
1775728172657599500,12.030599609375,4.8855085372924805,-1.8044891357421875,-1.759000539779663
1775728172676127700,12.049127685546875,2.9207959175109863,-3.915952682495117,-3.511017084121704
1775728172694656000,12.067656005859375,-0.20978546142578125,-3.8352346420288086,-3.124274730682373
1775728172713184300,12.086184326171875,-2.5467686653137207,-3.4551029205322266,-2.3128514289855957
1775728172731712800,12.104712646484375,-1.9165184497833252,-3.8004112243652344,-2.4857888221740723
1775728172750240800,12.12324072265625,-2.697660207748413,-3.0775136947631836,-0.7291083335876465
1775728172768769300,12.141769287109375,-7.1267242431640625,-2.0359840393066406,2.567227363586426
1775728172787297500,12.160297607421874,-10.638113021850586,0.1602945327758789,4.460921764373779
1775728172805825800,12.17882568359375,-8.631582260131836,1.3742294311523438,5.204196453094482
1775728172824354000,12.19735400390625,-0.9356412887573242,2.3079957962036133,3.548095226287842
1775728172842882300,12.21588232421875,4.130098342895508,1.7602448463439941,1.6468048095703125
1775728172861410600,12.23441064453125,0.3019537925720215,1.0297465324401855,1.007014513015747
1775728172879938800,12.252938720703124,-5.3442277908325195,-0.053119659423828125,0.5717697143554688
1775728172898467300,12.27146728515625,-7.0705108642578125,-0.23967552185058594,0.887660026550293
1775728172916995600,12.28999560546875,-5.732209205627441,0.4136509895324707,0.7567034959793091
1775728172935523800,12.30852392578125,-4.635272026062012,0.8807058334350586,0.15651202201843262
1775728172954052000,12.327052001953126,-5.172463417053223,1.3312220573425293,0.7817481756210327
1775728172972580400,12.345580322265626,-6.084996223449707,1.9322948455810547,2.4732940196990967
1775728172991108600,12.364108642578126,-7.047999382019043,1.9927215576171875,2.044513702392578
1775728173009636900,12.382636962890626,-5.652549743652344,2.8027427196502686,1.4387274980545044
1775728173028165400,12.401165283203126,-4.1930460929870605,3.41161847114563,1.2537885904312134
1775728173046693600,12.419693603515626,-3.156459331512451,3.0340776443481445,1.0186376571655273
1775728173065222000,12.438221923828126,-2.991555690765381,1.621819257736206,1.3896480798721313
1775728173093014300,12.46601416015625,0.6102104187011719,2.9735682010650635,2.7889981269836426
1775728173111542500,12.48454248046875,15.58948802947998,4.6557817459106445,3.7660322189331055
1775728173130070800,12.50307080078125,9.862133026123047,-2.605546474456787,2.3596291542053223
1775728173148599300,12.521599365234374,-7.083487033843994,-4.201051235198975,1.5943814516067505
1775728173167127600,12.54012744140625,-5.3570637702941895,-2.5974526405334473,-0.4169304370880127
1775728173185655800,12.55865576171875,2.372169017791748,-4.06520938873291,-1.3158235549926758
1775728173204184000,12.57718408203125,0.6818537712097168,-4.8606414794921875,-0.2876269817352295
1775728173222712300,12.59571240234375,-2.205458164215088,-4.8456501960754395,1.5489827394485474
1775728173241240600,12.614240478515624,-0.870661735534668,-4.698883533477783,-2.0726723670959473
1775728173259769000,12.63276904296875,-0.9193253517150879,-2.8138318061828613,-4.240791320800781
1775728173278297300,12.65129736328125,-1.7661771774291992,-1.6908745765686035,-3.1933727264404297
1775728173296825600,12.66982568359375,-1.4982171058654785,-0.9126491546630859,-1.9161136150360107
1775728173315353900,12.688353759765626,-0.6375586986541748,-0.5375776290893555,0.3227369785308838
1775728173333882000,12.706882080078126,-0.693488359451294,0.2845916748046875,1.8665765523910522
1775728173352410600,12.72541064453125,-1.218388319015503,-0.02709674835205078,1.327523946762085
1775728173370939000,12.74393896484375,-1.400501012802124,-0.3073139190673828,1.507982611656189
1775728173389467100,12.762467041015626,-0.4569060802459717,0.20494842529296875,1.6252294778823853
1775728173407995400,12.780995361328126,0.2970857620239258,0.13007450103759766,-0.2763974666595459
1775728173426524000,12.79952392578125,0.30615806579589844,0.25946903228759766,-2.0337767601013184
1775728173445052200,12.81805224609375,-0.15246295928955078,0.6337995529174805,-2.381800413131714
1775728173463580400,12.836580322265625,0.13732922077178955,0.8009767532348633,-2.234104633331299
1775728173482108700,12.855108642578125,0.5630840063095093,0.9468355178833008,-1.6297180652618408
1775728173500637000,12.873636962890625,0.7480916976928711,1.2905540466308594,-0.9443233013153076
1775728173519165400,12.89216552734375,0.8669033050537109,1.628218650817871,-0.012995004653930664
1775728173537693700,12.910693603515625,0.5609084963798523,1.7575082778930664,-0.6049892902374268
1775728173556222000,12.929221923828125,0.023281216621398926,1.61283540725708,-1.0659453868865967
1775728173574750500,12.94775048828125,-0.14874213933944702,1.3180618286132812,-0.6158497333526611
1775728173593278500,12.966278564453125,0.45491182804107666,1.1455163955688477,-0.5422704219818115
1775728173611807000,12.984806884765625,1.0726383924484253,1.1892967224121094,-1.1109962463378906
1775728173630335200,13.003335205078125,0.554313063621521,0.6594381332397461,-1.0979595184326172
1775728173648863500,13.021863525390625,0.41475871205329895,0.19643020629882812,-0.7589197158813477
1775728173667392000,13.04039208984375,1.0341265201568604,-0.1020498275756836,-0.6059651374816895
1775728173685920300,13.058920166015625,1.3356199264526367,0.19552993774414062,-0.19411110877990723
1775728173704448500,13.077448486328125,2.0611014366149902,-0.07366275787353516,0.6024112701416016
1775728173722977000,13.09597705078125,2.2436394691467285,-1.3093013763427734,0.37599968910217285
1775728173741505000,13.114505126953125,1.9207762479782104,-1.6787328720092773,-0.8719503879547119
1775728173760033500,13.133033447265625,2.6537461280822754,-1.782958984375,-1.561171293258667
1775728173778561800,13.151561767578125,2.949388027191162,-3.1851444244384766,-2.720660924911499
1775728173797090000,13.170090087890625,1.2382457256317139,-4.517845153808594,-2.183483600616455
1775728173815618600,13.18861865234375,-0.13546127080917358,-5.376091957092285,-1.1203508377075195
1775728173834146800,13.207146728515625,-0.5525435209274292,-6.841485023498535,-1.4048259258270264
1775728173852675000,13.225675048828125,0.5093571543693542,-5.858823776245117,-1.1220734119415283
1775728173871203600,13.24420361328125,2.0898044109344482,-3.3509626388549805,-0.4478025436401367
1775728173889731800,13.26273193359375,3.1357319355010986,-1.5708808898925781,-0.3109126091003418
1775728173908260000,13.281260009765624,4.583357334136963,-0.3253488540649414,0.5039193630218506
1775728173926788400,13.299788330078124,7.133719444274902,0.1854534149169922,1.9110034704208374
1775728173945316900,13.31831689453125,9.404247283935547,-1.084458351135254,-0.0601961612701416
1775728173963845000,13.33684521484375,8.905898094177246,-2.9312658309936523,-3.4258639812469482
1775728173982373400,13.355373291015624,4.540558815002441,-5.539156913757324,-6.045559883117676
1775728174000902000,13.37390185546875,-2.0395679473876953,-6.00584602355957,-4.025132179260254
1775728174019430100,13.39243017578125,-4.434569358825684,-3.905061721801758,-0.6031553745269775
1775728174037958400,13.41095849609375,-3.2455334663391113,-3.6084671020507812,-0.5821201801300049
1775728174056487000,13.42948681640625,-4.903472900390625,-2.8121557235717773,0.7723088264465332
1775728174075015200,13.44801513671875,-9.261587142944336,0.2173614501953125,4.221221923828125
1775728174093543400,13.46654345703125,-7.930471420288086,2.789339542388916,6.42630672454834
1775728174112072000,13.485072021484376,-1.974813461303711,2.982396125793457,5.23746395111084
1775728174130600200,13.50360009765625,1.982555866241455,1.931525707244873,2.102950096130371
1775728174149128400,13.52212841796875,0.21456193923950195,0.7014212608337402,-0.6094180345535278
1775728174167656700,13.54065673828125,-3.206425666809082,-0.021339893341064453,-1.6085205078125
1775728174186185200,13.559185302734376,-4.719151496887207,-0.9827976226806641,-1.0793633460998535
1775728174204713500,13.57771337890625,-4.452890396118164,-1.1293072700500488,0.49753081798553467
1775728174223241700,13.59624169921875,-4.446056365966797,0.10719633102416992,1.2944852113723755
1775728174241770200,13.614770263671875,-5.590525150299072,1.3334145545959473,0.7356603145599365
1775728174260298500,13.633298583984375,-6.324195384979248,1.6160569190979004,0.8910038471221924
1775728174278826800,13.65182666015625,-6.915040969848633,1.557483196258545,1.0864918231964111
1775728174297355300,13.670355224609375,-6.253354072570801,1.9411969184875488,1.1657426357269287
1775728174315883500,13.688883544921875,-5.439446449279785,2.4163365364074707,0.9269875288009644
1775728174334411800,13.707411865234375,-3.901503562927246,3.09350323677063,1.7251522541046143
1775728174352940000,13.72593994140625,-2.9734296798706055,2.480325222015381,2.664090633392334
1775728174371468500,13.744468505859375,-3.990936279296875,1.9789338111877441,1.8735191822052002
1775728174389996800,13.762996826171875,-3.3282690048217773,1.963399887084961,1.0358049869537354
1775728174408525000,13.781525146484375,-1.1807584762573242,2.3938615322113037,1.8204355239868164
1775728174427053600,13.800053466796875,1.5091400146484375,2.537348747253418,1.4751428365707397
1775728174445581800,13.818581787109375,8.286852836608887,2.8661108016967773,2.364863634109497
1775728174464110300,13.8371103515625,12.098987579345703,0.9784688949584961,2.4300856590270996
1775728174482638600,13.855638671875,0.022008895874023438,-2.7926626205444336,1.7745624780654907
1775728174501166800,13.874166748046875,0.6692814826965332,-4.180388927459717,-2.220552921295166
1775728174519695400,13.8926953125,-5.961760520935059,-5.748954772949219,-3.560389518737793
1775728174538223600,13.9112236328125,-6.002493381500244,-3.4073753356933594,0.3438873291015625
1775728174556752000,13.929751953125,6.621888637542725,-2.037601947784424,0.18017244338989258
1775728174575280000,13.948280029296875,-0.1842207908630371,-3.7904038429260254,-1.9655239582061768
1775728174593808600,13.96680859375,-4.129940986633301,-3.8246068954467773,-1.4228453636169434
1775728174612337000,13.9853369140625,-0.8567895889282227,-2.2563791275024414,-2.0325448513031006
1775728174630865400,14.003865478515625,-0.06877946853637695,-0.8488445281982422,-1.1623303890228271
1775728174649393700,14.0223935546875,-1.0084338188171387,1.0415806770324707,1.257272481918335
1775728174667922000,14.040921875,-0.5768260955810547,1.174210548400879,2.068018913269043
1775728174686450400,14.059450439453125,-1.3249821662902832,0.7075238227844238,2.574233055114746
1775728174704978700,14.077978759765625,-2.0947933197021484,-0.08716869354248047,2.326021194458008
1775728174723507000,14.0965068359375,-1.0335588455200195,-1.0008001327514648,1.0077002048492432
1775728174742035500,14.115035400390624,-0.5485892295837402,-1.4508686065673828,0.1260387897491455
1775728174760563700,14.133563720703124,-0.8525345325469971,-1.3396377563476562,-0.04217052459716797
1775728174779092200,14.15209228515625,-0.8654110431671143,-1.2379980087280273,-0.6685748100280762
1775728174797620500,14.170620361328124,0.16739368438720703,-0.8388748168945312,-1.1263108253479004
1775728174816148700,14.189148681640624,0.8481192588806152,-0.5023469924926758,-0.7644410133361816
1775728174834677200,14.20767724609375,0.3013179302215576,-0.22011280059814453,-0.06568193435668945
1775728174853205500,14.22620556640625,-0.6008005142211914,0.06619548797607422,-0.2877349853515625
1775728174871734000,14.244734130859374,0.06626725196838379,0.16307926177978516,0.021602392196655273
1775728174890262300,14.26326220703125,-0.5897753238677979,0.5422096252441406,-0.010295629501342773
1775728174908790500,14.28179052734375,-0.9223297834396362,0.9352302551269531,0.04126381874084473
1775728174927318800,14.30031884765625,-0.9118235111236572,0.43408203125,-0.35314011573791504
1775728174945847300,14.318847412109376,-0.8987680673599243,-0.23132896423339844,-1.367164134979248
1775728174964375600,14.33737548828125,0.08833539485931396,-0.3713531494140625,-1.1735317707061768
1775728174982904000,14.355904052734376,0.7489984035491943,-0.33490467071533203,-0.4182407855987549
1775728175001432300,14.374432373046876,0.5575491189956665,-0.2097930908203125,0.4867970943450928
1775728175019960600,14.392960693359376,0.39098048210144043,-0.12429046630859375,1.054201602935791
1775728175038489000,14.411489013671876,0.1648784875869751,-0.4711780548095703,0.4855818748474121
1775728175057017300,14.430017333984376,0.1323298215866089,0.22201251983642578,0.23883628845214844
1775728175075545900,14.4485458984375,0.11286664009094238,0.7273187637329102,-0.031047344207763672
1775728175094074000,14.46707421875,0.20301687717437744,0.6650304794311523,0.16060423851013184
1775728175112602600,14.4856025390625,-0.31296849250793457,0.3722705841064453,0.16444015502929688
1775728175131131000,14.504130859375,-0.13909190893173218,0.3677549362182617,0.2251267433166504
1775728175149659100,14.5226591796875,0.5682758688926697,0.7782459259033203,-0.040968894958496094
1775728175168187600,14.541187744140625,1.5803223848342896,0.4809741973876953,-0.7983431816101074
1775728175186716000,14.5597158203125,1.298715353012085,0.05107688903808594,-1.1409695148468018
1775728175205244400,14.578244384765625,-0.0637022852897644,-0.2139291763305664,-1.0003182888031006
1775728175223772700,14.596772705078125,-1.0760653018951416,-0.6558427810668945,-1.2297570705413818
1775728175242301000,14.615301025390625,-2.381779670715332,-1.351750373840332,-0.8440730571746826
1775728175260829200,14.6338291015625,-4.087391376495361,-0.736903190612793,-0.7945311069488525
1775728175279357700,14.652357666015625,-4.5500078201293945,-0.6657705307006836,-1.3341233730316162
1775728175297886200,14.67088623046875,-3.310645580291748,-1.3698549270629883,-0.823408842086792
1775728175316414500,14.68941455078125,-2.957925319671631,-1.5247983932495117,1.4916160106658936
1775728175334942700,14.707942626953125,-2.2567076683044434,-0.9319248199462891,3.308702230453491
1775728175353471200,14.72647119140625,-1.2137538194656372,-1.479935646057129,3.6405539512634277
1775728175371999500,14.74499951171875,-2.052508592605591,-1.9842700958251953,3.645303249359131
1775728175390527700,14.76352783203125,-2.933070659637451,-1.0242128372192383,2.933012008666992
1775728175409056300,14.78205615234375,-1.8560004234313965,-0.34374427795410156,1.518688440322876
1775728175427584500,14.80058447265625,0.36211204528808594,0.6757068634033203,2.1288063526153564
1775728175446113000,14.819113037109375,1.5063650608062744,0.8940887451171875,3.358031988143921
1775728175464641300,14.837641357421875,1.0491671562194824,0.45808887481689453,3.9162862300872803
1775728175483169800,14.856169677734375,-0.8503429889678955,-0.10192584991455078,2.719359874725342
1775728175501698000,14.874697998046875,-2.8126790523529053,-0.4566516876220703,0.13913512229919434
1775728175520226300,14.893226318359375,-3.4982337951660156,-1.0417718887329102,-2.06241774559021
1775728175538754800,14.9117548828125,-2.3731305599212646,-0.9225873947143555,-2.3891220092773438
1775728175557283000,14.930282958984375,-1.445723533630371,0.552525520324707,-1.2237179279327393
1775728175575811600,14.9488115234375,-1.975499153137207,1.378166675567627,-1.222143292427063
1775728175594339800,14.96733984375,-2.581420421600342,-0.16370773315429688,-2.2165727615356445
1775728175612868400,14.985868408203125,-2.8241584300994873,-0.3566446304321289,-1.8763126134872437
1775728175631396600,15.004396728515625,-1.9690117835998535,0.10791206359863281,-1.4270775318145752
1775728175649925000,15.022925048828125,-1.5230786800384521,0.22571563720703125,-1.7411186695098877
1775728175668453400,15.041453369140624,-1.4988431930541992,-0.08521652221679688,-1.6001266241073608
1775728175686981600,15.059981689453124,-0.5502715110778809,-0.43900203704833984,0.18846726417541504
1775728175705510100,15.07851025390625,0.3296656608581543,0.12518882751464844,-0.3393291234970093
1775728175724038400,15.097038330078124,1.106454849243164,0.36477184295654297,-1.9794527292251587
1775728175742567000,15.11556689453125,0.6959939002990723,0.045024871826171875,-2.4312705993652344
1775728175761095200,15.13409521484375,0.5231010913848877,-0.10054969787597656,-1.1896463632583618
1775728175779623700,15.152623779296874,0.8887746334075928,-0.20867633819580078,-1.5072721242904663
1775728175798152000,15.17115185546875,1.41304349899292,0.006866455078125,-1.756360411643982
1775728175816680400,15.189680419921874,1.217057704925537,0.18722820281982422,-1.9962587356567383
1775728175835208700,15.208208740234374,2.271757125854492,-0.08733844757080078,-2.2274255752563477
1775728175853737000,15.226737060546874,3.045642614364624,0.49429798126220703,-1.3967390060424805
1775728175872265500,15.245265380859376,1.4141380786895752,0.8134469985961914,-0.8866782188415527
1775728175890793700,15.263793701171876,0.3392331600189209,1.640671730041504,-1.321998119354248
1775728175909322200,15.282322265625,0.46306753158569336,1.1274189949035645,-1.7398135662078857
1775728175927850500,15.3008505859375,0.7591137886047363,0.4227008819580078,-1.1735122203826904
1775728175946379000,15.31937890625,0.23354840278625488,0.7304172515869141,-0.14216399192810059
1775728175964907300,15.3379072265625,0.09039020538330078,0.3479146957397461,-0.6457130908966064
1775728175983435800,15.356435791015626,1.1036405563354492,-0.020827293395996094,-0.604046106338501
1775728176001964000,15.374964111328126,1.7772409915924072,0.03229522705078125,0.5399982929229736
1775728176020492500,15.393492431640626,0.7400789260864258,-0.16607952117919922,0.8522976636886597
1775728176039020800,15.412020751953126,-1.0496431589126587,-0.45185279846191406,0.12105345726013184
1775728176057549000,15.430549072265626,-1.1918606758117676,-0.13336467742919922,-0.043767452239990234
1775728176076077600,15.44907763671875,-0.7252440452575684,-0.21850013732910156,0.10959744453430176
1775728176094605800,15.467605712890625,0.09804749488830566,-0.5111970901489258,-0.6482295989990234
1775728176113134300,15.48613427734375,-0.7238874435424805,-1.0725440979003906,-1.3783996105194092
1775728176131662600,15.50466259765625,-2.4902288913726807,-0.9133548736572266,-1.1566987037658691
1775728176150191000,15.523191162109375,-2.876176118850708,-0.02490520477294922,-0.6175093650817871
1775728176168719400,15.54171923828125,-1.4560998678207397,0.6389398574829102,-0.920637845993042
1775728176187247900,15.560247802734375,0.21183276176452637,-0.026224136352539062,-1.0930655002593994
1775728176205776100,15.578776123046875,-0.002557516098022461,0.16440677642822266,-1.3655390739440918
1775728176224304600,15.5973046875,0.4881865978240967,0.2906074523925781,-1.484750747680664
1775728176242833000,15.6158330078125,1.3326029777526855,0.5968189239501953,-0.5745651721954346
1775728176261361400,15.634361328125,1.2958543300628662,0.3750934600830078,-0.3475067615509033
1775728176279889700,15.6528896484375,-0.24378299713134766,0.014935493469238281,-0.8954858779907227
1775728176298418200,15.671418212890625,0.4087796211242676,0.45627403259277344,-0.5777220726013184
1775728176316946400,15.689946533203125,1.5990028381347656,0.008269309997558594,-0.9377915859222412
1775728176335475000,15.708474853515625,1.132993221282959,0.06946563720703125,-0.3660438060760498
1775728176354003200,15.727003173828125,-0.5006489753723145,0.5084676742553711,0.5123512744903564
1775728176372531500,15.745531494140625,-1.7874852418899536,0.2544736862182617,0.3899872303009033
1775728176391060000,15.76406005859375,-2.1908164024353027,-0.1785440444946289,0.125443696975708
1775728176409588200,15.782588134765625,-0.8997385501861572,-0.10776805877685547,0.030532121658325195
1775728176428116700,15.80111669921875,-0.8604779243469238,-0.38394832611083984,-0.4332759380340576
1775728176446645000,15.81964501953125,-1.2129290103912354,-0.9550666809082031,-1.295982837677002
1775728176465173500,15.838173583984375,0.17546391487121582,-0.6759967803955078,-0.4488043785095215
1775728176483701800,15.85670166015625,1.4773175716400146,-0.20466041564941406,0.05934643745422363
1775728176502230300,15.875230224609375,1.4992272853851318,-0.6416006088256836,-0.6901335716247559
1775728176520758500,15.893758544921875,0.6890323162078857,-0.3137235641479492,-0.40706610679626465
1775728176539287000,15.912287109375,0.7739043235778809,-0.12129402160644531,0.08908867835998535
1775728176557815300,15.930815185546875,0.8915402889251709,0.3233919143676758,0.9881422519683838
1775728176576343800,15.94934375,0.4556388854980469,0.6422605514526367,1.199558973312378
1775728176594872000,15.9678720703125,-0.13894224166870117,0.7271518707275391,0.9847705364227295
1775728176613400600,15.986400634765625,-0.035064697265625,0.07203865051269531,0.08577966690063477
1775728176631928800,16.0049287109375,0.11989569664001465,-0.0626840591430664,-0.5099592208862305
1775728176650457300,16.023457275390626,0.18065333366394043,0.25832366943359375,-0.4071817398071289
1775728176668985600,16.041985595703125,0.8516888618469238,0.2624931335449219,0.32030606269836426
1775728176687514000,16.06051416015625,0.9568719863891602,-0.09429931640625,0.2843451499938965
1775728176706042400,16.07904248046875,-0.07318663597106934,-0.03588104248046875,-0.5627193450927734
1775728176724571000,16.09757080078125,-0.3064396381378174,0.024631500244140625,-0.5924685001373291
1775728176743099100,16.11609912109375,-0.06789207458496094,0.3653688430786133,0.2710256576538086
1775728176761627600,16.134627685546874,0.20654845237731934,0.3978090286254883,0.7404673099517822
1775728176780156000,16.153156005859376,0.42321038246154785,0.1314401626586914,0.8841924667358398
1775728176798684400,16.171684326171874,0.5284264087677002,0.011514663696289062,0.870342493057251
1775728176817212700,16.190212646484376,0.735947847366333,-0.15425968170166016,0.3020944595336914
1775728176835741200,16.2087412109375,0.3606836795806885,-0.23848438262939453,-0.2760472297668457
1775728176854269400,16.22726953125,0.102569580078125,-0.2830524444580078,-0.03874564170837402
1775728176872798000,16.2457978515625,-0.32259464263916016,-0.5652084350585938,0.4393486976623535
1775728176891326200,16.264326171875,-0.3966681957244873,-0.3444404602050781,0.32077693939208984
1775728176909854700,16.282854736328126,0.6801557540893555,0.04365253448486328,0.24860143661499023
1775728176928383000,16.301383056640624,0.8366615772247314,0.013115882873535156,0.5463643074035645
1775728176946911500,16.319911376953126,-0.052498579025268555,-0.36076927185058594,0.40316247940063477
1775728176965439700,16.338439697265624,-0.18308234214782715,-0.08416557312011719,0.11633157730102539
1775728176983968300,16.35696826171875,0.443164587020874,0.3336496353149414,0.2492837905883789
1775728177002496500,16.37549658203125,0.1917879581451416,0.17016315460205078,0.06602931022644043
1775728177021025000,16.39402490234375,-0.34018421173095703,-0.15119552612304688,0.27883100509643555
1775728177039553300,16.41255322265625,-0.09870648384094238,-0.10661792755126953,0.1904134750366211
1775728177058081800,16.431081787109374,0.27419590950012207,0.040653228759765625,0.0821530818939209
1775728177076610000,16.449610107421876,0.32312583923339844,0.17290592193603516,0.2318117618560791
1775728177095138600,16.468138671875,-0.39031147956848145,-0.1892404556274414,0.18791747093200684
1775728177113666800,16.486666748046876,-0.3564600944519043,-0.3729686737060547,-0.1499943733215332
1775728177132195300,16.5051953125,0.03717517852783203,-0.39058685302734375,-0.3233518600463867
1775728177150723600,16.5237236328125,-0.6138622760772705,-0.2592954635620117,-0.33703160285949707
1775728177169252000,16.542252197265626,1.4567694664001465,-0.07547664642333984,0.7073647975921631
1775728177187780400,16.5607802734375,1.4155452251434326,-0.01456451416015625,0.3241312503814697
1775728177206308900,16.579308837890625,-0.0020270347595214844,0.2152843475341797,-0.1614089012145996
1775728177224837000,16.597837158203124,0.03439664840698242,0.22075748443603516,0.1869981288909912
1775728177243365600,16.61636572265625,0.37203288078308105,-0.1993236541748047,0.2556591033935547
1775728177261894100,16.63489404296875,-0.6501133441925049,-0.4196596145629883,-0.06220436096191406
1775728177280422400,16.65342236328125,-0.5278854370117188,-0.38077354431152344,-0.0726320743560791
1775728177298951000,16.671950927734375,0.3521902561187744,-0.009540557861328125,-0.08123970031738281
1775728177317479200,16.690479248046874,0.5648705959320068,0.3228158950805664,-0.19951367378234863
1775728177336007700,16.709007568359375,-0.1883244514465332,0.24537944793701172,0.5652036666870117
1775728177354536200,16.7275361328125,-0.9063708782196045,0.02061939239501953,0.958160400390625
1775728177373064400,16.746064453125,-0.36420631408691406,0.19762039184570312,0.28407835960388184
1775728177391593000,16.764593017578125,0.5699834823608398,0.051535606384277344,0.08104348182678223
1775728177410121200,16.783121337890623,0.4333066940307617,0.036334991455078125,0.2546055316925049
1775728177428649700,16.801649658203125,-0.3633599281311035,0.04893684387207031,0.06854009628295898
1775728177447178000,16.820177978515623,-0.27909231185913086,-0.007632255554199219,0.08295464515686035
1775728177465706500,16.83870654296875,0.21152234077453613,0.2674875259399414,0.15297889709472656
1775728177484234800,16.85723486328125,0.27555370330810547,0.12598609924316406,-0.0013692378997802734
1775728177502763300,16.87576318359375,0.1598191261291504,0.0163116455078125,0.01978921890258789
1775728177521291500,16.89429150390625,0.34229040145874023,0.4018726348876953,0.2595994472503662
1775728177539820000,16.912820068359373,0.6649022102355957,0.4470710754394531,-0.12175583839416504
1775728177558348300,16.931348388671875,0.5036170482635498,-0.05224800109863281,-0.42488861083984375
1775728177576876800,16.949876708984377,0.26578235626220703,-0.0926361083984375,-0.16741943359375
1775728177595405300,16.9684052734375,0.4281463623046875,0.34953784942626953,-0.399000883102417
1775728177613933600,16.98693359375,0.9906356334686279,0.2978954315185547,-0.9892911911010742
1775728177632462000,17.005462158203127,1.285865306854248,0.3301401138305664,-1.1698904037475586
1775728177650990300,17.023990234375,1.1170601844787598,0.27311229705810547,-0.6908681392669678
1775728177669518800,17.042518798828127,0.6761336326599121,0.2608985900878906,-0.8553454875946045
1775728177688047000,17.061047119140625,0.5817382335662842,0.370574951171875,-0.8157873153686523
1775728177706575600,17.07957568359375,1.3718197345733643,0.4042320251464844,-0.9206850528717041
1775728177725104000,17.098104248046877,2.0208771228790283,0.8251762390136719,-1.2058465480804443
1775728177743632400,17.11663232421875,1.6948206424713135,0.5572061538696289,-1.5142457485198975
1775728177762161000,17.135160888671876,1.3843185901641846,-0.2879180908203125,-0.9945847988128662
1775728177780689400,17.153689453125,1.2887120246887207,0.39409828186035156,-1.1388249397277832
1775728177799217700,17.1722177734375,2.0892281532287598,0.34804534912109375,-2.9536259174346924
1775728177817746200,17.19074609375,2.617084264755249,-0.04267120361328125,-4.075010299682617
1775728177836274400,17.2092744140625,2.352277994155884,-0.6171140670776367,-2.978572368621826
1775728177854803000,17.227802978515626,2.6042535305023193,-0.6556177139282227,-1.572483777999878
1775728177873331500,17.24633154296875,3.3985161781311035,-1.242508888244629,-1.5042335987091064
1775728177891859700,17.264859619140626,3.431522846221924,-1.982914924621582,-1.3866798877716064
1775728177910388200,17.28338818359375,2.2221808433532715,-1.5086688995361328,-0.6195311546325684
1775728177928916700,17.301916748046875,0.15913057327270508,-1.8037900924682617,-0.40196776390075684
1775728177947445200,17.3204453125,-3.2864058017730713,-1.6439943313598633,-0.03918957710266113
1775728177965973500,17.338973388671874,-3.5448553562164307,-0.690701961517334,0.0825645923614502
1775728177984502000,17.357501953125,-4.181001663208008,-0.10261106491088867,1.1748383045196533
1775728178003030500,17.376030517578126,-5.816830158233643,-0.5196194648742676,2.8440306186676025
1775728178021558800,17.394558837890624,-4.685410022735596,0.36034631729125977,3.698854446411133
1775728178040087300,17.41308740234375,-1.5281028747558594,1.021857738494873,2.5790202617645264
1775728178058615800,17.43161572265625,-0.7784085273742676,1.1139321327209473,1.4341498613357544
1775728178077144300,17.450144287109374,-1.8757314682006836,1.5460190773010254,1.589077115058899
1775728178095672600,17.468672607421876,-2.4868922233581543,1.6620945930480957,2.3512163162231445
1775728178114201000,17.487201171875,-2.8659372329711914,1.8826713562011719,2.433763027191162
1775728178132729600,17.5057294921875,-3.4981961250305176,1.7371950149536133,1.2910407781600952
1775728178151258000,17.524258056640626,-3.3479716777801514,1.6375765800476074,1.1598663330078125
1775728178169786600,17.54278662109375,-2.2492332458496094,1.9133577346801758,1.2756221294403076
1775728178188315000,17.56131494140625,-1.132791519165039,1.9490432739257812,1.1848769187927246
1775728178206843400,17.579843505859376,0.3937678337097168,2.1036276817321777,2.2169992923736572
1775728178225372000,17.598371826171874,0.4686770439147949,2.181992530822754,1.4475221633911133
1775728178243900400,17.616900390625,0.5909385681152344,2.1994457244873047,0.678206205368042
1775728178262428700,17.6354287109375,0.6820015907287598,2.6408491134643555,0.44565916061401367
1775728178280957200,17.653957275390624,1.0473523139953613,3.127603054046631,0.1591639518737793
1775728178299485700,17.672485595703126,-0.42196226119995117,2.5559020042419434,1.0466442108154297
1775728178318014200,17.69101416015625,-2.1951398849487305,1.1713671684265137,1.1766278743743896
1775728178336542700,17.709542724609374,-2.3868658542633057,-0.2611684799194336,-0.7652080059051514
1775728178355071200,17.7280712890625,0.3595120906829834,0.5421218872070312,-1.0741286277770996
1775728178373599700,17.746599853515626,1.45512056350708,1.9701623916625977,-0.36304283142089844
1775728178392128000,17.7651279296875,2.211212158203125,1.207122802734375,-0.545208215713501
1775728178410656500,17.783656494140626,1.9554245471954346,0.8203010559082031,-1.0653517246246338
1775728178429185000,17.80218505859375,0.47821617126464844,0.51885986328125,-1.3505346775054932
1775728178447713500,17.820713623046874,0.6476516723632812,-0.8803739547729492,-0.9244949817657471
1775728178466242000,17.839241943359376,0.1354691982269287,-1.2228765487670898,-1.0945641994476318
1775728178484770600,17.8577705078125,-0.2476506233215332,-1.0048389434814453,-0.7593815326690674
1775728178503299000,17.876299072265624,0.37930750846862793,-0.5379629135131836,-0.5324339866638184
1775728178521827600,17.89482763671875,3.6389622688293457,-0.027894020080566406,-0.20267415046691895
1775728178540356000,17.913356201171876,8.422770500183105,0.5072660446166992,2.4308154582977295
1775728178558884600,17.931884521484374,10.69293212890625,-3.184605598449707,2.982646942138672
1775728178577412900,17.950412841796876,8.464101791381836,-4.981039047241211,2.5856542587280273
1775728178595941400,17.96894140625,2.2076568603515625,-8.436275482177734,0.1536877155303955
1775728178614470000,17.987469970703124,-2.0687427520751953,-7.0479736328125,-3.774920701980591
1775728178632998400,18.005998291015626,-8.032942771911621,-4.6738481521606445,-6.905830383300781
1775728178651527000,18.02452685546875,-11.876872062683105,-2.1832504272460938,-6.5620832443237305
1775728178670055400,18.043055419921874,-8.53972053527832,-0.8670654296875,-2.1888632774353027
1775728178688584000,18.061583984375,-3.23932147026062,0.7679362297058105,3.000063419342041
1775728178707112400,18.080112548828126,4.336137294769287,0.6852798461914062,5.899118423461914
1775728178725641000,18.098640869140624,1.960294246673584,-3.026797294616699,4.344191074371338
1775728178744169500,18.11716943359375,-3.9679150581359863,-3.7356414794921875,1.2221529483795166
1775728178762698000,18.135697998046876,-4.3811869621276855,-3.1641674041748047,-2.718257188796997
1775728178781226500,18.1542265625,-1.9061321020126343,-2.5319509506225586,-1.5168704986572266
1775728178799755000,18.172755126953124,-1.8850311040878296,-0.25794315338134766,0.05832099914550781
1775728178818283500,18.191283447265626,-1.1908202171325684,0.09194374084472656,0.3516671657562256
1775728178836812000,18.20981201171875,0.31796014308929443,0.3743095397949219,1.4471728801727295
1775728178855340500,18.228340576171874,2.5288448333740234,1.2716927528381348,1.5136277675628662
1775728178873869000,18.246869140625,3.0510387420654297,0.836939811706543,0.39069151878356934
1775728178892397600,18.2653974609375,2.509007453918457,0.9888706207275391,0.07236027717590332
1775728178910926000,18.283926025390624,2.7644617557525635,1.8590497970581055,-1.3121395111083984
1775728178929454600,18.30245458984375,3.2860875129699707,1.999039649963379,-2.5800743103027344
1775728178947983000,18.320983154296876,2.4398818016052246,2.5647854804992676,-1.4184813499450684
1775728178966511600,18.33951171875,1.9472261667251587,2.90020751953125,0.48502683639526367
1775728178985040100,18.3580400390625,0.3319559097290039,2.359304428100586,0.6147415637969971
1775728179003568600,18.376568603515626,-0.03482627868652344,2.9063267707824707,0.16045498847961426
1775728179022097200,18.39509716796875,-0.7839043140411377,3.271327018737793,-0.2977561950683594
1775728179040625700,18.413625732421874,0.5318427085876465,2.481846332550049,-0.013260364532470703
1775728179059154200,18.432154296875,1.633823275566101,1.533015251159668,0.9959182739257812
1775728179077682700,18.4506826171875,-0.9924220442771912,1.0267438888549805,1.258248209953308
1775728179096211200,18.469211181640624,-3.9666671752929688,1.9189643859863281,-0.2590370178222656
1775728179114739700,18.48773974609375,-2.7328877449035645,1.983994960784912,0.17505598068237305
1775728179133268200,18.506268310546876,1.802546501159668,1.5170722007751465,1.4154763221740723
1775728179151796700,18.524796630859374,6.501666069030762,1.453627586364746,0.39648962020874023
1775728179170325200,18.5433251953125,0.6300175189971924,-1.3914918899536133,-2.5910778045654297
1775728179188854000,18.56185400390625,-5.14027214050293,-1.7076873779296875,-3.3563716411590576
1775728179207382300,18.58038232421875,-1.1171958446502686,-1.1280145645141602,-2.9542953968048096
1775728179225910800,18.598910888671874,3.327310800552368,-0.8528690338134766,-2.5888659954071045
1775728179244439300,18.617439208984376,7.578874588012695,1.096954345703125,-1.621669054031372
1775728179262968000,18.635968017578126,4.359611988067627,-3.516757011413574,-0.6952636241912842
1775728179281496600,18.65449658203125,-0.600250244140625,-5.270046234130859,1.408151626586914
1775728179300025000,18.673025146484374,3.405181407928467,-6.7903642654418945,0.6727964878082275
1775728179318553600,18.6915537109375,2.2697033882141113,-10.504725456237793,-0.8948259353637695
1775728179337082000,18.71008203125,-3.9849061965942383,-11.351041793823242,-4.140409469604492
1775728179355610600,18.728610595703124,-5.442385196685791,-7.867965221405029,-6.066606521606445
1775728179374139100,18.74713916015625,-2.6991727352142334,-2.0252227783203125,-1.9595770835876465
1775728179392667600,18.765667724609376,-1.3535003662109375,0.9496817588806152,2.1312243938446045
1775728179411196400,18.784196533203126,-2.088623523712158,1.4320507049560547,4.771485328674316
1775728179429725000,18.802724853515624,-3.926734447479248,0.5667915344238281,4.618861675262451
1775728179448253400,18.82125341796875,-6.306249141693115,0.5087575912475586,3.353447914123535
1775728179466782000,18.839781982421876,-7.427010536193848,1.4034671783447266,1.6025304794311523
1775728179485310500,18.858310546875,-6.153836727142334,2.3876380920410156,1.8691318035125732
1775728179503839000,18.8768388671875,-4.2119927406311035,3.428837299346924,3.3998215198516846
1775728179522367500,18.895367431640626,-3.3403141498565674,4.209412097930908,5.669374465942383
1775728179540896000,18.91389599609375,-2.296708583831787,4.572685241699219,6.119243621826172
1775728179559424500,18.932424560546874,-0.29978322982788086,4.075615406036377,4.787866592407227
1775728179577953300,18.950953369140624,1.111985206604004,3.5557098388671875,3.457568407058716
1775728179596481800,18.969481689453126,1.1227993965148926,4.000631332397461,2.5775904655456543
1775728179615010300,18.98801025390625,0.8045129776000977,4.428021430969238,1.1627848148345947
1775728179633538800,19.006538818359374,0.7996883392333984,2.827225685119629,-0.5256998538970947
1775728179652067300,19.0250673828125,1.7318427562713623,1.507850170135498,-2.1699323654174805
1775728179670596000,19.04359619140625,2.1625113487243652,0.5673236846923828,-2.4722542762756348
1775728179689124600,19.06212451171875,1.5506587028503418,1.21600341796875,-1.5662810802459717
1775728179707652900,19.08065283203125,0.6531095504760742,2.0298709869384766,-0.7799193859100342
1775728179726181600,19.099181640625,0.708341121673584,1.7232799530029297,-1.6555190086364746
1775728179744710100,19.117710205078126,1.8046131134033203,0.9486551284790039,-2.6795265674591064
1775728179763238700,19.13623876953125,1.9392585754394531,1.0058956146240234,-2.1489546298980713
1775728179781767400,19.154767333984374,4.638619899749756,-0.1859903335571289,-1.6834516525268555
1775728179800296000,19.1732958984375,6.194066047668457,-3.12479305267334,-0.2956259250640869
1775728179818824400,19.191824462890626,-0.951563835144043,-7.36189079284668,0.9163901805877686
1775728179837353000,19.21035302734375,-8.061982154846191,-7.493666648864746,1.843754529953003
1775728179855881500,19.228881591796874,7.818428993225098,-5.483078956604004,-0.12331819534301758
1775728179874410200,19.24741015625,11.164109230041504,-6.816225051879883,-4.1226115226745605
1775728179892938800,19.265938720703126,-9.219350814819336,-6.371341705322266,-3.3335580825805664
1775728179911467300,19.28446728515625,-10.529542922973633,-5.870647430419922,-3.7267189025878906
1775728179929995800,19.302995849609374,-3.6752214431762695,-3.4823760986328125,-1.5045137405395508
1775728179948524500,19.321524658203124,2.5827383995056152,-2.324917793273926,1.2808706760406494
1775728179967053000,19.340052978515626,1.5490057468414307,-3.1280908584594727,0.5648548603057861
1775728179985581600,19.35858154296875,-1.2801254987716675,-3.6474151611328125,-0.7304399013519287
1775728180004110000,19.377110107421874,-2.231666326522827,-1.6353235244750977,-1.0023725032806396
1775728180022638600,19.395638671875,-0.5560767650604248,0.7684850692749023,-1.2660605907440186
1775728180041167000,19.4141669921875,1.0880897045135498,2.2210283279418945,-0.8407442569732666
1775728180059695900,19.43269580078125,2.327813148498535,3.062932014465332,0.11085796356201172
1775728180078224400,19.451224365234374,2.8065567016601562,2.9853410720825195,0.09576559066772461
1775728180096753000,19.4697529296875,3.0513722896575928,3.7832250595092773,1.4709253311157227
1775728180115281400,19.488281494140626,2.6332955360412598,4.37425422668457,2.0036849975585938
1775728180133810200,19.50681005859375,1.3665111064910889,3.161233901977539,0.5772390365600586
1775728180152338700,19.525338623046874,0.5320584774017334,2.589107036590576,0.5825793743133545
1775728180170867200,19.5438671875,1.892503261566162,2.72701358795166,0.5325186252593994
1775728180189396000,19.56239599609375,1.7145013809204102,2.1776809692382812,0.6035182476043701
1775728180207924500,19.580924560546876,0.8161685466766357,2.6608619689941406,1.5205625295639038
1775728180226453000,19.599452880859374,-0.024856090545654297,2.229248046875,1.3645110130310059
1775728180244981500,19.6179814453125,0.25481152534484863,1.7237939834594727,0.4452950954437256
1775728180263510300,19.63651025390625,-0.2345714569091797,1.4228153228759766,-0.12468576431274414
1775728180282038800,19.655038818359376,-1.2781567573547363,1.3455328941345215,-1.1909689903259277
1775728180300567300,19.6735673828125,-1.0760560035705566,1.0431513786315918,-2.88452410697937
1775728180319095800,19.692095703125,0.2556803226470947,0.46663951873779297,-2.8023340702056885
1775728180337624600,19.71062451171875,-0.7603921890258789,-1.6505002975463867,-2.6699113845825195
1775728180356153000,19.729153076171876,3.207376480102539,-0.44353199005126953,-0.09109878540039062
1775728180374681600,19.747681640625,8.913917541503906,-2.4277515411376953,2.5185060501098633
1775728180393210400,19.76621044921875,5.178189277648926,-6.812283039093018,-1.227881908416748
1775728180411739000,19.78473876953125,1.8929791450500488,-13.317445755004883,-4.869699001312256
1775728180430267400,19.803267333984376,0.2504115104675293,-13.653964042663574,-5.031527996063232
1775728180448796200,19.821796142578126,-2.6600849628448486,-9.047200202941895,-4.0492448806762695
1775728180467324700,19.84032470703125,-4.58519983291626,-4.7376556396484375,-3.1998348236083984
1775728180485853200,19.858853271484374,-4.827385425567627,-1.9300055503845215,-0.36249375343322754
1775728180504381700,19.877381591796876,-4.208956241607666,0.08748292922973633,4.074563026428223
1775728180522910500,19.895910400390626,-3.2865328788757324,1.5621304512023926,7.285393714904785
1775728180541439000,19.91443896484375,-3.841853618621826,1.8672714233398438,5.325989723205566
1775728180559967700,19.9329677734375,-5.965075969696045,1.217789649963379,1.7812961339950562
1775728180578496300,19.951496337890624,-7.159198760986328,1.6216301918029785,0.04315590858459473
1775728180597024800,19.970024658203126,-6.406163215637207,3.0029330253601074,1.9165103435516357
1775728180615553300,19.98855322265625,-4.523706436157227,4.452738285064697,4.446811676025391
1775728180634082000,20.00708203125,-3.5757904052734375,5.0504045486450195,5.293724536895752
1775728180652610600,20.025610595703125,-3.078094482421875,4.984645366668701,4.643866539001465
1775728180671139300,20.044139404296875,-2.2275948524475098,4.7225213050842285,3.042236328125
1775728180689667800,20.062667724609376,-1.292757511138916,3.971651077270508,1.6021816730499268
1775728180708196400,20.0811962890625,-0.3438413143157959,3.406019687652588,1.1317837238311768
1775728180726725000,20.09972509765625,1.1003971099853516,3.1553878784179688,0.37543797492980957
1775728180745253600,20.118253662109375,2.6075069904327393,2.5028276443481445,-1.3005623817443848
1775728180763782100,20.1367822265625,3.7373180389404297,2.0860748291015625,-1.6457021236419678
1775728180782310700,20.155310546875,3.4380555152893066,0.9657769203186035,-1.3989129066467285
1775728180800839400,20.17383935546875,2.054918050765991,-0.3630523681640625,-1.5362038612365723
1775728180819368000,20.192367919921875,1.5028736591339111,-0.6293745040893555,-1.1277010440826416
1775728180837896700,20.210896728515625,2.131484031677246,-0.08360576629638672,-0.6001904010772705
1775728180856425200,20.22942529296875,3.395204782485962,1.1486425399780273,-0.3434770107269287
1775728180874954000,20.2479541015625,5.119714736938477,0.6867141723632812,0.049883365631103516
1775728180893482500,20.266482421875,5.614537715911865,-2.0295028686523438,0.6040384769439697
1775728180912011000,20.285010986328125,3.573462963104248,-5.337212562561035,0.049645185470581055
1775728180930539800,20.303539794921875,-1.0801143646240234,-7.755166053771973,-0.1774435043334961
1775728180949068300,20.322068359375,8.792317390441895,-8.804092407226562,-1.0773422718048096
1775728180967596800,20.3405966796875,3.859431743621826,-5.797394752502441,-2.9002535343170166
1775728180986125600,20.35912548828125,-12.813920974731445,-7.8716583251953125,-4.879611015319824
1775728181004654000,20.377654052734375,-13.587299346923828,-7.113759994506836,-3.3418877124786377
1775728181023182800,20.396182861328125,-4.691641807556152,-0.8415822982788086,1.1388564109802246
1775728181041711400,20.41471142578125,9.708426475524902,-0.5748710632324219,3.9064321517944336
1775728181060240100,20.433240234375,4.186217308044434,-1.7825613021850586,2.7463173866271973
1775728181078768600,20.4517685546875,-4.09666109085083,-2.744748115539551,0.262423038482666
1775728181097297200,20.470297119140625,-3.021860361099243,-2.40673828125,-3.1261661052703857
1775728181115826000,20.488825927734375,1.6880240440368652,-1.3748893737792969,-3.611927032470703
1775728181134354400,20.5073544921875,1.3495450019836426,0.3513336181640625,-1.3630146980285645
1775728181152883200,20.52588330078125,-0.6988472938537598,1.1688346862792969,-1.0220754146575928
1775728181171411700,20.54441162109375,0.01020050048828125,2.163545608520508,-0.3679995536804199
1775728181189940500,20.5629404296875,2.51265287399292,3.4611434936523438,1.078114628791809
1775728181208469000,20.581468994140625,3.5369930267333984,4.045440673828125,1.0363013744354248
1775728181226997800,20.599997802734375,2.3776960372924805,2.7514357566833496,-0.35497260093688965
1775728181245526300,20.6185263671875,1.3096579313278198,2.2897377014160156,-0.07076334953308105
1775728181264055000,20.637054931640623,0.96889328956604,2.3235902786254883,0.4327671527862549
1775728181282583600,20.65558349609375,1.2731797695159912,2.9179325103759766,0.6391220092773438
1775728181301112300,20.6741123046875,3.2730233669281006,3.2370853424072266,0.5737307071685791
1775728181319640800,20.692640869140625,1.7171430587768555,2.416933536529541,-0.7687704563140869
1775728181338169600,20.711169677734375,-1.3528971672058105,1.7278814315795898,-1.37532377243042
1775728181356698000,20.729697998046873,-2.479562759399414,2.8899478912353516,0.37279748916625977
1775728181375227000,20.748226806640623,-1.0177209377288818,2.9686498641967773,2.2892515659332275
1775728181393755400,20.76675537109375,0.22467422485351562,1.893540382385254,1.1630632877349854
1775728181412284000,20.785283935546875,0.9025716781616211,2.383856773376465,0.009354829788208008
1775728181430812700,20.803812744140625,1.5382094383239746,0.16308116912841797,-1.7606604099273682
1775728181449341200,20.822341064453123,2.6328067779541016,-0.30825138092041016,-1.0730946063995361
1775728181467870000,20.840869873046874,3.3559064865112305,-2.75301456451416,0.4518320560455322
1775728181486398500,20.8593984375,1.727447509765625,-4.326228141784668,-0.37917494773864746
1775728181504927200,20.87792724609375,2.5468974113464355,-4.469516754150391,-1.8446779251098633
1775728181523456000,20.8964560546875,3.113879680633545,-7.237205982208252,-3.0559628009796143
1775728181541984500,20.914984619140625,0.8478636741638184,-10.547137260437012,-2.595655918121338
1775728181560513300,20.93351318359375,1.326838493347168,-10.710512161254883,-4.9040913581848145
1775728181579041800,20.952041748046874,-1.2932376861572266,-7.547065734863281,-4.978864669799805
1775728181597570600,20.970570556640624,-4.741971492767334,-5.149486064910889,-2.566589593887329
1775728181616099300,20.989099365234374,-5.471972942352295,-1.9631671905517578,1.2523982524871826
1775728181634627800,21.0076279296875,-4.131368637084961,0.5026750564575195,3.912806987762451
1775728181653156600,21.026156494140626,-3.064973831176758,1.7400970458984375,5.789690971374512
1775728181671685000,21.04468505859375,-4.317951202392578,1.5703978538513184,4.857916831970215
1775728181690214000,21.0632138671875,-5.698349475860596,2.4790825843811035,3.38908314704895
1775728181708742400,21.081742431640624,-5.972631931304932,3.1499710083007812,2.6607046127319336
1775728181727271200,21.100271240234374,-5.29062557220459,3.874516010284424,2.641495704650879
1775728181745800000,21.118800048828124,-3.946371555328369,4.450375556945801,2.8139235973358154
1775728181764328400,21.137328369140626,-3.342489242553711,4.422697067260742,3.006680488586426
1775728181782857200,21.155857177734376,-2.8586268424987793,4.9225029945373535,3.788182020187378
1775728181801385700,21.1743857421875,-1.3230304718017578,5.0811614990234375,3.5721662044525146
1775728181819914500,21.19291455078125,0.44350433349609375,4.605142116546631,3.0309605598449707
1775728181838443300,21.211443359375,2.0829734802246094,3.1484575271606445,2.0847785472869873
1775728181856971800,21.2299716796875,3.3105411529541016,2.703615188598633,0.7053213119506836
1775728181875500500,21.24850048828125,2.8684616088867188,1.7112956047058105,-1.3580117225646973
1775728181894029000,21.267029052734376,1.2539434432983398,-0.5959367752075195,-2.9494757652282715
1775728181912557800,21.285557861328126,1.2561049461364746,-0.7975435256958008,-3.5455381870269775
1775728181931086300,21.30408642578125,2.4693994522094727,-0.406341552734375,-3.372682809829712
1775728181949615000,21.322614990234374,2.7813549041748047,0.8763866424560547,-1.437779188156128
1775728181968144000,21.341143798828124,2.0042574405670166,1.870619773864746,0.4811561107635498
1775728181986672400,21.35967236328125,1.4395570755004883,2.1627378463745117,0.39144468307495117
1775728182005201200,21.378201171875,2.1318790912628174,1.957273006439209,0.6700270175933838
1775728182023730000,21.39672998046875,4.702889442443848,-0.7235651016235352,0.377316951751709
1775728182042258400,21.415258544921876,-1.1172254085540771,-2.941288948059082,1.1328561305999756
1775728182060787200,21.433787109375,-5.790792465209961,-6.17085075378418,3.208540678024292
1775728182079315700,21.452315673828124,16.776208877563477,-9.907861709594727,4.605929851531982
1775728182097844500,21.470844482421874,19.20010757446289,-8.322961807250977,-0.07365536689758301
1775728182116373200,21.489373291015625,-13.073884010314941,-7.66379451751709,-6.906132698059082
1775728182134901800,21.50790185546875,-17.307315826416016,-7.964709281921387,-8.434322357177734
1775728182153430500,21.526430419921876,-12.217330932617188,-3.805438995361328,-1.8535988330841064
1775728182171959300,21.544959228515626,6.50602912902832,-0.5786552429199219,3.365753412246704
1775728182190487800,21.56348779296875,12.778947830200195,-2.4306259155273438,2.4076106548309326
1775728182209016600,21.5820166015625,-2.32707142829895,-3.923459053039551,0.6302626132965088
1775728182227545300,21.60054541015625,-5.449976444244385,-2.079568862915039,-2.1023449897766113
1775728182246073900,21.619073974609375,-1.0265341997146606,-0.737706184387207,-5.1691484451293945
1775728182264602600,21.6376025390625,1.5539886951446533,1.5157270431518555,-4.253695487976074
1775728182283131400,21.65613134765625,1.2295444011688232,2.4112629890441895,-1.5564703941345215
1775728182301660000,21.674659912109377,0.9132356643676758,3.100172996520996,0.6044957637786865
1775728182320188700,21.693188720703127,1.6603305339813232,3.9005236625671387,2.617124557495117
1775728182338717400,21.711717529296877,2.29900860786438,4.783667087554932,3.2055294513702393
1775728182357246000,21.730245849609375,2.105156421661377,3.8805437088012695,1.0398991107940674
1775728182375774700,21.748774658203125,0.5586543083190918,3.330443859100342,-0.8300182819366455
1775728182394303500,21.767303466796875,-0.7025556564331055,2.0502452850341797,-1.4920601844787598
1775728182412832000,21.78583203125,-0.8638215065002441,2.897402763366699,0.6153545379638672
1775728182431360800,21.80436083984375,0.2541170120239258,3.6121997833251953,1.969399094581604
1775728182449889500,21.8228896484375,2.458723545074463,3.799685478210449,2.0607922077178955
1775728182468418000,21.84141796875,3.613555431365967,2.0452136993408203,1.2865228652954102
1775728182486946800,21.85994677734375,-1.055211067199707,1.597944736480713,1.0027930736541748
1775728182505475600,21.8784755859375,-2.7588679790496826,1.5531539916992188,-1.1377687454223633
1775728182524004000,21.897004150390625,1.1880390644073486,1.6179351806640625,-2.7555992603302
1775728182542532900,21.915532958984375,4.295559883117676,0.41904449462890625,-2.2048773765563965
1775728182561061600,21.9340615234375,3.833409309387207,-1.0272340774536133,-1.8947117328643799
1775728182579590100,21.952590087890623,0.1434159278869629,-3.099639892578125,-0.8215947151184082
1775728182598119000,21.971118896484374,0.03900337219238281,-3.7012462615966797,-0.21982240676879883
1775728182616647700,21.989647705078124,8.32125473022461,-3.8911962509155273,-0.8569316864013672
1775728182635176200,22.00817626953125,7.543226718902588,-8.501399040222168,-3.701627492904663
1775728182653705000,22.026705078125,-2.269380569458008,-10.811661720275879,-4.37578821182251
1775728182672233700,22.045233642578125,-4.753424644470215,-10.69430923461914,-3.687983274459839
1775728182690762500,22.063762451171876,-1.8237838745117188,-7.188136577606201,-2.876753091812134
1775728182709291000,22.082291015625,-2.247753620147705,-4.242957592010498,-0.6450374126434326
1775728182727819800,22.10081982421875,-3.8312325477600098,-0.9939517974853516,0.4598522186279297
1775728182746348500,22.1193486328125,-5.3328938484191895,0.28597259521484375,2.2392189502716064
1775728182764877300,22.137877197265624,-5.360912322998047,1.3567895889282227,4.972537040710449
1775728182783405800,22.15640576171875,-4.476422309875488,1.8768954277038574,5.880673885345459
1775728182801934600,22.1749345703125,-4.308098793029785,2.344923973083496,4.620144844055176
1775728182820463400,22.19346337890625,-5.550556182861328,2.2761154174804688,1.7663037776947021
1775728182838992100,22.2119921875,-6.066635608673096,2.143197536468506,0.6062805652618408
1775728182857520600,22.230520751953126,-5.4983811378479,3.0330257415771484,1.6417572498321533
1775728182876049400,22.24904931640625,-4.614763259887695,3.2302122116088867,2.482546806335449
1775728182894578200,22.267578125,-3.5542829036712646,3.813448905944824,2.8887665271759033
1775728182913106700,22.286106689453124,-1.9870507717132568,4.148641586303711,3.25474214553833
1775728182931635500,22.304635498046874,-0.9977898597717285,4.198896408081055,3.1897013187408447
1775728182950164200,22.323164306640624,0.7424192428588867,4.141985893249512,2.9448981285095215
1775728182968692700,22.341692626953126,2.691736936569214,3.7564496994018555,1.9730383157730103
1775728182987221500,22.360221435546876,3.1933093070983887,3.1653709411621094,0.023026466369628906
1775728183005750300,22.378750244140626,3.196235179901123,3.19864559173584,-1.5028190612792969
1775728183024279000,22.397279052734376,3.124279022216797,2.038863182067871,-3.1516823768615723
1775728183042807800,22.415807861328126,3.343428373336792,1.4610629081726074,-3.578554391860962
1775728183061336300,22.43433642578125,3.860456705093384,1.2638463973999023,-1.9513380527496338
1775728183079865000,22.452864990234374,2.966169595718384,0.6452264785766602,-0.6476023197174072
1775728183098393900,22.471393798828124,1.9999737739562988,-0.5031576156616211,-0.8924083709716797
1775728183116922600,22.489922607421875,3.8364033699035645,-0.8719396591186523,-1.7846081256866455
1775728183135451400,22.508451416015625,5.196866035461426,-2.7089004516601562,-3.188694953918457
1775728183153980000,22.52697998046875,0.1789085865020752,-5.099963188171387,-2.1900634765625
1775728183172508700,22.5455087890625,-6.130373001098633,-5.939461708068848,0.13947200775146484
1775728183191037400,22.564037353515626,-4.90085506439209,-4.2226152420043945,2.8785645961761475
1775728183209566200,22.582566162109377,12.164754867553711,-6.154170989990234,0.8826467990875244
1775728183228094700,22.6010947265625,12.134632110595703,-6.324712753295898,0.48114800453186035
1775728183246623500,22.61962353515625,-6.973062515258789,-7.9029388427734375,1.8479914665222168
1775728183265152300,22.63815234375,-13.434351921081543,-6.005149841308594,-1.5930147171020508
1775728183283681000,22.656680908203125,-6.724997520446777,-3.530287742614746,-2.8596177101135254
1775728183302209800,22.675209716796875,2.0158205032348633,-2.110410690307617,-1.2035677433013916
1775728183320738300,22.69373828125,5.313266277313232,-2.1353225708007812,0.12512755393981934
1775728183339267000,22.71226708984375,1.7551722526550293,-1.6260690689086914,0.740459680557251
1775728183357795800,22.7307958984375,-0.8013993501663208,-1.0019779205322266,0.497882604598999
1775728183376324600,22.74932470703125,-1.219173789024353,-0.008014678955078125,-1.0266177654266357
1775728183394853400,22.767853271484373,-0.866765022277832,1.4908113479614258,-2.178197145462036
1775728183413382100,22.786382080078123,-0.3332878351211548,2.2673168182373047,-2.0369372367858887
1775728183431910700,22.80491064453125,0.709467887878418,2.707367420196533,-1.0801610946655273
1775728183450439400,22.823439453125,1.606992244720459,3.225674629211426,-0.13992071151733398
1775728183468968200,22.84196826171875,1.9400230646133423,3.4708032608032227,1.1252713203430176
1775728183487497000,22.8604970703125,1.497302532196045,3.768031120300293,1.6137030124664307
1775728183506025500,22.879025390625,0.3382842540740967,3.3727006912231445,1.0416316986083984
1775728183524554200,22.89755419921875,0.11862611770629883,2.9519758224487305,0.33071255683898926
1775728183543083000,22.9160830078125,0.5878231525421143,3.2780423164367676,0.45347046852111816
1775728183561611800,22.93461181640625,0.5739455223083496,4.027102470397949,0.605095386505127
1775728183580140500,22.953140625,2.195131778717041,3.9794540405273438,0.6102581024169922
1775728183598669300,22.97166943359375,2.880520820617676,2.1147146224975586,0.14304637908935547
1775728183617198000,22.990197998046874,-0.7656166553497314,0.5094766616821289,-0.0751488208770752
1775728183635726600,23.0087265625,-3.9986186027526855,1.162919044494629,-0.5327475070953369
1775728183654255400,23.02725537109375,-2.350478172302246,1.7020378112792969,-0.08893156051635742
1775728183672784100,23.0457841796875,1.2044332027435303,-0.37125205993652344,-1.2762067317962646
1775728183691313000,23.06431298828125,4.589478492736816,-1.2945709228515625,-0.9747529029846191
1775728183709841700,23.082841552734376,6.253978729248047,-3.607309341430664,-0.6572048664093018
1775728183728370200,23.1013701171875,4.69113302230835,-5.83415412902832,0.31314802169799805
1775728183746899000,23.11989892578125,6.399412631988525,-8.18468189239502,-0.39688682556152344
1775728183765427700,23.138427734375,4.826910495758057,-11.470353126525879,-4.821209907531738
1775728183783956500,23.15695654296875,-1.8372859954833984,-10.378589630126953,-6.494257926940918
1775728183802485200,23.1754853515625,-4.744494438171387,-7.591221332550049,-5.32956075668335
1775728183821014000,23.194013916015624,-5.1492509841918945,-4.816436290740967,-4.282066345214844
1775728183839542500,23.21254248046875,-5.162588596343994,-1.4801044464111328,-1.2406439781188965
1775728183858071300,23.2310712890625,-4.485621929168701,0.3090648651123047,2.1065518856048584
1775728183876600000,23.24960009765625,-3.940035104751587,2.6570258140563965,5.8593292236328125
1775728183895128800,23.26812890625,-3.9439845085144043,3.704686164855957,7.913351535797119
