time,seconds_elapsed,z,y,x
1775728160800722200,0.17372216796875,2.706282377243042,-9.32722282409668,0.4618147611618042
1775728160819250000,0.19225,2.6009981632232666,-9.442078590393066,0.42831525206565857
1775728160837778000,0.21077783203125,2.6057839393615723,-9.365508079528809,0.39960137009620667
1775728160856305700,0.2293056640625,2.833101987838745,-9.293723106384277,0.38763725757598877
1775728160874833400,0.24783349609375,2.8689942359924316,-9.336793899536133,0.5168496966362
1775728160893361400,0.266361328125,2.7182464599609375,-9.540184020996094,0.6293123364448547
1775728160911889200,0.28488916015625,2.581855535507202,-9.578469276428223,0.6221339106559753
1775728160930417000,0.3034169921875,2.801995277404785,-9.54496955871582,0.39481574296951294
1775728160948945000,0.32194482421875,2.895315408706665,-9.360722541809082,0.4307080805301666
1775728160967472600,0.34047265625,2.823530673980713,-9.262616157531738,0.4737788736820221
1775728160986000400,0.35900048828125,2.785245656967163,-9.255437850952148,0.4450650215148926
1775728161004528400,0.3775283203125,2.761317253112793,-9.286544799804688,0.4211367964744568
1775728161023056100,0.39605615234375,2.6943182945251465,-9.394221305847168,0.349352091550827
1775728161041584000,0.414584228515625,2.7565317153930664,-9.501898765563965,0.4331009089946747
1775728161060112000,0.43311181640625,2.816352367401123,-9.475577354431152,0.43549370765686035
1775728161078639900,0.451639892578125,2.775674343109131,-9.4660062789917,0.380458801984787
1775728161097167600,0.470167724609375,2.847458839416504,-9.415757179260254,0.28235307335853577
1775728161115695400,0.4886953125,2.7254250049591064,-9.370293617248535,0.33738797903060913
1775728161134223400,0.507223388671875,2.7182464599609375,-9.401400566101074,0.3924229145050049
1775728161152751000,0.525751220703125,2.737389087677002,-9.487542152404785,0.3756731450557709
1775728161171278800,0.54427880859375,2.806781053543091,-9.408578872680664,0.31345975399017334
1775728161189806800,0.562806884765625,2.837887763977051,-9.32722282409668,0.397208571434021
1775728161208334600,0.58133447265625,2.6608188152313232,-9.432506561279297,0.4378865361213684
1775728161226862600,0.599862548828125,2.6321048736572266,-9.480362892150879,0.3900300860404968
1775728161245390300,0.618390380859375,2.7517459392547607,-9.367900848388672,0.4091726839542389
1775728161263918300,0.63691845703125,2.816352367401123,-9.401400566101074,0.45224347710609436
1775728161282446000,0.655446044921875,2.806781053543091,-9.42054271697998,0.4139583110809326
1775728161300973800,0.673973876953125,2.6775684356689453,-9.346364974975586,0.3206382393836975
1775728161319501800,0.692501708984375,2.6703901290893555,-9.375079154968262,0.27756741642951965
1775728161338029600,0.711029541015625,2.746960401535034,-9.403793334960938,0.32542386651039124
1775728161356557600,0.7295576171875,2.770888566970825,-9.422935485839844,0.35892340540885925
1775728161375085300,0.748085205078125,2.744567632675171,-9.4061861038208,0.3206382393836975
1775728161393613300,0.76661328125,2.7900311946868896,-9.20997428894043,0.19621145725250244
1775728161412141000,0.78514111328125,2.6871397495269775,-9.42054271697998,0.33020952343940735
1775728161430669000,0.8036689453125,2.6847469806671143,-9.511469841003418,0.5024927258491516
1775728161449196800,0.82219677734375,2.7637102603912354,-9.415757179260254,0.38285163044929504
1775728161467724500,0.840724609375,2.816352367401123,-9.276973724365234,0.26081767678260803
1775728161486252500,0.85925244140625,2.7517459392547607,-9.521040916442871,0.09571290761232376
1775728161504780300,0.8777802734375,2.6799614429473877,-9.628718376159668,-0.09092725813388824
1775728161523308300,0.896308349609375,2.667997360229492,-9.559326171875,0.11724831163883209
1775728161541836000,0.9148359375,2.864208698272705,-9.379864692687988,0.6843472719192505
1775728161560363800,0.93336376953125,2.9958138465881348,-9.449256896972656,0.4139583110809326
1775728161578891800,0.951891845703125,2.7397818565368652,-9.518648147583008,-0.014356935396790504
1775728161597419500,0.97041943359375,2.557927370071411,-9.363115310668945,-0.007178467698395252
1775728161615947500,0.988947509765625,2.59621262550354,-9.22433090209961,-0.08614161610603333
1775728161634475300,1.007475341796875,2.6321048736572266,-9.439684867858887,0.031106693670153618
1775728161653003300,1.026003173828125,2.706282377243042,-9.475577354431152,0.3852444589138031
1775728161671531000,1.044531005859375,2.768495798110962,-9.41336441040039,0.16031911969184875
1775728161690058800,1.063058837890625,2.8689942359924316,-9.367900848388672,0.059820566326379776
1775728161708586800,1.081586669921875,2.833101987838745,-9.384650230407715,-0.11246266216039658
1775728161727114500,1.100114501953125,2.816352367401123,-9.379864692687988,-0.016749758273363113
1775728161745642500,1.118642578125,2.7661030292510986,-9.430113792419434,-0.0933200865983963
1775728161764170200,1.137170166015625,2.746960401535034,-9.389435768127441,-0.09810572862625122
1775728161782698200,1.1556982421875,2.8043880462646484,-9.351150512695312,-0.02632104977965355
1775728161801226000,1.17422607421875,2.7349963188171387,-9.456435203552246,-0.15314064919948578
1775728161819753700,1.192753662109375,2.7421748638153076,-9.387042999267578,-0.059820566326379776
1775728161838281700,1.21128173828125,2.7589244842529297,-9.367900848388672,-0.10289137065410614
1775728161856809700,1.229809814453125,2.691925525665283,-9.523433685302734,-0.06939185410737991
1775728161875337500,1.24833740234375,2.816352367401123,-9.489934921264648,-0.11964113265275955
1775728161893865500,1.266865478515625,2.65842604637146,-9.432506561279297,-0.064606212079525
1775728161912393200,1.285393310546875,2.7182464599609375,-9.387042999267578,0.12681959569454193
1775728161930921200,1.303921142578125,2.65842604637146,-9.449256896972656,-0.08135596662759781
1775728161949449000,1.322448974609375,2.6847469806671143,-9.418149948120117,-0.12681959569454193
1775728161967977000,1.34097705078125,2.754138946533203,-9.45164966583252,-0.09810572862625122
1775728161986504700,1.359504638671875,2.713460922241211,-9.370293617248535,0.02632104977965355
1775728162005032700,1.37803271484375,2.7086751461029053,-9.329615592956543,-0.02632104977965355
1775728162023560400,1.396560546875,2.7254250049591064,-9.286544799804688,-0.014356935396790504
1775728162042088400,1.41508837890625,3.0580272674560547,-9.365508079528809,-0.05024927482008934
1775728162060616200,1.4336162109375,2.6392834186553955,-9.485149383544922,-0.2919243574142456
1775728162079144000,1.45214404296875,2.562713146209717,-9.506684303283691,0.1818545162677765
1775728162097672000,1.470671875,2.7732813358306885,-9.430113792419434,0.05503492057323456
1775728162116199700,1.48919970703125,3.1585259437561035,-9.497113227844238,-0.16749759018421173
1775728162134727700,1.507727783203125,3.13220477104187,-9.561718940734863,-0.18903298676013947
1775728162153255700,1.526255615234375,2.313859462738037,-9.650253295898438,-0.07417750358581543
1775728162171783400,1.544783447265625,2.273181438446045,-9.535398483276367,-0.18903298676013947
1775728162190311400,1.5633115234375,2.541177749633789,-9.403793334960938,-0.5120640397071838
1775728162208839200,1.581839111328125,2.8809585571289062,-9.425328254699707,-0.6484549641609192
1775728162227367200,1.6003671875,2.4335005283355713,-9.056833267211914,-0.760917603969574
1775728162245895000,1.61889501953125,2.526820659637451,-9.272188186645508,-0.6197410821914673
1775728162264423000,1.6374228515625,2.6608188152313232,-9.66939640045166,-0.038285162299871445
1775728162282950700,1.65595068359375,2.8522446155548096,-9.966106414794922,0.1339980661869049
1775728162301478700,1.674478759765625,2.950350284576416,-9.260223388671875,-0.11724831163883209
1775728162320006400,1.69300634765625,2.6297121047973633,-9.126225471496582,-0.04785645380616188
1775728162338534400,1.711534423828125,2.6871397495269775,-9.841679573059082,-0.8614161610603333
1775728162357062100,1.730062255859375,2.548356056213379,-9.55214786529541,-0.914058268070221
1775728162375590100,1.748590087890625,2.5842485427856445,-8.898907661437988,-1.2610175609588623
1775728162394118000,1.767117919921875,2.414358139038086,-8.994620323181152,-0.9475577473640442
1775728162412646000,1.78564599609375,2.801995277404785,-9.236295700073242,-0.8949156403541565
1775728162431173600,1.804173583984375,2.9048867225646973,-9.600004196166992,-1.038485050201416
1775728162449701600,1.82270166015625,2.562713146209717,-9.4660062789917,-1.057627558708191
1775728162468229600,1.841229736328125,2.8187451362609863,-9.604789733886719,-0.8327022790908813
1775728162486757400,1.85975732421875,3.077169895172119,-9.399007797241211,-0.7848458290100098
1775728162505285400,1.878285400390625,2.667997360229492,-9.32722282409668,-0.3613162338733673
1775728162523813000,1.896813232421875,2.5938198566436768,-9.17886734008789,-0.15553347766399384
1775728162542341000,1.915341064453125,2.9623143672943115,-8.994620323181152,-1.4787644147872925
1775728162560868900,1.933868896484375,2.8354947566986084,-8.48734188079834,-2.2755744457244873
1775728162579396900,1.95239697265625,2.043470621109009,-9.884750366210938,-1.5002998113632202
1775728162597924600,1.970924560546875,3.249453067779541,-10.100104331970215,-1.1892328262329102
1775728162616452600,1.98945263671875,2.888136863708496,-9.34875774383545,-1.5098711252212524
1775728162634980600,2.007980712890625,2.5196423530578613,-9.437292098999023,-1.8951154947280884
1775728162653508400,2.02650830078125,2.313859462738037,-9.33440113067627,-0.8662018179893494
1775728162672036400,2.045036376953125,3.3236305713653564,-9.131011009216309,-0.47617170214653015
1775728162690564400,2.063564453125,3.2829527854919434,-8.855836868286133,-1.797009825706482
1775728162709092000,2.082092041015625,2.861815929412842,-8.848658561706543,-1.4859428405761719
1775728162727620000,2.1006201171875,2.610569477081299,-9.363115310668945,-1.6845471858978271
1775728162746147800,2.11914794921875,2.888136863708496,-9.403793334960938,-1.074377417564392
1775728162764675800,2.13767578125,3.2374889850616455,-9.353543281555176,-0.9858429431915283
1775728162783203800,2.156203857421875,2.9790642261505127,-8.767302513122559,-1.428515076637268
1775728162801731600,2.174731689453125,2.9240293502807617,-9.66221809387207,-2.148754835128784
1775728162820259600,2.193259521484375,2.68953275680542,-9.482755661010742,-0.6652047038078308
1775728162838787300,2.211787353515625,3.5772697925567627,-9.257830619812012,-0.6125625967979431
1775728162857315300,2.2303154296875,3.9218363761901855,-9.138189315795898,-0.5144568681716919
1775728162875843300,2.24884326171875,4.304687976837158,-9.53779125213623,0.13639089465141296
1775728162894371000,2.26737109375,5.3694939613342285,-9.018548965454102,-2.801995277404785
1775728162912899000,2.285899169921875,4.137190341949463,-8.614161491394043,-3.428914785385132
1775728162931427000,2.304427001953125,3.6370904445648193,-9.33440113067627,-1.9334007501602173
1775728162949954800,2.322954833984375,3.517449378967285,-9.028120040893555,-1.6869399547576904
1775728162968482800,2.34148291015625,2.7038896083831787,-8.681160926818848,-3.8189449310302734
1775728162987010800,2.3600107421875,2.251646041870117,-8.303094863891602,-3.562912940979004
1775728163005538600,2.37853857421875,2.744567632675171,-8.02074146270752,-1.5146567821502686
1775728163024066600,2.397066650390625,3.5844483375549316,-9.997213363647461,-2.2444677352905273
1775728163042594300,2.41559423828125,1.6630117893218994,-8.566305160522461,-1.6582261323928833
1775728163061122300,2.434122314453125,1.5098711252212524,-7.733603000640869,-1.093519926071167
1775728163079650300,2.452650390625,4.264009952545166,-8.453842163085938,-2.1415762901306152
1775728163098178000,2.471177978515625,1.6582261323928833,-9.028120040893555,-4.1659040451049805
1775728163116706000,2.4897060546875,6.661618232727051,-9.133403778076172,-2.1535403728485107
1775728163135234000,2.508234130859375,5.044070243835449,-8.616554260253906,-1.1413763761520386
1775728163153761800,2.52676171875,3.014956474304199,-9.023334503173828,-1.28255295753479
1775728163172289800,2.545289794921875,4.235296249389648,-9.104690551757812,-2.5986053943634033
1775728163190817800,2.56381787109375,4.225724697113037,-8.841479301452637,-1.8664016723632812
1775728163209345500,2.582345458984375,2.6153552532196045,-8.93240737915039,-2.557927370071411
1775728163227873500,2.60087353515625,2.5938198566436768,-9.035298347473145,-3.012563705444336
1775728163246401500,2.619401611328125,4.362115859985352,-8.470592498779297,-2.0506489276885986
1775728163264929300,2.63792919921875,3.8356947898864746,-8.707481384277344,-1.2610175609588623
1775728163283457300,2.656457275390625,2.723032236099243,-8.906085968017578,-2.2995026111602783
1775728163301985300,2.6749853515625,3.507878065109253,-8.855836868286133,-2.2995026111602783
1775728163320513000,2.693512939453125,2.9216363430023193,-8.865407943725586,-1.852044701576233
1775728163339041000,2.712041015625,3.8285162448883057,-8.908478736877441,-1.7587246894836426
1775728163357569000,2.730569091796875,3.9744784832000732,-8.94676399230957,-2.0578274726867676
1775728163376097000,2.749096923828125,4.091726779937744,-9.028120040893555,-1.9453648328781128
1775728163394624800,2.767624755859375,3.7902309894561768,-9.358329772949219,-2.045863389968872
1775728163413152800,2.78615283203125,3.1130621433258057,-9.18843936920166,-2.2372891902923584
1775728163431680800,2.8046806640625,3.0245277881622314,-8.894122123718262,-2.1032910346984863
1775728163450208500,2.82320849609375,3.2997024059295654,-9.008976936340332,-2.313859462738037
1775728163468736500,2.841736572265625,3.6083765029907227,-8.874979019165039,-2.045863389968872
1775728163487264500,2.860264404296875,3.4193434715270996,-8.879764556884766,-2.179861545562744
1775728163505792500,2.87879248046875,3.4480574131011963,-8.889336585998535,-2.3234307765960693
1775728163524320500,2.897320556640625,3.483949661254883,-8.901300430297852,-2.1678972244262695
1775728163542848300,2.91584814453125,3.5676984786987305,-9.030512809753418,-2.1846470832824707
1775728163561376300,2.934376220703125,3.6370904445648193,-8.992227554321289,-2.1128623485565186
1775728163579904300,2.952904296875,3.273381471633911,-8.695517539978027,-2.3306093215942383
1775728163598432000,2.971431884765625,3.084348440170288,-8.793622970581055,-2.2779672145843506
1775728163616960000,2.9899599609375,3.2709884643554688,-9.07119083404541,-2.038684844970703
1775728163635488000,3.008488037109375,3.3786656856536865,-8.992227554321289,-2.0865414142608643
1775728163654016000,3.02701611328125,3.4552359580993652,-8.872586250305176,-2.1296122074127197
1775728163672543700,3.045543701171875,3.335594654083252,-8.973084449768066,-2.0817556381225586
1775728163691071700,3.06407177734375,3.2446675300598145,-8.9850492477417,-2.146361827850342
1775728163709599700,3.082599853515625,3.4025938510894775,-8.872586250305176,-2.196611166000366
1775728163728127700,3.101127685546875,3.5605201721191406,-8.934800148010254,-2.1511476039886475
1775728163746655500,3.119655517578125,3.4121651649475098,-9.040083885192871,-2.266003131866455
1775728163765183500,3.13818359375,3.3308091163635254,-8.97787094116211,-2.1056840419769287
1775728163783711500,3.15671142578125,3.342773199081421,-8.918049812316895,-2.2061824798583984
1775728163802239500,3.175239501953125,3.2303106784820557,-8.858229637145996,-2.249253273010254
1775728163820767500,3.193767578125,3.2781670093536377,-8.834300994873047,-2.1511476039886475
1775728163839295200,3.212295166015625,3.3068809509277344,-9.001798629760742,-2.163111686706543
1775728163857823200,3.2308232421875,3.3930225372314453,-8.989834785461426,-2.3162522315979004
1775728163876351200,3.249351318359375,3.517449378967285,-8.882157325744629,-2.1200408935546875
1775728163894879200,3.267879150390625,3.3475589752197266,-8.999405860900879,-2.1678972244262695
1775728163913407000,3.286406982421875,3.2350962162017822,-9.157332420349121,-2.122433662414551
1775728163931935000,3.30493505859375,4.304687976837158,-9.011369705200195,-2.775674343109131
1775728163950463000,3.323462890625,3.964907169342041,-8.82233715057373,-1.9812572002410889
1775728163968991000,3.341990966796875,3.7878382205963135,-8.800801277160645,-2.115255117416382
1775728163996782800,3.369782958984375,3.5605201721191406,-9.087940216064453,-2.3617160320281982
1775728164015310800,3.388310791015625,3.373879909515381,-9.044869422912598,-2.2372891902923584
1775728164033838800,3.4068388671875,2.888136863708496,-8.764909744262695,-2.5603201389312744
1775728164052366600,3.42536669921875,3.665804386138916,-9.138189315795898,-1.9669002294540405
1775728164070894600,3.44389453125,3.720839262008667,-9.061619758605957,-1.9669002294540405
1775728164089422600,3.462422607421875,3.462414264678955,-8.839086532592773,-2.287538528442383
1775728164107950600,3.48095068359375,3.335594654083252,-8.635697364807129,-2.495713949203491
1775728164126478600,3.499478515625,3.4121651649475098,-8.673981666564941,-2.280359983444214
1775728164145006600,3.518006591796875,3.675375461578369,-8.669196128845215,-2.1032910346984863
1775728164163534600,3.53653466796875,3.6131622791290283,-8.72901725769043,-2.3976082801818848
1775728164182062600,3.5550625,3.713660717010498,-9.06401252746582,-2.4502503871917725
1775728164200590300,3.57359033203125,3.649054527282715,-9.073583602905273,-2.337787628173828
1775728164219118300,3.592118408203125,3.5222349166870117,-8.896514892578125,-2.2205393314361572
1775728164237646300,3.610646240234375,3.5461630821228027,-8.781659126281738,-2.1918256282806396
1775728164256174300,3.62917431640625,3.9361932277679443,-8.645268440246582,-2.1128623485565186
1775728164274702300,3.647702392578125,4.2592244148254395,-8.537590980529785,-2.3545374870300293
1775728164293230000,3.66622998046875,4.766502857208252,-8.126026153564453,-2.3856441974639893
1775728164311758300,3.68475830078125,5.66620397567749,-7.75753116607666,-2.7349963188171387
1775728164330286000,3.7032861328125,4.962714195251465,-7.200003147125244,-1.947757601737976
1775728164348814000,3.72181396484375,3.2231321334838867,-8.24566650390625,-1.0432707071304321
1775728164367342000,3.740342041015625,3.304488182067871,-8.403593063354492,-1.2849457263946533
1775728164385870000,3.7588701171875,4.649254322052002,-8.685946464538574,-1.5792629718780518
1775728164404398000,3.777398193359375,5.625525951385498,-8.398807525634766,-1.9645073413848877
1775728164422926000,3.795926025390625,5.862415313720703,-8.109275817871094,-2.9694929122924805
1775728164441453800,3.814453857421875,5.383851051330566,-8.322237014770508,-2.7493531703948975
1775728164459982000,3.832982177734375,4.945964336395264,-8.090133666992188,-1.7778671979904175
1775728164478510000,3.851510009765625,4.673182487487793,-8.461020469665527,-1.6558332443237305
1775728164497037800,3.870037841796875,4.934000492095947,-8.197810173034668,-2.148754835128784
1775728164515565800,3.88856591796875,5.857629776000977,-7.795815944671631,-2.321038007736206
1775728164534093800,3.90709375,5.745167255401611,-8.128418922424316,-2.201396942138672
1775728164552621800,3.925621826171875,4.1419758796691895,-8.178668022155762,-2.4765713214874268
1775728164571149800,3.94414990234375,2.7589244842529297,-8.090133666992188,-2.256431818008423
1775728164589677800,3.962677734375,2.885744094848633,-8.042277336120605,-1.2945170402526855
1775728164608205800,3.981205810546875,3.4002010822296143,-8.00638484954834,-0.5958128571510315
1775728164626733800,3.99973388671875,3.249453067779541,-8.585447311401367,-1.4572290182113647
1775728164645261800,4.01826171875,3.682554006576538,-8.788837432861328,-2.3090739250183105
1775728164663789800,4.036789794921875,3.373879909515381,-9.540184020996094,-2.335394859313965
1775728164682317800,4.05531787109375,1.6151553392410278,-9.999606132507324,-2.5148565769195557
1775728164700845800,4.073845703125,0.7513462901115417,-10.15753173828125,-2.8761727809906006
1775728164719373600,4.09237353515625,1.1653046607971191,-10.423135757446289,-4.627718925476074
1775728164737901600,4.110901611328125,2.4981069564819336,-9.315258979797363,-4.60857629776001
1775728164756429600,4.1294296875,3.184846878051758,-8.85344409942627,-4.321437835693359
1775728164774957600,4.14795751953125,2.163111686706543,-9.035298347473145,-4.486542224884033
1775728164793485600,4.166485595703125,0.3158525824546814,-8.889336585998535,-3.3882367610931396
1775728164812013600,4.185013671875,0.5455635786056519,-9.049654960632324,-2.6536402702331543
1775728164830541600,4.20354150390625,2.297109842300415,-9.061619758605957,-3.6681971549987793
1775728164849069600,4.222069580078125,2.1655044555664062,-8.937192916870117,-5.295316696166992
1775728164867597600,4.24059765625,1.069591760635376,-8.980263710021973,-5.209175109863281
1775728164886125600,4.25912548828125,1.0671988725662231,-8.7505521774292,-2.713460922241211
1775728164904653600,4.277653564453125,0.973878800868988,-8.336593627929688,-1.8616160154342651
1775728164923181600,4.296181640625,1.0336993932724,-8.693124771118164,-2.682354211807251
1775728164950973400,4.323973388671875,1.373480200767517,-8.719446182250977,-2.531606435775757
1775728164969501400,4.34250146484375,1.1389836072921753,-8.848658561706543,-2.744567632675171
1775728164988029700,4.36102978515625,1.1030912399291992,-8.812766075134277,-3.1178479194641113
1775728165006557700,4.3795576171875,1.3543375730514526,-8.719446182250977,-2.3617160320281982
1775728165025085400,4.39808544921875,1.6701902151107788,-8.673981666564941,-1.9836499691009521
1775728165043613400,4.416613525390625,1.7443677186965942,-9.473184585571289,-3.029313564300537
1775728165062141400,4.435141357421875,2.2444677352905273,-9.951749801635742,-3.3643085956573486
1775728165080669700,4.453669677734375,2.541177749633789,-9.91107177734375,-2.462214469909668
1775728165099197700,4.47219775390625,3.0388846397399902,-9.860821723937988,-2.4287149906158447
1775728165117725400,4.490725341796875,3.9218363761901855,-9.437292098999023,-3.077169895172119
1775728165136253400,4.50925341796875,5.008177757263184,-10.030712127685547,-4.144368648529053
1775728165154781400,4.527781494140625,4.871787071228027,-11.01416301727295,-5.6446685791015625
1775728165173309700,4.546309814453125,3.3475589752197266,-12.019147872924805,-5.699703693389893
1775728165191837700,4.564837646484375,1.423729419708252,-12.911670684814453,-5.496313571929932
1775728165210365700,4.58336572265625,1.2370892763137817,-13.414163589477539,-5.563312530517578
1775728165228893700,4.601893798828125,3.8811583518981934,-13.773087501525879,-5.6207404136657715
1775728165247421700,4.620421630859375,7.877171993255615,-12.63888931274414,-4.957928657531738
1775728165265949700,4.63894970703125,8.772088050842285,-13.021740913391113,-5.2977094650268555
1775728165284477700,4.657477783203125,4.232903480529785,-13.993227005004883,-3.108276605606079
1775728165303005700,4.676005615234375,0.47617170214653015,-14.47179126739502,-0.5886343717575073
1775728165321533700,4.69453369140625,-1.1437692642211914,-14.58186149597168,-1.9094724655151367
1775728165340061700,4.713061767578125,-0.2273181527853012,-13.502697944641113,-5.017749309539795
1775728165358589700,4.731589599609375,1.703689694404602,-11.310873031616211,-5.857629776000977
1775728165377117700,4.75011767578125,3.5270206928253174,-12.21057415008545,-6.032305717468262
1775728165395645700,4.768645751953125,4.264009952545166,-10.887343406677246,-3.2279176712036133
1775728165414173700,4.787173583984375,5.647061347961426,-9.494720458984375,-0.9212366938591003
1775728165432701700,4.80570166015625,5.970092296600342,-8.315058708190918,-1.2993026971817017
1775728165451229700,4.824229736328125,2.9838497638702393,-8.585447311401367,-2.9527430534362793
1775728165469757700,4.8427578125,0.8087740540504456,-9.609575271606445,-4.319045066833496
1775728165488285700,4.86128564453125,-0.34217363595962524,-8.257631301879883,-2.943171739578247
1775728165506814000,4.87981396484375,0.7848458290100098,-5.125426292419434,-0.5934200286865234
1775728165525342000,4.898342041015625,2.335394859313965,-3.8045880794525146,0.07657032459974289
1775728165543870000,4.916869873046875,2.0003998279571533,-3.4432718753814697,1.0959128141403198
1775728165562398000,4.93539794921875,1.7874385118484497,-2.9790642261505127,2.366501569747925
1775728165580926000,4.953926025390625,2.4406790733337402,-3.22552490234375,1.672582983970642
1775728165599454000,4.972453857421875,3.6681971549987793,-2.3234307765960693,1.0719845294952393
1775728165617982000,4.99098193359375,4.7473602294921875,-1.7563318014144897,0.30149564146995544
1775728165636510000,5.009510009765625,5.929414749145508,-1.923829436302185,0.064606212079525
1775728165655038000,5.028037841796875,5.649454116821289,-2.4358935356140137,0.48574298620224
1775728165673566000,5.04656591796875,5.946164131164551,-2.7038896083831787,-0.009571290574967861
1775728165692094000,5.065093994140625,10.200602531433105,-2.610569477081299,-2.0171494483947754
1775728165710622000,5.0836220703125,19.71685791015625,-4.398007869720459,-4.622933387756348
1775728165729150200,5.102150146484375,17.525033950805664,-8.427521705627441,-0.6364908218383789
1775728165747678200,5.12067822265625,2.6177480220794678,-10.750951766967773,1.2011969089508057
1775728165766206200,5.139206298828125,0.19621145725250244,-8.085348129272461,1.4979069232940674
1775728165784734200,5.157734130859375,4.7473602294921875,-9.55214786529541,-0.849452018737793
1775728165803262200,5.17626220703125,9.379864692687988,-8.776873588562012,-3.902693748474121
1775728165821790200,5.194790283203125,6.680760860443115,-10.387243270874023,-1.6869399547576904
1775728165840318200,5.213318115234375,4.240081787109375,-11.20798110961914,-1.3040883541107178
1775728165858846500,5.231846435546875,3.5126636028289795,-10.86580753326416,-2.589034080505371
1775728165877374500,5.25037451171875,3.871587038040161,-9.367900848388672,-3.3571300506591797
1775728165895902500,5.26890234375,5.32403039932251,-8.61894702911377,-3.651447296142578
1775728165914430500,5.287430419921875,4.5822553634643555,-10.016355514526367,-3.5198421478271484
1775728165932958500,5.30595849609375,2.5196423530578613,-10.712666511535645,-3.0412776470184326
1775728165951486500,5.324486572265625,2.4047868251800537,-10.459028244018555,-1.6055840253829956
1775728165970014500,5.343014404296875,4.1036906242370605,-9.104690551757812,-1.9214365482330322
1775728165988542700,5.361542724609375,3.9912281036376953,-8.599804878234863,-2.091326951980591
1775728166007070700,5.38007080078125,2.7804598808288574,-8.166703224182129,-2.1535403728485107
1775728166025598700,5.3985986328125,2.785245656967163,-8.585447311401367,-3.8189449310302734
1775728166044126700,5.417126708984375,3.060420274734497,-8.855836868286133,-4.082155227661133
1775728166062654700,5.43565478515625,2.589034080505371,-8.193024635314941,-3.510270833969116
1775728166081183000,5.454182861328125,2.2683959007263184,-8.183453559875488,-3.8668015003204346
1775728166099711000,5.4727109375,2.6536402702331543,-7.9728851318359375,-3.2542388439178467
1775728166118239000,5.491239013671875,2.4813570976257324,-7.733603000640869,-2.8139593601226807
1775728166136767000,5.50976708984375,2.093719720840454,-7.8317084312438965,-3.658625841140747
1775728166155295000,5.528294921875,1.4333007335662842,-8.37727165222168,-3.3092737197875977
1775728166173823200,5.5468232421875,1.3950155973434448,-8.528019905090332,-2.3784656524658203
1775728166192351200,5.565351318359375,1.1820544004440308,-8.34855842590332,-2.1511476039886475
1775728166210879200,5.583879150390625,1.7132610082626343,-8.188239097595215,-1.5744773149490356
1775728166229407200,5.6024072265625,2.7349963188171387,-8.37009334564209,-1.4931213855743408
1775728166247935200,5.620935302734375,2.6727828979492188,-8.937192916870117,-2.124826431274414
1775728166266463200,5.639463134765625,1.8807586431503296,-9.367900848388672,-2.7326035499572754
1775728166284991500,5.657991455078125,1.0217353105545044,-10.456634521484375,-3.3379876613616943
1775728166303519500,5.67651953125,1.3782658576965332,-11.643474578857422,-3.871587038040161
1775728166322047500,5.695047607421875,2.7589244842529297,-11.559725761413574,-3.85483717918396
1775728166340575500,5.713575439453125,5.60399055480957,-11.554940223693848,-3.4265220165252686
1775728166359103700,5.732103759765625,6.173482418060303,-12.368500709533691,-3.0867412090301514
1775728166377631700,5.7506318359375,4.362115859985352,-14.199009895324707,-2.306680917739868
1775728166396159700,5.76915966796875,2.029113531112671,-16.103696823120117,-1.6247265338897705
1775728166414687700,5.787687744140625,-0.1986042857170105,-16.599010467529297,-3.7328033447265625
1775728166433215700,5.8062158203125,-0.12203395366668701,-15.469598770141602,-5.096712112426758
1775728166451744000,5.824743896484375,2.4335005283355713,-13.294522285461426,-3.9290146827697754
1775728166470272000,5.84327197265625,6.262016773223877,-11.85165023803711,-1.9166508913040161
1775728166488800000,5.861800048828125,10.083354949951172,-11.48794174194336,-1.2442678213119507
1775728166507328000,5.880327880859375,12.136396408081055,-11.648261070251465,-2.5746772289276123
1775728166525856300,5.898856201171875,9.774680137634277,-14.050654411315918,-5.38624382019043
1775728166544384300,5.91738427734375,4.429114818572998,-15.555740356445312,-7.70967435836792
1775728166562912300,5.935912353515625,-1.7826528549194336,-14.751751899719238,-7.343572616577148
1775728166581440500,5.9544404296875,-3.7160534858703613,-11.672188758850098,-4.9052863121032715
1775728166599968500,5.972968505859375,-2.967100143432617,-9.513862609863281,-1.6630117893218994
1775728166618496500,5.99149658203125,-2.861815929412842,-6.829115867614746,1.856830358505249
1775728166637024500,6.0100244140625,-2.1272194385528564,-4.436293125152588,4.642076015472412
1775728166655552500,6.028552490234375,1.7395820617675781,-3.8668015003204346,3.8739798069000244
1775728166674080800,6.047080810546875,6.838686943054199,-3.0628130435943604,0.7369893789291382
1775728166692608800,6.06560888671875,8.693124771118164,-4.019941806793213,-3.304488182067871
1775728166711136800,6.08413671875,4.883750915527344,-4.4721856117248535,-4.06540584564209
1775728166729664800,6.102664794921875,1.6654045581817627,-4.3549370765686035,-2.1750757694244385
1775728166748193000,6.121193115234375,1.3184453248977661,-4.333401679992676,-1.7132610082626343
1775728166766721000,6.139720947265625,0.9092726111412048,-3.603590965270996,-1.7443677186965942
1775728166785249300,6.158249267578125,1.1485549211502075,-3.012563705444336,-2.3234307765960693
1775728166803777300,6.17677734375,2.0554347038269043,-2.9623143672943115,-1.2873386144638062
1775728166822305300,6.19530517578125,2.723032236099243,-3.366701364517212,-0.4498506486415863
1775728166840833300,6.213833251953125,3.043670415878296,-4.701896667480469,0.3326023519039154
1775728166859361500,6.232361572265625,3.775874137878418,-4.486542224884033,-0.2967100143432617
1775728166877889500,6.2508896484375,5.79780912399292,-4.596612453460693,-0.882951557636261
1775728166896417500,6.26941748046875,6.204588890075684,-4.443471431732178,-0.31345975399017334
1775728166914945500,6.287945556640625,7.389036178588867,-4.036691665649414,0.44745782017707825
1775728166933473800,6.306473876953125,17.118253707885742,-3.562912940979004,1.0145567655563354
1775728166952001800,6.325001708984375,20.877378463745117,-5.197210788726807,3.3068809509277344
1775728166970529800,6.34352978515625,3.6849467754364014,-9.365508079528809,1.0456634759902954
1775728166989057800,6.362057861328125,8.295916557312012,-10.53081226348877,-5.051248550415039
1775728167007586000,6.3805859375,5.166104316711426,-14.088939666748047,-7.427321434020996
1775728167026114000,6.399114013671875,2.8522446155548096,-12.174681663513184,-6.496513366699219
1775728167044642300,6.417642333984375,6.704689025878906,-10.425528526306152,-3.84765887260437
1775728167063170300,6.43617041015625,4.249652862548828,-9.920642852783203,-2.66560435295105
1775728167081698300,6.4546982421875,3.9361932277679443,-8.817551612854004,-3.1992039680480957
1775728167100226600,6.4732265625,4.053441524505615,-8.080561637878418,-2.699103832244873
1775728167118754600,6.491754638671875,3.4193434715270996,-8.178668022155762,-0.6652047038078308
1775728167137282600,6.510282470703125,1.222732424736023,-8.965906143188477,-1.0432707071304321
1775728167155810800,6.528810791015625,2.117648124694824,-9.57607650756836,-1.7371892929077148
1775728167174338800,6.5473388671875,2.4765713214874268,-10.229316711425781,-2.392822742462158
1775728167192866800,6.56586669921875,2.2444677352905273,-10.430314064025879,-3.735196113586426
1775728167211395000,6.58439501953125,2.2468605041503906,-10.219745635986328,-4.6301116943359375
1775728167229923000,6.602923095703125,3.2279176712036133,-9.243474006652832,-3.8428730964660645
1775728167248451000,6.621451171875,3.359523057937622,-8.508877754211426,-2.8283164501190186
1775728167266979300,6.639979248046875,1.856830358505249,-8.295916557312012,-3.0388846397399902
1775728167285507300,6.65850732421875,1.6295121908187866,-7.3675007820129395,-3.5676984786987305
1775728167304035300,6.677035400390625,2.2755744457244873,-6.503692150115967,-3.586841106414795
1775728167322563600,6.6955634765625,1.3184453248977661,-6.206982135772705,-4.053441524505615
1775728167341091600,6.714091552734375,0.7776673436164856,-6.561119556427002,-3.273381471633911
1775728167359619600,6.73261962890625,1.5170495510101318,-6.398407936096191,-0.9044869542121887
1775728167378147800,6.75114794921875,1.825723648071289,-6.664011001586914,-1.2634103298187256
1775728167396675800,6.76967578125,1.0504491329193115,-7.278966426849365,-3.2685956954956055
1775728167415203800,6.788203857421875,0.5814558863639832,-7.738388538360596,-4.505684852600098
1775728167433732000,6.806732177734375,1.4572290182113647,-8.776873588562012,-4.319045066833496
1775728167452260000,6.825260009765625,2.3330020904541016,-9.047262191772461,-3.2997024059295654
1775728167470788400,6.843788330078125,2.344966173171997,-9.865608215332031,-3.0867412090301514
1775728167489316400,6.86231640625,2.242074728012085,-11.655439376831055,-4.316651821136475
1775728167507844400,6.88084423828125,2.641676187515259,-12.626925468444824,-4.701896667480469
1775728167526372600,6.89937255859375,1.789831280708313,-12.681960105895996,-4.457828521728516
1775728167544900600,6.917900634765625,1.4883357286453247,-12.5144624710083,-3.2781670093536377
1775728167563428900,6.936428955078125,1.4069796800613403,-13.03370475769043,-2.682354211807251
1775728167581956900,6.954956787109375,2.400001049041748,-13.330414772033691,-2.5052852630615234
1775728167600484900,6.97348486328125,3.2231321334838867,-14.06979751586914,-2.8115665912628174
1775728167619013000,6.99201318359375,2.5148565769195557,-14.885749816894531,-3.0005996227264404
1775728167637541000,7.010541015625,0.42352959513664246,-14.110475540161133,-3.242274761199951
1775728167656069400,7.0290693359375,1.495514154434204,-13.404592514038086,-3.0891339778900146
1775728167674597400,7.047597412109375,5.568098068237305,-12.418749809265137,-3.2853455543518066
1775728167693125600,7.066125732421875,9.131011009216309,-10.96869945526123,-3.555734395980835
1775728167711653600,7.084653564453125,10.427921295166016,-10.875378608703613,-3.2446675300598145
1775728167730181600,7.103181640625,10.116853713989258,-12.861421585083008,-3.7902309894561768
1775728167748710000,7.1217099609375,6.474977970123291,-14.584254264831543,-4.625326156616211
1775728167767238000,7.14023779296875,0.6867401003837585,-14.30907917022705,-4.898108005523682
1775728167785766100,7.15876611328125,-3.2853455543518066,-13.423734664916992,-4.48414945602417
1775728167804294100,7.177294189453125,-2.5842485427856445,-12.081361770629883,-3.627519130706787
1775728167822822400,7.195822509765625,-1.1676974296569824,-9.978070259094238,-1.526620864868164
1775728167841350400,7.214350341796875,-2.021935224533081,-7.29093074798584,0.9332008361816406
1775728167859878400,7.23287841796875,-0.4953143000602722,-5.551348686218262,2.1918256282806396
1775728167878406700,7.25140673828125,5.594419479370117,-4.074976921081543,1.7611174583435059
1775728167896934700,7.2699345703125,9.908679008483887,-4.924428939819336,-0.4163511395454407
1775728167915463000,7.288462890625,5.804987907409668,-6.812366008758545,-3.0723843574523926
1775728167933991000,7.306990966796875,1.4763715267181396,-7.101897716522217,-4.752145767211914
1775728167952519200,7.325519287109375,-0.15553347766399384,-6.080162525177002,-3.397808074951172
1775728167971047200,7.344047119140625,0.6963114142417908,-4.350151538848877,-1.7778671979904175
1775728167989575400,7.362575439453125,2.1678972244262695,-2.830709218978882,-1.2418749332427979
1775728168008103400,7.381103515625,2.579462766647339,-2.9312076568603516,-1.3543375730514526
1775728168026631400,7.39963134765625,1.3304094076156616,-2.4406790733337402,-0.20099709928035736
1775728168045159700,7.41815966796875,1.1485549211502075,-1.8783657550811768,0.8398807644844055
1775728168063687700,7.436687744140625,3.507878065109253,-1.8161523342132568,0.6819544434547424
1775728168082216000,7.4552158203125,4.577469825744629,-2.3712873458862305,-0.6101697683334351
1775728168100744000,7.473743896484375,4.816751956939697,-2.857030153274536,-0.727418065071106
1775728168119272200,7.492272216796875,5.637490272521973,-2.785245656967163,-0.4259224236011505
1775728168137800200,7.51080029296875,10.021141052246094,-2.1367905139923096,0.14117653667926788
1775728168156328400,7.529328369140625,21.722043991088867,-3.0484559535980225,2.1990039348602295
1775728168174856400,7.5478564453125,10.789237022399902,-6.941578388214111,5.453242778778076
1775728168193384400,7.566384521484375,0.8901300430297852,-8.429914474487305,1.0600204467773438
1775728168211912700,7.58491259765625,9.858428955078125,-12.153145790100098,-6.742974281311035
1775728168230440700,7.603440673828125,8.394021987915039,-12.842279434204102,-5.905486106872559
1775728168248969000,7.621968994140625,3.436093330383301,-13.232309341430664,-4.237689018249512
1775728168267497000,7.6404970703125,5.015356063842773,-12.693923950195312,-4.596612453460693
1775728168286025200,7.659025146484375,4.462614059448242,-10.581061363220215,-4.364508628845215
1775728168304553200,7.67755322265625,3.8117663860321045,-9.09990406036377,-4.429114818572998
1775728168323081500,7.69608154296875,4.051048755645752,-8.669196128845215,-3.9984066486358643
1775728168341609500,7.714609375,3.105883836746216,-8.166703224182129,-1.7682958841323853
1775728168360137700,7.7331376953125,2.407179594039917,-7.75753116607666,0.3278166949748993
1775728168378665700,7.751665771484375,2.0243279933929443,-8.458627700805664,-0.4091726839542389
1775728168397194000,7.770194091796875,2.59621262550354,-9.80817985534668,-2.53399920463562
1775728168415722000,7.788721923828125,2.146361827850342,-10.554740905761719,-4.000799655914307
1775728168434250200,7.807250244140625,1.4189438819885254,-10.13599681854248,-4.615755081176758
1775728168452778200,7.8257783203125,1.4787644147872925,-10.164710998535156,-4.754538536071777
1775728168471306500,7.844306396484375,1.97407865524292,-8.405985832214355,-3.589233875274658
1775728168489834500,7.86283447265625,2.445464849472046,-7.9250288009643555,-3.242274761199951
1775728168508362800,7.88136279296875,1.7850457429885864,-7.946564197540283,-3.9696927070617676
1775728168526890800,7.899890869140625,1.373480200767517,-7.558926582336426,-4.295116424560547
1775728168545419000,7.9184189453125,1.9022940397262573,-6.8410797119140625,-4.295116424560547
1775728168563947300,7.936947265625,2.1822543144226074,-6.4510498046875,-3.895515203475952
1775728168582475300,7.955475341796875,1.789831280708313,-6.295516490936279,-3.957728624343872
1775728168601003500,7.97400341796875,1.1222338676452637,-6.63051176071167,-3.146561861038208
1775728168619531500,7.992531494140625,0.7680960893630981,-7.226324558258057,-2.5986053943634033
1775728168638059800,8.011059814453125,0.7728816866874695,-8.051848411560059,-1.6582261323928833
1775728168656587800,8.029587890625,1.038485050201416,-8.420342445373535,-0.7704889178276062
1775728168675116000,8.048115966796875,1.4165509939193726,-9.159725189208984,-1.9980069398880005
1775728168693644000,8.06664404296875,2.5148565769195557,-10.109675407409668,-2.3784656524658203
1775728168712172300,8.08517236328125,2.9479575157165527,-12.000005722045898,-2.792423963546753
1775728168730700300,8.1037001953125,3.022135019302368,-12.736994743347168,-4.35254430770874
1775728168749228500,8.122228515625,3.7663028240203857,-13.658231735229492,-4.814359188079834
1775728168767756500,8.140756591796874,3.1250264644622803,-14.024333953857422,-4.761716842651367
1775728168786284800,8.159284912109374,2.062613010406494,-14.294722557067871,-4.7401814460754395
1775728168804812800,8.177812744140626,2.455035924911499,-14.651252746582031,-3.625126361846924
1775728168823341000,8.196341064453126,2.438286304473877,-14.409578323364258,-1.7252250909805298
1775728168841869300,8.214869384765626,1.191625714302063,-13.495519638061523,-0.8925228714942932
1775728168860397300,8.233397216796876,0.6101697683334351,-12.502498626708984,-1.550549030303955
1775728168878925600,8.251925537109376,2.0027925968170166,-11.641081809997559,-3.2590243816375732
1775728168897453600,8.27045361328125,5.37906551361084,-11.36351490020752,-4.292723655700684
1775728168915981800,8.28898193359375,9.394221305847168,-10.76530933380127,-3.2374889850616455
1775728168934509800,8.307509765625,11.629117965698242,-11.552547454833984,-3.7543387413024902
1775728168953038000,8.3260380859375,9.66939640045166,-13.337593078613281,-6.3361945152282715
1775728168971566300,8.34456640625,4.577469825744629,-14.242080688476562,-6.843472957611084
1775728168990094300,8.36309423828125,-1.215553879737854,-12.387642860412598,-3.88594388961792
1775728169008622600,8.38162255859375,-1.9310078620910645,-11.667403221130371,-2.4095723628997803
1775728169027150600,8.400150634765625,-0.34695929288864136,-8.879764556884766,-0.9499505758285522
1775728169045678800,8.418678955078125,0.064606212079525,-5.7858452796936035,1.4093725681304932
1775728169064206800,8.437206787109375,-1.4021940231323242,-5.601597785949707,2.0506489276885986
1775728169082735000,8.455735107421875,-0.851844847202301,-8.468199729919434,0.5048855543136597
1775728169101263400,8.474263427734375,2.8737800121307373,-8.219346046447754,-1.8161523342132568
1775728169119791400,8.492791259765625,10.545169830322266,-7.295716285705566,-3.304488182067871
1775728169138319600,8.511319580078125,9.767501831054688,-9.032905578613281,-5.06799840927124
1775728169156847600,8.52984765625,1.129412293434143,-9.975677490234375,-3.390629768371582
1775728169175376000,8.5483759765625,-3.586841106414795,-9.30329418182373,-2.187039852142334
1775728169193904000,8.566904052734374,-2.4023938179016113,-8.011170387268066,-1.3088740110397339
1775728169212432100,8.58543212890625,1.1270195245742798,-4.508078098297119,-0.1866401731967926
1775728169230960400,8.60396044921875,2.4741785526275635,-3.7878382205963135,-0.5527420043945312
1775728169249488600,8.622488525390626,0.5096712112426758,-3.0269205570220947,-0.7393822073936462
1775728169268016600,8.6410166015625,-0.05742774158716202,-3.280559778213501,0.24167509377002716
1775728169286545000,8.659544921875,3.036491870880127,-3.799802303314209,0.9355936646461487
1775728169305073000,8.678072998046876,5.441278457641602,-4.393222332000732,0.97148597240448
1775728169323601200,8.69660107421875,5.582455158233643,-5.367101192474365,-1.674975872039795
1775728169342129200,8.715129150390625,7.35314416885376,-2.801995277404785,0.24885354936122894
1775728169360657400,8.733657470703125,17.35274887084961,0.2679961323738098,3.091526746749878
1775728169379185700,8.752185546875,8.439485549926758,-6.45822811126709,2.9958138465881348
1775728169397713700,8.770713623046875,-0.37806597352027893,-9.339186668395996,0.5958128571510315
1775728169416242000,8.789241943359375,8.925228118896484,-10.243673324584961,-2.4813570976257324
1775728169434770200,8.807770263671875,8.516056060791016,-13.184453010559082,-6.4079790115356445
1775728169453298200,8.826298095703125,7.133004188537598,-12.976277351379395,-5.553741455078125
1775728169471826400,8.844826416015625,6.022734642028809,-14.20140266418457,-4.924428939819336
1775728169490354700,8.863354736328125,4.926821708679199,-11.880364418029785,-4.137190341949463
1775728169508882700,8.881882568359375,4.692325115203857,-9.513862609863281,-4.429114818572998
1775728169527411000,8.900410888671875,3.85483717918396,-7.88913631439209,-4.158725738525391
1775728169545939000,8.91893896484375,4.048655986785889,-7.8795647621154785,-2.1200408935546875
1775728169564467200,8.93746728515625,2.744567632675171,-7.475177764892578,-0.2512463629245758
1775728169582995500,8.955995361328124,1.919043779373169,-7.582854747772217,-0.3397808074951172
1775728169601523500,8.9745234375,1.6414763927459717,-8.178668022155762,-2.287538528442383
1775728169620051700,8.9930517578125,1.588834285736084,-7.403393268585205,-2.854637384414673
1775728169638580000,9.011580078125,1.2562319040298462,-7.977670669555664,-3.6083765029907227
1775728169657108200,9.030108154296874,1.5649060010910034,-7.817351341247559,-3.5365917682647705
1775728169675636200,9.04863623046875,2.2995026111602783,-7.458428382873535,-2.7732813358306885
1775728169694164500,9.06716455078125,2.555534601211548,-7.724031448364258,-2.170290231704712
1775728169712692500,9.0856923828125,1.4979069232940674,-9.123832702636719,-3.321237802505493
1775728169731220700,9.104220703125,0.38763725757598877,-9.245866775512695,-4.627718925476074
1775728169749749000,9.1227490234375,1.2083754539489746,-8.372486114501953,-5.077569484710693
1775728169768277000,9.141277099609376,1.7539390325546265,-8.688339233398438,-4.625326156616211
1775728169786805200,9.15980517578125,2.084148406982422,-8.642875671386719,-1.1581261157989502
1775728169805333500,9.17833349609375,0.9834501147270203,-8.401200294494629,-0.5216353535652161
1775728169823861800,9.19686181640625,1.801795482635498,-8.030312538146973,-2.1655044555664062
1775728169842389800,9.2153896484375,2.1846470832824707,-8.149953842163086,-3.06999135017395
1775728169860918000,9.23391796875,1.1437692642211914,-9.372686386108398,-3.964907169342041
1775728169879446000,9.252446044921875,0.11485548317432404,-9.731609344482422,-3.460021495819092
1775728169897974300,9.270974365234375,1.557727575302124,-9.647860527038574,-1.5553346872329712
1775728169916502500,9.28950244140625,3.053241729736328,-10.02592658996582,-1.8400806188583374
1775728169935030800,9.30803076171875,3.22552490234375,-10.526026725769043,-2.8187451362609863
1775728169953558800,9.326558837890625,2.833101987838745,-10.992627143859863,-3.6299118995666504
1775728169972087000,9.345087158203125,2.2851455211639404,-12.105289459228516,-4.299902439117432
1775728169990615300,9.363615234375,1.5912270545959473,-13.351950645446777,-4.019941806793213
1775728170009143600,9.3821435546875,0.6197410821914673,-13.99801254272461,-3.414557933807373
1775728170027671600,9.400671630859375,0.6652047038078308,-15.2016019821167,-2.7589244842529297
1775728170046199800,9.41919970703125,0.763310432434082,-15.663416862487793,-2.242074728012085
1775728170064728000,9.43772802734375,0.8255237936973572,-15.03888988494873,-1.8687944412231445
1775728170083256000,9.456256103515624,3.0340991020202637,-14.373685836791992,-2.2947168350219727
1775728170101784300,9.474784423828124,6.331408500671387,-13.344772338867188,-3.649054527282715
1775728170120312600,9.4933125,7.671389579772949,-11.71286678314209,-3.4791641235351562
1775728170138840800,9.5118408203125,7.678567886352539,-11.337193489074707,-3.25663161277771
1775728170157368800,9.530368896484376,7.501499176025391,-12.134003639221191,-4.462614059448242
1775728170175897000,9.54889697265625,7.149754047393799,-13.048062324523926,-4.431507587432861
1775728170194425300,9.56742529296875,3.840480327606201,-13.299307823181152,-4.565505504608154
1775728170212953300,9.585953369140626,-0.9978070259094238,-13.1365966796875,-3.651447296142578
1775728170231481600,9.604481689453126,-2.2133610248565674,-12.478569984436035,-4.508078098297119
1775728170250009900,9.623009765625,0.3206382393836975,-12.547962188720703,-5.225924491882324
1775728170268538000,9.6415380859375,-0.8590233325958252,-10.26760196685791,-1.6390835046768188
1775728170287066000,9.660066162109375,-3.4983067512512207,-8.310273170471191,0.8303094506263733
1775728170305594400,9.678594482421875,-1.1461620330810547,-7.829315662384033,1.9334007501602173
1775728170324122600,9.69712255859375,4.852644443511963,-5.618347644805908,0.019142581149935722
1775728170342651000,9.71565087890625,7.8628153800964355,-5.2354960441589355,-2.0315065383911133
1775728170361179000,9.734178955078125,4.493721008300781,-5.864808082580566,-2.256431818008423
1775728170379707100,9.75270703125,-0.32303106784820557,-6.38165807723999,-1.672582983970642
1775728170398235400,9.7712353515625,-1.28255295753479,-5.694917678833008,-0.04785645380616188
1775728170416763600,9.789763671875,0.5407779216766357,-4.453042984008789,0.1339980661869049
1775728170435291600,9.808291748046875,2.5220351219177246,-3.792623996734619,-1.210768222808838
1775728170453820000,9.82681982421875,2.4191436767578125,-3.10109806060791,-1.3854442834854126
1775728170472348200,9.84534814453125,1.3878371715545654,-2.8187451362609863,0.5264210104942322
1775728170490876400,9.86387646484375,1.5314065217971802,-3.1800613403320312,0.42831525206565857
1775728170509404700,9.88240478515625,2.4047868251800537,-4.0797624588012695,-1.5433706045150757
1775728170527933000,9.900932861328124,3.4002010822296143,-3.5509488582611084,-1.0241280794143677
1775728170546461000,9.9194609375,4.350151538848877,-3.2853455543518066,-0.5407779216766357
1775728170564989200,9.9379892578125,4.512863636016846,-3.792623996734619,0.9236295223236084
1775728170583517400,9.956517333984374,6.668796539306641,-3.5988051891326904,2.043470621109009
1775728170602045400,9.97504541015625,17.867206573486328,-2.53399920463562,1.765903115272522
1775728170620573700,9.99357373046875,18.613767623901367,-5.886343479156494,2.8498518466949463
1775728170639102000,10.01210205078125,0.7417750358581543,-10.219745635986328,0.22492532432079315
1775728170657630200,10.030630126953126,7.735995769500732,-10.533205032348633,-3.565305709838867
1775728170676158500,10.049158447265626,4.802394866943359,-14.210973739624023,-7.2430739402771
1775728170694686500,10.0676865234375,2.6009981632232666,-13.495519638061523,-6.585047721862793
1775728170713214700,10.086214599609375,6.714260101318359,-13.39980697631836,-5.472385406494141
1775728170731743000,10.104742919921875,3.8356947898864746,-11.511869430541992,-6.441478729248047
1775728170750271200,10.123271240234375,2.8929226398468018,-10.942378044128418,-6.989434719085693
1775728170768799500,10.141799560546875,3.9314076900482178,-9.463613510131836,-3.5437703132629395
1775728170787327500,10.160327392578125,4.326223373413086,-7.554141044616699,-0.9355936646461487
1775728170805855700,10.178855712890625,2.170290231704712,-7.511070251464844,-1.7180466651916504
1775728170824384000,10.197384033203125,1.275374412536621,-7.412964344024658,-1.435693621635437
1775728170842912300,10.215912353515625,2.1583259105682373,-7.793423175811768,-1.100698471069336
1775728170861440500,10.2344404296875,2.9144580364227295,-8.037490844726562,-1.6582261323928833
1775728170879968500,10.252968505859375,2.9599215984344482,-7.70967435836792,-2.2947168350219727
1775728170898496800,10.271496826171875,2.1846470832824707,-8.02791976928711,-3.8763725757598877
1775728170917025000,10.29002490234375,1.643869161605835,-8.49452018737793,-4.941178798675537
1775728170935553300,10.30855322265625,1.9597218036651611,-8.23130989074707,-4.29033088684082
1775728170954081500,10.32708154296875,1.9956140518188477,-8.056633949279785,-3.4408788681030273
1775728170972609800,10.34560986328125,2.076970100402832,-8.530412673950195,-4.264009952545166
1775728170991138000,10.364137939453125,1.6654045581817627,-8.111668586730957,-4.4650068283081055
1775728171009666300,10.382666259765625,2.0410776138305664,-7.288537979125977,-3.0891339778900146
1775728171028194600,10.401194580078124,2.084148406982422,-7.326822757720947,-2.122433662414551
1775728171046722600,10.41972265625,1.581655740737915,-6.927221775054932,-1.4213366508483887
1775728171065250800,10.438250732421874,1.4452649354934692,-7.597211837768555,-2.069791555404663
1775728171083779000,10.456779052734374,0.3397808074951172,-9.291330337524414,-4.029513359069824
1775728171102307300,10.475307373046874,-0.4139583110809326,-10.097711563110352,-5.276174068450928
1775728171120835600,10.493835693359374,-0.2273181527853012,-10.829915046691895,-5.2115678787231445
1775728171139363800,10.51236376953125,0.1698904037475586,-11.361122131347656,-4.687539577484131
1775728171157892000,10.53089208984375,0.7441678643226624,-10.849058151245117,-2.6536402702331543
1775728171176420000,10.549420166015626,1.734796404838562,-10.691131591796875,-2.0745773315429688
1775728171194948400,10.5679482421875,2.8115665912628174,-11.526226997375488,-3.3379876613616943
1775728171213476600,10.5864765625,2.610569477081299,-10.992627143859863,-4.022335052490234
1775728171232004900,10.6050048828125,2.0961127281188965,-11.772686958312988,-5.2737812995910645
1775728171250533000,10.623533203125,1.1509476900100708,-13.768301963806152,-5.9676995277404785
1775728171269061400,10.642061279296875,0.16031911969184875,-15.641881942749023,-5.264209747314453
1775728171287589600,10.660589599609375,0.12203395366668701,-15.251851081848145,-3.294916868209839
1775728171306118000,10.679117919921875,0.8039883971214294,-14.684752464294434,-1.9860427379608154
1775728171324646100,10.697646240234375,1.3830515146255493,-13.232309341430664,-0.9116654396057129
1775728171343174100,10.716174072265625,3.38105845451355,-11.875578880310059,-1.9094724655151367
1775728171361702400,10.734702392578125,6.625725746154785,-10.837093353271484,-3.3068809509277344
1775728171380230700,10.753230712890625,8.82233715057373,-10.597811698913574,-3.3643085956573486
1775728171398759000,10.771759033203125,9.695717811584473,-11.088339805603027,-4.094119548797607
1775728171417287200,10.790287109375,6.692724704742432,-12.160325050354004,-6.0777692794799805
1775728171435815400,10.8088154296875,4.151547431945801,-14.2396879196167,-8.161917686462402
1775728171454343700,10.82734375,0.15074782073497772,-13.883156776428223,-6.570691108703613
1775728171472872000,10.845871826171875,-1.0767701864242554,-12.06939697265625,-4.632504463195801
1775728171491400200,10.864400146484375,-0.24885354936122894,-11.32522964477539,-2.9048867225646973
1775728171509928400,10.882928466796875,-2.861815929412842,-10.638489723205566,-0.11246266216039658
1775728171528456400,10.90145654296875,-6.020341873168945,-7.45364236831665,2.007578134536743
1775728171546985000,10.91998486328125,-3.4672000408172607,-5.639883041381836,1.852044701576233
1775728171565513200,10.93851318359375,4.599005222320557,-5.163711071014404,-0.5359922647476196
1775728171584041200,10.957041259765624,11.301301002502441,-5.280959606170654,-1.730010747909546
1775728171602569500,10.975569580078124,6.419943332672119,-5.962913990020752,-1.4189438819885254
1775728171621097700,10.99409765625,-1.3854442834854126,-6.675975322723389,-1.5481562614440918
1775728171639626000,11.0126259765625,-2.8354947566986084,-6.783652305603027,-2.297109842300415
1775728171658154200,11.031154296875,1.1126625537872314,-5.84566593170166,-2.7326035499572754
1775728171676682500,11.0496826171875,3.3714871406555176,-4.299902439117432,-1.1054840087890625
1775728171695210800,11.068210693359376,2.155933141708374,-4.029513359069824,-0.7513462901115417
1775728171713739000,11.086739013671876,1.1198409795761108,-4.0558342933654785,-0.30628129839897156
1775728171732267300,11.105267333984376,2.2301106452941895,-3.651447296142578,-0.2105683982372284
1775728171750795500,11.12379541015625,3.486342668533325,-3.799802303314209,-1.552941918373108
1775728171769323800,11.14232373046875,2.744567632675171,-4.242474555969238,-1.4620146751403809
1775728171787852000,11.16085205078125,1.6606189012527466,-4.883750915527344,-1.3567304611206055
1775728171806380300,11.17938037109375,3.950550079345703,-4.503292083740234,-0.97148597240448
1775728171824908500,11.197908447265625,14.868999481201172,-2.155933141708374,0.6460621356964111
1775728171843436800,11.216436767578125,23.590839385986328,-4.1491546630859375,3.680161237716675
1775728171861965000,11.234965087890625,-0.8303094506263733,-10.805987358093262,1.4979069232940674
1775728171880493300,11.253493408203125,-2.249253273010254,-9.7005033493042,-2.1056840419769287
1775728171899021600,11.272021484375,9.659825325012207,-9.954142570495605,-5.580062389373779
1775728171917549800,11.2905498046875,8.338987350463867,-11.911471366882324,-7.302894592285156
1775728171936078000,11.309078125,2.9718856811523438,-12.861421585083008,-4.835894584655762
1775728171954606300,11.3276064453125,2.258824586868286,-13.971691131591797,-5.06799840927124
1775728171973134600,11.346134521484375,4.328616142272949,-11.035697937011719,-6.544369697570801
1775728171991662800,11.364662841796875,5.883950710296631,-10.308279991149902,-6.881757736206055
1775728172010191000,11.383191162109375,3.6945180892944336,-9.772287368774414,-3.9146578311920166
1775728172028719400,11.40171923828125,1.6654045581817627,-9.073583602905273,-2.376072883605957
1775728172047247600,11.42024755859375,1.8113667964935303,-8.391629219055176,-2.60339093208313
1775728172065775900,11.43877587890625,2.4335005283355713,-9.21715259552002,-2.964707374572754
1775728172084304100,11.45730419921875,2.53399920463562,-8.8438720703125,-2.053041934967041
1775728172102832400,11.475832275390625,2.878565549850464,-8.248059272766113,-1.3160524368286133
1775728172121360600,11.494360595703125,2.801995277404785,-7.944170951843262,-2.194218397140503
1775728172139889000,11.512888916015624,2.8211379051208496,-7.29810905456543,-1.8855443000793457
1775728172158417200,11.531417236328124,1.4931213855743408,-7.164111137390137,-3.0723843574523926
1775728172176945400,11.5499453125,1.4380863904953003,-7.389036178588867,-4.237689018249512
1775728172195473700,11.5684736328125,2.933600664138794,-7.77188777923584,-4.273581027984619
1775728172214002000,11.587001953125,2.6608188152313232,-7.747959613800049,-4.910071849822998
1775728172232530200,11.6055302734375,1.28255295753479,-7.680960655212402,-5.498706340789795
1775728172251058400,11.624058349609374,0.6317051649093628,-7.463213920593262,-4.376472473144531
1775728172269586700,11.642586669921876,0.3445664644241333,-7.345965385437012,-2.957528829574585
1775728172288115000,11.661114990234376,0.6484549641609192,-6.9344000816345215,-2.163111686706543
1775728172306643200,11.679643310546876,1.1700903177261353,-7.774280548095703,-2.5674986839294434
1775728172325171500,11.69817138671875,2.4526431560516357,-8.764909744262695,-2.768495798110962
1775728172343699700,11.71669970703125,3.1800613403320312,-8.970691680908203,-2.940778970718384
1775728172362228000,11.73522802734375,2.589034080505371,-9.298508644104004,-3.603590965270996
1775728172380756200,11.753756103515625,1.337587833404541,-10.097711563110352,-4.153940200805664
1775728172399284500,11.772284423828125,0.5886343717575073,-10.315458297729492,-3.9768712520599365
1775728172417812700,11.790812744140625,1.4093725681304932,-10.071390151977539,-3.5198421478271484
1775728172436341200,11.80934130859375,2.4263222217559814,-11.021341323852539,-4.077369689941406
1775728172454869200,11.827869140625,2.895315408706665,-12.354143142700195,-4.493721008300781
1775728172473397800,11.846397705078125,3.012563705444336,-13.081561088562012,-4.960321426391602
1775728172491926000,11.864926025390625,1.8233308792114258,-13.765908241271973,-5.38624382019043
1775728172510454300,11.883454345703125,0.33020952343940735,-14.670395851135254,-4.218546390533447
1775728172528982500,11.901982421875,-1.0360921621322632,-15.692131042480469,-3.1824541091918945
1775728172547510800,11.9205107421875,-0.6484549641609192,-15.354743003845215,-3.634697675704956
1775728172566039000,11.9390390625,3.0101709365844727,-13.390235900878906,-3.1800613403320312
1775728172584567300,11.9575673828125,6.527620315551758,-10.96630573272705,-2.3880369663238525
1775728172603095600,11.976095458984375,8.561519622802734,-9.580862045288086,-2.368894338607788
1775728172621623800,11.994623779296875,9.044869422912598,-10.045069694519043,-2.919243574142456
1775728172640152000,12.013152099609375,7.726424217224121,-10.875378608703613,-3.2853455543518066
1775728172658680300,12.031680419921875,6.25723123550415,-12.198610305786133,-4.867001056671143
1775728172677208800,12.050208740234375,4.388436794281006,-13.320843696594238,-5.982056617736816
1775728172695737000,12.068737060546875,1.5672988891601562,-12.5144624710083,-5.024927616119385
1775728172714265300,12.087265380859375,1.2562319040298462,-12.636496543884277,-5.175675392150879
1775728172732793600,12.105793701171875,2.421536445617676,-12.1866455078125,-4.874179840087891
1775728172751321900,12.12432177734375,-0.009571290574967861,-10.978270530700684,-2.0961127281188965
1775728172769850000,12.14285009765625,-4.302295207977295,-8.839086532592773,0.5718846321105957
1775728172788378400,12.16137841796875,-5.029713153839111,-6.967899322509766,1.7730815410614014
1775728172806907000,12.179906982421874,0.6484549641609192,-5.546562671661377,1.6917256116867065
1775728172825435000,12.198434814453124,8.535198211669922,-5.3455657958984375,-0.4139583110809326
1775728172843963400,12.21696337890625,9.533005714416504,-5.563312530517578,-1.275374412536621
1775728172862491600,12.23549169921875,3.9361932277679443,-6.424728870391846,-1.9405791759490967
1775728172881020000,12.25402001953125,0.26560330390930176,-6.673582553863525,-1.7922241687774658
1775728172899548200,12.272548095703126,0.6197410821914673,-6.192625045776367,-1.6007983684539795
1775728172918076400,12.291076416015626,2.4574289321899414,-5.292923450469971,-2.0793628692626953
1775728172936604700,12.309604736328126,2.6727828979492188,-4.8502516746521,-2.251646041870117
1775728172955133000,12.3281328125,2.3186452388763428,-3.675375461578369,-0.7968099117279053
1775728172973661400,12.346661376953126,0.8087740540504456,-3.7016966342926025,0.3326023519039154
1775728172992189700,12.365189697265626,1.1892328262329102,-3.1034910678863525,-0.7465606927871704
1775728173010718000,12.383718017578126,2.854637384414673,-2.2851455211639404,-0.7106683254241943
1775728173029246200,12.40224609375,3.9768712520599365,-1.9669002294540405,-1.0289137363433838
1775728173047774500,12.4207744140625,4.749752998352051,-3.263810157775879,-1.1341979503631592
1775728173066302700,12.439302734375,4.498506546020508,-4.187439441680908,-0.3038884699344635
1775728173094095400,12.467095458984375,14.526825904846191,-1.2705888748168945,1.2083754539489746
1775728173112623600,12.48562353515625,24.282363891601562,-4.620540618896484,0.6556333899497986
1775728173131152000,12.50415185546875,7.542177200317383,-9.949356079101562,-0.08853443711996078
1775728173149680000,12.52268017578125,-1.6390835046768188,-9.710074424743652,-2.2851455211639404
1775728173168208600,12.541208740234374,5.635097503662109,-9.485149383544922,-3.6849467754364014
1775728173186736600,12.559736572265624,9.80100154876709,-11.710474014282227,-4.247260093688965
1775728173205265200,12.57826513671875,3.3164522647857666,-11.521441459655762,-1.9094724655151367
1775728173223793400,12.59679345703125,4.575077056884766,-12.564711570739746,-3.1657042503356934
1775728173242321700,12.61532177734375,4.328616142272949,-11.157732009887695,-6.778866767883301
1775728173260850000,12.633849853515626,3.706482172012329,-10.013962745666504,-7.202396392822266
1775728173279378400,12.65237841796875,2.9144580364227295,-9.023334503173828,-5.6925249099731445
1775728173297906700,12.67090673828125,3.342773199081421,-8.944371223449707,-4.247260093688965
1775728173316435000,12.68943505859375,3.589233875274658,-8.13798999786377,-1.8831514120101929
1775728173334963200,12.707963134765626,2.864208698272705,-8.140382766723633,-1.6773686408996582
1775728173353491500,12.726491455078126,2.0793628692626953,-8.800801277160645,-2.053041934967041
1775728173372020000,12.74502001953125,2.1511476039886475,-8.609375953674316,-1.3902299404144287
1775728173390548200,12.76354833984375,3.022135019302368,-8.597412109375,-2.3641088008880615
1775728173409076500,12.782076416015625,3.091526746749878,-8.760123252868652,-4.462614059448242
1775728173427604700,12.800604736328125,2.414358139038086,-8.482556343078613,-5.240281581878662
1775728173446133000,12.819133056640625,1.9525432586669922,-8.264809608459473,-5.355136871337891
1775728173464661500,12.83766162109375,2.210968017578125,-8.264809608459473,-4.977071285247803
1775728173483189800,12.856189697265625,2.225325107574463,-7.9728851318359375,-4.254438877105713
1775728173501718000,12.874718017578125,2.117648124694824,-7.750352382659912,-3.3619158267974854
1775728173520246300,12.893246337890625,1.6606189012527466,-7.525427341461182,-2.9527430534362793
1775728173538774800,12.91177490234375,1.2346965074539185,-7.590033531188965,-3.88594388961792
1775728173557303000,12.930302978515625,0.5120640397071838,-7.800601959228516,-3.656233072280884
1775728173575831300,12.948831298828125,0.5742774605751038,-8.283951759338379,-3.242274761199951
1775728173594359600,12.967359619140625,1.306481122970581,-8.066205024719238,-3.524627685546875
1775728173612887800,12.9858876953125,1.098305583000183,-8.293522834777832,-3.8021950721740723
1775728173631416300,13.004416259765625,0.5240281820297241,-9.013762474060059,-3.627519130706787
1775728173649944600,13.022944580078125,0.8901300430297852,-9.396614074707031,-3.2925238609313965
1775728173668472800,13.041472900390625,1.0911271572113037,-9.253045082092285,-3.139383316040039
1775728173687001300,13.06000146484375,1.5744773149490356,-9.186046600341797,-2.3784656524658203
1775728173705529600,13.078529541015625,2.053041934967041,-10.088140487670898,-1.8664016723632812
1775728173724057900,13.097057861328125,1.8616160154342651,-11.076375961303711,-2.806781053543091
1775728173742586000,13.115586181640625,1.8065811395645142,-11.002198219299316,-3.713660717010498
1775728173761114400,13.1341142578125,2.778067111968994,-11.741580963134766,-4.488935470581055
1775728173779643000,13.152642822265625,1.8640087842941284,-13.378271102905273,-5.259424209594727
1775728173798171100,13.171171142578125,0.1866401731967926,-14.481362342834473,-4.01754903793335
1775728173816699400,13.189699462890625,-0.8207381963729858,-15.687345504760742,-3.7399818897247314
1775728173835228000,13.208227783203125,-0.5168496966362,-16.311872482299805,-3.7471601963043213
1775728173853756200,13.226756103515624,1.1437692642211914,-14.220544815063477,-3.263810157775879
1775728173872284400,13.245284423828124,2.59621262550354,-11.997612953186035,-2.861815929412842
1775728173890813000,13.26381298828125,3.902693748474121,-10.372885704040527,-2.53399920463562
1775728173909341200,13.282341064453124,6.240481376647949,-9.494720458984375,-1.2083754539489746
1775728173927869400,13.300869384765624,9.54496955871582,-9.882357597351074,-1.1150553226470947
1775728173946397700,13.319397705078124,10.911271095275879,-11.298908233642578,-4.194618225097656
1775728173964926200,13.33792626953125,9.477970123291016,-13.923834800720215,-7.467999458312988
1775728173983454500,13.356454345703124,3.955335855484009,-15.481562614440918,-8.336593627929688
1775728174001982700,13.374982666015624,-0.8255237936973572,-13.871192932128906,-4.515256404876709
1775728174020511200,13.39351123046875,-0.2847459018230438,-12.540783882141113,-3.2039895057678223
1775728174039039500,13.41203955078125,0.8566305041313171,-12.1866455078125,-3.328416347503662
1775728174057567700,13.430567626953126,-2.5363919734954834,-9.877572059631348,-0.4426721930503845
1775728174076096300,13.44909619140625,-4.383651256561279,-6.331408500671387,2.8809585571289062
1775728174094624500,13.46762451171875,0.3684946894645691,-4.5200419425964355,3.8261234760284424
1775728174113152800,13.48615283203125,6.869793891906738,-5.292923450469971,1.3543375730514526
1775728174131681000,13.504680908203126,7.903493404388428,-6.068198204040527,-1.4500504732131958
1775728174150209500,13.52320947265625,5.328815937042236,-6.649653911590576,-3.16331148147583
1775728174168737800,13.54173779296875,2.9623143672943115,-7.216753005981445,-3.3954153060913086
1775728174187266000,13.56026611328125,2.6273193359375,-7.707281589508057,-2.093719720840454
1775728174205794600,13.578794677734376,3.2159535884857178,-6.668796539306641,-0.5862415432929993
1775728174224322800,13.59732275390625,2.7972097396850586,-5.01296329498291,-0.6293123364448547
1775728174242851000,13.61585107421875,1.9956140518188477,-3.964907169342041,-0.7393822073936462
1775728174261379600,13.634379638671875,1.2658032178878784,-3.94097900390625,-0.4546363055706024
1775728174279907600,13.652907470703125,1.3950155973434448,-3.5198421478271484,-0.24646073579788208
1775728174298436000,13.67143603515625,2.2157537937164307,-2.9551360607147217,-0.31106695532798767
1775728174316964400,13.68996435546875,3.4408788681030273,-2.2779672145843506,-0.20817556977272034
1775728174335492900,13.708492919921875,5.132604598999023,-2.0650060176849365,1.0480563640594482
1775728174354021000,13.727021240234375,4.685146808624268,-2.878565549850464,1.184447169303894
1775728174372549400,13.74554931640625,4.098905086517334,-2.9934210777282715,-0.22492532432079315
1775728174391078000,13.764077880859375,5.862415313720703,-2.9001009464263916,-0.02392822690308094
1775728174409606100,13.782606201171875,7.987242221832275,-2.6177480220794678,0.3565305769443512
1775728174428134400,13.801134521484375,12.019147872924805,-2.3712873458862305,-0.04785645380616188
1775728174446663000,13.819662841796875,20.31745719909668,-3.170490026473999,0.6484549641609192
1775728174465191200,13.838191162109375,13.627124786376953,-6.766902446746826,0.15074782073497772
1775728174483719700,13.8567197265625,5.927021503448486,-8.987442016601562,-2.155933141708374
1775728174502248000,13.875248046875,7.9489569664001465,-10.88016414642334,-6.403193473815918
1775728174520776200,13.893776123046875,-3.806980848312378,-10.305887222290039,-4.570291042327881
1775728174539304400,13.912304443359375,8.877371788024902,-9.468399047851562,-2.392822742462158
1775728174557833000,13.9308330078125,11.531012535095215,-8.872586250305176,-4.3788652420043945
1775728174576361200,13.949361328125,2.1678972244262695,-11.040483474731445,-5.1876397132873535
1775728174594889500,13.967889404296875,3.211168050765991,-9.992427825927734,-5.132604598999023
1775728174613418000,13.98641796875,5.726024627685547,-8.83669376373291,-5.5034918785095215
1775728174631946200,14.0049462890625,4.486542224884033,-7.190432071685791,-3.4743785858154297
1775728174650474800,14.023474853515625,4.1659040451049805,-6.338587284088135,-1.9908283948898315
1775728174669003000,14.0420029296875,3.7160534858703613,-6.805187702178955,-1.2490534782409668
1775728174687531300,14.06053125,2.4358935356140137,-7.501499176025391,-0.9882357716560364
1775728174706059800,14.079059814453124,2.455035924911499,-8.776873588562012,-1.8137595653533936
1775728174724588000,14.097588134765624,3.1489546298980713,-9.454042434692383,-2.957528829574585
1775728174743116500,14.116116455078124,3.0795626640319824,-9.760323524475098,-3.1489546298980713
1775728174761644800,14.134644775390624,2.3976082801818848,-9.760323524475098,-3.397808074951172
1775728174780173000,14.153173095703124,2.895315408706665,-9.772287368774414,-4.034298896789551
1775728174798701600,14.17170166015625,3.565305709838867,-9.475577354431152,-4.0558342933654785
1775728174817229800,14.190229736328124,3.5509488582611084,-9.166903495788574,-3.263810157775879
1775728174835758000,14.208758056640624,2.234896421432495,-9.123832702636719,-3.0628130435943604
1775728174854286600,14.22728662109375,2.0985054969787598,-8.74337387084961,-2.9623143672943115
1775728174872814800,14.24581494140625,2.1774685382843018,-8.886942863464355,-2.919243574142456
1775728174891343000,14.264343017578126,1.196411371231079,-8.236095428466797,-2.871387243270874
1775728174909871600,14.28287158203125,0.8590233325958252,-8.427521705627441,-2.840280532836914
1775728174928400000,14.30139990234375,0.6891329288482666,-9.174081802368164,-3.704089403152466
1775728174946928400,14.319928466796876,0.9236295223236084,-9.389435768127441,-4.120440483093262
1775728174965456600,14.33845654296875,1.7276179790496826,-9.635896682739258,-3.689732551574707
1775728174983985000,14.35698486328125,1.8544375896453857,-9.442078590393066,-2.888136863708496
1775728175002513400,14.375513427734376,1.5433706045150757,-9.332008361816406,-1.852044701576233
1775728175021041700,14.394041748046876,1.2394821643829346,-9.712467193603516,-2.038684844970703
1775728175039570000,14.41256982421875,0.8446664214134216,-9.41336441040039,-2.4837498664855957
1775728175058098400,14.431098388671876,0.9906286001205444,-8.848658561706543,-2.7086751461029053
1775728175076626700,14.449626708984376,0.851844847202301,-8.528019905090332,-2.833101987838745
1775728175095155200,14.4681552734375,0.7154539823532104,-8.72183895111084,-2.3976082801818848
1775728175113683500,14.486683349609375,0.4019941985607147,-9.109476089477539,-2.5770699977874756
1775728175132212000,14.5052119140625,0.7776673436164856,-8.671588897705078,-2.4981069564819336
1775728175150740200,14.523740234375,1.7994025945663452,-8.724231719970703,-3.0556344985961914
1775728175169268500,14.5422685546875,2.249253273010254,-9.154939651489258,-3.8045880794525146
1775728175187797000,14.560796875,1.404586911201477,-9.322437286376953,-3.5341989994049072
1775728175206325200,14.5793251953125,0.275174617767334,-9.781859397888184,-3.845266103744507
1775728175224853800,14.597853759765625,-0.7322037220001221,-10.346565246582031,-3.649054527282715
1775728175243382000,14.616382080078125,-1.9692929983139038,-10.545169830322266,-3.5222349166870117
1775728175261910300,14.63491015625,-3.3643085956573486,-9.827322959899902,-3.809373617172241
1775728175280438800,14.653438720703125,-2.589034080505371,-10.171889305114746,-4.29033088684082
1775728175298967000,14.671967041015625,-1.4476577043533325,-10.796415328979492,-2.713460922241211
1775728175317495300,14.690495361328125,-1.2897313833236694,-10.382457733154297,-0.40677985548973083
1775728175336023800,14.70902392578125,-0.07417750358581543,-9.968499183654785,0.7369893789291382
1775728175354552000,14.727552001953125,0.4043870270252228,-11.349157333374023,0.49292147159576416
1775728175373080600,14.74608056640625,-0.7728816866874695,-10.427921295166016,0.8973084688186646
1775728175391608800,14.76460888671875,-0.44745782017707825,-9.990034103393555,-0.5312066078186035
1775728175410137300,14.783137451171875,1.5122638940811157,-8.906085968017578,-0.8662018179893494
1775728175428665600,14.80166552734375,3.541377544403076,-8.295916557312012,0.5670989751815796
1775728175447193900,14.82019384765625,3.9912281036376953,-8.26241683959961,1.5409778356552124
1775728175465722400,14.838722412109375,2.885744094848633,-9.109476089477539,1.588834285736084
1775728175484250600,14.857250732421875,0.7824530005455017,-9.083154678344727,-0.22492532432079315
1775728175502779100,14.875779052734375,-0.29431718587875366,-10.334601402282715,-3.060420274734497
1775728175521307400,14.894307373046875,-0.22492532432079315,-10.293923377990723,-4.278367042541504
1775728175539836000,14.9128359375,1.0719845294952393,-9.162117958068848,-3.5676984786987305
1775728175558364200,14.9313642578125,1.3567304611206055,-7.874779224395752,-2.7278177738189697
1775728175576892400,14.949892333984375,0.5575276613235474,-8.372486114501953,-3.4983067512512207
1775728175595421000,14.9684208984375,-0.02871387079358101,-9.497113227844238,-4.027120590209961
1775728175613949200,14.98694921875,0.46420758962631226,-9.351150512695312,-3.2207393646240234
1775728175632477700,15.005477783203125,1.1868400573730469,-8.913264274597168,-3.2829527854919434
1775728175651006000,15.024005859375,1.0671988725662231,-8.930013656616211,-3.6155550479888916
1775728175669534500,15.042534423828124,1.6366907358169556,-9.454042434692383,-2.3569302558898926
1775728175688062700,15.061062744140624,2.65842604637146,-9.389435768127441,-1.430907964706421
1775728175706591000,15.079591064453124,3.421736478805542,-8.803194046020508,-2.888136863708496
1775728175725119500,15.098119384765624,3.704089403152466,-8.987442016601562,-4.161118507385254
1775728175743647700,15.116647705078124,3.115455150604248,-9.18843936920166,-3.5294134616851807
1775728175762176300,15.13517626953125,3.4815568923950195,-9.53061294555664,-3.0580272674560547
1775728175780704500,15.15370458984375,3.900300979614258,-9.315258979797363,-3.510270833969116
1775728175799233000,15.17223291015625,3.9385859966278076,-9.006584167480469,-3.730410575866699
1775728175817761300,15.19076123046875,4.12761926651001,-9.135796546936035,-4.115654945373535
1775728175836289800,15.209289794921874,5.7619171142578125,-9.128618240356445,-4.046263217926025
1775728175854818000,15.227818115234374,4.864608287811279,-8.484949111938477,-3.005385160446167
1775728175873346600,15.2463466796875,3.4097721576690674,-7.795815944671631,-3.0963125228881836
1775728175891874800,15.264874755859376,2.912065267562866,-7.592426300048828,-3.87876558303833
1775728175910403000,15.283403076171876,3.421736478805542,-8.367700576782227,-3.869194269180298
1775728175928931600,15.301931640625,3.25663161277771,-8.542376518249512,-2.857030153274536
1775728175947459800,15.3204599609375,2.667997360229492,-8.427521705627441,-2.715853691101074
1775728175965988000,15.338988037109376,3.1250264644622803,-8.901300430297852,-3.2207393646240234
1775728175984516600,15.3575166015625,4.1491546630859375,-8.910871505737305,-2.682354211807251
1775728176003044900,15.376044921875,4.182653903961182,-9.126225471496582,-1.7012969255447388
1775728176021573400,15.394573486328126,2.2755744457244873,-9.200403213500977,-2.014756679534912
1775728176040102000,15.413101806640626,1.4189438819885254,-9.257830619812012,-2.691925525665283
1775728176058630100,15.431630126953126,1.852044701576233,-9.078369140625,-2.6225335597991943
1775728176077158700,15.45015869140625,2.3330020904541016,-9.267401695251465,-2.737389087677002
1775728176095687000,15.46868701171875,2.7589244842529297,-9.824930191040039,-3.759124279022217
1775728176114215400,15.48721533203125,0.97148597240448,-10.097711563110352,-4.101297855377197
1775728176132743700,15.50574365234375,-0.19621145725250244,-9.473184585571289,-3.4480574131011963
1775728176151272000,15.52427197265625,0.2919243574142456,-8.523234367370605,-3.596412420272827
1775728176169800400,15.542800537109375,2.029113531112671,-8.554341316223145,-3.85483717918396
1775728176188328700,15.56132861328125,2.720639228820801,-8.896514892578125,-3.9792640209198
1775728176206857200,15.579857177734375,2.68953275680542,-8.776873588562012,-4.433900356292725
1775728176225385500,15.598385498046875,3.5054850578308105,-8.549555778503418,-4.051048755645752
1775728176243913700,15.616913818359375,4.063013076782227,-8.279166221618652,-3.2039895057678223
1775728176262442200,15.635442138671875,2.895315408706665,-8.740981101989746,-3.658625841140747
1775728176280970500,15.653970458984375,2.555534601211548,-8.678768157958984,-3.7471601963043213
1775728176299499000,15.6724990234375,3.7423746585845947,-8.673981666564941,-3.7663028240203857
1775728176318027300,15.69102734375,4.326223373413086,-8.745766639709473,-3.783052682876587
1775728176336555800,15.7095556640625,3.1585259437561035,-8.492127418518066,-2.8498518466949463
1775728176355084000,15.728083984375,1.8424733877182007,-8.451449394226074,-2.620140790939331
1775728176373612500,15.746612548828125,0.6628118753433228,-8.621339797973633,-2.794816732406616
1775728176392140800,15.765140869140625,1.215553879737854,-9.037691116333008,-2.8761727809906006
1775728176410669300,15.78366943359375,2.2372891902923584,-8.793622970581055,-3.077169895172119
1775728176429197800,15.80219775390625,1.794616937637329,-9.623932838439941,-3.9984066486358643
1775728176447726000,15.82072607421875,2.139183521270752,-9.686145782470703,-4.034298896789551
1775728176466254600,15.839254638671875,3.90987229347229,-9.238688468933105,-3.0580272674560547
1775728176484782800,15.857782958984375,4.620540618896484,-9.293723106384277,-3.2542388439178467
1775728176503311400,15.876311279296875,3.8596229553222656,-9.442078590393066,-3.6849467754364014
1775728176521839600,15.894839599609375,3.4672000408172607,-8.903693199157715,-3.2350962162017822
1775728176540368000,15.913367919921875,3.751945972442627,-8.779266357421875,-2.455035924911499
1775728176558896400,15.931896484375,3.5820555686950684,-8.34855842590332,-1.770688772201538
1775728176577424600,15.950424560546875,3.1920254230499268,-7.989634990692139,-1.9070796966552734
1775728176595953200,15.968953125,2.737389087677002,-8.446663856506348,-2.2540390491485596
1775728176614481400,15.9874814453125,2.9958138465881348,-8.865407943725586,-3.239881753921509
1775728176633010000,16.006010009765625,2.974278450012207,-8.7505521774292,-3.507878065109253
1775728176651538200,16.0245380859375,3.407379388809204,-8.489734649658203,-2.9001009464263916
1775728176670066700,16.043066650390625,3.9529430866241455,-8.82951545715332,-2.581855535507202
1775728176688595000,16.061594970703126,3.3020951747894287,-8.999405860900879,-2.9838497638702393
1775728176707123500,16.08012353515625,2.5220351219177246,-8.927620887756348,-3.7232320308685303
1775728176725651700,16.098651611328126,2.6464617252349854,-8.597412109375,-3.0628130435943604
1775728176744180200,16.11718017578125,2.9048867225646973,-8.449056625366211,-2.431107759475708
1775728176762708500,16.13570849609375,3.2063822746276855,-8.58784008026123,-1.9860427379608154
1775728176781237000,16.154237060546876,3.2542388439178467,-8.798408508300781,-2.0243279933929443
1775728176799765200,16.17276513671875,3.5054850578308105,-8.906085968017578,-2.2995026111602783
1775728176818293800,16.191293701171876,3.3643085956573486,-9.147761344909668,-2.9144580364227295
1775728176836822000,16.209822021484374,3.0245277881622314,-9.133403778076172,-3.0867412090301514
1775728176855350500,16.2283505859375,2.713460922241211,-9.245866775512695,-2.610569477081299
1775728176873878800,16.246878662109374,2.3401806354522705,-9.468399047851562,-2.4358935356140137
1775728176892407300,16.2654072265625,2.919243574142456,-8.958727836608887,-2.6249263286590576
1775728176910935600,16.283935546875,3.7782669067382812,-8.839086532592773,-2.447857618331909
1775728176929464000,16.302464111328124,3.201596736907959,-9.025727272033691,-2.3330020904541016
1775728176947992300,16.320992431640626,2.5746772289276123,-9.257830619812012,-2.557927370071411
1775728176966520800,16.339520751953124,3.060420274734497,-8.793622970581055,-2.6321048736572266
1775728176985049000,16.358049072265626,3.2757742404937744,-8.499305725097656,-2.6536402702331543
1775728177003577600,16.37657763671875,2.770888566970825,-8.898907661437988,-2.572284460067749
1775728177022105900,16.39510595703125,2.5459632873535156,-9.080761909484863,-2.5842485427856445
1775728177040634400,16.41363427734375,3.0340991020202637,-8.951549530029297,-2.641676187515259
1775728177059162600,16.43216259765625,3.2925238609313965,-8.72183895111084,-2.612962245941162
1775728177077691100,16.450691162109376,2.8139593601226807,-8.86062240600586,-2.5220351219177246
1775728177096219600,16.4692197265625,2.4909284114837646,-9.154939651489258,-2.7038896083831787
1775728177114748000,16.487747802734376,2.830709218978882,-9.394221305847168,-3.13220477104187
1775728177133276400,16.5062763671875,0.9475577473640442,-9.408578872680664,-2.9168508052825928
1775728177151804700,16.5248046875,3.4480574131011963,-8.997013092041016,-2.531606435775757
1775728177170333200,16.543333251953126,4.543970108032227,-9.154939651489258,-2.1128623485565186
1775728177188861400,16.561861328125,3.4791641235351562,-8.786444664001465,-2.723032236099243
1775728177207390000,16.580389892578125,2.4765713214874268,-8.779266357421875,-2.9144580364227295
1775728177225918200,16.598918212890624,3.3092737197875977,-8.791230201721191,-2.2325034141540527
1775728177244446700,16.61744677734375,2.9288148880004883,-9.504291534423828,-2.715853691101074
1775728177262975000,16.63597509765625,2.1296122074127197,-9.260223388671875,-2.8187451362609863
1775728177281503500,16.65450341796875,2.9144580364227295,-9.245866775512695,-2.8809585571289062
1775728177300031700,16.67303173828125,3.5461630821228027,-8.650053977966309,-2.9048867225646973
1775728177318560300,16.691560302734374,3.263810157775879,-8.654839515686035,-2.6967110633850098
1775728177337088500,16.710088623046875,2.431107759475708,-8.884550094604492,-1.8975083827972412
1775728177355617000,16.728616943359373,2.100898265838623,-8.776873588562012,-2.093719720840454
1775728177374145300,16.747145263671875,3.0340991020202637,-8.72183895111084,-2.5938198566436768
1775728177392673800,16.765673828125,3.689732551574707,-8.874979019165039,-2.6081767082214355
1775728177411202300,16.784202392578123,2.957528829574585,-8.855836868286133,-2.59621262550354
1775728177429730600,16.80273046875,2.4095723628997803,-8.927620887756348,-2.794816732406616
1775728177448259000,16.821259033203123,2.9934210777282715,-8.812766075134277,-2.589034080505371
1775728177466787300,16.839787353515625,3.1345977783203125,-8.657232284545898,-2.6464617252349854
1775728177485315800,16.85831591796875,3.1513473987579346,-8.910871505737305,-2.840280532836914
1775728177503844000,16.876843994140625,3.1513473987579346,-8.796015739440918,-2.495713949203491
1775728177522372600,16.89537255859375,3.304488182067871,-8.453842163085938,-2.4909284114837646
1775728177540901000,16.913901123046877,3.5150563716888428,-8.810373306274414,-3.1680972576141357
1775728177559429400,16.932429443359375,3.084348440170288,-9.066405296325684,-2.871387243270874
1775728177577958000,16.9509580078125,3.019742250442505,-8.846264839172363,-2.8426733016967773
1775728177596486100,16.969486083984375,3.483949661254883,-8.583054542541504,-3.314059257507324
1775728177615014700,16.9880146484375,3.82373046875,-8.7505521774292,-3.7806596755981445
1775728177633543000,17.00654296875,4.046263217926025,-8.623732566833496,-3.462414264678955
1775728177652071400,17.025071533203125,3.751945972442627,-8.764909744262695,-3.3643085956573486
1775728177670599700,17.043599609375,3.1920254230499268,-8.671588897705078,-3.5294134616851807
1775728177689128200,17.062128173828125,3.761517286300659,-8.71226692199707,-3.3690943717956543
1775728177707656700,17.08065673828125,4.5822553634643555,-8.389236450195312,-3.6299118995666504
1775728177726185200,17.099185302734377,4.843072891235352,-8.118846893310547,-4.000799655914307
1775728177744713500,17.11771337890625,4.5200419425964355,-8.97787094116211,-3.895515203475952
1775728177763242000,17.136241943359376,4.151547431945801,-8.839086532592773,-3.2709884643554688
1775728177800298800,17.173298828125,5.814558982849121,-8.762516975402832,-6.185446739196777
1775728177818827000,17.191826904296875,6.106483459472656,-9.20997428894043,-6.412764549255371
1775728177837355500,17.21035546875,6.072983741760254,-9.358329772949219,-4.54636287689209
1775728177855884000,17.228884033203126,7.018148899078369,-9.360722541809082,-4.051048755645752
1775728177874412300,17.247412353515625,7.664210796356201,-10.277173042297363,-4.295116424560547
1775728177892940800,17.26594091796875,7.5804619789123535,-10.06421184539795,-3.78544545173645
1775728177911469000,17.284468994140624,6.0538411140441895,-9.755537986755371,-3.3690943717956543
1775728177939262000,17.312261962890624,1.9262222051620483,-9.53779125213623,-2.933600664138794
1775728177957790200,17.330790283203125,1.8783657550811768,-8.415556907653809,-2.8594231605529785
1775728177976318700,17.349318603515623,1.373480200767517,-7.678567886352539,-1.8687944412231445
1775728177994847200,17.36784716796875,-0.16749759018421173,-7.982456207275391,-0.24646073579788208
1775728178013375500,17.38637548828125,1.0456634759902954,-7.03489875793457,0.6652047038078308
1775728178031904000,17.404904052734373,4.2831525802612305,-6.329015731811523,-0.3613162338733673
1775728178050432500,17.4234326171875,5.113461971282959,-6.187839508056641,-1.4380863904953003
1775728178068961000,17.4419609375,4.070191383361816,-5.709274768829346,-1.246660590171814
1775728178087489500,17.460489501953123,3.4672000408172607,-5.570491313934326,-0.46899324655532837
1775728178106017800,17.479017822265625,3.0652058124542236,-5.350351333618164,-0.3684946894645691
1775728178124546300,17.49754638671875,2.3880369663238525,-5.515456199645996,-1.4883357286453247
1775728178143074800,17.51607470703125,2.4526431560516357,-5.661418437957764,-1.6151553392410278
1775728178161603300,17.534603271484375,3.4241292476654053,-5.460421085357666,-1.5074782371520996
1775728178180131600,17.553131591796873,4.40757942199707,-5.5034918785095215,-1.6103696823120117
1775728178198660000,17.57166015625,5.819344520568848,-5.4173502922058105,-0.5838487148284912
1775728178217188600,17.590188720703125,5.7786664962768555,-5.405386447906494,-1.3615161180496216
1775728178235717000,17.608717041015623,5.764309883117676,-5.458028316497803,-2.1678972244262695
1775728178254245600,17.62724560546875,5.694917678833008,-5.087141036987305,-2.4646072387695312
1775728178272774100,17.645774169921875,5.900700569152832,-4.651647090911865,-2.8498518466949463
1775728178291302400,17.664302490234373,4.252045631408691,-5.271388053894043,-2.0793628692626953
1775728178309831000,17.682830810546875,2.266003131866455,-6.728617191314697,-2.03629207611084
1775728178328359400,17.701359375,1.832902193069458,-8.25523853302002,-4.0558342933654785
1775728178346888000,17.719887939453123,4.3310089111328125,-7.544569969177246,-4.445864677429199
1775728178365416400,17.73841650390625,5.168497085571289,-6.20219612121582,-3.8117663860321045
1775728178383945000,17.756945068359375,5.706881999969482,-7.032505512237549,-4.0558342933654785
1775728178402473200,17.77547314453125,5.271388053894043,-7.467999458312988,-4.639683246612549
1775728178421002000,17.794001953125,3.610769271850586,-7.817351341247559,-4.981856822967529
1775728178439530200,17.8125302734375,3.601198196411133,-9.267401695251465,-4.60139799118042
1775728178458058800,17.831058837890627,2.9288148880004883,-9.65503978729248,-4.811966419219971
1775728178476587300,17.849587158203125,2.3976082801818848,-9.470791816711426,-4.524827480316162
1775728178495115800,17.86811572265625,2.885744094848633,-9.032905578613281,-4.335794448852539
1775728178513644300,17.886644287109377,6.022734642028809,-8.547162055969238,-4.043870449066162
1775728178532172800,17.9051728515625,10.724631309509277,-8.047062873840332,-1.3902299404144287
1775728178550701300,17.923701416015625,12.9954195022583,-11.794222831726074,-0.7513462901115417
1775728178569229600,17.9422294921875,10.870593070983887,-13.653446197509766,-1.0049854516983032
1775728178587758300,17.96075830078125,4.744967460632324,-17.190038681030273,-3.242274761199951
1775728178606286600,17.97928662109375,0.6460621356964111,-15.859628677368164,-6.996613502502441
1775728178624815000,17.997815185546877,-5.099104881286621,-13.473984718322754,-10.028319358825684
1775728178643343600,18.016343505859375,-8.86780071258545,-10.939985275268555,-9.760323524475098
1775728178661872000,18.0348720703125,-5.6446685791015625,-9.590433120727539,-5.565705299377441
1775728178680400600,18.053400634765627,-0.576670229434967,-7.946564197540283,-0.5551348328590393
1775728178698929200,18.07192919921875,6.857829570770264,-8.0350980758667,2.2851455211639404
1775728178717457700,18.090457763671875,4.474578380584717,-11.775080680847168,0.7800601720809937
1775728178735986200,18.108986083984377,-1.5385849475860596,-12.55992603302002,-2.2372891902923584
1775728178754514700,18.1275146484375,-2.1415762901306152,-12.08614730834961,-6.092126369476318
1775728178773043200,18.146043212890625,0.1986042857170105,-11.519047737121582,-4.843072891235352
1775728178791571700,18.16457177734375,0.08374879509210587,-9.298508644104004,-3.2135608196258545
1775728178819364400,18.1923642578125,1.1437692642211914,-9.1716890335083,-2.3569302558898926
1775728178837893000,18.21089306640625,3.0484559535980225,-8.176275253295898,-1.3902299404144287
1775728178856421400,18.22942138671875,4.457828521728516,-8.142775535583496,-2.2157537937164307
1775728178874950000,18.247949951171876,4.161118507385254,-8.47298526763916,-2.5938198566436768
1775728178893478700,18.266478759765626,3.8213376998901367,-7.853243827819824,-3.345165967941284
1775728178912007200,18.285007080078124,4.41475772857666,-7.460821151733398,-5.020142078399658
1775728178930535400,18.303535400390626,4.086941242218018,-6.975078105926514,-5.101497650146484
1775728178949064000,18.32206396484375,3.5365917682647705,-6.321837425231934,-3.0556344985961914
1775728178967592700,18.3405927734375,2.699103832244873,-6.795616149902344,-2.203789710998535
1775728178986121200,18.359121337890624,1.3423734903335571,-6.675975322723389,-2.3090739250183105
1775728179004649500,18.3776494140625,1.155733346939087,-5.910272121429443,-2.926422119140625
1775728179023178200,18.39617822265625,1.0863415002822876,-6.434299945831299,-3.0867412090301514
1775728179041706800,18.414706787109374,3.170490026473999,-7.101897716522217,-2.557927370071411
1775728179060235300,18.4332353515625,2.1678972244262695,-7.910671710968018,-1.3591232299804688
1775728179078763800,18.451763671875,-0.9044869542121887,-7.779066562652588,-2.414358139038086
1775728179097292300,18.470292236328124,-1.7156537771224976,-6.752545356750488,-3.211168050765991
1775728179115820800,18.48882080078125,1.1150553226470947,-7.477570533752441,-2.0554347038269043
1775728179134349300,18.507349365234376,7.226324558258057,-6.898507595062256,-1.3471591472625732
1775728179152877800,18.5258779296875,7.724031448364258,-8.874979019165039,-4.063013076782227
1775728179171406300,18.54440625,-0.7489534616470337,-11.040483474731445,-6.099305152893066
1775728179189934800,18.562934814453126,-0.5431707501411438,-9.678967475891113,-6.03948450088501
1775728179217727500,18.5907275390625,6.872186660766602,-9.396614074707031,-5.508277893066406
1775728179236256300,18.60925634765625,11.452049255371094,-7.283751964569092,-4.634897232055664
1775728179254784800,18.62778466796875,8.62612533569336,-11.68175983428955,-3.840480327606201
1775728179273313300,18.646313232421875,3.9984066486358643,-13.234702110290527,-1.8424733877182007
1775728179291841800,18.664841796875,8.271987915039062,-14.612967491149902,-2.6177480220794678
1775728179310370300,18.683370361328127,7.444071292877197,-18.20220184326172,-4.151547431945801
1775728179328898800,18.70189892578125,1.4428720474243164,-18.939191818237305,-7.3675007820129395
1775728179347427300,18.72042724609375,0.16271193325519562,-15.354743003845215,-9.31047248840332
1775728179365955800,18.738955810546877,3.0412776470184326,-9.394221305847168,-5.26181697845459
1775728179384484400,18.757484375,4.453042984008789,-6.302694797515869,-1.2897313833236694
1775728179403013000,18.77601318359375,3.737588882446289,-5.718846321105957,1.2251251935958862
1775728179421541600,18.794541748046875,1.8831514120101929,-6.515655994415283,0.97148597240448
1775728179440070100,18.813070068359377,-0.550349235534668,-6.556334018707275,-0.34695929288864136
1775728179458598700,18.8315986328125,-1.7826528549194336,-5.706881999969482,-2.1056840419769287
1775728179477127200,18.850127197265625,-0.6532405614852905,-4.814359188079834,-1.7994025945663452
1775728179495655700,18.86865576171875,1.124626636505127,-3.8835511207580566,-0.2105683982372284
1775728179514184200,18.88718408203125,1.8137595653533936,-3.22552490234375,2.1343977451324463
1775728179532712700,18.905712646484375,2.6608188152313232,-3.0029923915863037,2.7014968395233154
1775728179551241200,18.9242412109375,4.457828521728516,-3.649054527282715,1.5002998113632202
1775728179569770000,18.94277001953125,5.7164530754089355,-4.297509670257568,0.3158525824546814
1775728179588298500,18.961298583984377,5.623133182525635,-3.950550079345703,-0.41156548261642456
1775728179606827000,18.979826904296875,5.194818019866943,-3.6083765029907227,-1.698904037475586
1775728179625355500,18.99835546875,5.010570526123047,-5.312066078186035,-3.326023578643799
1775728179643884000,19.016884033203127,5.682953834533691,-6.754938125610352,-4.979464054107666
1775728179662412800,19.035412841796877,5.812166213989258,-7.812565803527832,-5.357530117034912
1775728179680941300,19.05394140625,4.886143684387207,-7.262216567993164,-4.548755645751953
1775728179699469800,19.0724697265625,3.6921253204345703,-6.532405853271484,-3.8189449310302734
1775728179717998300,19.090998291015627,3.5222349166870117,-6.900900363922119,-4.721039295196533
1775728179736526800,19.10952685546875,4.455435752868652,-7.712067604064941,-5.788238048553467
1775728179755055400,19.128055419921875,4.443471431732178,-7.676175117492676,-5.326423168182373
1775728179773584100,19.146584228515625,7.03489875793457,-8.884550094604492,-4.917250633239746
1775728179792112600,19.165112548828127,8.635697364807129,-11.815757751464844,-3.572484254837036
1775728179810641200,19.18364111328125,1.5625132322311401,-16.060625076293945,-2.3736801147460938
1775728179829169700,19.202169677734375,-5.606383323669434,-16.26162338256836,-1.373480200767517
1775728179847698200,19.2206982421875,10.2747802734375,-14.335400581359863,-3.1920254230499268
1775728179866227000,19.23922705078125,13.97408390045166,-15.649060249328613,-7.11146879196167
1775728179884755500,19.25775537109375,-6.223731517791748,-15.18006706237793,-6.302694797515869
1775728179903284000,19.276283935546875,-7.637889862060547,-14.718252182006836,-6.735795974731445
1775728179921812500,19.2948125,-0.973878800868988,-12.378071784973145,-4.591826438903809
1775728179940341000,19.313341064453127,5.149354457855225,-11.258230209350586,-1.8496519327163696
1775728179958869800,19.331869873046877,4.053441524505615,-12.088540077209473,-2.5842485427856445
1775728179977398300,19.350398193359375,1.1389836072921753,-12.63888931274414,-3.9122650623321533
1775728179995926800,19.3689267578125,0.062213387340307236,-10.671989440917969,-4.175475597381592
1775728180014455300,19.387455322265627,1.5864413976669312,-8.317451477050781,-4.405186653137207
1775728180032984000,19.405984130859373,3.1202406883239746,-6.898507595062256,-3.933800458908081
1775728180051512600,19.4245126953125,4.314259052276611,-6.068198204040527,-2.943171739578247
1775728180070041000,19.443041015625,4.778466701507568,-6.1399827003479,-2.9479575157165527
1775728180088569600,19.461569580078127,5.056034088134766,-5.3216376304626465,-1.5625132322311401
1775728180107098000,19.48009814453125,4.697110652923584,-4.711467742919922,-0.9834501147270203
1775728180125627000,19.498626953125,3.4719855785369873,-5.91505765914917,-2.3545374870300293
1775728180144155400,19.5171552734375,2.6871397495269775,-6.474977970123291,-2.311466693878174
1775728180162684000,19.535683837890623,4.120440483093262,-6.317051887512207,-2.328216314315796
1775728180181212400,19.55421240234375,4.086941242218018,-6.829115867614746,-2.227717876434326
1775728180199741200,19.5727412109375,3.373879909515381,-6.297909259796143,-1.2586246728897095
1775728180218269700,19.591269775390625,2.730210542678833,-6.6831536293029785,-1.3304094076156616
1775728180236798200,19.609798095703123,3.2207393646240234,-7.140182971954346,-2.148754835128784
1775728180255327000,19.628326904296873,2.9359934329986572,-7.389036178588867,-2.6297121047973633
1775728180273855500,19.64685546875,2.1032910346984863,-7.401000499725342,-3.617947816848755
1775728180292384000,19.665384033203125,2.5292134284973145,-7.613961696624756,-5.295316696166992
1775728180310912500,19.68391259765625,4.106083869934082,-8.075776100158691,-5.240281581878662
1775728180329441300,19.702441162109373,3.3475589752197266,-10.059426307678223,-5.185246467590332
1775728180347969800,19.7209697265625,7.551748275756836,-8.71226692199707,-2.7038896083831787
1775728180366498300,19.739498291015625,13.598411560058594,-10.526026725769043,-0.11485548317432404
1775728180385027000,19.758027099609375,10.226923942565918,-14.739787101745605,-3.8572301864624023
1775728180403555600,19.7765556640625,7.1856465339660645,-21.126230239868164,-7.599604606628418
1775728180422084000,19.795083984375,5.757131099700928,-21.360727310180664,-7.8556365966796875
1775728180449877000,19.822876953125,1.6941183805465698,-14.459827423095703,-6.774080753326416
1775728180468405500,19.841405517578124,1.1485549211502075,-10.497312545776367,-4.72582483291626
1775728180486934300,19.859934326171874,1.5337992906570435,-8.212167739868164,-1.3208380937576294
1775728180505462800,19.878462890625,2.478964328765869,-6.221338748931885,3.1202406883239746
1775728180523991300,19.8969912109375,2.675175666809082,-5.125426292419434,4.022335052490234
1775728180542520000,19.91552001953125,1.2801600694656372,-5.735595703125,0.3278166949748993
1775728180561048600,19.934048583984374,-0.9810572862625122,-6.027520179748535,-2.3976082801818848
1775728180579577000,19.9525771484375,-1.4691931009292603,-5.00578498840332,-2.376072883605957
1775728180598105900,19.97110595703125,0.1866401731967926,-3.8524444103240967,0.33020952343940735
1775728180616634400,19.98963427734375,1.2945170402526855,-2.7732813358306885,2.0673987865448
1775728180635163100,20.0081630859375,1.7180466651916504,-2.7326035499572754,2.242074728012085
1775728180653691600,20.026691650390624,1.8759729862213135,-3.0963125228881836,1.057627558708191
1775728180672220200,20.04522021484375,2.6967110633850098,-3.625126361846924,-0.5742774605751038
1775728180690748700,20.063748779296876,3.249453067779541,-4.644468784332275,-1.3423734903335571
1775728180709277400,20.08227734375,4.244867324829102,-5.101497650146484,-1.7419748306274414
1775728180727806000,20.100805908203125,5.285745143890381,-5.642275810241699,-3.1034910678863525
1775728180746334500,20.11933447265625,6.711867332458496,-6.333801746368408,-4.460221290588379
1775728180764863200,20.13786328125,6.8004021644592285,-6.936792850494385,-4.106083869934082
1775728180783391700,20.156391845703126,5.613562107086182,-8.475378036499023,-4.34536600112915
1775728180801920500,20.17492041015625,4.199403762817383,-9.389435768127441,-4.321437835693359
1775728180820449000,20.193448974609375,4.433900356292725,-9.219545364379883,-3.8261234760284424
1775728180838977500,20.2119775390625,4.828716278076172,-8.365307807922363,-3.555734395980835
1775728180857506300,20.23050634765625,6.757331371307373,-7.365108013153076,-3.1992039680480957
1775728180876034800,20.249034912109376,7.913064479827881,-9.343972206115723,-2.7972097396850586
1775728180894563300,20.267563232421875,7.489534854888916,-12.416357040405273,-2.6009981632232666
1775728180913092000,20.286092041015625,3.617947816848755,-15.54377555847168,-3.4097721576690674
1775728180931620600,20.30462060546875,2.778067111968994,-17.125431060791016,-3.218346357345581
1775728180950149400,20.3231494140625,14.498112678527832,-16.735401153564453,-5.185246467590332
1775728180968678000,20.341677978515627,-4.074976921081543,-16.132410049438477,-7.0995049476623535
1775728180987206700,20.36020654296875,-10.834700584411621,-16.97468376159668,-7.905886173248291
1775728181005735200,20.378735107421875,-8.666803359985352,-11.789437294006348,-4.2281174659729
1775728181024263700,20.397263671875,6.474977970123291,-9.41336441040039,-0.4307080805301666
1775728181042792400,20.41579248046875,11.83729362487793,-10.104889869689941,0.6197410821914673
1775728181061321000,20.434321044921877,1.428515076637268,-11.298908233642578,-1.545763373374939
1775728181079849700,20.452849609375,-2.249253273010254,-11.889935493469238,-4.551148891448975
1775728181098378200,20.471378173828125,1.7084753513336182,-10.932806968688965,-6.91765022277832
1775728181116906800,20.48990673828125,4.374079704284668,-9.616754531860352,-5.4556355476379395
1775728181135435500,20.508435546875,2.2923240661621094,-8.34855842590332,-3.964907169342041
1775728181153964000,20.526964111328127,1.2705888748168945,-7.477570533752441,-3.9050865173339844
1775728181172492800,20.545492919921877,3.3020951747894287,-6.403193473815918,-2.6081767082214355
1775728181191021300,20.564021240234375,5.2115678787231445,-5.182853698730469,-1.4835500717163086
1775728181209550000,20.582550048828125,5.01296329498291,-5.711667537689209,-2.7397818565368652
1775728181228078600,20.60107861328125,3.6777684688568115,-6.783652305603027,-3.2279176712036133
1775728181246607400,20.619607421875,3.029313564300537,-6.8865437507629395,-2.65842604637146
1775728181265135900,20.638135986328123,2.9048867225646973,-6.6831536293029785,-2.2396819591522217
1775728181283664600,20.65666455078125,4.577469825744629,-5.9198431968688965,-1.954936146736145
1775728181302193200,20.675193115234375,5.3216376304626465,-6.142375946044922,-2.6943182945251465
1775728181320721700,20.6937216796875,2.7876384258270264,-7.128218650817871,-3.9792640209198
1775728181339250400,20.71225048828125,0.6029912829399109,-6.678368091583252,-3.517449378967285
1775728181357779200,20.730779296875,0.7800601720809937,-5.584847927093506,-1.2346965074539185
1775728181376307700,20.7493076171875,2.761317253112793,-6.778866767883301,-0.550349235534668
1775728181394836200,20.767836181640625,3.9457645416259766,-6.216553211212158,-2.0721843242645264
1775728181413365000,20.786364990234375,4.835894584655762,-7.412964344024658,-3.376272678375244
1775728181431893800,20.804893798828125,5.709274768829346,-8.561519622802734,-4.359723091125488
1775728181450422300,20.82342236328125,7.934599876403809,-10.095318794250488,-2.7828526496887207
1775728181468951000,20.841950927734374,7.063612461090088,-11.382657051086426,-2.1511476039886475
1775728181487479600,20.8604794921875,6.742974281311035,-12.251252174377441,-3.8668015003204346
1775728181506008300,20.87900830078125,8.752944946289062,-13.452448844909668,-5.580062389373779
1775728181524537000,20.897537109375,7.348358154296875,-16.527225494384766,-5.694917678833008
1775728181543065600,20.916065673828125,6.604190349578857,-19.13779640197754,-6.551548480987549
1775728181561594400,20.934594482421875,6.259624004364014,-16.429121017456055,-8.630910873413086
1775728181580123000,20.953122802734374,2.581855535507202,-13.988441467285156,-7.338787078857422
1775728181598651600,20.971651611328124,0.5431707501411438,-10.535597801208496,-3.6777684688568115
1775728181617180200,20.99018017578125,1.1748759746551514,-7.936992645263672,-0.6652047038078308
1775728181635709000,21.008708984375,2.6464617252349854,-5.807380676269531,1.8735800981521606
1775728181654237400,21.027237548828126,2.572284460067749,-5.745167255401611,2.2301106452941895
1775728181672766200,21.04576611328125,0.607776939868927,-5.106283664703369,0.9188438653945923
1775728181691294700,21.064294677734374,-0.19621145725250244,-4.524827480316162,-0.34217363595962524
1775728181709823500,21.082823486328124,-0.2392822653055191,-4.053441524505615,-0.5431707501411438
1775728181728352300,21.101352294921874,0.6652047038078308,-3.3786656856536865,-0.28235307335853577
1775728181746880800,21.119880859375,1.495514154434204,-3.2518460750579834,-0.11006984114646912
1775728181765409500,21.138409423828126,1.672582983970642,-3.3164522647857666,0.38285163044929504
1775728181783938000,21.15693798828125,2.400001049041748,-2.9383862018585205,1.0097711086273193
1775728181802466800,21.175466796875,3.9218363761901855,-3.06999135017395,0.3397808074951172
1775728181820995300,21.193995361328124,5.340780258178711,-4.364508628845215,-0.15314064919948578
1775728181839524000,21.212524169921874,6.8554368019104,-5.376672267913818,-1.1629117727279663
1775728181858052900,21.231052978515624,7.300501823425293,-5.900700569152832,-2.8737800121307373
1775728181876581400,21.249581298828126,5.807380676269531,-8.15234661102295,-5.077569484710693
1775728181895110100,21.268110107421876,4.398007869720459,-9.332008361816406,-5.953342914581299
1775728181913638700,21.286638671875,5.113461971282959,-9.468399047851562,-6.472585201263428
1775728181932167400,21.30516748046875,5.558526992797852,-8.508877754211426,-5.472385406494141
1775728181950696200,21.3236962890625,5.340780258178711,-7.140182971954346,-3.1274192333221436
1775728181969224700,21.342224609375,4.1491546630859375,-6.888936519622803,-2.4358935356140137
1775728181987753500,21.36075341796875,4.3070807456970215,-6.374479293823242,-2.6249263286590576
1775728182006282000,21.379281982421876,5.905486106872559,-8.015955924987793,-2.50289249420166
1775728182024810800,21.397810791015626,5.979663848876953,-10.798809051513672,-2.3162522315979004
1775728182043339500,21.416339599609376,-1.8137595653533936,-12.847064971923828,-1.0911271572113037
1775728182061868000,21.434867919921874,0.4977070987224579,-17.52981948852539,1.5696916580200195
1775728182080396800,21.453396728515624,31.080373764038086,-19.125831604003906,-0.3206382393836975
1775728182098925600,21.471925537109374,3.3379876613616943,-16.792829513549805,-6.4701924324035645
1775728182117454000,21.4904541015625,-13.830514907836914,-16.62533187866211,-11.138589859008789
1775728182135982800,21.50898291015625,-13.191631317138672,-15.950555801391602,-8.846264839172363
1775728182154511600,21.52751171875,-0.7465606927871704,-10.604990005493164,-1.31365966796875
1775728182173040000,21.5460400390625,16.637296676635742,-10.040284156799316,0.605384111404419
1775728182191569000,21.56456884765625,7.714460372924805,-12.734601974487305,-1.6295121908187866
1775728182210097400,21.583097412109375,-2.7349963188171387,-12.04068374633789,-3.19441819190979
1775728182228626200,21.601626220703125,-0.8446664214134216,-10.686346054077148,-6.829115867614746
1775728182247155000,21.620155029296875,3.084348440170288,-8.642875671386719,-8.197810173034668
1775728182265683500,21.638683349609376,3.955335855484009,-7.094718933105469,-5.769095420837402
1775728182284212200,21.657212158203127,3.067598581314087,-6.345765590667725,-3.5844483375549316
1775728182302741000,21.675740966796877,3.4791641235351562,-5.702096462249756,-1.399801254272461
1775728182321269500,21.69426953125,3.9864425659179688,-4.6372904777526855,0.016749758273363113
1775728182339798300,21.71279833984375,4.395615100860596,-4.716253280639648,-0.6460621356964111
1775728182358327000,21.7313271484375,3.6466617584228516,-5.458028316497803,-2.9934210777282715
1775728182376855600,21.74985546875,2.045863389968872,-6.417550563812256,-4.216153621673584
1775728182395384300,21.76838427734375,1.1772687435150146,-6.776473522186279,-3.7088751792907715
1775728182413913000,21.7869130859375,2.0410776138305664,-5.580062389373779,-1.306481122970581
1775728182432441600,21.805441650390627,3.5270206928253174,-5.254638671875,-0.6149554252624512
1775728182450970400,21.823970458984373,6.183053493499756,-5.903093338012695,-1.093519926071167
1775728182469499100,21.8424990234375,4.417150497436523,-7.204789161682129,-1.435693621635437
1775728182488028000,21.86102783203125,0.31106695532798767,-7.3914289474487305,-2.4095723628997803
1775728182506556400,21.879556396484375,1.9214365482330322,-6.908079147338867,-4.718646049499512
1775728182525085200,21.898085205078125,6.807580471038818,-7.846065521240234,-5.139782905578613
1775728182543614000,21.916614013671875,8.226524353027344,-8.664410591125488,-4.486542224884033
1775728182562142700,21.935142822265625,6.065805435180664,-10.805987358093262,-4.232903480529785
1775728182580671200,21.953671142578123,3.022135019302368,-11.897113800048828,-2.974278450012207
1775728182599200000,21.972199951171874,8.087740898132324,-11.236695289611816,-2.8043880462646484
1775728182617728500,21.990728515625,14.883357048034668,-14.263615608215332,-5.115854740142822
1775728182636257300,22.00925732421875,7.554141044616699,-17.89113426208496,-7.0995049476623535
1775728182654786000,22.0277861328125,0.6293123364448547,-18.922441482543945,-7.020541667938232
1775728182673314600,22.046314453125,2.196611166000366,-16.98904037475586,-6.276373863220215
1775728182691843300,22.06484326171875,4.077369689941406,-13.284951210021973,-4.658825874328613
1775728182710372000,22.0833720703125,2.7349963188171387,-9.915857315063477,-2.8689942359924316
1775728182728900900,22.10190087890625,1.2346965074539185,-7.759923934936523,-1.672582983970642
1775728182747429400,22.120429443359374,0.4737788736820221,-6.814758777618408,0.729810893535614
1775728182765958100,22.138958251953124,0.8733802437782288,-5.599205017089844,2.8737800121307373
1775728182784487000,22.15748681640625,1.5720844268798828,-5.309673309326172,2.7637102603912354
1775728182803015700,22.176015625,0.8542376756668091,-5.237888813018799,0.35892340540885925
1775728182821544200,22.194544189453126,-0.5551348328590393,-5.383851051330566,-2.0171494483947754
1775728182840073000,22.213072998046876,-0.5934200286865234,-5.197210788726807,-1.7754744291305542
1775728182858601700,22.231601806640626,-0.06939185410737991,-4.7234320640563965,-0.5886343717575073
1775728182877130500,22.250130615234376,0.5814558863639832,-4.577469825744629,-0.0023928226437419653
1775728182895659000,22.268658935546874,1.734796404838562,-4.185046672821045,0.39481574296951294
1775728182914187800,22.287187744140624,2.706282377243042,-4.125226020812988,0.6699903607368469
1775728182932716500,22.305716552734374,3.562912940979004,-4.4482574462890625,0.5024927258491516
1775728182951245300,22.324245361328124,5.4867424964904785,-4.443471431732178,0.08853443711996078
1775728182969773800,22.34277392578125,6.687939167022705,-5.3216376304626465,-1.428515076637268
1775728182988302600,22.361302490234376,6.424728870391846,-5.338387489318848,-3.201596736907959
1775728183006831400,22.379831298828126,6.288337707519531,-6.128018856048584,-4.823930263519287
1775728183025360000,22.39835986328125,6.082555294036865,-7.085147857666016,-6.175875186920166
1775728183043888600,22.416888671875,6.427121639251709,-7.635497093200684,-5.546562671661377
1775728183062417400,22.43541748046875,6.1088762283325195,-7.747959613800049,-3.9074792861938477
1775728183080946200,22.4539462890625,4.704289436340332,-8.915657043457031,-3.4504501819610596
1775728183099475000,22.472474853515624,4.6301116943359375,-9.104690551757812,-4.18983268737793
1775728183118003500,22.49100341796875,7.503891944885254,-10.856236457824707,-5.395814895629883
1775728183136532200,22.5095322265625,6.111268997192383,-12.942777633666992,-6.147161483764648
1775728183155061000,22.52806103515625,-0.380458801984787,-14.335400581359863,-3.8356947898864746
1775728183173589800,22.54658984375,-5.441278457641602,-13.665410041809082,-1.7539390325546265
1775728183192118500,22.565118408203126,6.4941205978393555,-13.37587833404541,-0.5264210104942322
1775728183210647000,22.58364697265625,19.0588321685791,-15.998412132263184,-3.438486099243164
1775728183229175800,22.60217578125,4.405186653137207,-15.299708366394043,-1.160519003868103
1775728183247704600,22.62070458984375,-8.879764556884766,-16.71147346496582,-2.579462766647339
1775728183266233300,22.6392333984375,-8.10688304901123,-13.131811141967773,-5.742774486541748
1775728183284761900,22.657761962890625,0.6580262184143066,-11.832508087158203,-5.225924491882324
1775728183303290600,22.67629052734375,7.386643409729004,-11.00459098815918,-3.4241292476654053
1775728183321819400,22.6948193359375,6.254838466644287,-10.904092788696289,-2.6727828979492188
1775728183340348200,22.71334814453125,2.581855535507202,-10.435099601745605,-2.335394859313965
1775728183358877000,22.731876953125,1.1150553226470947,-9.585647583007812,-3.4265220165252686
1775728183377405400,22.750405517578123,1.0815558433532715,-8.319844245910645,-4.859822750091553
1775728183395934200,22.768934326171873,1.5601203441619873,-7.195217609405518,-5.364708423614502
1775728183414463000,22.787462890625,1.9334007501602173,-6.649653911590576,-4.826323509216309
1775728183432991700,22.80599169921875,3.218346357345581,-6.240481376647949,-3.7112679481506348
1775728183451520500,22.8245205078125,3.751945972442627,-5.498706340789795,-2.579462766647339
1775728183470049300,22.84304931640625,3.7471601963043213,-5.4628143310546875,-1.6295121908187866
1775728183488577800,22.861577880859375,2.9790642261505127,-5.410171985626221,-1.7228323221206665
1775728183507106600,22.8801064453125,2.108076810836792,-6.049055576324463,-2.455035924911499
1775728183525635300,22.89863525390625,2.445464849472046,-5.936593055725098,-2.6632115840911865
1775728183544164000,22.9171640625,2.7565317153930664,-5.460421085357666,-2.4263222217559814
1775728183562692600,22.935692626953124,3.7328033447265625,-4.577469825744629,-2.2707886695861816
1775728183581221400,22.954221435546874,5.661418437957764,-6.005984783172607,-2.6177480220794678
1775728183599750100,22.972750244140624,3.9625144004821777,-7.599604606628418,-2.7517459392547607
1775728183618279000,22.99127880859375,0.49292147159576416,-8.398807525634766,-3.3379876613616943
1775728183636807700,23.0098076171875,-0.6317051649093628,-6.893722057342529,-2.943171739578247
1775728183655336400,23.02833642578125,2.794816732406616,-7.769495010375977,-3.5988051891326904
1775728183673865200,23.046865234375,6.379265308380127,-9.681360244750977,-4.333401679992676
1775728183692393700,23.065393798828126,9.810572624206543,-10.243673324584961,-3.7710886001586914
1775728183710922500,23.083922607421876,9.047262191772461,-13.27538013458252,-3.294916868209839
1775728183729451300,23.102451171875,9.602396965026855,-15.007783889770508,-2.8594231605529785
1775728183747980000,23.12097998046875,10.803594589233398,-18.324235916137695,-5.443671703338623
1775728183766508800,23.1395087890625,6.022734642028809,-19.814964294433594,-9.647860527038574
1775728183785037600,23.15803759765625,0.8638089895248413,-16.63968849182129,-8.992227554321289
1775728183803566300,23.17656640625,0.2919243574142456,-14.23011589050293,-8.154739379882812
1775728183822094800,23.1950947265625,0.038285162299871445,-10.767702102661133,-6.008377552032471
1775728183840623600,23.21362353515625,0.7178468108177185,-8.195417404174805,-2.991028308868408
1775728183859152400,23.23215234375,1.3926228284835815,-5.891129493713379,0.7154539823532104
1775728183877681200,23.25068115234375,1.765903115272522,-4.098905086517334,3.728017568588257
1775728183896210000,23.2692099609375,1.275374412536621,-3.570091485977173,4.347758769989014
1775728183914738400,23.287738525390626,-0.2967100143432617,-4.498506546020508,1.6342978477478027
1775728183933267200,23.30626708984375,-2.3234307765960693,-4.6995038986206055,-0.9379864931106567
1775728183951796000,23.3247958984375,-2.194218397140503,-4.8574299812316895,-1.6462619304656982
1775728183970324700,23.34332470703125,-1.1509476900100708,-4.232903480529785,-1.2490534782409668
1775728183988853500,23.361853515625,0.5886343717575073,-4.524827480316162,-0.6556333899497986
1775728184007382300,23.38038232421875,2.4670002460479736,-3.8213376998901367,0.2273181527853012
1775728184025911000,23.3989111328125,3.806980848312378,-4.1419758796691895,0.2871387302875519
1775728184044439800,23.417439697265625,4.716253280639648,-4.809573650360107,-0.31824541091918945
1775728184062968300,23.43596826171875,6.041877269744873,-5.271388053894043,-1.5098711252212524
1775728184081497000,23.4544970703125,7.496713161468506,-6.0466628074646,-3.6227335929870605
1775728184100025900,23.47302587890625,7.944170951843262,-6.623332977294922,-4.599005222320557
1775728184118554600,23.4915546875,7.8556365966796875,-7.377072334289551,-4.2281174659729
1775728184137083400,23.51008349609375,6.888936519622803,-8.094919204711914,-4.859822750091553
1775728184155612200,23.528612060546877,5.003392219543457,-8.310273170471191,-5.032105922698975
1775728184174141000,23.547140869140627,4.058227062225342,-7.769495010375977,-4.450650215148926
1775728184192669700,23.565669677734373,5.388636589050293,-7.960920810699463,-3.0723843574523926
1775728184211198500,23.584198486328123,10.059426307678223,-11.2247314453125,-1.4811571836471558
1775728184229727200,23.602727294921873,9.293723106384277,-13.555339813232422,-1.4763715267181396
1775728184248256000,23.621256103515623,-2.3497519493103027,-14.83789348602295,-4.60139799118042
1775728184266784800,23.63978466796875,-6.31944465637207,-13.840085983276367,-3.3858439922332764
1775728184285313500,23.6583134765625,8.023134231567383,-15.680167198181152,-4.115654945373535
1775728184303842300,23.67684228515625,7.733603000640869,-13.024133682250977,-3.2159535884857178
