time,seconds_elapsed,z,y,x
1775728160725529900,0.09852978515625,2.7493648529052734,-9.409798622131348,0.25896304845809937
1775728160744057600,0.1170576171875,2.7610816955566406,-9.40641975402832,0.25706711411476135
1775728160762585300,0.13558544921875,2.7481954097747803,-9.409931182861328,0.26645904779434204
1775728160781113300,0.15411328125,2.743032693862915,-9.410487174987793,0.298141747713089
1775728160799641000,0.17264111328125,2.747288465499878,-9.408102035522461,0.3322756290435791
1775728160818169000,0.191169189453125,2.735499382019043,-9.410355567932129,0.3642016053199768
1775728160836696800,0.20969677734375,2.71106219291687,-9.417031288146973,0.37423646450042725
1775728160855224600,0.228224609375,2.702751398086548,-9.41927719116211,0.3778074085712433
1775728160873752600,0.246752685546875,2.722862482070923,-9.413260459899902,0.383317232131958
1775728160892280300,0.2652802734375,2.736713171005249,-9.40848445892334,0.4014975428581238
1775728160910808000,0.28380810546875,2.7276113033294678,-9.409994125366211,0.42724964022636414
1775728160929336000,0.302336181640625,2.7130637168884277,-9.413407325744629,0.4443255066871643
1775728160947863800,0.32086376953125,2.725767135620117,-9.40973949432373,0.44427961111068726
1775728160966391800,0.339391845703125,2.7443647384643555,-9.404318809509277,0.44457298517227173
1775728160984919600,0.35791943359375,2.753687858581543,-9.401535987854004,0.4457997977733612
1775728161003447600,0.376447509765625,2.7610132694244385,-9.399328231811523,0.4470149278640747
1775728161021975300,0.394975341796875,2.764137029647827,-9.398518562316895,0.4447094798088074
1775728161040503000,0.4135029296875,2.76198148727417,-9.399388313293457,0.43969184160232544
1775728161059031000,0.432031005859375,2.7586262226104736,-9.40044116973877,0.4382690489292145
1775728161077558800,0.450558837890625,2.7558467388153076,-9.40121078491211,0.43926167488098145
1775728161096086500,0.46908642578125,2.757727861404419,-9.400710105895996,0.4381374716758728
1775728161114614500,0.487614501953125,2.765460252761841,-9.3986177444458,0.4343051612377167
1775728161133142300,0.506142333984375,2.768183469772339,-9.398003578186035,0.4302173852920532
1775728161151670300,0.524670166015625,2.7665464878082275,-9.39862060546875,0.4272466003894806
1775728161170198000,0.543197998046875,2.762101411819458,-9.400162696838379,0.42204713821411133
1775728161188725800,0.561725830078125,2.762807607650757,-9.400272369384766,0.4149313271045685
1775728161207253800,0.580253662109375,2.764228343963623,-9.399971008300781,0.41228052973747253
1775728161225781500,0.598781494140625,2.7592782974243164,-9.401534080505371,0.40977272391319275
1775728161244309500,0.6173095703125,2.754997968673706,-9.402996063232422,0.4050070643424988
1775728161262837200,0.635837158203125,2.757042646408081,-9.402490615844727,0.4028435945510864
1775728161281365200,0.654365234375,2.758885383605957,-9.40195083618164,0.40280887484550476
1775728161299893000,0.67289306640625,2.758697748184204,-9.40207576751709,0.4011915922164917
1775728161318420700,0.691420654296875,2.7518396377563477,-9.404329299926758,0.39543214440345764
1775728161336948700,0.70994873046875,2.742321729660034,-9.407443046569824,0.3873755633831024
1775728161355476500,0.7284765625,2.7380878925323486,-9.408860206604004,0.38288864493370056
1775728161374004200,0.747004150390625,2.7352609634399414,-9.409846305847168,0.3788299858570099
1775728161392532200,0.7655322265625,2.728790044784546,-9.412155151367188,0.36800727248191833
1775728161411060000,0.78406005859375,2.724297523498535,-9.414471626281738,0.34107109904289246
1775728161429588000,0.802587890625,2.7162559032440186,-9.417622566223145,0.3173728883266449
1775728161448115700,0.82111572265625,2.7070281505584717,-9.420636177062988,0.30656978487968445
1775728161466643500,0.8396435546875,2.701669216156006,-9.422635078430176,0.2920905649662018
1775728161485171500,0.85817138671875,2.7008280754089355,-9.423332214355469,0.2769692540168762
1775728161503699200,0.87669921875,2.699388265609741,-9.424586296081543,0.24671977758407593
1775728161522227200,0.895227294921875,2.6989755630493164,-9.425997734069824,0.19106580317020416
1775728161540755000,0.9137548828125,2.702178955078125,-9.425971031188965,0.14031419157981873
1775728161559283000,0.932282958984375,2.7114806175231934,-9.423357009887695,0.1363365203142166
1775728161577810700,0.950810791015625,2.7227783203125,-9.420175552368164,0.13102620840072632
1775728161596338700,0.969338623046875,2.7252748012542725,-9.419717788696289,0.11033763736486435
1775728161614866400,0.987866455078125,2.719120740890503,-9.421785354614258,0.08204572647809982
1775728161633394400,1.00639453125,2.716285228729248,-9.422850608825684,0.045587390661239624
1775728161651922200,1.024922119140625,2.7174625396728516,-9.422590255737305,0.024183278903365135
1775728161670450000,1.043449951171875,2.7194766998291016,-9.42199993133545,0.027499325573444366
1775728161688978000,1.06197802734375,2.7258801460266113,-9.420145988464355,0.02868962660431862
1775728161707505700,1.080505615234375,2.7344353199005127,-9.417668342590332,0.027635887265205383
1775728161726033700,1.09903369140625,2.7393558025360107,-9.416251182556152,0.023126330226659775
1775728161744561400,1.1175615234375,2.7421486377716064,-9.415448188781738,0.018657580018043518
1775728161763089400,1.13608935546875,2.7455341815948486,-9.414474487304688,0.009678862988948822
1775728161781617200,1.1546171875,2.750990867614746,-9.412885665893555,0.002890553791075945
1775728161800145200,1.173145263671875,2.752505302429199,-9.412443161010742,-0.0033316826447844505
1775728161818673000,1.1916728515625,2.750053644180298,-9.413147926330566,-0.01592678390443325
1775728161837201000,1.210200927734375,2.749492883682251,-9.413289070129395,-0.025727294385433197
1775728161855728600,1.228728759765625,2.748035430908203,-9.413688659667969,-0.033863987773656845
1775728161874256400,1.24725634765625,2.7444913387298584,-9.41470718383789,-0.03800605610013008
1775728161892784400,1.265784423828125,2.744328498840332,-9.414727210998535,-0.044247105717659
1775728161911312100,1.28431201171875,2.7414450645446777,-9.415560722351074,-0.04566177725791931
1775728161929840000,1.302840087890625,2.7427752017974854,-9.415201187133789,-0.03936582803726196
1775728161948368000,1.321367919921875,2.74080753326416,-9.415769577026367,-0.04050027206540108
1775728161966895900,1.339895751953125,2.737257480621338,-9.41678524017334,-0.044564537703990936
1775728161985423600,1.358423583984375,2.7352805137634277,-9.417353630065918,-0.045476049184799194
1775728162003951600,1.37695166015625,2.733532190322876,-9.41787052154541,-0.0435318797826767
1775728162022479600,1.395479736328125,2.7336721420288086,-9.417839050292969,-0.04158325493335724
1775728162041007400,1.41400732421875,2.7431836128234863,-9.415085792541504,-0.03852028772234917
1775728162059535400,1.432535400390625,2.79319167137146,-9.400379180908203,-0.036569349467754364
1775728162078063000,1.45106298828125,2.8195087909698486,-9.392468452453613,-0.047919098287820816
1775728162096591000,1.469591064453125,2.8081750869750977,-9.39591121673584,-0.03708791360259056
1775728162115118800,1.488118896484375,2.7649805545806885,-9.408712387084961,-0.03751613572239876
1775728162133646600,1.506646484375,2.7583823204040527,-9.410600662231445,-0.047945670783519745
1775728162152174600,1.525174560546875,2.775076150894165,-9.405623435974121,-0.05985531210899353
1775728162170702300,1.543702392578125,2.7595322132110596,-9.410147666931152,-0.06694574654102325
1775728162189230300,1.562230224609375,2.7410967350006104,-9.415360450744629,-0.08806490898132324
1775728162207758000,1.580758056640625,2.73730206489563,-9.415946006774902,-0.132400780916214
1775728162226286000,1.5992861328125,2.7421905994415283,-9.412571907043457,-0.23298093676567078
1775728162244814000,1.61781396484375,2.7298038005828857,-9.411928176879883,-0.36627331376075745
1775728162263341800,1.636341796875,2.7118637561798096,-9.411599159240723,-0.4878246784210205
1775728162281869600,1.65486962890625,2.697993516921997,-9.411907196044922,-0.5542697310447693
1775728162300397600,1.6733974609375,2.6966233253479004,-9.40975284576416,-0.5959513783454895
1775728162318925600,1.691925537109375,2.7035577297210693,-9.406136512756348,-0.6211003661155701
1775728162337453300,1.710453369140625,2.6955721378326416,-9.409276008605957,-0.6081105470657349
1775728162355981300,1.728981201171875,2.6980438232421875,-9.407578468322754,-0.623228907585144
1775728162374509000,1.747509033203125,2.7089593410491943,-9.401885032653809,-0.6606613993644714
1775728162393037000,1.766037109375,2.697169780731201,-9.399154663085938,-0.7426713109016418
1775728162411565000,1.78456494140625,2.6668381690979004,-9.401613235473633,-0.8173387050628662
1775728162430092800,1.8030927734375,2.6528117656707764,-9.39815902709961,-0.898655354976654
1775728162448620500,1.82162060546875,2.6438536643981934,-9.390029907226562,-1.0038741827011108
1775728162467148500,1.8401484375,2.62602162361145,-9.383644104003906,-1.1052731275558472
1775728162485676300,1.85867626953125,2.6375372409820557,-9.370437622070312,-1.186881184577942
1775728162504204300,1.877204345703125,2.6751158237457275,-9.3513822555542,-1.2513158321380615
1775728162522732300,1.895732177734375,2.6944546699523926,-9.34819221496582,-1.233538031578064
1775728162541260000,1.914260009765625,2.7010769844055176,-9.350255966186523,-1.2030375003814697
1775728162559788000,1.9327880859375,2.733677387237549,-9.338289260864258,-1.22218656539917
1775728162578315800,1.951315673828125,2.750736713409424,-9.332734107971191,-1.2263320684432983
1775728162596843800,1.96984375,2.7201316356658936,-9.347294807434082,-1.182944416999817
1775728162615371800,1.988371826171875,2.713771343231201,-9.349447250366211,-1.1805392503738403
1775728162633899500,2.0068994140625,2.739809274673462,-9.338957786560059,-1.2032103538513184
1775728162652427500,2.025427490234375,2.7735707759857178,-9.324687004089355,-1.2360843420028687
1775728162670955300,2.043955322265625,2.7907798290252686,-9.319382667541504,-1.2373604774475098
1775728162689483300,2.062483154296875,2.8354437351226807,-9.305591583251953,-1.2396020889282227
1775728162708011300,2.08101123046875,2.908733367919922,-9.278129577636719,-1.2751312255859375
1775728162726539000,2.0995390625,2.974466562271118,-9.252633094787598,-1.3083224296569824
1775728162745067000,2.11806689453125,3.029926061630249,-9.230731964111328,-1.3354867696762085
1775728162763594800,2.1365947265625,3.089979648590088,-9.210201263427734,-1.3396261930465698
1775728162782122800,2.155122802734375,3.1326632499694824,-9.192765235900879,-1.3600999116897583
1775728162800650800,2.173650634765625,3.152902841567993,-9.17627239227295,-1.4232409000396729
1775728162819178500,2.192178466796875,3.168241500854492,-9.154150009155273,-1.5277975797653198
1775728162837706500,2.21070654296875,3.170121192932129,-9.141695976257324,-1.596910834312439
1775728162856234200,2.229234130859375,3.1892144680023193,-9.127900123596191,-1.6372981071472168
1775728162874762200,2.24776220703125,3.2136356830596924,-9.116332054138184,-1.65391206741333
1775728162893290200,2.266290283203125,3.2803523540496826,-9.094254493713379,-1.6444506645202637
1775728162911818000,2.28481787109375,3.421982526779175,-9.029000282287598,-1.7139350175857544
1775728162930346000,2.303345947265625,3.5249814987182617,-8.960030555725098,-1.8608417510986328
1775728162948874000,2.3218740234375,3.59032940864563,-8.903270721435547,-2.0029215812683105
1775728162967401700,2.340401611328125,3.687399387359619,-8.836749076843262,-2.1178605556488037
1775728162985929700,2.3589296875,3.8067214488983154,-8.766630172729492,-2.1966943740844727
1775728163004457500,2.37745751953125,3.9009087085723877,-8.725171089172363,-2.1965184211730957
1775728163022985500,2.3959853515625,3.9551119804382324,-8.71178913116455,-2.152255058288574
1775728163041513500,2.414513427734375,3.9679532051086426,-8.698997497558594,-2.1801795959472656
1775728163060041200,2.433041259765625,3.8991851806640625,-8.720739364624023,-2.217082977294922
1775728163078569200,2.4515693359375,3.7762742042541504,-8.781682014465332,-2.189110040664673
1775728163097097200,2.47009716796875,3.6714608669281006,-8.835867881774902,-2.1490025520324707
1775728163115625000,2.488625,3.5977871417999268,-8.870013236999512,-2.1328840255737305
1775728163134153000,2.507153076171875,3.61348295211792,-8.867000579833984,-2.118828535079956
1775728163152681000,2.525680908203125,3.6175880432128906,-8.868337631225586,-2.1061878204345703
1775728163171208700,2.544208740234375,3.5988969802856445,-8.87891960144043,-2.09358811378479
1775728163189736700,2.56273681640625,3.6190145015716553,-8.8684663772583,-2.1031973361968994
1775728163208264700,2.5812646484375,3.649886131286621,-8.852754592895508,-2.1160035133361816
1775728163226792400,2.59979248046875,3.6439201831817627,-8.848188400268555,-2.1451780796051025
1775728163245320400,2.618320556640625,3.61051607131958,-8.850078582763672,-2.1933248043060303
1775728163263848400,2.636848388671875,3.5986289978027344,-8.84781551361084,-2.2218055725097656
1775728163282376200,2.655376220703125,3.5921452045440674,-8.85252571105957,-2.213517189025879
1775728163300904200,2.673904296875,3.5658624172210693,-8.865606307983398,-2.2036445140838623
1775728163319432200,2.69243212890625,3.529447078704834,-8.883922576904297,-2.188448429107666
1775728163337960000,2.7109599609375,3.4800620079040527,-8.907835960388184,-2.170255184173584
1775728163356488000,2.729488037109375,3.440505027770996,-8.925628662109375,-2.160200834274292
1775728163375016000,2.748015869140625,3.4203879833221436,-8.93613052368164,-2.148698329925537
1775728163393544000,2.7665439453125,3.416325807571411,-8.942123413085938,-2.1301498413085938
1775728163412072000,2.785072021484375,3.4228007793426514,-8.942124366760254,-2.119720697402954
1775728163430599700,2.803599609375,3.4217071533203125,-8.943148612976074,-2.1171679496765137
1775728163449127700,2.822127685546875,3.411360502243042,-8.946565628051758,-2.1194264888763428
1775728163467655700,2.84065576171875,3.403460741043091,-8.947590827941895,-2.1277854442596436
1775728163486183400,2.859183349609375,3.394683837890625,-8.949594497680664,-2.133368968963623
1775728163504711400,2.87771142578125,3.3876471519470215,-8.952008247375488,-2.134429931640625
1775728163523239400,2.896239501953125,3.387456178665161,-8.953157424926758,-2.1299068927764893
1775728163541767400,2.914767333984375,3.385962963104248,-8.954893112182617,-2.1249771118164062
1775728163560295200,2.933295166015625,3.385132074356079,-8.95544147491455,-2.123992681503296
1775728163578823200,2.9518232421875,3.3849658966064453,-8.954087257385254,-2.129955530166626
1775728163597351200,2.97035107421875,3.3809492588043213,-8.953567504882812,-2.138503313064575
1775728163615879000,2.98887890625,3.367877721786499,-8.956043243408203,-2.148735284805298
1775728163634407000,3.007406982421875,3.362483263015747,-8.958700180053711,-2.1461071968078613
1775728163652935000,3.025934814453125,3.368894100189209,-8.957687377929688,-2.1402745246887207
1775728163671463000,3.044462890625,3.3765809535980225,-8.95493221282959,-2.1396896839141846
1775728163689990700,3.06299072265625,3.3716514110565186,-8.955659866333008,-2.144413709640503
1775728163708518700,3.0815185546875,3.3636913299560547,-8.957334518432617,-2.1499149799346924
1775728163727046700,3.100046630859375,3.36678147315979,-8.955488204956055,-2.1527674198150635
1775728163745574700,3.11857470703125,3.3772144317626953,-8.951020240783691,-2.1550047397613525
1775728163764102700,3.1371025390625,3.382732391357422,-8.948132514953613,-2.1583428382873535
1775728163782630400,3.15563037109375,3.379477024078369,-8.95020866394043,-2.154825448989868
1775728163801158400,3.174158447265625,3.3721210956573486,-8.951639175415039,-2.160402536392212
1775728163819686400,3.192686279296875,3.3605332374572754,-8.954257011413574,-2.1675972938537598
1775728163838214400,3.21121435546875,3.3506221771240234,-8.958451271057129,-2.165611743927002
1775728163856742100,3.2297421875,3.3447744846343994,-8.960267066955566,-2.1671338081359863
1775728163875270100,3.248270263671875,3.3503265380859375,-8.956315040588379,-2.1748831272125244
1775728163893798100,3.266798095703125,3.3648552894592285,-8.950258255004883,-2.177387237548828
1775728163912326100,3.285326171875,3.3698482513427734,-8.948934555053711,-2.175104856491089
1775728163930854100,3.303854248046875,3.3082549571990967,-8.969045639038086,-2.186790943145752
1775728163949382100,3.322382080078125,3.292262077331543,-8.974746704101562,-2.187535285949707
1775728163967910000,3.340909912109375,3.3068490028381348,-8.97185230255127,-2.177381753921509
1775728163995702000,3.368701904296875,3.346423864364624,-8.959114074707031,-2.1693553924560547
1775728164014229800,3.387229736328125,3.3743202686309814,-8.947916984558105,-2.1723623275756836
1775728164032757800,3.4057578125,3.388089895248413,-8.939772605895996,-2.184422016143799
1775728164051285800,3.42428564453125,3.375570774078369,-8.940400123596191,-2.2011730670928955
1775728164069813800,3.442813720703125,3.38332462310791,-8.939481735229492,-2.192978620529175
1775728164088341800,3.461341796875,3.3930020332336426,-8.938316345214844,-2.182753801345825
1775728164106869500,3.479869384765625,3.38948392868042,-8.938374519348145,-2.1879773139953613
1775728164125397500,3.4983974609375,3.381810426712036,-8.935953140258789,-2.2096333503723145
1775728164143925500,3.516925537109375,3.3755149841308594,-8.93457317352295,-2.2247893810272217
1775728164162453500,3.53545361328125,3.383627414703369,-8.930532455444336,-2.228687286376953
1775728164180981500,3.5539814453125,3.3918161392211914,-8.924880027770996,-2.238856554031372
1775728164199509500,3.572509521484375,3.4023070335388184,-8.917413711547852,-2.2526469230651855
1775728164218037500,3.59103759765625,3.4052276611328125,-8.912772178649902,-2.266561508178711
1775728164236565200,3.609565185546875,3.4101967811584473,-8.90792465209961,-2.2781178951263428
1775728164255093200,3.62809326171875,3.425440788269043,-8.899374961853027,-2.288635015487671
1775728164273621200,3.646621337890625,3.460371255874634,-8.88231086730957,-2.3023416996002197
1775728164292149200,3.665149169921875,3.517756938934326,-8.85339641571045,-2.32661771774292
1775728164310677200,3.68367724609375,3.6179957389831543,-8.804668426513672,-2.3576109409332275
1775728164329205200,3.702205322265625,3.7161757946014404,-8.754327774047852,-2.3921074867248535
1775728164347733200,3.720733154296875,3.8113536834716797,-8.711164474487305,-2.399915933609009
1775728164366261000,3.739260986328125,3.8619015216827393,-8.695127487182617,-2.3771560192108154
1775728164384789000,3.7577890625,3.8819289207458496,-8.694955825805664,-2.3449435234069824
1775728164403317000,3.77631689453125,3.9037561416625977,-8.693058967590332,-2.3155548572540283
1775728164421845000,3.794844970703125,3.930420398712158,-8.688207626342773,-2.28849720954895
1775728164440373000,3.813373046875,3.962141752243042,-8.675522804260254,-2.2819111347198486
1775728164458901000,3.83190087890625,3.9937002658843994,-8.660684585571289,-2.2832601070404053
1775728164477429000,3.850428955078125,4.008378028869629,-8.652937889099121,-2.2869110107421875
1775728164495957000,3.86895703125,4.007765293121338,-8.652059555053711,-2.291302442550659
1775728164514485000,3.887485107421875,4.001048564910889,-8.651538848876953,-2.3049654960632324
1775728164533012700,3.9060126953125,4.007180213928223,-8.646160125732422,-2.3144776821136475
1775728164551541000,3.924541015625,4.024214267730713,-8.637228012084961,-2.318267822265625
1775728164570068700,3.94306884765625,4.011447429656982,-8.640462875366211,-2.3283231258392334
1775728164588596700,3.9615966796875,3.9490082263946533,-8.66556453704834,-2.341737747192383
1775728164607124700,3.980124755859375,3.8620669841766357,-8.70527172088623,-2.3394598960876465
1775728164625652700,3.99865283203125,3.756666898727417,-8.75837516784668,-2.3127293586730957
1775728164644180700,4.0171806640625,3.6348307132720947,-8.816574096679688,-2.286134958267212
1775728164662708700,4.035708740234375,3.5000908374786377,-8.870396614074707,-2.288189649581909
1775728164681236700,4.05423681640625,3.3665237426757812,-8.918408393859863,-2.3019371032714844
1775728164699764700,4.0727646484375,3.2092642784118652,-8.975116729736328,-2.3061442375183105
1775728164718292700,4.091292724609375,3.0295815467834473,-9.037737846374512,-2.304630994796753
1775728164736820700,4.10982080078125,2.859815835952759,-9.083827018737793,-2.3400707244873047
1775728164755348700,4.1283486328125,2.7148332595825195,-9.118918418884277,-2.375999927520752
1775728164773876500,4.14687646484375,2.5874555110931396,-9.148660659790039,-2.4036359786987305
1775728164792404700,4.16540478515625,2.4462313652038574,-9.178038597106934,-2.439253568649292
1775728164810932700,4.1839326171875,2.27616286277771,-9.221319198608398,-2.440645456314087
1775728164829460700,4.202460693359375,2.0947353839874268,-9.2754487991333,-2.3976058959960938
1775728164847988500,4.220988525390625,1.9293016195297241,-9.322364807128906,-2.354079484939575
1775728164866516500,4.2395166015625,1.765065312385559,-9.3548583984375,-2.3540492057800293
1775728164885044700,4.258044677734375,1.5781582593917847,-9.381647109985352,-2.380021095275879
1775728164903572500,4.276572509765625,1.3803414106369019,-9.414460182189941,-2.3733901977539062
1775728164922100500,4.2951005859375,1.1937837600708008,-9.450506210327148,-2.3309197425842285
1775728164940628500,4.31362841796875,1.0340776443481445,-9.479187965393066,-2.2904303073883057
1775728164959156500,4.332156494140625,0.8867284059524536,-9.502579689025879,-2.255013942718506
1775728164977684500,4.3506845703125,0.740175187587738,-9.524094581604004,-2.216787576675415
1775728164996212500,4.36921240234375,0.5965036153793335,-9.542927742004395,-2.1787829399108887
1775728165014740500,4.387740478515625,0.44895026087760925,-9.559706687927246,-2.140286922454834
1775728165033268500,4.4062685546875,0.30700215697288513,-9.579116821289062,-2.0776524543762207
1775728165051796500,4.42479638671875,0.1769973188638687,-9.59565258026123,-2.0155656337738037
1775728165070324500,4.443324462890625,0.06801920384168625,-9.602740287780762,-1.9882481098175049
1775728165088852500,4.4618525390625,-0.012784513644874096,-9.609838485717773,-1.954801082611084
1775728165107380500,4.48038037109375,-0.06853476911783218,-9.621603965759277,-1.8948426246643066
1775728165125908500,4.498908447265625,-0.09255219250917435,-9.63572883605957,-1.8205924034118652
1775728165144436500,4.5174365234375,-0.045699428766965866,-9.64632797241211,-1.765406608581543
1775728165162964500,4.535964599609375,0.09502742439508438,-9.646323204040527,-1.7634602785110474
1775728165181492700,4.55449267578125,0.28912949562072754,-9.63415813446045,-1.8082555532455444
1775728165200020500,4.5730205078125,0.4928278625011444,-9.611810684204102,-1.8816460371017456
1775728165218548500,4.591548583984375,0.7107313275337219,-9.578560829162598,-1.9789916276931763
1775728165237076500,4.610076416015625,1.030186653137207,-9.521225929260254,-2.110769748687744
1775728165255604700,4.628604736328125,1.5234746932983398,-9.428719520568848,-2.224557876586914
1775728165274132700,4.6471328125,2.1917672157287598,-9.272701263427734,-2.320246934890747
1775728165292660700,4.66566064453125,2.9327785968780518,-9.052952766418457,-2.3692262172698975
1775728165311188700,4.684188720703125,3.6102793216705322,-8.818842887878418,-2.316094160079956
1775728165329716700,4.702716796875,4.1715779304504395,-8.606454849243164,-2.16731595993042
1775728165348244700,4.72124462890625,4.6469035148620605,-8.391801834106445,-2.0382168292999268
1775728165366772700,4.739772705078125,5.081966400146484,-8.154081344604492,-1.9634071588516235
1775728165385300700,4.75830078125,5.50630521774292,-7.865013599395752,-1.9981378316879272
1775728165403828700,4.776828857421875,5.931668281555176,-7.528624057769775,-2.0749740600585938
1775728165422356700,4.795356689453125,6.3564772605896,-7.168601989746094,-2.0920615196228027
1775728165440884700,4.813884765625,6.779351711273193,-6.786095142364502,-2.0395336151123047
1775728165459412700,4.832412841796875,7.185859680175781,-6.3888726234436035,-1.927720308303833
1775728165477940700,4.850940673828125,7.526732921600342,-6.015628337860107,-1.8250752687454224
1775728165496468700,4.86946875,7.785277366638184,-5.701623916625977,-1.7468091249465942
1775728165514996700,4.887996826171875,7.973576545715332,-5.45698356628418,-1.677432894706726
1775728165533524700,4.906524658203125,8.12195873260498,-5.252909183502197,-1.6158990859985352
1775728165552052700,4.925052734375,8.252378463745117,-5.073210716247559,-1.5268172025680542
1775728165570581000,4.9435810546875,8.35676097869873,-4.936345100402832,-1.4026459455490112
1775728165589109000,4.96210888671875,8.436534881591797,-4.840013027191162,-1.2528164386749268
1775728165607637000,4.980636962890625,8.48633098602295,-4.785648345947266,-1.1180996894836426
1775728165626165000,4.9991650390625,8.48636245727539,-4.808629989624023,-1.0144554376602173
1775728165644693000,5.01769287109375,8.449801445007324,-4.885066986083984,-0.9525662064552307
1775728165663221000,5.036220947265625,8.390501022338867,-4.9968743324279785,-0.8950536251068115
1775728165681749000,5.0547490234375,8.288390159606934,-5.1704487800598145,-0.8599120378494263
1775728165700277200,5.07327734375,8.118964195251465,-5.4244208335876465,-0.9101980328559875
1775728165718805200,5.09180517578125,7.985805511474609,-5.585278034210205,-1.0963447093963623
1775728165737333200,5.110333251953125,7.969091415405273,-5.541261196136475,-1.3994240760803223
1775728165755861200,5.128861328125,7.933300495147705,-5.530108451843262,-1.6282024383544922
1775728165774389200,5.14738916015625,7.741705417633057,-5.783860206604004,-1.6683374643325806
1775728165792917200,5.165917236328125,7.494455337524414,-6.099997043609619,-1.6713954210281372
1775728165811445200,5.1844453125,7.265165328979492,-6.3366570472717285,-1.7984815835952759
1775728165829973200,5.20297314453125,7.032715320587158,-6.549191951751709,-1.954324722290039
1775728165848501500,5.22150146484375,6.757203578948975,-6.8009419441223145,-2.0634348392486572
1775728165867029500,5.240029541015625,6.475845813751221,-7.052705764770508,-2.1197052001953125
1775728165885557500,5.2585576171875,6.175621032714844,-7.308288097381592,-2.1496541500091553
1775728165904085500,5.27708544921875,5.877206325531006,-7.543532848358154,-2.173464059829712
1775728165922613500,5.295613525390625,5.60105037689209,-7.738752365112305,-2.215928077697754
1775728165941141500,5.3141416015625,5.314464092254639,-7.924620151519775,-2.264341354370117
1775728165959669500,5.33266943359375,4.979294776916504,-8.132987022399902,-2.28725528717041
1775728165978197800,5.35119775390625,4.6340765953063965,-8.334320068359375,-2.2879724502563477
1775728165996725800,5.369725830078125,4.318495273590088,-8.502161979675293,-2.287843942642212
1775728166015253800,5.388253662109375,4.010093688964844,-8.657820701599121,-2.2653205394744873
1775728166033781800,5.40678173828125,3.6813466548919678,-8.807828903198242,-2.2450459003448486
1775728166052309800,5.425309814453125,3.352768659591675,-8.938032150268555,-2.2451975345611572
1775728166070837800,5.443837646484375,3.030594825744629,-9.05441951751709,-2.2368228435516357
1775728166089365800,5.46236572265625,2.715961456298828,-9.159160614013672,-2.2144341468811035
1775728166107894000,5.48089404296875,2.411731481552124,-9.248740196228027,-2.194254159927368
1775728166126422000,5.499422119140625,2.129983425140381,-9.325648307800293,-2.1600518226623535
1775728166144950000,5.517949951171875,1.8820631504058838,-9.385753631591797,-2.12975811958313
1775728166163478000,5.53647802734375,1.6612282991409302,-9.429730415344238,-2.1191701889038086
1775728166182006300,5.55500634765625,1.4583207368850708,-9.465185165405273,-2.110438823699951
1775728166200534300,5.5735341796875,1.2655888795852661,-9.497723579406738,-2.0885210037231445
1775728166219062300,5.592062255859375,1.0885107517242432,-9.526105880737305,-2.058838367462158
1775728166237590300,5.61059033203125,0.9529451727867126,-9.548871994018555,-2.0202291011810303
1775728166256118300,5.6291181640625,0.854839563369751,-9.567033767700195,-1.9777493476867676
1775728166274646300,5.647646240234375,0.7633476853370667,-9.585468292236328,-1.92522394657135
1775728166293174500,5.666174560546875,0.674217939376831,-9.60134506225586,-1.878825306892395
1775728166311702500,5.68470263671875,0.5734697580337524,-9.609763145446777,-1.8692177534103394
1775728166330230500,5.70323046875,0.4633472263813019,-9.613197326660156,-1.8820573091506958
1775728166348758500,5.721758544921875,0.3914091885089874,-9.615034103393555,-1.8889983892440796
1775728166367286500,5.74028662109375,0.40772512555122375,-9.61581039428711,-1.8815783262252808
1775728166385814800,5.758814697265625,0.5091584324836731,-9.613143920898438,-1.8704570531845093
1775728166404342800,5.7773427734375,0.6704525351524353,-9.611830711364746,-1.825812578201294
1775728166422870800,5.795870849609375,0.8500716090202332,-9.60396957397461,-1.7920751571655273
1775728166441398800,5.814398681640625,1.0216609239578247,-9.580557823181152,-1.8274308443069458
1775728166459927000,5.832927001953125,1.216848373413086,-9.542025566101074,-1.9077266454696655
1775728166478455000,5.851455078125,1.4917289018630981,-9.48786449432373,-1.9813019037246704
1775728166496983000,5.869983154296875,1.8969671726226807,-9.408684730529785,-2.0121023654937744
1775728166515511000,5.888510986328125,2.4584953784942627,-9.27678108215332,-2.0168049335479736
1775728166534039300,5.907039306640625,3.146062135696411,-9.063422203063965,-2.0315182209014893
1775728166552567300,5.9255673828125,3.8251073360443115,-8.769804000854492,-2.1516225337982178
1775728166571095300,5.94409521484375,4.346424579620361,-8.454445838928223,-2.4085943698883057
1775728166589623300,5.962623291015625,4.733205318450928,-8.141744613647461,-2.7347989082336426
1775728166608151600,5.981151611328125,5.099898338317871,-7.807097911834717,-3.034903049468994
1775728166626679600,5.999679443359375,5.471840858459473,-7.478431224822998,-3.2097373008728027
1775728166645207600,6.01820751953125,5.840182304382324,-7.210695266723633,-3.173095703125
1775728166663735600,6.036735595703125,6.220233917236328,-6.991018295288086,-2.9333841800689697
1775728166682263800,6.055263916015625,6.614803314208984,-6.741624355316162,-2.6391794681549072
1775728166700791800,6.073791748046875,6.984251976013184,-6.425238132476807,-2.471220016479492
1775728166719319800,6.09231982421875,7.289622783660889,-6.095216274261475,-2.424896001815796
1775728166737848000,6.11084814453125,7.507811069488525,-5.833214282989502,-2.403494358062744
1775728166756376000,6.1293759765625,7.652298927307129,-5.653310775756836,-2.377558946609497
1775728166774904000,6.147904052734375,7.762495994567871,-5.518407821655273,-2.336925745010376
1775728166793432000,6.16643212890625,7.839974403381348,-5.428919792175293,-2.2873589992523193
1775728166811960300,6.184960205078125,7.883362770080566,-5.389404773712158,-2.2309823036193848
1775728166830488300,6.20348828125,7.914254665374756,-5.376741886138916,-2.1507246494293213
1775728166849016300,6.222016357421875,7.932969570159912,-5.387289047241211,-2.053165912628174
1775728166867544300,6.24054443359375,7.919785499572754,-5.443603515625,-1.9530959129333496
1775728166886072600,6.259072509765625,7.87514591217041,-5.5306925773620605,-1.8878334760665894
1775728166904600600,6.2776005859375,7.78793478012085,-5.6588897705078125,-1.8696036338806152
1775728166923128600,6.296128662109375,7.629258632659912,-5.873561859130859,-1.861738920211792
1775728166941656800,6.31465673828125,7.4555745124816895,-6.090468883514404,-1.8684155941009521
1775728166960184800,6.333184814453125,7.411901950836182,-6.118521690368652,-1.9487920999526978
1775728166978712800,6.351712890625,7.305526256561279,-6.229739189147949,-1.9975028038024902
1775728166997241000,6.370240966796875,6.986481666564941,-6.516351699829102,-2.2128331661224365
1775728167015769000,6.38876904296875,6.652711868286133,-6.764923572540283,-2.479440450668335
1775728167034297000,6.407297119140625,6.275330543518066,-7.041757583618164,-2.684077024459839
1775728167052825300,6.425825439453125,5.959621429443359,-7.265546798706055,-2.80448579788208
1775728167071353300,6.444353271484375,5.706045627593994,-7.439389705657959,-2.8752238750457764
1775728167089881300,6.46288134765625,5.423161506652832,-7.619270324707031,-2.950664520263672
1775728167108409600,6.48140966796875,5.121428966522217,-7.794922351837158,-3.0299386978149414
1775728167126937600,6.4999375,4.808541297912598,-7.977376461029053,-3.0675387382507324
1775728167145465600,6.518465576171875,4.470878601074219,-8.180992126464844,-3.041874885559082
1775728167163993900,6.536993896484375,4.122984409332275,-8.384069442749023,-2.9797229766845703
1775728167182521900,6.55552197265625,3.787161111831665,-8.573155403137207,-2.8859682083129883
1775728167201049900,6.5740498046875,3.463048219680786,-8.742088317871094,-2.7845211029052734
1775728167219578000,6.592578125,3.1492230892181396,-8.87994384765625,-2.7201778888702393
1775728167238106000,6.611106201171875,2.8473644256591797,-8.99262809753418,-2.682451009750366
1775728167256634000,6.629634033203125,2.5553512573242188,-9.09083366394043,-2.645242929458618
1775728167275162400,6.648162353515625,2.2667548656463623,-9.17932415008545,-2.6023483276367188
1775728167293690400,6.6666904296875,1.9853026866912842,-9.253262519836426,-2.570232391357422
1775728167312218400,6.68521826171875,1.7289388179779053,-9.30920696258545,-2.553391456604004
1775728167330746600,6.70374658203125,1.5004706382751465,-9.348845481872559,-2.553048849105835
1775728167349274600,6.722274658203125,1.27213454246521,-9.378917694091797,-2.5667014122009277
1775728167367802600,6.740802734375,1.0504564046859741,-9.415661811828613,-2.5322389602661133
1775728167386331000,6.759330810546875,0.8680402040481567,-9.459566116333008,-2.435877799987793
1775728167404859000,6.77785888671875,0.7202887535095215,-9.496813774108887,-2.337115526199341
1775728167423387100,6.79638720703125,0.5649378895759583,-9.5233736038208,-2.2708113193511963
1775728167441915100,6.8149150390625,0.40027981996536255,-9.540253639221191,-2.2346622943878174
1775728167460443400,6.833443359375,0.26334133744239807,-9.553321838378906,-2.198882579803467
1775728167478971400,6.851971435546875,0.16807039082050323,-9.565620422363281,-2.154308795928955
1775728167497499400,6.87049951171875,0.11485013365745544,-9.573848724365234,-2.1209938526153564
1775728167516027600,6.889027587890625,0.09653456509113312,-9.57547378540039,-2.114560127258301
1775728167534555600,6.9075556640625,0.07960037887096405,-9.574570655822754,-2.119354724884033
1775728167553083600,6.926083740234375,0.03732379898428917,-9.573601722717285,-2.1248855590820312
1775728167571612000,6.94461181640625,-0.004002659115940332,-9.572028160095215,-2.1322858333587646
1775728167590140000,6.963139892578125,-0.008856668137013912,-9.572460174560547,-2.130335569381714
1775728167608668200,6.981668212890625,0.05253572389483452,-9.577635765075684,-2.106304168701172
1775728167627196200,7.000196044921875,0.19389501214027405,-9.583390235900879,-2.0715744495391846
1775728167645724200,7.01872412109375,0.3600389361381531,-9.581182479858398,-2.059537887573242
1775728167664252400,7.03725244140625,0.5339913964271545,-9.570316314697266,-2.0722672939300537
1775728167682780400,7.055780517578125,0.7734245657920837,-9.544180870056152,-2.1167964935302734
1775728167701308700,7.07430859375,1.116728663444519,-9.495392799377441,-2.18192982673645
1775728167719836700,7.092836669921875,1.5731186866760254,-9.414886474609375,-2.2484664916992188
1775728167738364700,7.11136474609375,2.166795015335083,-9.276836395263672,-2.327165126800537
1775728167756893000,7.129892822265625,2.835491418838501,-9.068488121032715,-2.4275267124176025
1775728167775421000,7.1484208984375,3.4436252117156982,-8.819988250732422,-2.5533595085144043
1775728167793949200,7.16694921875,3.885998010635376,-8.582662582397461,-2.7216386795043945
1775728167812477200,7.185477294921875,4.231884002685547,-8.35377025604248,-2.911370277404785
1775728167831005400,7.20400537109375,4.615986347198486,-8.087388038635254,-3.0752575397491455
1775728167849533400,7.222533447265625,5.0262322425842285,-7.8118791580200195,-3.143550395965576
1775728167868061400,7.2410615234375,5.425444602966309,-7.564864635467529,-3.083463668823242
1775728167886589700,7.259589599609375,5.837170124053955,-7.328531742095947,-2.8966293334960938
1775728167905117700,7.27811767578125,6.293577671051025,-7.020368576049805,-2.697348117828369
1775728167923646000,7.29664599609375,6.7328667640686035,-6.650386810302734,-2.5712335109710693
1775728167942174000,7.315174072265625,7.094612121582031,-6.290931224822998,-2.5022075176239014
1775728167960702200,7.3337021484375,7.3650078773498535,-5.998782157897949,-2.437551259994507
1775728167979230200,7.352230224609375,7.557086944580078,-5.780764579772949,-2.3756251335144043
1775728167997758500,7.370758544921875,7.708580017089844,-5.598484039306641,-2.3248984813690186
1775728168016286500,7.389286376953125,7.854518413543701,-5.417910575866699,-2.263442277908325
1775728168034814500,7.407814453125,7.984487056732178,-5.2664313316345215,-2.164039134979248
1775728168053342700,7.4263427734375,8.063685417175293,-5.2021379470825195,-2.0211687088012695
1775728168071870700,7.44487060546875,8.102980613708496,-5.197738170623779,-1.8696539402008057
1775728168090399000,7.46339892578125,8.119830131530762,-5.211646556854248,-1.754277229309082
1775728168108927000,7.481927001953125,8.091779708862305,-5.276269435882568,-1.6895170211791992
1775728168127455200,7.500455322265625,7.995604515075684,-5.427810192108154,-1.6672028303146362
1775728168145983200,7.518983154296875,7.824993133544922,-5.6576433181762695,-1.7119981050491333
1775728168164511500,7.537511474609375,7.701639652252197,-5.779690265655518,-1.8575019836425781
1775728168183039500,7.55603955078125,7.690621376037598,-5.7799248695373535,-1.9018951654434204
1775728168201567700,7.574567626953125,7.491386890411377,-6.040152072906494,-1.888403296470642
1775728168220095700,7.593095703125,7.1187005043029785,-6.378890037536621,-2.191862106323242
1775728168238624000,7.6116240234375,6.712740421295166,-6.669073104858398,-2.575453281402588
1775728168257152000,7.630152099609375,6.303018569946289,-6.962653160095215,-2.8220198154449463
1775728168275680300,7.64868017578125,5.925280570983887,-7.220351219177246,-2.9879701137542725
1775728168294208300,7.667208251953125,5.570689678192139,-7.447089672088623,-3.1110565662384033
1775728168312736500,7.685736572265625,5.222583770751953,-7.658483982086182,-3.2004096508026123
1775728168331264500,7.704264404296875,4.901869297027588,-7.830092906951904,-3.2911577224731445
1775728168349792800,7.722792724609375,4.6118879318237305,-7.971937656402588,-3.3688387870788574
1775728168368320800,7.74132080078125,4.318837642669678,-8.136021614074707,-3.36499285697937
1775728168386848800,7.759848876953125,4.011855125427246,-8.331188201904297,-3.265993118286133
1775728168405377000,7.778376953125,3.722465991973877,-8.518430709838867,-3.122495174407959
1775728168423905000,7.796905029296875,3.447948455810547,-8.68588924407959,-2.9727723598480225
1775728168442433300,7.815433349609375,3.149486780166626,-8.841968536376953,-2.840898275375366
1775728168460961300,7.833961181640625,2.8283259868621826,-8.977180480957031,-2.753398895263672
1775728168479489500,7.852489501953125,2.4995434284210205,-9.095803260803223,-2.6812376976013184
1775728168498017500,7.871017578125,2.1793620586395264,-9.201343536376953,-2.5992391109466553
1775728168516545800,7.8895458984375,1.8821544647216797,-9.286426544189453,-2.52787709236145
1775728168535073800,7.90807373046875,1.5885649919509888,-9.355616569519043,-2.4737164974212646
1775728168553602000,7.92660205078125,1.3074889183044434,-9.410168647766113,-2.4309654235839844
1775728168572130300,7.94513037109375,1.0560014247894287,-9.451343536376953,-2.3931920528411865
1775728168590658300,7.963658203125,0.8329383134841919,-9.477933883666992,-2.3760018348693848
1775728168609186600,7.9821865234375,0.6279367208480835,-9.49495792388916,-2.3710427284240723
1775728168627714600,8.000714599609376,0.4291028380393982,-9.509166717529297,-2.3583922386169434
1775728168646242800,8.019242919921876,0.24651570618152618,-9.521661758422852,-2.3340036869049072
1775728168664770800,8.037770751953126,0.09342585504055023,-9.540082931518555,-2.269019603729248
1775728168683299000,8.056299072265626,-0.023032238706946373,-9.557990074157715,-2.194239854812622
1775728168701827000,8.0748271484375,-0.10996928811073303,-9.571710586547852,-2.130880355834961
1775728168720355300,8.093355224609375,-0.17674735188484192,-9.588932037353516,-2.0473268032073975
1775728168738883600,8.111883544921875,-0.2355707734823227,-9.600308418273926,-1.9872000217437744
1775728168757411600,8.13041162109375,-0.26441171765327454,-9.606402397155762,-1.9538447856903076
1775728168775939800,8.14893994140625,-0.27743852138519287,-9.610405921936035,-1.932230830192566
1775728168794467800,8.1674677734375,-0.28745442628860474,-9.609965324401855,-1.932961344718933
1775728168812996000,8.18599609375,-0.26426345109939575,-9.605579376220703,-1.9579062461853027
1775728168831524000,8.204524169921875,-0.17830948531627655,-9.605875968933105,-1.9661506414413452
1775728168850052400,8.22305224609375,-0.033303312957286835,-9.614301681518555,-1.9324809312820435
1775728168868580400,8.241580322265625,0.15832608938217163,-9.62407112121582,-1.8768543004989624
1775728168887108600,8.260108642578125,0.40406519174575806,-9.623265266418457,-1.8438767194747925
1775728168905636600,8.27863671875,0.7098942995071411,-9.602777481079102,-1.8582541942596436
1775728168924164900,8.297164794921875,1.1188961267471313,-9.56100845336914,-1.872321605682373
1775728168942693000,8.315693115234374,1.687581181526184,-9.479256629943848,-1.8617620468139648
1775728168961221000,8.33422119140625,2.365518093109131,-9.327096939086914,-1.8920800685882568
1775728168979749400,8.352749267578124,3.036055326461792,-9.099187850952148,-2.0390021800994873
1775728168998277400,8.37127734375,3.569211721420288,-8.862582206726074,-2.210374116897583
1775728169016805600,8.3898056640625,3.9739885330200195,-8.636812210083008,-2.40484619140625
1775728169035334000,8.408333984375,4.394951343536377,-8.374933242797852,-2.591386318206787
1775728169053862000,8.42686181640625,4.848072528839111,-8.079654693603516,-2.717676877975464
1775728169072390100,8.44539013671875,5.272374153137207,-7.806952953338623,-2.7246904373168945
1775728169090918100,8.463918212890626,5.609668254852295,-7.609768390655518,-2.6064200401306152
1775728169109446400,8.4824462890625,5.847598552703857,-7.480625629425049,-2.4527997970581055
1775728169127974400,8.500974365234375,6.112908363342285,-7.304495334625244,-2.3339040279388428
1775728169146502700,8.519502685546875,6.496912002563477,-6.975617408752441,-2.302452802658081
1775728169165030700,8.53803076171875,6.86310338973999,-6.625677108764648,-2.2734556198120117
1775728169183559000,8.556558837890625,7.099933624267578,-6.392170429229736,-2.2139320373535156
1775728169202087200,8.575087158203125,7.225445747375488,-6.271331787109375,-2.1526052951812744
1775728169220615200,8.593615234375,7.322733402252197,-6.174449920654297,-2.103363037109375
1775728169239143400,8.612143310546875,7.434643745422363,-6.050943374633789,-2.0694332122802734
1775728169257671700,8.630671630859375,7.557833194732666,-5.909696578979492,-2.031017303466797
1775728169276199700,8.64919970703125,7.630631923675537,-5.832372665405273,-1.9817382097244263
1775728169294728000,8.66772802734375,7.632189750671387,-5.8440728187561035,-1.9408446550369263
1775728169313256200,8.686256103515625,7.592526912689209,-5.903341770172119,-1.91689133644104
1775728169331784200,8.7047841796875,7.525445461273193,-5.987956523895264,-1.9189684391021729
1775728169350312400,8.7233125,7.406030178070068,-6.124327659606934,-1.9528714418411255
1775728169368840400,8.74184033203125,7.289401531219482,-6.240692615509033,-2.022066831588745
1775728169387368700,8.76036865234375,7.258320331573486,-6.288508415222168,-1.9854018688201904
1775728169405896700,8.778896728515624,7.066651344299316,-6.524000644683838,-1.915786862373352
1775728169424425000,8.797425048828124,6.688155651092529,-6.88496732711792,-2.0090274810791016
1775728169442953200,8.815953125,6.3459153175354,-7.153614044189453,-2.1738314628601074
1775728169461481500,8.8344814453125,6.0288238525390625,-7.379073143005371,-2.317960739135742
1775728169480009500,8.853009521484376,5.733062744140625,-7.575605392456055,-2.4315805435180664
1775728169498537700,8.871537841796876,5.442135810852051,-7.752693176269531,-2.5395445823669434
1775728169517066000,8.89006591796875,5.1442694664001465,-7.920650959014893,-2.6401097774505615
1775728169535594000,8.908593994140626,4.840693473815918,-8.077702522277832,-2.73656964302063
1775728169554122200,8.927122314453126,4.55899715423584,-8.205318450927734,-2.8387789726257324
1775728169572650200,8.945650146484375,4.264559268951416,-8.346928596496582,-2.883175849914551
1775728169591178500,8.964178466796875,3.956132650375366,-8.514581680297852,-2.8321902751922607
1775728169609706800,8.982706787109375,3.6604597568511963,-8.673611640930176,-2.745884656906128
1775728169628234800,9.00123486328125,3.3938238620758057,-8.812560081481934,-2.6440746784210205
1775728169646763000,9.019762939453125,3.1380093097686768,-8.933445930480957,-2.552809476852417
1775728169665291300,9.038291259765625,2.8510448932647705,-9.048066139221191,-2.4848437309265137
1775728169683819300,9.0568193359375,2.5131139755249023,-9.163514137268066,-2.4258294105529785
1775728169702347500,9.075347412109375,2.159599542617798,-9.276092529296875,-2.3367996215820312
1775728169720875500,9.09387548828125,1.8165249824523926,-9.374641418457031,-2.23309588432312
1775728169739403800,9.11240380859375,1.4803147315979004,-9.449395179748535,-2.1651737689971924
1775728169757932000,9.13093212890625,1.1460703611373901,-9.500787734985352,-2.142881155014038
1775728169776460300,9.149460205078125,0.8563238382339478,-9.527433395385742,-2.159888744354248
1775728169794988300,9.16798828125,0.6020645499229431,-9.548863410949707,-2.1510708332061768
1775728169813516500,9.1865166015625,0.37477898597717285,-9.578736305236816,-2.068267345428467
1775728169832044800,9.205044921875,0.1960228681564331,-9.601969718933105,-1.9834638833999634
1775728169850573000,9.223572998046874,0.0807359516620636,-9.618803977966309,-1.9085314273834229
1775728169869101000,9.24210107421875,0.00455402210354805,-9.628278732299805,-1.8618838787078857
1775728169887629300,9.26062939453125,-0.09851828217506409,-9.629091262817383,-1.8550645112991333
1775728169906157300,9.2791572265625,-0.22967049479484558,-9.629731178283691,-1.8400850296020508
1775728169924685600,9.297685546875,-0.3287492096424103,-9.635129928588867,-1.796271562576294
1775728169943213800,9.3162138671875,-0.39067742228507996,-9.642650604248047,-1.7427160739898682
1775728169961742000,9.3347421875,-0.42547738552093506,-9.649609565734863,-1.6954030990600586
1775728169980270000,9.35327001953125,-0.43502742052078247,-9.655052185058594,-1.6616579294204712
1775728169998798300,9.37179833984375,-0.43072420358657837,-9.658404350280762,-1.6431950330734253
1775728170017326600,9.39032666015625,-0.4335082173347473,-9.660057067871094,-1.6327121257781982
1775728170035854800,9.408854736328125,-0.42429018020629883,-9.661084175109863,-1.62905752658844
1775728170054382800,9.4273828125,-0.3649757504463196,-9.664106369018555,-1.6254926919937134
1775728170072911000,9.4459111328125,-0.25458967685699463,-9.668294906616211,-1.6216192245483398
1775728170091439000,9.464439208984375,-0.0768025666475296,-9.672163009643555,-1.616708755493164
1775728170109967400,9.48296728515625,0.2181764841079712,-9.666437149047852,-1.6379194259643555
1775728170128495600,9.50149560546875,0.625436544418335,-9.641984939575195,-1.67670476436615
1775728170147024000,9.52002392578125,1.1116126775741577,-9.589360237121582,-1.7259407043457031
1775728170165552000,9.53855224609375,1.666107416152954,-9.494582176208496,-1.8020497560501099
1775728170184080100,9.557080078125,2.271393299102783,-9.346287727355957,-1.9126123189926147
1775728170202608400,9.5756083984375,2.877852439880371,-9.141805648803711,-2.0774340629577637
1775728170221136600,9.59413671875,3.384998321533203,-8.923687934875488,-2.2538814544677734
1775728170239664600,9.61266455078125,3.7841107845306396,-8.713212966918945,-2.4353253841400146
1775728170258193000,9.63119287109375,4.177203178405762,-8.45611572265625,-2.686161756515503
1775728170276721200,9.64972119140625,4.614711761474609,-8.150091171264648,-2.907033920288086
1775728170295249400,9.66824951171875,4.9941558837890625,-7.890049934387207,-2.9959816932678223
1775728170313777700,9.686777587890624,5.327901363372803,-7.68618106842041,-2.9506726264953613
1775728170332305700,9.7053056640625,5.6721882820129395,-7.487398624420166,-2.8170084953308105
1775728170350834000,9.723833984375,6.04194450378418,-7.229970455169678,-2.718975067138672
1775728170369362200,9.742362060546874,6.405955791473389,-6.923579692840576,-2.682936906814575
1775728170387890200,9.76089013671875,6.706284046173096,-6.640783309936523,-2.6638593673706055
1775728170406418400,9.77941845703125,6.935307502746582,-6.430577278137207,-2.592212677001953
1775728170424946700,9.79794677734375,7.115428447723389,-6.276072025299072,-2.480318069458008
1775728170443475000,9.816474853515626,7.279221534729004,-6.128898620605469,-2.3706376552581787
1775728170462003000,9.8350029296875,7.437554359436035,-5.974126815795898,-2.27221941947937
1775728170480531200,9.85353125,7.5665106773376465,-5.845527648925781,-2.1790153980255127
1775728170499059500,9.8720595703125,7.645132064819336,-5.77130126953125,-2.1010565757751465
1775728170517587700,9.890587646484375,7.682041645050049,-5.733223915100098,-2.0704519748687744
1775728170536116000,9.909115966796875,7.681361198425293,-5.732633590698242,-2.07460618019104
1775728170554644200,9.927644287109375,7.636995792388916,-5.775498390197754,-2.1190357208251953
1775728170573172200,9.946172119140625,7.55772066116333,-5.868042945861816,-2.1487932205200195
1775728170591700500,9.964700439453125,7.422612190246582,-6.043801784515381,-2.132526397705078
1775728170610228700,9.983228759765625,7.252171516418457,-6.2422027587890625,-2.147395372390747
1775728170628757000,10.001757080078125,7.2427496910095215,-6.258434295654297,-2.1318914890289307
1775728170647285000,10.020284912109375,7.170914649963379,-6.370201587677002,-2.0417919158935547
1775728170665813200,10.038813232421875,6.8116655349731445,-6.697115898132324,-2.218158006668091
1775728170684341500,10.057341552734375,6.401103973388672,-7.001745223999023,-2.484316110610962
1775728170702869800,10.075869873046875,5.948587417602539,-7.315445423126221,-2.6960995197296143
1775728170721397800,10.094397705078125,5.5807976722717285,-7.554814338684082,-2.819551467895508
1775728170739926000,10.112926025390625,5.27488374710083,-7.730209827423096,-2.9308435916900635
1775728170758454300,10.131454345703125,4.951525688171387,-7.890542507171631,-3.06465744972229
1775728170776982500,10.149982421875,4.615983963012695,-8.037466049194336,-3.2034671306610107
1775728170795510800,10.1685107421875,4.294694900512695,-8.18549633026123,-3.2746939659118652
1775728170814039000,10.1870390625,3.9889323711395264,-8.330801010131836,-3.2949304580688477
1775728170832567000,10.205567138671874,3.6804089546203613,-8.483407974243164,-3.2644705772399902
1775728170851095300,10.22409521484375,3.389511823654175,-8.63641357421875,-3.1771016120910645
1775728170869623600,10.24262353515625,3.1154348850250244,-8.783472061157227,-3.0520589351654053
1775728170888151800,10.26115185546875,2.833726167678833,-8.922802925109863,-2.919586420059204
1775728170906680000,10.27968017578125,2.530885934829712,-9.047308921813965,-2.81268572807312
1775728170925208300,10.298208251953126,2.2049920558929443,-9.147062301635742,-2.763988971710205
1775728170943736300,10.316736328125,1.8609510660171509,-9.226804733276367,-2.751964569091797
1775728170962264600,10.3352646484375,1.505849838256836,-9.297101020812988,-2.732529640197754
1775728170980792800,10.353792724609375,1.1639083623886108,-9.34801197052002,-2.7258713245391846
1775728170999321000,10.372321044921875,0.8337467312812805,-9.375080108642578,-2.753751039505005
1775728171017849300,10.390849365234375,0.5269516110420227,-9.394089698791504,-2.764738082885742
1775728171036377600,10.409377685546875,0.2836730182170868,-9.411920547485352,-2.7396481037139893
1775728171054905900,10.42790576171875,0.12114584445953369,-9.435494422912598,-2.669678211212158
1775728171073434000,10.44643408203125,0.02140500769019127,-9.466527938842773,-2.560229539871216
1775728171091962000,10.464962158203125,-0.059495072811841965,-9.493728637695312,-2.4568216800689697
1775728171110490400,10.483490478515625,-0.16572517156600952,-9.511449813842773,-2.3822784423828125
1775728171129018600,10.5020185546875,-0.2949218153953552,-9.521041870117188,-2.330916404724121
1775728171147547000,10.520546875,-0.4086965322494507,-9.522750854492188,-2.306633949279785
1775728171166075100,10.5390751953125,-0.49216732382774353,-9.528438568115234,-2.2665016651153564
1775728171184603400,10.557603271484375,-0.5537800788879395,-9.544551849365234,-2.1829452514648438
1775728171203131400,10.57613134765625,-0.5581027865409851,-9.562963485717773,-2.099674940109253
1775728171221659600,10.59465966796875,-0.5261313915252686,-9.580964088439941,-2.0245261192321777
1775728171240188000,10.61318798828125,-0.472237229347229,-9.597765922546387,-1.9571083784103394
1775728171258716200,10.631716064453125,-0.3974238932132721,-9.602922439575195,-1.9484142065048218
1775728171277244400,10.650244384765625,-0.31816428899765015,-9.594614028930664,-2.003131628036499
1775728171305036800,10.678036865234375,-0.22079451382160187,-9.577479362487793,-2.0960731506347656
1775728171323565000,10.69656494140625,-0.1156594455242157,-9.568739891052246,-2.1438820362091064
1775728171342093300,10.71509326171875,0.05744488537311554,-9.565473556518555,-2.1607418060302734
1775728171360621600,10.73362158203125,0.30316632986068726,-9.559393882751465,-2.167133331298828
1775728171379149800,10.75214990234375,0.6211550831794739,-9.54265022277832,-2.1730997562408447
1775728171397678000,10.770677978515625,1.0389909744262695,-9.505216598510742,-2.1775524616241455
1775728171416206000,10.7892060546875,1.5664680004119873,-9.429651260375977,-2.1904873847961426
1775728171434734300,10.807734375,2.1654715538024902,-9.297689437866211,-2.2436814308166504
1775728171453262600,10.8262626953125,2.743058204650879,-9.096807479858398,-2.427780866622925
1775728171471790800,10.844790771484375,3.177786350250244,-8.879323959350586,-2.6888020038604736
1775728171490319000,10.863319091796875,3.5184850692749023,-8.652872085571289,-2.986379384994507
1775728171508847400,10.881847412109375,3.9305403232574463,-8.36939525604248,-3.267181634902954
1775728171527375600,10.900375732421875,4.391758918762207,-8.064986228942871,-3.440760374069214
1775728171545903900,10.91890380859375,4.778079509735107,-7.835214614868164,-3.4568424224853516
1775728171564432100,10.93743212890625,5.086145401000977,-7.678927898406982,-3.3668370246887207
1775728171582960400,10.95596044921875,5.409807205200195,-7.496196269989014,-3.2728304862976074
1775728171601488600,10.974488525390624,5.812717914581299,-7.1991777420043945,-3.248775005340576
1775728171620017000,10.993016845703124,6.212390899658203,-6.864993572235107,-3.2324087619781494
1775728171638545200,11.011545166015624,6.5018839836120605,-6.613574028015137,-3.1869306564331055
1775728171657073200,11.0300732421875,6.684798717498779,-6.4541473388671875,-3.134936809539795
1775728171675601400,11.048601318359376,6.8285136222839355,-6.313275337219238,-3.111968517303467
1775728171694129700,11.067129638671876,6.9696269035339355,-6.171125411987305,-3.084136962890625
1775728171712658200,11.085658203125,7.0993332862854,-6.056275367736816,-3.0151925086975098
1775728171731186200,11.104186279296876,7.181958198547363,-6.004662036895752,-2.9212806224823
1775728171749714400,11.12271435546875,7.210810661315918,-5.996300220489502,-2.8668782711029053
1775728171768242700,11.14124267578125,7.20904016494751,-6.0022454261779785,-2.858877420425415
1775728171786771000,11.15977099609375,7.168126583099365,-6.049355983734131,-2.862450361251831
1775728171805299200,11.17829931640625,7.071465015411377,-6.162421226501465,-2.861699104309082
1775728171823827500,11.196827392578125,6.910959720611572,-6.33871603012085,-2.8687446117401123
1775728171842355700,11.215355712890625,6.810450553894043,-6.431925296783447,-2.901463747024536
1775728171860884000,11.233884033203125,6.884665489196777,-6.386878967285156,-2.8248085975646973
1775728171879412200,11.252412109375,6.783522129058838,-6.55595588684082,-2.6783676147460938
1775728171897940500,11.2709404296875,6.38306999206543,-6.929945945739746,-2.720782995223999
1775728171916468700,11.28946875,6.000491142272949,-7.200784683227539,-2.8832626342773438
1775728171934997000,11.3079970703125,5.649340629577637,-7.416895389556885,-3.040557384490967
1775728171953525200,11.326525146484375,5.301662445068359,-7.639354228973389,-3.1149704456329346
1775728171972053500,11.345053466796875,4.9397430419921875,-7.851986408233643,-3.1805100440979004
1775728171990581800,11.363581787109375,4.581689357757568,-8.023409843444824,-3.2868528366088867
1775728172009110000,11.382110107421875,4.280821323394775,-8.13635540008545,-3.412429094314575
1775728172027638300,11.40063818359375,4.00697660446167,-8.235061645507812,-3.5068936347961426
1775728172046166500,11.41916650390625,3.731858491897583,-8.347980499267578,-3.5432815551757812
1775728172064694800,11.43769482421875,3.474269151687622,-8.463693618774414,-3.5306854248046875
1775728172083223000,11.45622314453125,3.2356436252593994,-8.568718910217285,-3.5040066242218018
1775728172101751300,11.474751220703125,3.0084068775177,-8.675981521606445,-3.4419782161712646
1775728172120279600,11.493279541015625,2.779104232788086,-8.788930892944336,-3.346889019012451
1775728172138807800,11.511807861328125,2.540559768676758,-8.899892807006836,-3.241582155227661
1775728172157336000,11.530336181640624,2.313999891281128,-9.005739212036133,-3.11647891998291
1775728172175864300,11.5488642578125,2.077662706375122,-9.101006507873535,-3.0042295455932617
1775728172194392600,11.567392578125,1.8341974020004272,-9.177885055541992,-2.9278860092163086
1775728172212920800,11.5859208984375,1.6188808679580688,-9.233988761901855,-2.878030300140381
1775728172231449000,11.604448974609374,1.4442319869995117,-9.269243240356445,-2.8575682640075684
1775728172249977300,11.622977294921874,1.2769770622253418,-9.28994083404541,-2.8699655532836914
1775728172268505600,11.641505615234376,1.0927695035934448,-9.308990478515625,-2.8842573165893555
1775728172287034000,11.6600341796875,0.8910501003265381,-9.333824157714844,-2.873351812362671
1775728172305562000,11.67856201171875,0.6753440499305725,-9.364747047424316,-2.8312201499938965
1775728172324090400,11.69709033203125,0.476411372423172,-9.393094062805176,-2.777266502380371
1775728172342619000,11.715618896484376,0.33281001448631287,-9.417112350463867,-2.7161765098571777
1775728172361147100,11.734147216796876,0.2393070012331009,-9.439931869506836,-2.645900011062622
1775728172379675400,11.75267529296875,0.17691005766391754,-9.459440231323242,-2.5803277492523193
1775728172398203600,11.77120361328125,0.10674478113651276,-9.47429084777832,-2.5291922092437744
1775728172416732000,11.78973193359375,0.01923929713666439,-9.486924171447754,-2.4836010932922363
1775728172435260200,11.80826025390625,-0.05592753365635872,-9.50245475769043,-2.4229371547698975
1775728172453788400,11.826788330078125,-0.10166149586439133,-9.517000198364258,-2.3636302947998047
1775728172472316700,11.845316650390625,-0.1076476126909256,-9.529895782470703,-2.3108224868774414
1775728172490845000,11.863844970703125,-0.07580062001943588,-9.53954029083252,-2.271958589553833
1775728172509373200,11.882373291015625,-0.026499295607209206,-9.543492317199707,-2.2564220428466797
1775728172527901400,11.9009013671875,0.030088553205132484,-9.548147201538086,-2.2365965843200684
1775728172546429700,11.9194296875,0.08904748409986496,-9.552436828613281,-2.216623306274414
1775728172564958000,11.9379580078125,0.18505150079727173,-9.550277709960938,-2.2199840545654297
1775728172583486200,11.956486328125,0.37305620312690735,-9.545355796813965,-2.2175207138061523
1775728172602014700,11.9750146484375,0.6602151989936829,-9.53610610961914,-2.1902477741241455
1775728172620543000,11.99354296875,1.0399428606033325,-9.508460998535156,-2.162881374359131
1775728172639071200,12.0120712890625,1.511029839515686,-9.444805145263672,-2.1639835834503174
1775728172657599500,12.030599609375,2.030982255935669,-9.34169864654541,-2.185901403427124
1775728172676127700,12.049127685546875,2.577523708343506,-9.186742782592773,-2.265061855316162
1775728172694656000,12.067656005859375,3.082181453704834,-8.993173599243164,-2.4069433212280273
1775728172713184300,12.086184326171875,3.4733128547668457,-8.803443908691406,-2.570186138153076
1775728172731712800,12.104712646484375,3.834653854370117,-8.59428596496582,-2.7575488090515137
1775728172750240800,12.12324072265625,4.292306423187256,-8.30631160736084,-2.958322048187256
1775728172768769300,12.141769287109375,4.796501636505127,-7.971150875091553,-3.1023712158203125
1775728172787297500,12.160297607421874,5.21205472946167,-7.692942142486572,-3.1342499256134033
1775728172805825800,12.17882568359375,5.511586666107178,-7.523140907287598,-3.0323519706726074
1775728172824354000,12.19735400390625,5.781370639801025,-7.389858722686768,-2.852389335632324
1775728172842882300,12.21588232421875,6.137857913970947,-7.153375148773193,-2.706714391708374
1775728172861410600,12.23441064453125,6.54203987121582,-6.8174943923950195,-2.625619411468506
1775728172879938800,12.252938720703124,6.878148078918457,-6.4954915046691895,-2.5826473236083984
1775728172898467300,12.27146728515625,7.108072757720947,-6.2559075355529785,-2.551334857940674
1775728172916995600,12.28999560546875,7.27500057220459,-6.078880310058594,-2.5083811283111572
1775728172935523800,12.30852392578125,7.42531681060791,-5.911011695861816,-2.4688031673431396
1775728172954052000,12.327052001953126,7.570834159851074,-5.744081974029541,-2.420408010482788
1775728172972580400,12.345580322265626,7.686367511749268,-5.608994483947754,-2.3726184368133545
1775728172991108600,12.364108642578126,7.759009838104248,-5.54117488861084,-2.2942395210266113
1775728173009636900,12.382636962890626,7.79719352722168,-5.517932415008545,-2.219590663909912
1775728173028165400,12.401165283203126,7.80360221862793,-5.52580451965332,-2.177072525024414
1775728173046693600,12.419693603515626,7.774027347564697,-5.569265842437744,-2.1721324920654297
1775728173065222000,12.438221923828126,7.711307525634766,-5.647556781768799,-2.193451404571533
1775728173093014300,12.46601416015625,7.5141801834106445,-5.894599914550781,-2.227370023727417
1775728173111542500,12.48454248046875,7.358726978302002,-6.0548095703125,-2.3149094581604004
1775728173130070800,12.50307080078125,7.330172538757324,-6.044492721557617,-2.429624319076538
1775728173148599300,12.521599365234374,7.2541632652282715,-6.116669178009033,-2.47666335105896
1775728173167127600,12.54012744140625,6.917714595794678,-6.422428607940674,-2.658576011657715
1775728173185655800,12.55865576171875,6.50905704498291,-6.737633228302002,-2.899458408355713
1775728173204184000,12.57718408203125,6.145548343658447,-6.9749555587768555,-3.122919797897339
1775728173222712300,12.59571240234375,5.790200233459473,-7.2426981925964355,-3.19175386428833
1775728173241240600,12.614240478515624,5.48869514465332,-7.475806713104248,-3.1869943141937256
1775728173259769000,12.63276904296875,5.20151948928833,-7.676703453063965,-3.1910510063171387
1775728173278297300,12.65129736328125,4.910337924957275,-7.856955528259277,-3.21359920501709
1775728173296825600,12.66982568359375,4.61087703704834,-8.017702102661133,-3.2598559856414795
1775728173315353900,12.688353759765626,4.306159496307373,-8.15984058380127,-3.323309898376465
1775728173333882000,12.706882080078126,3.9970884323120117,-8.302201271057129,-3.356651544570923
1775728173352410600,12.72541064453125,3.6997592449188232,-8.440387725830078,-3.3529114723205566
1775728173370939000,12.74393896484375,3.403379201889038,-8.580148696899414,-3.311868190765381
1775728173389467100,12.762467041015626,3.096435070037842,-8.731073379516602,-3.2172720432281494
1775728173407995400,12.780995361328126,2.807910680770874,-8.868131637573242,-3.1051995754241943
1775728173426524000,12.79952392578125,2.5409305095672607,-8.97439956665039,-3.0288989543914795
1775728173445052200,12.81805224609375,2.258683919906616,-9.061193466186523,-2.993913173675537
1775728173463580400,12.836580322265625,1.9556117057800293,-9.133170127868652,-2.988507032394409
1775728173482108700,12.855108642578125,1.6603087186813354,-9.18931770324707,-2.9950311183929443
1775728173500637000,12.873636962890625,1.3884221315383911,-9.235166549682617,-2.992387056350708
1775728173519165400,12.89216552734375,1.144727110862732,-9.280071258544922,-2.956393003463745
1775728173537693700,12.910693603515625,0.9454368352890015,-9.321002960205078,-2.8974881172180176
1775728173556222000,12.929221923828125,0.7838262319564819,-9.349973678588867,-2.852018117904663
1775728173574750500,12.94775048828125,0.6272989511489868,-9.374311447143555,-2.8105437755584717
1775728173593278500,12.966278564453125,0.4701184630393982,-9.397624015808105,-2.7629776000976562
1775728173611807000,12.984806884765625,0.32997286319732666,-9.41705322265625,-2.7167274951934814
1775728173630335200,13.003335205078125,0.20360474288463593,-9.430492401123047,-2.6822986602783203
1775728173648863500,13.021863525390625,0.0860971137881279,-9.436610221862793,-2.6670892238616943
1775728173667392000,13.04039208984375,-0.022154342383146286,-9.438486099243164,-2.6617448329925537
1775728173685920300,13.058920166015625,-0.12111832946538925,-9.439667701721191,-2.6548800468444824
1775728173704448500,13.077448486328125,-0.1891840100288391,-9.4466552734375,-2.625889539718628
1775728173722977000,13.09597705078125,-0.22357995808124542,-9.461196899414062,-2.5702435970306396
1775728173741505000,13.114505126953125,-0.2645367681980133,-9.475979804992676,-2.511215925216675
1775728173760033500,13.133033447265625,-0.3180364966392517,-9.487010955810547,-2.4628994464874268
1775728173778561800,13.151561767578125,-0.33328115940093994,-9.48849868774414,-2.455138683319092
1775728173797090000,13.170090087890625,-0.31781747937202454,-9.482755661010742,-2.4792563915252686
1775728173815618600,13.18861865234375,-0.31193676590919495,-9.483909606933594,-2.4755868911743164
1775728173834146800,13.207146728515625,-0.31730401515960693,-9.488940238952637,-2.4555468559265137
1775728173852675000,13.225675048828125,-0.2919977903366089,-9.492938041687012,-2.4432029724121094
1775728173871203600,13.24420361328125,-0.1811113804578781,-9.495271682739258,-2.4448773860931396
1775728173889731800,13.26273193359375,0.034415941685438156,-9.492551803588867,-2.461841106414795
1775728173908260000,13.281260009765624,0.3352477252483368,-9.479132652282715,-2.4907901287078857
1775728173926788400,13.299788330078124,0.7193868160247803,-9.459539413452148,-2.4839463233947754
1775728173945316900,13.31831689453125,1.194854974746704,-9.42464828491211,-2.4328420162200928
1775728173963845000,13.33684521484375,1.7572941780090332,-9.345210075378418,-2.397780179977417
1775728173982373400,13.355373291015624,2.377420663833618,-9.190613746643066,-2.459855794906616
1775728174000902000,13.37390185546875,2.9343464374542236,-8.988171577453613,-2.6024527549743652
1775728174019430100,13.39243017578125,3.353797674179077,-8.806707382202148,-2.713731050491333
1775728174037958400,13.41095849609375,3.7951109409332275,-8.601336479187012,-2.790076732635498
1775728174056487000,13.42948681640625,4.375385284423828,-8.300124168395996,-2.8520748615264893
1775728174075015200,13.44801513671875,4.9366960525512695,-7.995564937591553,-2.805417776107788
1775728174093543400,13.46654345703125,5.351521015167236,-7.790325164794922,-2.6158087253570557
1775728174112072000,13.485072021484376,5.700412273406982,-7.626471519470215,-2.3478994369506836
1775728174130600200,13.50360009765625,6.087311267852783,-7.3951520919799805,-2.1039834022521973
1775728174149128400,13.52212841796875,6.517385005950928,-7.071979522705078,-1.91864013671875
1775728174167656700,13.54065673828125,6.899694442749023,-6.729658126831055,-1.8100600242614746
1775728174186185200,13.559185302734376,7.192807197570801,-6.428518772125244,-1.7629704475402832
1775728174204713500,13.57771337890625,7.429469108581543,-6.164200782775879,-1.7251088619232178
1775728174223241700,13.59624169921875,7.637602806091309,-5.92047643661499,-1.6689460277557373
1775728174241770200,13.614770263671875,7.821838855743408,-5.698527812957764,-1.5861932039260864
1775728174260298500,13.633298583984375,7.976246356964111,-5.503840923309326,-1.5025421380996704
1775728174278826800,13.65182666015625,8.09652042388916,-5.346476078033447,-1.4254635572433472
1775728174297355300,13.670355224609375,8.187385559082031,-5.2235236167907715,-1.3608461618423462
1775728174315883500,13.688883544921875,8.246626853942871,-5.137698650360107,-1.3295047283172607
1775728174334411800,13.707411865234375,8.277392387390137,-5.086659908294678,-1.334559679031372
1775728174352940000,13.72593994140625,8.29857349395752,-5.046464443206787,-1.355454683303833
1775728174371468500,13.744468505859375,8.301618576049805,-5.037569046020508,-1.3698267936706543
1775728174389996800,13.762996826171875,8.266733169555664,-5.086560249328613,-1.399430274963379
1775728174408525000,13.781525146484375,8.197410583496094,-5.1767659187316895,-1.4744305610656738
1775728174427053600,13.800053466796875,8.09887981414795,-5.289154529571533,-1.613495945930481
1775728174445581800,13.818581787109375,7.982178211212158,-5.39597749710083,-1.827193021774292
1775728174464110300,13.8371103515625,7.869063854217529,-5.457368850708008,-2.1131348609924316
1775728174482638600,13.855638671875,7.745693683624268,-5.564899921417236,-2.281777858734131
1775728174501166800,13.874166748046875,7.562070369720459,-5.723479270935059,-2.495450496673584
1775728174519695400,13.8926953125,7.295315742492676,-5.896640300750732,-2.8597915172576904
1775728174538223600,13.9112236328125,6.8969879150390625,-6.256925582885742,-3.0745441913604736
1775728174556752000,13.929751953125,6.591332912445068,-6.513724327087402,-3.2087552547454834
1775728174575280000,13.948280029296875,6.349124908447266,-6.686185836791992,-3.339747905731201
1775728174593808600,13.96680859375,6.026049613952637,-6.925666809082031,-3.448513984680176
1775728174612337000,13.9853369140625,5.6678924560546875,-7.171322822570801,-3.5521140098571777
1775728174630865400,14.003865478515625,5.352576732635498,-7.363352298736572,-3.6471004486083984
1775728174649393700,14.0223935546875,5.056906223297119,-7.54358434677124,-3.7003273963928223
1775728174667922000,14.040921875,4.779454708099365,-7.718438148498535,-3.7084922790527344
1775728174686450400,14.059450439453125,4.516317844390869,-7.893083095550537,-3.67048978805542
1775728174704978700,14.077978759765625,4.266786098480225,-8.074365615844727,-3.5734498500823975
1775728174723507000,14.0965068359375,4.034636497497559,-8.245111465454102,-3.4511215686798096
1775728174742035500,14.115035400390624,3.8287551403045654,-8.393534660339355,-3.32559871673584
1775728174760563700,14.133563720703124,3.614887237548828,-8.53311824798584,-3.2076287269592285
1775728174779092200,14.15209228515625,3.3803820610046387,-8.667723655700684,-3.1006386280059814
1775728174797620500,14.170620361328124,3.150447368621826,-8.780064582824707,-3.025813102722168
1775728174816148700,14.189148681640624,2.938169479370117,-8.868406295776367,-2.981428623199463
1775728174834677200,14.20767724609375,2.7365775108337402,-8.94326114654541,-2.9495112895965576
1775728174853205500,14.22620556640625,2.524819850921631,-9.012240409851074,-2.9283406734466553
1775728174871734000,14.244734130859374,2.3138182163238525,-9.0745849609375,-2.910074472427368
1775728174890262300,14.26326220703125,2.110058546066284,-9.128015518188477,-2.8978195190429688
1775728174908790500,14.28179052734375,1.911192536354065,-9.179157257080078,-2.8741588592529297
1775728174927318800,14.30031884765625,1.7157255411148071,-9.22697639465332,-2.8442184925079346
1775728174945847300,14.318847412109376,1.5312799215316772,-9.261552810668945,-2.837110996246338
1775728174964375600,14.33737548828125,1.360959529876709,-9.284003257751465,-2.850517749786377
1775728174982904000,14.355904052734376,1.2061963081359863,-9.298504829406738,-2.8728537559509277
1775728175001432300,14.374432373046876,1.0712826251983643,-9.312700271606445,-2.880340814590454
1775728175019960600,14.392960693359376,0.9596865773200989,-9.332096099853516,-2.8568122386932373
1775728175038489000,14.411489013671876,0.881297767162323,-9.347737312316895,-2.830817461013794
1775728175057017300,14.430017333984376,0.8226190805435181,-9.359644889831543,-2.8090460300445557
1775728175075545900,14.4485458984375,0.7726076245307922,-9.369988441467285,-2.7886903285980225
1775728175094074000,14.46707421875,0.7351217865943909,-9.380485534667969,-2.7634146213531494
1775728175112602600,14.4856025390625,0.7103611826896667,-9.389510154724121,-2.739137649536133
1775728175131131000,14.504130859375,0.6799612045288086,-9.396269798278809,-2.7236263751983643
1775728175149659100,14.5226591796875,0.6521852612495422,-9.405750274658203,-2.6975746154785156
1775728175168187600,14.541187744140625,0.669273853302002,-9.413732528686523,-2.6653528213500977
1775728175186716000,14.5597158203125,0.7359240651130676,-9.413087844848633,-2.650017023086548
1775728175205244400,14.578244384765625,0.8282883167266846,-9.407058715820312,-2.6441574096679688
1775728175223772700,14.596772705078125,0.9438114166259766,-9.389582633972168,-2.6674633026123047
1775728175242301000,14.615301025390625,1.0869557857513428,-9.362679481506348,-2.7072412967681885
1775728175260829200,14.6338291015625,1.2305028438568115,-9.327764511108398,-2.7656919956207275
1775728175279357700,14.652357666015625,1.3225674629211426,-9.289502143859863,-2.850674629211426
1775728175297886200,14.67088623046875,1.3942315578460693,-9.243620872497559,-2.9634413719177246
1775728175316414500,14.68941455078125,1.469649314880371,-9.204488754272461,-3.0476038455963135
1775728175334942700,14.707942626953125,1.5539342164993286,-9.193352699279785,-3.039398431777954
1775728175353471200,14.72647119140625,1.6891814470291138,-9.197043418884277,-2.9548985958099365
1775728175371999500,14.74499951171875,1.889512062072754,-9.194724082946777,-2.8385157585144043
1775728175390527700,14.76352783203125,2.077533006668091,-9.202089309692383,-2.6787660121917725
1775728175409056300,14.78205615234375,2.207575798034668,-9.214564323425293,-2.5276072025299072
1775728175427584500,14.80058447265625,2.32180118560791,-9.22154426574707,-2.3964030742645264
1775728175446113000,14.819113037109375,2.4576504230499268,-9.220788955688477,-2.2599518299102783
1775728175464641300,14.837641357421875,2.6231279373168945,-9.211234092712402,-2.1077847480773926
1775728175483169800,14.856169677734375,2.78519868850708,-9.197604179382324,-1.9537484645843506
1775728175501698000,14.874697998046875,2.8852784633636475,-9.193028450012207,-1.8258616924285889
1775728175520226300,14.893226318359375,2.9124724864959717,-9.197247505187988,-1.7602617740631104
1775728175538754800,14.9117548828125,2.9207346439361572,-9.196358680725098,-1.7511975765228271
1775728175557283000,14.930282958984375,2.9344959259033203,-9.190034866333008,-1.761355996131897
1775728175575811600,14.9488115234375,2.9257586002349854,-9.192708015441895,-1.7619457244873047
1775728175594339800,14.96733984375,2.910381555557251,-9.197284698486328,-1.7635267972946167
1775728175612868400,14.985868408203125,2.8899247646331787,-9.203618049621582,-1.7641288042068481
1775728175631396600,15.004396728515625,2.860520601272583,-9.215164184570312,-1.751731276512146
1775728175649925000,15.022925048828125,2.838470220565796,-9.22476577758789,-1.7369983196258545
1775728175668453400,15.041453369140624,2.809497594833374,-9.233174324035645,-1.739420771598816
1775728175686981600,15.059981689453124,2.759963035583496,-9.24972152709961,-1.7307937145233154
1775728175705510100,15.07851025390625,2.702517509460449,-9.270525932312012,-1.7100123167037964
1775728175724038400,15.097038330078124,2.671773672103882,-9.279654502868652,-1.708809494972229
1775728175742567000,15.11556689453125,2.679555892944336,-9.270678520202637,-1.7449593544006348
1775728175761095200,15.13409521484375,2.6892006397247314,-9.259263038635254,-1.7901514768600464
1775728175779623700,15.152623779296874,2.6789379119873047,-9.25279712677002,-1.8383245468139648
1775728175798152000,15.17115185546875,2.655959367752075,-9.24941349029541,-1.8880153894424438
1775728175816680400,15.189680419921874,2.6260578632354736,-9.247721672058105,-1.9374871253967285
1775728175835208700,15.208208740234374,2.6156482696533203,-9.238895416259766,-1.9928795099258423
1775728175853737000,15.226737060546874,2.6494979858398438,-9.212940216064453,-2.0669517517089844
1775728175872265500,15.245265380859376,2.7020745277404785,-9.184943199157715,-2.122731924057007
1775728175890793700,15.263793701171876,2.7328903675079346,-9.164813995361328,-2.169764518737793
1775728175909322200,15.282322265625,2.7297167778015137,-9.15026569366455,-2.234203815460205
1775728175927850500,15.3008505859375,2.720738649368286,-9.132139205932617,-2.3177599906921387
1775728175946379000,15.31937890625,2.7011356353759766,-9.11854076385498,-2.3930041790008545
1775728175964907300,15.3379072265625,2.6649928092956543,-9.110733985900879,-2.462256908416748
1775728175983435800,15.356435791015626,2.6393299102783203,-9.0968599319458,-2.53997540473938
1775728176001964000,15.374964111328126,2.640073776245117,-9.078953742980957,-2.602501153945923
1775728176020492500,15.393492431640626,2.6649703979492188,-9.063749313354492,-2.6299750804901123
1775728176039020800,15.412020751953126,2.7106406688690186,-9.050619125366211,-2.628518581390381
1775728176057549000,15.430549072265626,2.7504515647888184,-9.037057876586914,-2.6338157653808594
1775728176076077600,15.44907763671875,2.752971649169922,-9.031253814697266,-2.6510355472564697
1775728176094605800,15.467605712890625,2.740144729614258,-9.030866622924805,-2.665605068206787
1775728176113134300,15.48613427734375,2.744570016860962,-9.019351959228516,-2.6998183727264404
1775728176131662600,15.50466259765625,2.7343831062316895,-9.007716178894043,-2.7485616207122803
1775728176150191000,15.523191162109375,2.6802072525024414,-9.012496948242188,-2.7859976291656494
1775728176168719400,15.54171923828125,2.612656593322754,-9.02426815032959,-2.811936378479004
1775728176187247900,15.560247802734375,2.5859029293060303,-9.021489143371582,-2.8453874588012695
1775728176205776100,15.578776123046875,2.586965799331665,-9.009742736816406,-2.881413221359253
1775728176224304600,15.5973046875,2.5766892433166504,-8.995591163635254,-2.9343490600585938
1775728176242833000,15.6158330078125,2.567169666290283,-8.985404968261719,-2.9736385345458984
1775728176261361400,15.634361328125,2.5897152423858643,-8.971808433532715,-2.9950625896453857
1775728176279889700,15.6528896484375,2.643526792526245,-8.950540542602539,-3.0116400718688965
1775728176298418200,15.671418212890625,2.6852188110351562,-8.935005187988281,-3.0208725929260254
1775728176316946400,15.689946533203125,2.734034299850464,-8.915141105651855,-3.0357372760772705
1775728176335475000,15.708474853515625,2.821810007095337,-8.880627632141113,-3.0565085411071777
1775728176354003200,15.727003173828125,2.8989288806915283,-8.850393295288086,-3.071990489959717
1775728176372531500,15.745531494140625,2.9333648681640625,-8.834508895874023,-3.08499813079834
1775728176391060000,15.76406005859375,2.950252056121826,-8.830636978149414,-3.079979658126831
1775728176409588200,15.782588134765625,2.961336374282837,-8.833205223083496,-3.061920166015625
1775728176428116700,15.80111669921875,2.9530954360961914,-8.844149589538574,-3.038196325302124
1775728176446645000,15.81964501953125,2.9236741065979004,-8.858095169067383,-3.0259976387023926
1775728176465173500,15.838173583984375,2.8881404399871826,-8.872611999511719,-3.017580032348633
1775728176483701800,15.85670166015625,2.858137607574463,-8.886445045471191,-3.0054171085357666
1775728176502230300,15.875230224609375,2.8609256744384766,-8.884684562683105,-3.007967472076416
1775728176520758500,15.893758544921875,2.882768154144287,-8.873732566833496,-3.0194203853607178
1775728176539287000,15.912287109375,2.8931987285614014,-8.866113662719727,-3.031801700592041
1775728176557815300,15.930815185546875,2.902642011642456,-8.863992691040039,-3.0289742946624756
1775728176576343800,15.94934375,2.9113247394561768,-8.867851257324219,-3.009286880493164
1775728176594872000,15.9678720703125,2.90436053276062,-8.8783597946167,-2.984931468963623
1775728176613400600,15.986400634765625,2.899083375930786,-8.890121459960938,-2.9549026489257812
1775728176631928800,16.0049287109375,2.90177321434021,-8.89330768585205,-2.9426469802856445
1775728176650457300,16.023457275390626,2.883944511413574,-8.898362159729004,-2.9448959827423096
1775728176668985600,16.041985595703125,2.863835573196411,-8.905560493469238,-2.9427578449249268
1775728176687514000,16.06051416015625,2.8683998584747314,-8.906615257263184,-2.935110569000244
1775728176706042400,16.07904248046875,2.878835916519165,-8.904155731201172,-2.9323534965515137
1775728176724571000,16.09757080078125,2.8725736141204834,-8.901823997497559,-2.945542335510254
1775728176743099100,16.11609912109375,2.8545711040496826,-8.904358863830566,-2.9553706645965576
1775728176761627600,16.134627685546874,2.839214324951172,-8.910453796386719,-2.951787233352661
1775728176780156000,16.153156005859376,2.838395833969116,-8.916058540344238,-2.93561053276062
1775728176798684400,16.171684326171874,2.8459160327911377,-8.921308517456055,-2.9122843742370605
1775728176817212700,16.190212646484376,2.8487465381622314,-8.92712116241455,-2.8916308879852295
1775728176835741200,16.2087412109375,2.842923402786255,-8.931985855102539,-2.8823232650756836
1775728176854269400,16.22726953125,2.8397295475006104,-8.93380069732666,-2.879849672317505
1775728176872798000,16.2457978515625,2.8409972190856934,-8.935221672058105,-2.8741836547851562
1775728176891326200,16.264326171875,2.8430285453796387,-8.937409400939941,-2.8653624057769775
1775728176909854700,16.282854736328126,2.8525173664093018,-8.937617301940918,-2.855266809463501
1775728176928383000,16.301383056640624,2.8706464767456055,-8.93535327911377,-2.8441598415374756
1775728176946911500,16.319911376953126,2.8814923763275146,-8.934103965759277,-2.837108612060547
1775728176965439700,16.338439697265624,2.882749319076538,-8.935163497924805,-2.8324878215789795
1775728176983968300,16.35696826171875,2.8860747814178467,-8.937392234802246,-2.822054386138916
1775728177002496500,16.37549658203125,2.8961234092712402,-8.937525749206543,-2.811312675476074
1775728177021025000,16.39402490234375,2.8993964195251465,-8.939507484436035,-2.8016231060028076
1775728177039553300,16.41255322265625,2.88988995552063,-8.945582389831543,-2.792038917541504
1775728177058081800,16.431081787109374,2.892287492752075,-8.948103904724121,-2.781456232070923
1775728177076610000,16.449610107421876,2.9043004512786865,-8.947222709655762,-2.7717559337615967
1775728177095138600,16.468138671875,2.8908166885375977,-8.955390930175781,-2.7594456672668457
1775728177113666800,16.486666748046876,2.864487409591675,-8.966790199279785,-2.7498672008514404
1775728177132195300,16.5051953125,2.843953847885132,-8.972155570983887,-2.7536792755126953
1775728177150723600,16.5237236328125,2.742828130722046,-8.999103546142578,-2.7682888507843018
1775728177169252000,16.542252197265626,2.7375383377075195,-9.003947257995605,-2.757754325866699
1775728177187780400,16.5607802734375,2.7615044116973877,-8.998385429382324,-2.7520053386688232
1775728177206308900,16.579308837890625,2.7985951900482178,-8.98682975769043,-2.7522995471954346
1775728177224837000,16.597837158203124,2.8295743465423584,-8.976578712463379,-2.7540738582611084
1775728177243365600,16.61636572265625,2.879647970199585,-8.963088035583496,-2.7460970878601074
1775728177261894100,16.63489404296875,2.9106976985931396,-8.951622009277344,-2.750762701034546
1775728177280422400,16.65342236328125,2.9102790355682373,-8.949134826660156,-2.759284496307373
1775728177298951000,16.671950927734375,2.9152135848999023,-8.943624496459961,-2.77191162109375
1775728177317479200,16.690479248046874,2.9419376850128174,-8.929198265075684,-2.7901298999786377
1775728177336007700,16.709007568359375,2.973020553588867,-8.915311813354492,-2.801561117172241
1775728177354536200,16.7275361328125,2.9739794731140137,-8.915352821350098,-2.80041241645813
1775728177373064400,16.746064453125,2.949308395385742,-8.924620628356934,-2.796980619430542
1775728177391593000,16.764593017578125,2.936387062072754,-8.929500579833984,-2.79500150680542
1775728177410121200,16.783121337890623,2.9413418769836426,-8.928257942199707,-2.793760299682617
1775728177428649700,16.801649658203125,2.941396713256836,-8.9295015335083,-2.7897262573242188
1775728177447178000,16.820177978515623,2.9314534664154053,-8.935693740844727,-2.7803521156311035
1775728177465706500,16.83870654296875,2.9172263145446777,-8.946024894714355,-2.7620327472686768
1775728177484234800,16.85723486328125,2.8987793922424316,-8.958240509033203,-2.741788625717163
1775728177502763300,16.87576318359375,2.8803775310516357,-8.967974662780762,-2.7293312549591064
1775728177521291500,16.89429150390625,2.853692054748535,-8.981337547302246,-2.713376998901367
1775728177539820000,16.912820068359373,2.828123092651367,-8.996783256530762,-2.6888678073883057
1775728177558348300,16.931348388671875,2.8119306564331055,-9.006021499633789,-2.674882411956787
1775728177576876800,16.949876708984377,2.7981746196746826,-9.014937400817871,-2.6592347621917725
1775728177595405300,16.9684052734375,2.774600028991699,-9.029085159301758,-2.635831356048584
1775728177613933600,16.98693359375,2.775519609451294,-9.028246879577637,-2.6377313137054443
1775728177632462000,17.005462158203127,2.7668826580047607,-9.034868240356445,-2.6240975856781006
1775728177650990300,17.023990234375,2.794666051864624,-9.025416374206543,-2.627183675765991
1775728177669518800,17.042518798828127,2.7830309867858887,-9.033775329589844,-2.6107542514801025
1775728177688047000,17.061047119140625,2.7816548347473145,-9.037989616394043,-2.597599506378174
1775728177706575600,17.07957568359375,2.800046443939209,-9.037092208862305,-2.580911636352539
1775728177725104000,17.098104248046877,2.8399243354797363,-9.02892017364502,-2.5658955574035645
1775728177743632400,17.11663232421875,2.904855251312256,-9.010981559753418,-2.5562491416931152
1775728177762161000,17.135160888671876,2.989179849624634,-8.984930038452148,-2.5507314205169678
1775728177780689400,17.153689453125,3.0986104011535645,-8.956920623779297,-2.518446922302246
1775728177799217700,17.1722177734375,3.237097978591919,-8.916475296020508,-2.4875776767730713
1775728177817746200,17.19074609375,3.41910719871521,-8.845325469970703,-2.498060464859009
1775728177836274400,17.2092744140625,3.6316962242126465,-8.744321823120117,-2.5530388355255127
1775728177854803000,17.227802978515626,3.853886365890503,-8.63264274597168,-2.6068036556243896
1775728177873331500,17.24633154296875,4.087193489074707,-8.503911972045898,-2.6737048625946045
1775728177891859700,17.264859619140626,4.353823661804199,-8.344977378845215,-2.7524452209472656
1775728177910388200,17.28338818359375,4.626386642456055,-8.17442512512207,-2.818809986114502
1775728177928916700,17.301916748046875,4.895248889923096,-8.002188682556152,-2.858656883239746
1775728177947445200,17.3204453125,5.167402744293213,-7.825309753417969,-2.8692986965179443
1775728177965973500,17.338973388671874,5.379498481750488,-7.662577152252197,-2.918269157409668
1775728177984502000,17.357501953125,5.516165256500244,-7.523695468902588,-3.022636651992798
1775728178003030500,17.376030517578126,5.620487689971924,-7.4247331619262695,-3.074711799621582
1775728178021558800,17.394558837890624,5.71423864364624,-7.37352180480957,-3.024738311767578
1775728178040087300,17.41308740234375,5.802777290344238,-7.340149402618408,-2.936046600341797
1775728178058615800,17.43161572265625,5.888523578643799,-7.297623634338379,-2.8706047534942627
1775728178077144300,17.450144287109374,5.950121879577637,-7.260417938232422,-2.837740421295166
1775728178095672600,17.468672607421876,5.968236446380615,-7.249766826629639,-2.826909065246582
1775728178114201000,17.487201171875,5.956675052642822,-7.264159202575684,-2.8143208026885986
1775728178132729600,17.5057294921875,5.923203468322754,-7.298203468322754,-2.796833038330078
1775728178151258000,17.524258056640626,5.847845554351807,-7.358426094055176,-2.797616720199585
1775728178169786600,17.54278662109375,5.729189395904541,-7.446338653564453,-2.8104867935180664
1775728178188315000,17.56131494140625,5.602495193481445,-7.536101341247559,-2.826589822769165
1775728178206843400,17.579843505859376,5.492334842681885,-7.613518714904785,-2.835310697555542
1775728178225372000,17.598371826171874,5.380824565887451,-7.688594818115234,-2.846510887145996
1775728178243900400,17.616900390625,5.246700286865234,-7.766013145446777,-2.8864448070526123
1775728178262428700,17.6354287109375,5.088876247406006,-7.845091342926025,-2.9543652534484863
1775728178280957200,17.653957275390624,4.932043552398682,-7.905388355255127,-3.0578057765960693
1775728178299485700,17.672485595703126,4.755957126617432,-7.9645256996154785,-3.1808152198791504
1775728178318014200,17.69101416015625,4.545489311218262,-8.049349784851074,-3.2736666202545166
1775728178336542700,17.709542724609374,4.301748275756836,-8.149374961853027,-3.354555130004883
1775728178355071200,17.7280712890625,4.048737049102783,-8.24396800994873,-3.437312126159668
1775728178373599700,17.746599853515626,3.786940813064575,-8.334258079528809,-3.517045259475708
1775728178392128000,17.7651279296875,3.56558895111084,-8.404434204101562,-3.5808448791503906
1775728178410656500,17.783656494140626,3.3817086219787598,-8.452630996704102,-3.6451988220214844
1775728178429185000,17.80218505859375,3.194239854812622,-8.50036907196045,-3.7028307914733887
1775728178447713500,17.820713623046874,3.0101869106292725,-8.547867774963379,-3.747415065765381
1775728178466242000,17.839241943359376,2.8447959423065186,-8.58747386932373,-3.785871982574463
1775728178484770600,17.8577705078125,2.6921656131744385,-8.616074562072754,-3.832216501235962
1775728178503299000,17.876299072265624,2.5500099658966064,-8.642623901367188,-3.869480609893799
1775728178521827600,17.89482763671875,2.4238665103912354,-8.66256046295166,-3.9058032035827637
1775728178540356000,17.913356201171876,2.3398172855377197,-8.695387840270996,-3.884054183959961
1775728178558884600,17.931884521484374,2.3367648124694824,-8.73779010772705,-3.7895820140838623
1775728178577412900,17.950412841796876,2.4354825019836426,-8.776880264282227,-3.633894681930542
1775728178595941400,17.96894140625,2.5582995414733887,-8.826173782348633,-3.4240541458129883
1775728178614470000,17.987469970703124,2.7258198261260986,-8.847407341003418,-3.234764337539673
1775728178632998400,18.005998291015626,2.9395081996917725,-8.817143440246582,-3.1285247802734375
1775728178651527000,18.02452685546875,3.012310028076172,-8.766161918640137,-3.201683282852173
1775728178670055400,18.043055419921874,2.899409770965576,-8.73649787902832,-3.381925106048584
1775728178688584000,18.061583984375,2.6695821285247803,-8.737184524536133,-3.5644524097442627
1775728178707112400,18.080112548828126,2.5309951305389404,-8.752548217773438,-3.627304792404175
1775728178725641000,18.098640869140624,2.5223395824432373,-8.776310920715332,-3.575550079345703
1775728178744169500,18.11716943359375,2.4348177909851074,-8.844218254089355,-3.467256546020508
1775728178762698000,18.135697998046876,2.2415904998779297,-8.9298677444458,-3.376851797103882
1775728178781226500,18.1542265625,2.1037404537200928,-8.982845306396484,-3.3246285915374756
1775728178818283500,18.191283447265626,1.7857931852340698,-9.089468002319336,-3.2191474437713623
1775728178836812000,18.20981201171875,1.6270904541015625,-9.137454986572266,-3.1670005321502686
1775728178855340500,18.228340576171874,1.4845901727676392,-9.18891429901123,-3.087108850479126
1775728178873869000,18.246869140625,1.364790678024292,-9.235820770263672,-3.001224994659424
1775728178892397600,18.2653974609375,1.2945624589920044,-9.275495529174805,-2.9085514545440674
1775728178910926000,18.283926025390624,1.2406573295593262,-9.308004379272461,-2.8270483016967773
1775728178929454600,18.30245458984375,1.231542944908142,-9.317505836486816,-2.7996034622192383
1775728178947983000,18.320983154296876,1.2579940557479858,-9.308676719665527,-2.8171558380126953
1775728178966511600,18.33951171875,1.3146159648895264,-9.29718017578125,-2.829242706298828
1775728178985040100,18.3580400390625,1.4004945755004883,-9.284174919128418,-2.830742359161377
1775728179003568600,18.376568603515626,1.4801875352859497,-9.27197265625,-2.8301875591278076
1775728179022097200,18.39509716796875,1.5237088203430176,-9.261672973632812,-2.840792179107666
1775728179040625700,18.413625732421874,1.562147855758667,-9.24679946899414,-2.868234634399414
1775728179059154200,18.432154296875,1.6685150861740112,-9.219334602355957,-2.8966057300567627
1775728179077682700,18.4506826171875,1.842918038368225,-9.186394691467285,-2.8955488204956055
1775728179096211200,18.469211181640624,1.9903106689453125,-9.155388832092285,-2.8961899280548096
1775728179114739700,18.48773974609375,2.105532169342041,-9.12954044342041,-2.896307945251465
1775728179133268200,18.506268310546876,2.254345178604126,-9.100556373596191,-2.875445604324341
1775728179151796700,18.524796630859374,2.5175113677978516,-9.043243408203125,-2.837655544281006
1775728179170325200,18.5433251953125,2.8541624546051025,-8.94173812866211,-2.8406779766082764
1775728179188854000,18.56185400390625,3.1199584007263184,-8.84048843383789,-2.8778486251831055
1775728179207382300,18.58038232421875,3.318573474884033,-8.758761405944824,-2.9054315090179443
1775728179225910800,18.598910888671874,3.5839526653289795,-8.637927055358887,-2.9515938758850098
1775728179244439300,18.617439208984376,3.911039352416992,-8.462636947631836,-3.0426857471466064
1775728179262968000,18.635968017578126,4.298083305358887,-8.225419998168945,-3.168489694595337
1775728179281496600,18.65449658203125,4.6232500076293945,-8.007250785827637,-3.2680094242095947
1775728179300025000,18.673025146484374,4.878583908081055,-7.84153413772583,-3.2985072135925293
1775728179318553600,18.6915537109375,5.162008285522461,-7.6790900230407715,-3.2489418983459473
1775728179337082000,18.71008203125,5.3918890953063965,-7.5379743576049805,-3.205754280090332
1775728179355610600,18.728610595703124,5.552765846252441,-7.416878700256348,-3.2135798931121826
1775728179374139100,18.74713916015625,5.681983947753906,-7.293946266174316,-3.268606662750244
1775728179392667600,18.765667724609376,5.751620292663574,-7.183777809143066,-3.3885977268218994
1775728179411196400,18.784196533203126,5.781704425811768,-7.096268653869629,-3.519268751144409
1775728179429725000,18.802724853515624,5.7784624099731445,-7.044140815734863,-3.627648115158081
1775728179448253400,18.82125341796875,5.738961696624756,-7.044300556182861,-3.6895179748535156
1775728179466782000,18.839781982421876,5.644466400146484,-7.110486030578613,-3.7082858085632324
1775728179485310500,18.858310546875,5.517457962036133,-7.224074363708496,-3.6797804832458496
1775728179503839000,18.8768388671875,5.369802951812744,-7.357858180999756,-3.6328396797180176
1775728179522367500,18.895367431640626,5.203865051269531,-7.506763458251953,-3.569126844406128
1775728179540896000,18.91389599609375,5.023822784423828,-7.6769843101501465,-3.463451385498047
1775728179559424500,18.932424560546874,4.835076808929443,-7.850445747375488,-3.3410959243774414
1775728179577953300,18.950953369140624,4.688737869262695,-7.996945858001709,-3.199214458465576
1775728179596481800,18.969481689453126,4.591001510620117,-8.111373901367188,-3.0493783950805664
1775728179615010300,18.98801025390625,4.487545013427734,-8.214394569396973,-2.925071954727173
1775728179633538800,19.006538818359374,4.309449195861816,-8.329813957214355,-2.865872621536255
1775728179652067300,19.0250673828125,4.044544696807861,-8.458182334899902,-2.875969648361206
1775728179670596000,19.04359619140625,3.7341513633728027,-8.573899269104004,-2.9520747661590576
1775728179689124600,19.06212451171875,3.412086009979248,-8.672926902770996,-3.050969123840332
1775728179707652900,19.08065283203125,3.110787868499756,-8.764491081237793,-3.110797882080078
1775728179726181600,19.099181640625,2.88179349899292,-8.832283973693848,-3.1394917964935303
1775728179744710100,19.117710205078126,2.714681386947632,-8.869361877441406,-3.183601140975952
1775728179763238700,19.13623876953125,2.56388783454895,-8.888961791992188,-3.2531867027282715
1775728179781767400,19.154767333984374,2.451794385910034,-8.900083541870117,-3.308717966079712
1775728179800296000,19.1732958984375,2.4932124614715576,-8.874568939208984,-3.3460848331451416
1775728179818824400,19.191824462890626,2.5591423511505127,-8.854663848876953,-3.349045753479004
1775728179837353000,19.21035302734375,2.493652105331421,-8.903830528259277,-3.2670907974243164
1775728179855881500,19.228881591796874,2.4870057106018066,-8.962797164916992,-3.107004165649414
1775728179874410200,19.24741015625,2.829493522644043,-8.894186019897461,-3.009618043899536
1775728179892938800,19.265938720703126,3.007956027984619,-8.845001220703125,-2.9813642501831055
1775728179911467300,19.28446728515625,2.8988068103790283,-8.86949348449707,-3.016521453857422
1775728179929995800,19.302995849609374,2.7042722702026367,-8.905342102050781,-3.090660810470581
1775728179948524500,19.321524658203124,2.566331148147583,-8.932320594787598,-3.1301751136779785
1775728179967053000,19.340052978515626,2.5004308223724365,-8.946121215820312,-3.1440675258636475
1775728179985581600,19.35858154296875,2.4109461307525635,-8.96113395690918,-3.171088218688965
1775728180004110000,19.377110107421874,2.2841458320617676,-8.998319625854492,-3.1596384048461914
1775728180022638600,19.395638671875,2.133350372314453,-9.047057151794434,-3.1256935596466064
1775728180041167000,19.4141669921875,2.0248770713806152,-9.086894035339355,-3.081984519958496
1775728180059695900,19.43269580078125,1.981505036354065,-9.108417510986328,-3.0464329719543457
1775728180078224400,19.451224365234374,1.9693132638931274,-9.11330509185791,-3.0397140979766846
1775728180096753000,19.4697529296875,2.0051982402801514,-9.107298851013184,-3.034250259399414
1775728180115281400,19.488281494140626,2.068528413772583,-9.106470108032227,-2.9939565658569336
1775728180133810200,19.50681005859375,2.1138768196105957,-9.11251163482666,-2.9434762001037598
1775728180152338700,19.525338623046874,2.166292905807495,-9.111239433288574,-2.909101963043213
1775728180170867200,19.5438671875,2.2422962188720703,-9.102355003356934,-2.8791728019714355
1775728180189396000,19.56239599609375,2.389944314956665,-9.073253631591797,-2.852126359939575
1775728180207924500,19.580924560546876,2.579871416091919,-9.036389350891113,-2.8032660484313965
1775728180226453000,19.599452880859374,2.7824931144714355,-9.001123428344727,-2.721747875213623
1775728180244981500,19.6179814453125,2.998443841934204,-8.961153984069824,-2.6224887371063232
1775728180263510300,19.63651025390625,3.207362174987793,-8.9141206741333,-2.534099578857422
1775728180282038800,19.655038818359376,3.4234275817871094,-8.855119705200195,-2.4571094512939453
1775728180300567300,19.6735673828125,3.6514055728912354,-8.76789665222168,-2.441642999649048
1775728180319095800,19.692095703125,3.899955987930298,-8.652351379394531,-2.46932315826416
1775728180337624600,19.71062451171875,4.157046794891357,-8.509424209594727,-2.5453968048095703
1775728180356153000,19.729153076171876,4.392552375793457,-8.360438346862793,-2.6417675018310547
1775728180374681600,19.747681640625,4.726686477661133,-8.171215057373047,-2.6570799350738525
1775728180393210400,19.76621044921875,5.0731072425842285,-7.965775489807129,-2.6420414447784424
1775728180411739000,19.78473876953125,5.285212993621826,-7.797789096832275,-2.7260611057281494
1775728180430267400,19.803267333984376,5.463616371154785,-7.6464409828186035,-2.8020029067993164
1775728180448796200,19.821796142578126,5.640705108642578,-7.5046305656433105,-2.8343193531036377
1775728180467324700,19.84032470703125,5.825078964233398,-7.364024639129639,-2.830190896987915
1775728180485853200,19.858853271484374,5.978939056396484,-7.228309631347656,-2.8590610027313232
1775728180504381700,19.877381591796876,6.06809663772583,-7.1245598793029785,-2.930738687515259
1775728180522910500,19.895910400390626,6.077866554260254,-7.091464042663574,-2.9901626110076904
1775728180541439000,19.91443896484375,6.019083023071289,-7.131741523742676,-3.0131847858428955
1775728180559967700,19.9329677734375,5.906465530395508,-7.220462322235107,-3.024726390838623
1775728180578496300,19.951496337890624,5.750443935394287,-7.342332363128662,-3.0319862365722656
1775728180597024800,19.970024658203126,5.568289756774902,-7.484325408935547,-3.0247981548309326
1775728180615553300,19.98855322265625,5.355646133422852,-7.643630027770996,-3.010376453399658
1775728180634082000,20.00708203125,5.129480838775635,-7.810410499572754,-2.9759528636932373
1775728180652610600,20.025610595703125,4.905864238739014,-7.9787917137146,-2.9054739475250244
1775728180671139300,20.044139404296875,4.657740592956543,-8.1539888381958,-2.82635760307312
1775728180689667800,20.062667724609376,4.384695529937744,-8.326081275939941,-2.7606537342071533
1775728180708196400,20.0811962890625,4.0885210037231445,-8.490001678466797,-2.7155609130859375
1775728180726725000,20.09972509765625,3.7771522998809814,-8.637269973754883,-2.7020509243011475
1775728180745253600,20.118253662109375,3.4813783168792725,-8.754329681396484,-2.7225182056427
1775728180763782100,20.1367822265625,3.2364797592163086,-8.831095695495605,-2.7762107849121094
1775728180782310700,20.155310546875,3.030364513397217,-8.883073806762695,-2.8422276973724365
1775728180800839400,20.17383935546875,2.844923734664917,-8.92061710357666,-2.9153709411621094
1775728180819368000,20.192367919921875,2.668477773666382,-8.950108528137207,-2.99084734916687
1775728180837896700,20.210896728515625,2.5113422870635986,-8.972564697265625,-3.0588622093200684
1775728180856425200,20.22942529296875,2.3886191844940186,-8.986551284790039,-3.115572452545166
1775728180874954000,20.2479541015625,2.313354969024658,-8.988059997558594,-3.1675784587860107
1775728180893482500,20.266482421875,2.3159048557281494,-8.971793174743652,-3.2115259170532227
1775728180912011000,20.285010986328125,2.3926126956939697,-8.947399139404297,-3.223330020904541
1775728180930539800,20.303539794921875,2.3959641456604004,-8.9539213180542,-3.2026588916778564
1775728180949068300,20.322068359375,2.414020538330078,-8.983330726623535,-3.1052639484405518
1775728180967596800,20.3405966796875,2.7357661724090576,-8.921080589294434,-3.0166704654693604
1775728180986125600,20.35912548828125,2.927502155303955,-8.858880996704102,-3.0199942588806152
1775728181004654000,20.377654052734375,2.8524792194366455,-8.846844673156738,-3.125235080718994
1775728181023182800,20.396182861328125,2.581301689147949,-8.900044441223145,-3.2088088989257812
1775728181041711400,20.41471142578125,2.476938486099243,-8.927197456359863,-3.2156364917755127
1775728181060240100,20.433240234375,2.526542901992798,-8.933093070983887,-3.1601924896240234
1775728181078768600,20.4517685546875,2.468794107437134,-8.979101181030273,-3.074277877807617
1775728181097297200,20.470297119140625,2.3248989582061768,-9.038803100585938,-3.010857343673706
1775728181115826000,20.488825927734375,2.220808982849121,-9.067138671875,-3.0042307376861572
1775728181134354400,20.5073544921875,2.1635963916778564,-9.082382202148438,-2.999924421310425
1775728181152883200,20.52588330078125,2.0930356979370117,-9.103671073913574,-2.9854278564453125
1775728181171411700,20.54441162109375,2.003495931625366,-9.125027656555176,-2.9816553592681885
1775728181189940500,20.5629404296875,1.9327579736709595,-9.145626068115234,-2.9651918411254883
1775728181208469000,20.581468994140625,1.9048881530761719,-9.167037963867188,-2.9167118072509766
1775728181226997800,20.599997802734375,1.9155242443084717,-9.176151275634766,-2.8808703422546387
1775728181245526300,20.6185263671875,1.9373184442520142,-9.177647590637207,-2.861461877822876
1775728181264055000,20.637054931640623,1.9786969423294067,-9.177985191345215,-2.8319132328033447
1775728181282583600,20.65558349609375,2.0624403953552246,-9.173707962036133,-2.7856428623199463
1775728181301112300,20.6741123046875,2.2244043350219727,-9.15304183959961,-2.7284138202667236
1775728181319640800,20.692640869140625,2.4532511234283447,-9.104414939880371,-2.694732189178467
1775728181338169600,20.711169677734375,2.671894073486328,-9.036648750305176,-2.7148396968841553
1775728181356698000,20.729697998046873,2.8251612186431885,-8.977214813232422,-2.756532907485962
1775728181375227000,20.748226806640623,2.9759604930877686,-8.931943893432617,-2.7448909282684326
1775728181393755400,20.76675537109375,3.213592290878296,-8.866544723510742,-2.688420534133911
1775728181412284000,20.785283935546875,3.4947361946105957,-8.778627395629883,-2.625434637069702
1775728181430812700,20.803812744140625,3.822078227996826,-8.651265144348145,-2.591855049133301
1775728181449341200,20.822341064453123,4.149635314941406,-8.497139930725098,-2.59798526763916
1775728181467870000,20.840869873046874,4.520990371704102,-8.301445007324219,-2.610945224761963
1775728181486398500,20.8593984375,4.879106044769287,-8.080127716064453,-2.6601195335388184
1775728181504927200,20.87792724609375,5.1441264152526855,-7.881362438201904,-2.755443572998047
1775728181523456000,20.8964560546875,5.358572483062744,-7.697724342346191,-2.8637607097625732
1775728181541984500,20.914984619140625,5.500643253326416,-7.561334609985352,-2.9562699794769287
1775728181560513300,20.93351318359375,5.591986656188965,-7.449448108673096,-3.066887617111206
1775728181579041800,20.952041748046874,5.716814994812012,-7.319321632385254,-3.148959159851074
1775728181597570600,20.970570556640624,5.862051963806152,-7.187861919403076,-3.1845531463623047
1775728181616099300,20.989099365234374,5.9611921310424805,-7.100487232208252,-3.196506977081299
1775728181634627800,21.0076279296875,5.981239318847656,-7.0724921226501465,-3.221026659011841
1775728181653156600,21.026156494140626,5.937558174133301,-7.0997819900512695,-3.241741418838501
1775728181671685000,21.04468505859375,5.857067584991455,-7.168325424194336,-3.2373218536376953
1775728181690214000,21.0632138671875,5.748841762542725,-7.276064395904541,-3.1906254291534424
1775728181708742400,21.081742431640624,5.594947338104248,-7.418492794036865,-3.135748863220215
1775728181727271200,21.100271240234374,5.402894973754883,-7.582700252532959,-3.079246997833252
1775728181745800000,21.118800048828124,5.19289493560791,-7.744800090789795,-3.0368237495422363
1775728181764328400,21.137328369140626,4.979227542877197,-7.891643524169922,-3.016559600830078
1775728181782857200,21.155857177734376,4.7577338218688965,-8.036418914794922,-2.9917078018188477
1775728181801385700,21.1743857421875,4.530388355255127,-8.182062149047852,-2.949547052383423
1775728181819914500,21.19291455078125,4.329403400421143,-8.310778617858887,-2.890950918197632
1775728181838443300,21.211443359375,4.177001953125,-8.41214656829834,-2.821141004562378
1775728181856971800,21.2299716796875,4.065284729003906,-8.489681243896484,-2.7512102127075195
1775728181875500500,21.24850048828125,3.918731689453125,-8.570096969604492,-2.7142908573150635
1775728181894029000,21.267029052734376,3.6853883266448975,-8.665304183959961,-2.7387588024139404
1775728181912557800,21.285557861328126,3.3962347507476807,-8.765205383300781,-2.794128656387329
1775728181931086300,21.30408642578125,3.1191205978393555,-8.838787078857422,-2.8839752674102783
1775728181949615000,21.322614990234374,2.902371406555176,-8.880967140197754,-2.979100465774536
1775728181968144000,21.341143798828124,2.7594845294952393,-8.906189918518066,-3.0389821529388428
1775728181986672400,21.35967236328125,2.67394757270813,-8.923463821411133,-3.064669132232666
1775728182005201200,21.378201171875,2.5899786949157715,-8.943592071533203,-3.078078031539917
1775728182023730000,21.39672998046875,2.6290743350982666,-8.926216125488281,-3.0953214168548584
1775728182042258400,21.415258544921876,2.704723358154297,-8.896573066711426,-3.1154184341430664
1775728182060787200,21.433787109375,2.5166118144989014,-8.963567733764648,-3.0808279514312744
1775728182079315700,21.452315673828124,2.3569064140319824,-9.058341979980469,-2.9260549545288086
1775728182097844500,21.470844482421874,2.8705661296844482,-8.979119300842285,-2.7028934955596924
1775728182116373200,21.489373291015625,3.2682712078094482,-8.879300117492676,-2.578144073486328
1775728182134901800,21.50790185546875,3.303645372390747,-8.849712371826172,-2.6341803073883057
1775728182153430500,21.526430419921876,3.061769962310791,-8.891695976257324,-2.7809531688690186
1775728182171959300,21.544959228515626,2.7744078636169434,-8.963886260986328,-2.849874496459961
1775728182190487800,21.56348779296875,2.804884672164917,-8.952998161315918,-2.8542680740356445
1775728182209016600,21.5820166015625,2.840346336364746,-8.944066047668457,-2.8471896648406982
1775728182227545300,21.60054541015625,2.672455310821533,-9.004424095153809,-2.8193464279174805
1775728182246073900,21.619073974609375,2.476026773452759,-9.055034637451172,-2.83655047416687
1775728182264602600,21.6376025390625,2.331517457962036,-9.06762981414795,-2.917620897293091
1775728182283131400,21.65613134765625,2.2272346019744873,-9.063641548156738,-3.0100197792053223
1775728182301660000,21.674659912109377,2.140127658843994,-9.058424949645996,-3.0879082679748535
1775728182320188700,21.693188720703127,2.088833808898926,-9.060127258300781,-3.1178934574127197
1775728182338717400,21.711717529296877,2.0822341442108154,-9.07785701751709,-3.07037353515625
1775728182357246000,21.730245849609375,2.117534637451172,-9.097245216369629,-2.9877355098724365
1775728182375774700,21.748774658203125,2.1813502311706543,-9.103691101074219,-2.9214563369750977
1775728182394303500,21.767303466796875,2.267653226852417,-9.088360786437988,-2.9034197330474854
1775728182412832000,21.78583203125,2.350951671600342,-9.066913604736328,-2.904219150543213
1775728182431360800,21.80436083984375,2.4152462482452393,-9.059815406799316,-2.8734495639801025
1775728182449889500,21.8228896484375,2.5154805183410645,-9.051143646240234,-2.8141653537750244
1775728182468418000,21.84141796875,2.736072063446045,-9.008195877075195,-2.7453067302703857
1775728182486946800,21.85994677734375,2.992732048034668,-8.953628540039062,-2.6545207500457764
1775728182505475600,21.8784755859375,3.1653807163238525,-8.920554161071777,-2.5640716552734375
1775728182524004000,21.897004150390625,3.289285659790039,-8.886433601379395,-2.526322603225708
1775728182542532900,21.915532958984375,3.4981837272644043,-8.802531242370605,-2.5393998622894287
1775728182561061600,21.9340615234375,3.779024600982666,-8.669055938720703,-2.595541000366211
1775728182579590100,21.952590087890623,4.072304725646973,-8.51004409790039,-2.676913022994995
1775728182598119000,21.971118896484374,4.339901924133301,-8.361334800720215,-2.724651575088501
1775728182616647700,21.989647705078124,4.609663486480713,-8.210614204406738,-2.7399275302886963
1775728182635176200,22.00817626953125,4.963267803192139,-7.994780540466309,-2.760409355163574
1775728182653705000,22.026705078125,5.2191901206970215,-7.816929817199707,-2.7975082397460938
1775728182672233700,22.045233642578125,5.337908744812012,-7.731911659240723,-2.8097426891326904
1775728182690762500,22.063762451171876,5.443926811218262,-7.652879238128662,-2.822671890258789
1775728182709291000,22.082291015625,5.589132308959961,-7.558159828186035,-2.793956995010376
1775728182727819800,22.10081982421875,5.718119144439697,-7.4687700271606445,-2.7732622623443604
1775728182746348500,22.1193486328125,5.795513153076172,-7.40118408203125,-2.7937235832214355
1775728182764877300,22.137877197265624,5.812374591827393,-7.37678861618042,-2.8230621814727783
1775728182783405800,22.15640576171875,5.778282165527344,-7.404369354248047,-2.820842981338501
1775728182801934600,22.1749345703125,5.694056034088135,-7.479520320892334,-2.7937228679656982
1775728182820463400,22.19346337890625,5.557504177093506,-7.5915422439575195,-2.7664103507995605
1775728182838992100,22.2119921875,5.377716541290283,-7.725656509399414,-2.7504138946533203
1775728182857520600,22.230520751953126,5.154296875,-7.879779815673828,-2.7409274578094482
1775728182876049400,22.24904931640625,4.898985385894775,-8.043680191040039,-2.7330474853515625
1775728182894578200,22.267578125,4.627737045288086,-8.206695556640625,-2.7211380004882812
1775728182913106700,22.286106689453124,4.347568988800049,-8.365496635437012,-2.6995372772216797
1775728182931635500,22.304635498046874,4.068816661834717,-8.51853084564209,-2.6551361083984375
1775728182950164200,22.323164306640624,3.8167786598205566,-8.6549711227417,-2.5872888565063477
1775728182968692700,22.341692626953126,3.6168012619018555,-8.762002944946289,-2.5132510662078857
1775728182987221500,22.360221435546876,3.4577724933624268,-8.838993072509766,-2.4670631885528564
1775728183005750300,22.378750244140626,3.2793452739715576,-8.9072904586792,-2.4650468826293945
1775728183024279000,22.397279052734376,3.0627541542053223,-8.97110652923584,-2.5118095874786377
1775728183042807800,22.415807861328126,2.8236148357391357,-9.019145011901855,-2.6177477836608887
1775728183061336300,22.43433642578125,2.602787494659424,-9.047234535217285,-2.746530294418335
1775728183079865000,22.452864990234374,2.4405910968780518,-9.061720848083496,-2.845897912979126
1775728183098393900,22.471393798828124,2.341175079345703,-9.06694507598877,-2.9120078086853027
1775728183116922600,22.489922607421875,2.330629825592041,-9.056184768676758,-2.9536538124084473
1775728183135451400,22.508451416015625,2.4968063831329346,-8.992850303649902,-3.010812759399414
1775728183153980000,22.52697998046875,2.7227768898010254,-8.88879108428955,-3.1219022274017334
1775728183172508700,22.5455087890625,2.7601518630981445,-8.841812133789062,-3.2209184169769287
1775728183191037400,22.564037353515626,2.533175468444824,-8.905501365661621,-3.2319419384002686
1775728183209566200,22.582566162109377,2.4526009559631348,-8.948325157165527,-3.17531156539917
1775728183228094700,22.6010947265625,2.7486276626586914,-8.873427391052246,-3.1428844928741455
1775728183246623500,22.61962353515625,3.0321311950683594,-8.811066627502441,-3.056414842605591
1775728183265152300,22.63815234375,3.0457537174224854,-8.83144474029541,-2.9831762313842773
1775728183283681000,22.656680908203125,2.837850332260132,-8.903172492980957,-2.9749841690063477
1775728183302209800,22.675209716796875,2.6146297454833984,-8.958261489868164,-3.0139074325561523
1775728183320738300,22.69373828125,2.529252529144287,-8.96157455444336,-3.076272964477539
1775728183339267000,22.71226708984375,2.4836974143981934,-8.953902244567871,-3.1351656913757324
1775728183357795800,22.7307958984375,2.383875608444214,-8.975935935974121,-3.1496193408966064
1775728183376324600,22.74932470703125,2.2496118545532227,-9.016509056091309,-3.1324431896209717
1775728183394853400,22.767853271484373,2.102283477783203,-9.058417320251465,-3.113821268081665
1775728183413382100,22.786382080078123,1.977756381034851,-9.087285995483398,-3.11128830909729
1775728183431910700,22.80491064453125,1.9182652235031128,-9.095853805541992,-3.1234748363494873
1775728183450439400,22.823439453125,1.9108972549438477,-9.08953857421875,-3.146294593811035
1775728183468968200,22.84196826171875,1.9302937984466553,-9.083876609802246,-3.1507985591888428
1775728183487497000,22.8604970703125,1.972173810005188,-9.084346771240234,-3.123389720916748
1775728183506025500,22.879025390625,2.017359733581543,-9.090564727783203,-3.0760810375213623
1775728183524554200,22.89755419921875,2.0846822261810303,-9.087653160095215,-3.039580821990967
1775728183543083000,22.9160830078125,2.2054712772369385,-9.068537712097168,-3.0112979412078857
1775728183561611800,22.93461181640625,2.3414838314056396,-9.044238090515137,-2.981543779373169
1775728183580140500,22.953140625,2.462820291519165,-9.025063514709473,-2.9416184425354004
1775728183598669300,22.97166943359375,2.67387318611145,-8.973685264587402,-2.9144062995910645
1775728183617198000,22.990197998046874,2.944974184036255,-8.890555381774902,-2.907841205596924
1775728183635726600,23.0087265625,3.1556243896484375,-8.813394546508789,-2.9217307567596436
1775728183654255400,23.02725537109375,3.249906301498413,-8.774965286254883,-2.934021472930908
1775728183672784100,23.0457841796875,3.381134510040283,-8.71484661102295,-2.964751958847046
1775728183691313000,23.06431298828125,3.5874080657958984,-8.610798835754395,-3.0257277488708496
1775728183709841700,23.082841552734376,3.8516685962677,-8.462230682373047,-3.118603229522705
1775728183728370200,23.1013701171875,4.0697174072265625,-8.3312406539917,-3.1934635639190674
1775728183746899000,23.11989892578125,4.22857666015625,-8.24502182006836,-3.210784912109375
1775728183765427700,23.138427734375,4.446660995483398,-8.139453887939453,-3.1854164600372314
1775728183783956500,23.15695654296875,4.729445934295654,-7.9838032722473145,-3.1720030307769775
1775728183802485200,23.1754853515625,4.995359420776367,-7.827193737030029,-3.154648542404175
1775728183821014000,23.194013916015624,5.215836048126221,-7.679525852203369,-3.16074538230896
1775728183839542500,23.21254248046875,5.390231132507324,-7.540903091430664,-3.2016539573669434
1775728183858071300,23.2310712890625,5.509057998657227,-7.414563179016113,-3.2931649684906006
1775728183876600000,23.24960009765625,5.56010103225708,-7.329822063446045,-3.3954923152923584
1775728183895128800,23.26812890625,5.547116279602051,-7.312114238739014,-3.454397678375244
1775728183913657600,23.28665771484375,5.499688148498535,-7.35551118850708,-3.438063621520996
1775728183932186400,23.305186279296876,5.413252830505371,-7.446645736694336,-3.378542184829712
1775728183950715100,23.323715087890626,5.271575450897217,-7.583553791046143,-3.2970588207244873
1775728183969244000,23.342243896484376,5.068154811859131,-7.752008438110352,-3.223440170288086
1775728183987772400,23.3607724609375,4.817862510681152,-7.9337158203125,-3.164607524871826
1775728184006301200,23.37930126953125,4.53195333480835,-8.114991188049316,-3.1270909309387207
1775728184024830000,23.397829833984375,4.220963001251221,-8.295862197875977,-3.08747935295105
1775728184043358700,23.416358642578125,3.919322967529297,-8.465921401977539,-3.0228233337402344
1775728184061887500,23.434887451171875,3.6634345054626465,-8.610647201538086,-2.9336652755737305
1775728184080416300,23.453416259765625,3.4676592350006104,-8.718679428100586,-2.851374387741089
1775728184098945000,23.471945068359375,3.307676076889038,-8.786931037902832,-2.831876039505005
1775728184117473800,23.490473876953125,3.160593271255493,-8.830755233764648,-2.863351821899414
1775728184136002600,23.50900244140625,3.0334372520446777,-8.859874725341797,-2.91054368019104
1775728184154531000,23.527531005859377,2.935457468032837,-8.87314224243164,-2.9699857234954834
1775728184173059800,23.546059814453123,2.8533990383148193,-8.877840995788574,-3.0352001190185547
1775728184191588600,23.564588623046873,2.7495694160461426,-8.886456489562988,-3.105022668838501
1775728184210117400,23.583117431640623,2.697676181793213,-8.88658618927002,-3.1498422622680664
1775728184228646100,23.601646240234373,2.8382198810577393,-8.840102195739746,-3.157132148742676
1775728184247175000,23.6201748046875,3.006662607192993,-8.787365913391113,-3.1484227180480957
