time,seconds_elapsed,z,y,x
1775728160734793700,0.107793701171875,-0.0334448479115963,0.06673697382211685,0.01359174121171236
1775728160753321500,0.126321533203125,-0.031612250953912735,0.05940660089254379,0.01847865991294384
1775728160771849500,0.144849365234375,-0.005345067009329796,0.009926552884280682,0.006872228812426329
1775728160790377200,0.163377197265625,-0.010842849500477314,-0.013897174037992954,-0.007177661173045635
1775728160808905000,0.181905029296875,-0.01511890348047018,-0.03588830679655075,0.0019853105768561363
1775728160827433000,0.200432861328125,-0.021227551624178886,-0.0334448479115963,-0.006566796451807022
1775728160845960700,0.218960693359375,-0.015729768201708794,-0.007177661173045635,-0.031001387163996696
1775728160864488700,0.23748876953125,0.0019853105768561363,0.014202605932950974,-0.014508038759231567
1775728160883016400,0.256016357421875,0.0032070400193333626,0.04108065739274025,0.009926552884280682
1775728160901544200,0.274544189453125,-0.02000582218170166,0.023976443335413933,0.02153298258781433
1775728160920072200,0.293072265625,-0.021227551624178886,-0.009010255336761475,-0.013286309316754341
1775728160938600000,0.311599853515625,-0.044440411031246185,0.01908952370285988,0.011148282326757908
1775728160957127700,0.330127685546875,-0.013897174037992954,0.028863361105322838,0.04046979174017906
1775728160975655700,0.34865576171875,-0.007788525894284248,0.042913250625133514,0.017256930470466614
1775728160994183400,0.367183349609375,-0.012675444595515728,0.036804601550102234,0.01359174121171236
1775728161012711200,0.385711181640625,-0.013286309316754341,0.029474224895238876,0.016035201027989388
1775728161031239200,0.4042392578125,-0.00045814859913662076,0.005039634648710489,0.012980876490473747
1775728161049767000,0.422766845703125,0.0038179049734026194,0.0013744457392022014,-0.01206457894295454
1775728161068295000,0.441294921875,-0.0102319847792387,-0.005955931730568409,-0.024281874299049377
1775728161086822700,0.45982275390625,-0.01511890348047018,-0.017562363296747208,-0.005955931730568409
1775728161105350700,0.4783505859375,-0.010842849500477314,-0.011453714221715927,0.029474224895238876
1775728161123878400,0.49687841796875,-0.0010690133785828948,-0.014508038759231567,0.03252854943275452
1775728161142406400,0.515406494140625,0.008704823441803455,-0.012675444595515728,0.009926552884280682
1775728161160934000,0.533933837890625,0.014813470654189587,-0.007788525894284248,-0.012675444595515728
1775728161179462000,0.5524619140625,0.020311253145337105,0.0025961752980947495,-0.013897174037992954
1775728161197990000,0.570989990234375,0.005039634648710489,0.02825249545276165,-0.007177661173045635
1775728161216517600,0.589517578125,0.0062613640911877155,0.02764163166284561,-0.002290742937475443
1775728161235045400,0.60804541015625,0.009315688163042068,0.0386371985077858,-0.004123337101191282
1775728161253573400,0.626573486328125,0.0032070400193333626,0.042913250625133514,-0.001679878099821508
1775728161272101000,0.64510107421875,0.009315688163042068,0.007483093533664942,0.0038179049734026194
1775728161290629000,0.663629150390625,0.016035201027989388,-0.03588830679655075,0.0007635809597559273
1775728161309156900,0.682156982421875,0.02458730712532997,-0.044440411031246185,-0.019394956529140472
1775728161327684600,0.7006845703125,0.03191768378019333,-0.02672533318400383,-0.04016435891389847
1775728161346212600,0.719212646484375,0.011148282326757908,0.016035201027989388,-0.03405570983886719
1775728161364740400,0.737740234375,0.009926552884280682,0.011148282326757908,-0.016340631991624832
1775728161383268400,0.756268310546875,0.042913250625133514,-0.0102319847792387,-0.03894263133406639
1775728161401796000,0.774796142578125,0.11927134543657303,-0.017562363296747208,-0.03955349326133728
1775728161420324000,0.793323974609375,0.14920371770858765,-0.00045814859913662076,-0.03222311660647392
1775728161438851800,0.811851806640625,0.10827577859163284,0.020922118797898293,-0.04810560122132301
1775728161457379800,0.8303798828125,0.08384118974208832,0.019700389355421066,-0.05238165333867073
1775728161475907600,0.848907470703125,0.06062832847237587,0.04841103404760361,-0.03527744114398956
1775728161494435300,0.867435302734375,0.08139773458242416,0.09789107739925385,-0.01206457894295454
1775728161512963300,0.88596337890625,0.1974620372056961,0.08567378669977188,0.0062613640911877155
1775728161531491000,0.904490966796875,0.31352636218070984,0.05513054504990578,0.014202605932950974
1775728161550019000,0.92301904296875,0.16019928455352783,0.09544762223958969,0.014202605932950974
1775728161568546800,0.941546875,0.004428769461810589,0.13698641955852509,0.02214384824037552
1775728161587074800,0.96007470703125,0.07284562289714813,0.033139415085315704,0.03497200831770897
1775728161605602600,0.9786025390625,0.14492766559123993,-0.03222311660647392,-0.005345067009329796
1775728161624130300,0.99713037109375,0.18585561215877533,-0.018784092739224434,-0.006566796451807022
1775728161642658300,1.015658203125,0.1565341055393219,-0.001679878099821508,0.020311253145337105
1775728161661186000,1.03418603515625,0.036193739622831345,0.04413498193025589,0.010537417605519295
1775728161679714000,1.052714111328125,0.023365577682852745,0.0154243353754282,0.01359174121171236
1775728161698241800,1.07124169921875,-0.002901607658714056,0.005650499369949102,0.02214384824037552
1775728161716769800,1.089769775390625,0.005650499369949102,-0.004123337101191282,0.012980876490473747
1775728161735297500,1.108297607421875,0.012370011769235134,0.011148282326757908,0.0007635809597559273
1775728161753825500,1.126825439453125,0.02153298258781433,0.009315688163042068,0.014813470654189587
1775728161772353300,1.145353271484375,0.027030766010284424,0.005650499369949102,0.02519817277789116
1775728161790881300,1.16388134765625,0.006872228812426329,0.04108065739274025,0.007483093533664942
1775728161809409000,1.182408935546875,0.03558287397027016,0.03497200831770897,-0.009621120058000088
1775728161827937000,1.20093701171875,0.04535670951008797,0.017256930470466614,-0.002290742937475443
1775728161846464800,1.21946484375,0.030085090547800064,0.028863361105322838,-0.004734201822429895
1775728161864992800,1.23799267578125,0.0007635809597559273,0.042913250625133514,-0.0102319847792387
1775728161883520500,1.2565205078125,0.0062613640911877155,0.02825249545276165,-0.00045814859913662076
1775728161902048300,1.27504833984375,0.022754713892936707,0.0032070400193333626,-0.002290742937475443
1775728161920576300,1.293576171875,-0.01206457894295454,-0.002290742937475443,0.007483093533664942
1775728161939104000,1.31210400390625,-0.007177661173045635,-0.010842849500477314,0.007483093533664942
1775728161957632000,1.330632080078125,0.0062613640911877155,-0.01206457894295454,-0.0102319847792387
1775728161976159700,1.34915966796875,0.014813470654189587,-0.007788525894284248,-0.015729768201708794
1775728161994687700,1.367687744140625,0.0025961752980947495,-0.009621120058000088,-0.007788525894284248
1775728162013215500,1.386215576171875,-0.002901607658714056,-0.007177661173045635,-0.002290742937475443
1775728162031743500,1.404743408203125,-0.0010690133785828948,-0.0102319847792387,0.007483093533664942
1775728162050271200,1.423271240234375,-0.009621120058000088,-0.047494735568761826,0.2188423126935959
1775728162068799000,1.441799072265625,0.02825249545276165,-0.02672533318400383,0.2438877671957016
1775728162087327000,1.460326904296875,0.0001527161948615685,-0.013286309316754341,0.036804601550102234
1775728162105855000,1.47885498046875,0.0038179049734026194,0.0154243353754282,-0.2331976294517517
1775728162124382700,1.4973828125,0.05513054504990578,-0.0798705667257309,-0.19898919761180878
1775728162142910700,1.51591064453125,0.06490438431501389,-0.060933761298656464,0.07651081681251526
1775728162161438500,1.5344384765625,0.03436114266514778,-0.005345067009329796,0.04169152304530144
1775728162179966500,1.552966552734375,0.052687086164951324,0.03802633285522461,-0.034666575491428375
1775728162198494200,1.571494140625,0.15409064292907715,0.005650499369949102,-0.004734201822429895
1775728162217022200,1.590022216796875,0.4540252387523651,-0.15256348252296448,0.03130681812763214
1775728162235550000,1.608550048828125,0.7252492308616638,-0.2802342176437378,-0.03283398225903511
1775728162254078000,1.627077880859375,0.7820596098899841,-0.249690979719162,-0.08414662629365921
1775728162272605700,1.645605712890625,0.5951350331306458,-0.1360701322555542,-0.07131846249103546
1775728162291133700,1.6641337890625,0.4381427764892578,-0.13423752784729004,-0.0334448479115963
1775728162309661400,1.682661376953125,0.32818710803985596,-0.12446369975805283,-0.016340631991624832
1775728162328189400,1.701189453125,0.039858926087617874,0.04108065739274025,-0.046883873641490936
1775728162346717400,1.719717529296875,-0.03222311660647392,0.15836669504642487,0.039248060435056686
1775728162365245200,1.7382451171875,0.08750637620687485,0.07040216773748398,0.08628465235233307
1775728162383773200,1.756773193359375,0.29886558651924133,0.12354740500450134,0.0038179049734026194
1775728162402301000,1.775301025390625,0.3721693754196167,-0.013897174037992954,-0.15256348252296448
1775728162420828700,1.79382861328125,0.5309942364692688,-0.2692386507987976,-0.15745039284229279
1775728162439356700,1.812356689453125,0.7136427760124207,-0.4280634820461273,-0.11468986421823502
1775728162457884700,1.830884765625,0.726470947265625,-0.4848739206790924,-0.1360701322555542
1775728162476412400,1.849412353515625,0.6495019793510437,-0.3211621642112732,-0.0743727833032608
1775728162494940400,1.8679404296875,0.5560396909713745,-0.2234237939119339,0.12171480804681778
1775728162513468200,1.88646826171875,0.38011062145233154,-0.30222535133361816,0.10338886082172394
1775728162531996200,1.90499609375,0.020311253145337105,-0.30894485116004944,-0.002290742937475443
1775728162550524000,1.92352392578125,0.0746782198548317,-0.2643517255783081,0.03558287397027016
1775728162569052000,1.942052001953125,0.02458730712532997,-0.17577634751796722,0.13759729266166687
1775728162587580000,1.960579833984375,-0.1415679156780243,-0.19960007071495056,-0.14767655730247498
1775728162606107600,1.979107666015625,-0.018784092739224434,-0.28328853845596313,-0.13301581144332886
1775728162624635600,1.9976357421875,0.17486004531383514,-0.2796233594417572,0.06123919412493706
1775728162643163400,2.016163330078125,0.28176137804985046,-0.3321577310562134,0.1931859850883484
1775728162661691400,2.03469140625,0.1821904182434082,-0.3828594982624054,0.07040216773748398
1775728162680219400,2.053219482421875,0.08017600327730179,-0.23686282336711884,0.1363755613565445
1775728162698747100,2.0717470703125,0.2231183648109436,-0.2393062710762024,0.3459021747112274
1775728162717275100,2.090275146484375,0.2023489624261856,-0.04260781779885292,0.40698865056037903
1775728162735803000,2.108802978515625,0.15225805342197418,0.02153298258781433,0.3477347791194916
1775728162754331000,2.127330810546875,0.11682789027690887,-0.145843967795372,0.3318522870540619
1775728162772859000,2.14585888671875,0.15225805342197418,-0.24174973368644714,0.2603811025619507
1775728162791386600,2.16438671875,0.23655737936496735,0.11316270381212234,0.14004075527191162
1775728162809914600,2.18291455078125,0.541989803314209,0.09911280870437622,0.15286891162395477
1775728162828442400,2.2014423828125,0.3520108163356781,0.4864010810852051,0.10094540566205978
1775728162846970400,2.219970458984375,0.05513054504990578,0.7331904768943787,0.191964253783226
1775728162865498400,2.238498291015625,-0.13484840095043182,0.994640588760376,0.2835939824581146
1775728162884026000,2.257026123046875,-0.5300779342651367,1.5163191556930542,0.4949531853199005
1775728162902554000,2.27555419921875,-0.3938550651073456,1.6091705560684204,1.012966513633728
1775728162921082000,2.29408203125,-0.008399390615522861,1.9402592182159424,1.0697768926620483
1775728162939609900,2.31260986328125,0.09422589093446732,2.14001202583313,0.8523091077804565
1775728162958137900,2.331137939453125,-0.005955931730568409,1.7710497379302979,0.930499792098999
1775728162976665900,2.349665771484375,0.14431680738925934,0.809548556804657,1.003192663192749
1775728162995193600,2.368193603515625,0.11194097250699997,-0.057268574833869934,0.6837103962898254
1775728163013721600,2.3867216796875,-0.22647811472415924,-0.21059563755989075,0.38560840487480164
1775728163032249300,2.405249267578125,0.03130681812763214,0.11743875592947006,0.2237292230129242
1775728163050777300,2.42377734375,0.2023489624261856,0.23472478985786438,-0.12690715491771698
1775728163069305300,2.442305419921875,-0.05604684352874756,-0.04627300798892975,-0.6956222653388977
1775728163087833000,2.4608330078125,-0.1977674663066864,-0.20693044364452362,-0.6638572812080383
1775728163106361000,2.479361083984375,-0.0010690133785828948,-0.5074759125709534,-0.773202121257782
1775728163124889000,2.49788916015625,0.12354740500450134,-0.49831295013427734,-0.20631958544254303
1775728163143416800,2.516416748046875,0.055741410702466965,-0.16416990756988525,0.01847865991294384
1775728163161944800,2.53494482421875,-0.08109229803085327,-0.007788525894284248,-0.12812888622283936
1775728163180472800,2.553472900390625,-0.001679878099821508,0.061850059777498245,0.058795735239982605
1775728163199000600,2.57200048828125,-0.03588830679655075,0.3159697949886322,0.2603811025619507
1775728163217528600,2.590528564453125,0.06307178735733032,0.12171480804681778,0.11133010685443878
1775728163236056600,2.609056640625,0.26099199056625366,-0.03711003437638283,-0.16905683279037476
1775728163254584300,2.627584228515625,0.21456626057624817,0.07162389904260635,-0.14034618437290192
1775728163273112300,2.6461123046875,-0.044440411031246185,0.17486004531383514,0.023976443335413933
1775728163291640300,2.664640380859375,-0.08414662629365921,0.03130681812763214,-0.10063996911048889
1775728163310168000,2.68316796875,-0.0792597085237503,-0.007788525894284248,-0.19165882468223572
1775728163328696000,2.701696044921875,-0.053603384643793106,-0.14828743040561676,-0.3174969553947449
1775728163347224000,2.72022412109375,0.005039634648710489,-0.12202023714780807,-0.31444263458251953
1775728163365752000,2.738751953125,0.027030766010284424,-0.22098033130168915,-0.2240346521139145
1775728163384280000,2.757280029296875,-0.03711003437638283,-0.1727220118045807,-0.10735948383808136
1775728163402807800,2.775807861328125,-0.07131846249103546,0.007483093533664942,0.02458730712532997
1775728163421335800,2.794335693359375,-0.03222311660647392,0.008704823441803455,0.03497200831770897
1775728163439863800,2.81286376953125,-0.0102319847792387,0.028863361105322838,-0.04016435891389847
1775728163458391600,2.8313916015625,0.03497200831770897,0.009315688163042068,-0.04260781779885292
1775728163476919600,2.84991943359375,0.01908952370285988,0.07651081681251526,-0.037720900028944016
1775728163495447600,2.868447509765625,-0.003512472379952669,0.017867794260382652,-0.056657709181308746
1775728163513975300,2.886975341796875,0.020311253145337105,-0.09392046183347702,-0.027947064489126205
1775728163532503300,2.90550341796875,-0.017562363296747208,-0.07009673118591309,-0.02367101050913334
1775728163551031300,2.92403125,-0.016340631991624832,0.012980876490473747,-0.013897174037992954
1775728163569559300,2.942559326171875,0.0019853105768561363,0.07895427197217941,0.012370011769235134
1775728163588087000,2.961087158203125,0.008093958720564842,0.06795870512723923,0.0032070400193333626
1775728163606615000,2.979614990234375,0.03130681812763214,0.02153298258781433,-0.030390523374080658
1775728163625143000,2.99814306640625,0.019700389355421066,-0.002901607658714056,-0.030390523374080658
1775728163643671000,3.016671142578125,-0.005345067009329796,-0.021227551624178886,0.012980876490473747
1775728163662198800,3.03519873046875,-0.016340631991624832,-0.005955931730568409,0.042913250625133514
1775728163680726800,3.053726806640625,0.008093958720564842,0.061850059777498245,0.010537417605519295
1775728163699254800,3.0722548828125,0.01359174121171236,0.06979130208492279,-0.02367101050913334
1775728163717782500,3.090782470703125,0.0032070400193333626,0.008704823441803455,-0.008399390615522861
1775728163736310800,3.109310791015625,-0.001679878099821508,0.030085090547800064,0.036804601550102234
1775728163754838500,3.127838623046875,-0.004734201822429895,0.052076224237680435,0.07284562289714813
1775728163773366500,3.146366455078125,-0.022449281066656113,0.03375028073787689,0.0038179049734026194
1775728163791894500,3.16489453125,0.005039634648710489,0.006872228812426329,-0.030390523374080658
1775728163810422500,3.183422607421875,0.036193739622831345,-0.015729768201708794,-0.05299251899123192
1775728163828950300,3.2019501953125,0.008704823441803455,-0.02977965772151947,-0.06276635825634003
1775728163847478300,3.220478271484375,0.01359174121171236,-0.06582067906856537,-0.050549060106277466
1775728163866006300,3.23900634765625,0.04718930274248123,-0.03222311660647392,-0.007177661173045635
1775728163884534300,3.2575341796875,0.017867794260382652,0.03375028073787689,0.06246092543005943
1775728163903062000,3.27606201171875,-0.0206166859716177,0.02214384824037552,0.0746782198548317
1775728163921590000,3.294590087890625,-0.015729768201708794,0.06551524996757507,-0.05482511222362518
1775728163940118000,3.313117919921875,0.04108065739274025,-0.02306014485657215,-0.15867212414741516
1775728163958646000,3.33164599609375,0.0642935186624527,-0.057268574833869934,-0.11835505068302155
1775728163977174000,3.350174072265625,-0.017562363296747208,-0.06826414167881012,0.03741546720266342
1775728163995702000,3.368701904296875,-0.0487164668738842,0.036193739622831345,0.11743875592947006
1775728164014229800,3.387229736328125,-0.02977965772151947,0.08689551800489426,0.17608177661895752
1775728164032757800,3.4057578125,0.016035201027989388,0.10155627131462097,0.1052214577794075
1775728164051285800,3.42428564453125,0.04535670951008797,-0.014508038759231567,-0.04199695214629173
1775728164069813800,3.442813720703125,0.0019853105768561363,0.005039634648710489,-0.003512472379952669
1775728164088341800,3.461341796875,-0.03222311660647392,0.02458730712532997,0.004428769461810589
1775728164106869500,3.479869384765625,-0.01511890348047018,0.03741546720266342,-0.021227551624178886
1775728164125397500,3.4983974609375,0.07040216773748398,0.014202605932950974,-0.05849030241370201
1775728164143925500,3.516925537109375,0.06673697382211685,0.02825249545276165,-0.060933761298656464
1775728164162453500,3.53545361328125,0.012370011769235134,0.007483093533664942,-0.013897174037992954
1775728164180981500,3.5539814453125,0.029474224895238876,0.014202605932950974,0.01359174121171236
1775728164199509500,3.572509521484375,0.026419902220368385,0.11621702462434769,0.049632761627435684
1775728164218037500,3.59103759765625,0.0001527161948615685,0.23167046904563904,0.04108065739274025
1775728164236565200,3.609565185546875,0.0019853105768561363,0.20906847715377808,0.06856957077980042
1775728164255093200,3.62809326171875,0.03802633285522461,0.1253799945116043,0.09300415962934494
1775728164273621200,3.646621337890625,0.06673697382211685,0.11621702462434769,0.13271036744117737
1775728164292149200,3.665149169921875,0.09789107739925385,0.12965604662895203,0.21700970828533173
1775728164310677200,3.68367724609375,0.12904518842697144,0.0795651376247406,0.40026915073394775
1775728164329205200,3.702205322265625,0.1003345400094986,0.22495095431804657,0.6366738080978394
1775728164347733200,3.720733154296875,-0.07376192510128021,0.21517711877822876,0.5810851454734802
1775728164366261000,3.739260986328125,-0.14401137828826904,0.009315688163042068,0.2548833191394806
1775728164384789000,3.7577890625,-0.09880737960338593,-0.16355904936790466,0.06246092543005943
1775728164403317000,3.77631689453125,-0.1000291109085083,-0.14401137828826904,0.06795870512723923
1775728164421845000,3.794844970703125,-0.1464548259973526,-0.013897174037992954,0.11316270381212234
1775728164440373000,3.813373046875,-0.04627300798892975,0.04230238497257233,0.17058399319648743
1775728164458901000,3.83190087890625,-0.02306014485657215,0.06001746281981468,0.16386447846889496
1775728164477429000,3.850428955078125,-0.03222311660647392,0.18402300775051117,0.08078686892986298
1775728164495957000,3.86895703125,-0.0743727833032608,0.25610506534576416,0.02519817277789116
1775728164514485000,3.887485107421875,-0.06215549260377884,0.3520108163356781,0.008093958720564842
1775728164533012700,3.9060126953125,-0.10063996911048889,0.28298309445381165,0.09361502528190613
1775728164551541000,3.924541015625,-0.1104138121008873,0.32391104102134705,0.14737112820148468
1775728164570068700,3.94306884765625,-0.015729768201708794,0.16875138878822327,-0.1000291109085083
1775728164588596700,3.9615966796875,0.10155627131462097,-0.014508038759231567,-0.43172869086265564
1775728164607124700,3.980124755859375,0.004428769461810589,-0.07620538026094437,-0.5801688432693481
1775728164625652700,3.99865283203125,-0.12812888622283936,-0.043829549103975296,-0.6846266984939575
1775728164644180700,4.0171806640625,-0.20021092891693115,0.16264274716377258,-0.7273872494697571
1775728164662708700,4.035708740234375,-0.1879936307668686,0.625067412853241,-0.6687442064285278
1775728164681236700,4.05423681640625,-0.2845102846622467,0.9366084337234497,-0.5386300086975098
1775728164699764700,4.0727646484375,-0.36942046880722046,0.9989166259765625,-0.6760746240615845
1775728164718292700,4.091292724609375,-0.268627792596817,0.7661771774291992,-0.8159626126289368
1775728164736820700,4.10982080078125,0.039858926087617874,0.44669488072395325,-0.8196278214454651
1775728164755348700,4.1283486328125,-0.018784092739224434,0.5004509687423706,-0.6980656981468201
1775728164773876500,4.14687646484375,-0.1000291109085083,0.7631227970123291,-0.5551233887672424
1775728164792404700,4.16540478515625,-0.06215549260377884,0.755181610584259,-0.6278162598609924
1775728164810932700,4.1839326171875,-0.16416990756988525,0.3422369956970215,-0.8929315805435181
1775728164829460700,4.202460693359375,-0.32360562682151794,0.05329795181751251,-1.0077741146087646
1775728164847988500,4.220988525390625,-0.31322091817855835,0.18646647036075592,-0.9039271473884583
1775728164866516500,4.2395166015625,-0.05849030241370201,0.20906847715377808,-0.9100357890129089
1775728164885044700,4.258044677734375,0.045967575162649155,0.26771149039268494,-1.024267554283142
1775728164903572500,4.276572509765625,-0.1519526094198227,0.34895649552345276,-1.0432043075561523
1775728164922100500,4.2951005859375,-0.2845102846622467,0.07773254066705704,-1.0108284950256348
1775728164940628500,4.31362841796875,-0.20204351842403412,-0.2948949635028839,-0.9521854519844055
1775728164959156500,4.332156494140625,-0.17455461621284485,-0.36514443159103394,-0.9326378107070923
1775728164977684500,4.3506845703125,-0.2124282270669937,-0.37064221501350403,-0.9240856766700745
1775728164996212500,4.36921240234375,-0.21059563755989075,-0.4030180275440216,-0.9234748482704163
1775728165014740500,4.387740478515625,-0.23197589814662933,-0.34987279772758484,-0.9326378107070923
1775728165033268500,4.4062685546875,-0.37980517745018005,-0.25702136754989624,-0.8856012225151062
1775728165051796500,4.42479638671875,-0.32910341024398804,-0.23991714417934418,-0.8147408962249756
1775728165070324500,4.443324462890625,-0.1611155867576599,-0.10858121514320374,-0.6571378111839294
1775728165088852500,4.4618525390625,-0.2283107042312622,-0.06765327602624893,-0.5031998753547668
1775728165107380500,4.48038037109375,-0.39018988609313965,0.022754713892936707,-0.35964664816856384
1775728165125908500,4.498908447265625,-0.4482220411300659,0.16569706797599792,-0.1568395346403122
1775728165144436500,4.5174365234375,-0.31871870160102844,0.2023489624261856,0.29397866129875183
1775728165162964500,4.535964599609375,-0.028557928279042244,0.3196350038051605,0.8217658400535583
1775728165181492700,4.55449267578125,0.19624030590057373,0.45769044756889343,1.1284199953079224
1775728165200020500,4.5730205078125,0.3428478538990021,0.3605629503726959,1.1846195459365845
1775728165218548500,4.591548583984375,0.5480984449386597,-0.27290382981300354,1.23348867893219
1775728165237076500,4.610076416015625,0.8248201608657837,-1.4005602598190308,1.6470441818237305
1775728165255604700,4.628604736328125,0.8804088830947876,-2.243553638458252,2.4100141525268555
1775728165274132700,4.6471328125,1.058781385421753,-2.589913845062256,3.2841618061065674
1775728165292660700,4.66566064453125,1.1088722944259644,-3.05905818939209,3.601811408996582
1775728165311188700,4.684188720703125,0.8107702732086182,-3.2227699756622314,3.2371251583099365
1775728165329716700,4.702716796875,0.449138343334198,-3.017519235610962,2.760650634765625
1775728165348244700,4.72124462890625,0.5346593856811523,-2.497673273086548,2.522413492202759
1775728165366772700,4.739772705078125,0.6641627550125122,-1.9039127826690674,2.495535373687744
1775728165385300700,4.75830078125,1.1840087175369263,-1.2997674942016602,2.699564218521118
1775728165403828700,4.776828857421875,1.384372353553772,-1.1714859008789062,2.788139581680298
1775728165422356700,4.795356689453125,1.0630574226379395,-1.226463794708252,2.8565564155578613
1775728165440884700,4.813884765625,0.7667880058288574,-1.302211046218872,2.964068651199341
1775728165459412700,4.832412841796875,0.8614720702171326,-1.7823506593704224,2.889543056488037
1775728165477940700,4.850940673828125,1.3410009145736694,-1.8697043657302856,2.475987672805786
1775728165496468700,4.86946875,1.4992148876190186,-1.6913318634033203,1.910937786102295
1775728165514996700,4.887996826171875,1.279914379119873,-1.3529127836227417,1.3904809951782227
1775728165533524700,4.906524658203125,1.0978766679763794,-1.107956051826477,1.1601849794387817
1775728165552052700,4.925052734375,0.9457713961601257,-1.1928662061691284,1.0038034915924072
1775728165570581000,4.9435810546875,0.7869465351104736,-1.2368484735488892,0.7240274548530579
1775728165589109000,4.96210888671875,0.7692314982414246,-1.3351976871490479,0.4961749315261841
1775728165607637000,4.980636962890625,0.6641627550125122,-1.1452187299728394,0.16447533667087555
1775728165626165000,4.9991650390625,0.5719221234321594,-0.8898772597312927,-0.35964664816856384
1775728165644693000,5.01769287109375,0.7221949100494385,-0.7469348907470703,-0.6595812439918518
1775728165663221000,5.036220947265625,0.8028290271759033,-0.8232930302619934,-0.8898772597312927
1775728165681749000,5.0547490234375,0.7521272301673889,-0.5703949928283691,-1.3773473501205444
1775728165700277200,5.07327734375,0.6922625303268433,0.007483093533664942,-1.901469349861145
1775728165718805200,5.09180517578125,0.7606793642044067,0.9378301501274109,-1.077412724494934
1775728165737333200,5.110333251953125,0.4955640435218811,1.78937566280365,0.4124864339828491
1775728165755861200,5.128861328125,0.5352702736854553,0.9262236952781677,-0.25152358412742615
1775728165774389200,5.14738916015625,0.37949973344802856,-0.1207985132932663,-1.957058072090149
1775728165792917200,5.165917236328125,0.0850629210472107,0.12476912885904312,-2.07373309135437
1775728165811445200,5.1844453125,-0.07254019379615784,1.1461350917816162,-1.549611210823059
1775728165829973200,5.20297314453125,-0.15500694513320923,1.261588454246521,-1.5648828744888306
1775728165848501500,5.22150146484375,-0.24236060678958893,1.039233684539795,-1.808007001876831
1775728165867029500,5.240029541015625,-0.24541492760181427,0.633619487285614,-1.8532110452651978
1775728165885557500,5.2585576171875,-0.25213444232940674,0.48762279748916626,-2.0468552112579346
1775728165904085500,5.27708544921875,-0.24785839021205902,0.448527455329895,-1.9271256923675537
1775728165922613500,5.295613525390625,-0.03711003437638283,0.47174033522605896,-1.7194316387176514
1775728165941141500,5.3141416015625,0.036193739622831345,0.3819431960582733,-1.8037309646606445
1775728165959669500,5.33266943359375,-0.20387612283229828,0.5175551772117615,-2.078620195388794
1775728165978197800,5.35119775390625,-0.3474293351173401,0.633619487285614,-2.0102033615112305
1775728165996725800,5.369725830078125,-0.3816377818584442,0.706923246383667,-1.7737985849380493
1775728166015253800,5.388253662109375,-0.5447386503219604,0.7814487814903259,-1.7230968475341797
1775728166033781800,5.40678173828125,-0.5367974042892456,0.9225585460662842,-1.7841832637786865
1775728166052309800,5.425309814453125,-0.40546149015426636,0.9512691497802734,-1.7249294519424438
1775728166070837800,5.443837646484375,-0.41095927357673645,0.8199332356452942,-1.7090469598770142
1775728166089365800,5.46236572265625,-0.34315329790115356,0.522442102432251,-1.7102686166763306
1775728166107894000,5.48089404296875,-0.27168211340904236,0.39599308371543884,-1.677892804145813
1775728166126422000,5.499422119140625,-0.3016144931316376,0.23044873774051666,-1.5526655912399292
1775728166144950000,5.517949951171875,-0.208152174949646,0.08078686892986298,-1.3767365217208862
1775728166163478000,5.53647802734375,-0.05177079141139984,-0.15806126594543457,-1.2673916816711426
1775728166182006300,5.55500634765625,-0.027336198836565018,-0.32788166403770447,-1.2111921310424805
1775728166200534300,5.5735341796875,-0.06643154472112656,-0.5465712547302246,-1.2118029594421387
1775728166219062300,5.592062255859375,-0.09392046183347702,-0.7622065544128418,-1.1482731103897095
1775728166237590300,5.61059033203125,-0.12324196845293045,-0.8422298431396484,-0.9283617734909058
1775728166256118300,5.6291181640625,-0.19654574990272522,-0.6644681692123413,-0.7188351154327393
1775728166274646300,5.647646240234375,-0.291229784488678,-0.42012226581573486,-0.6314814686775208
1775728166293174500,5.666174560546875,-0.2441931962966919,-0.3633118271827698,-0.5789470672607422
1775728166311702500,5.68470263671875,-0.028557928279042244,-0.17821979522705078,-0.6461422443389893
1775728166330230500,5.70323046875,0.04108065739274025,-0.10674861818552017,-0.6907353401184082
1775728166348758500,5.721758544921875,-0.0206166859716177,0.13393209874629974,-0.42134398221969604
1775728166367286500,5.74028662109375,-0.07192932814359665,0.3019199073314667,0.12476912885904312
1775728166385814800,5.758814697265625,-0.1000291109085083,0.40515607595443726,0.6507236957550049
1775728166404342800,5.7773427734375,-0.2863428592681885,0.47845983505249023,1.0337358713150024
1775728166422870800,5.795870849609375,-0.15256348252296448,0.2597702443599701,1.0984876155853271
1775728166441398800,5.814398681640625,0.2530507445335388,-0.19410228729248047,0.9763146042823792
1775728166459927000,5.832927001953125,0.5450441241264343,-0.7402154207229614,1.0093013048171997
1775728166478455000,5.851455078125,0.5920807123184204,-1.3767365217208862,1.307403326034546
1775728166496983000,5.869983154296875,0.4686860144138336,-1.6644538640975952,1.97568941116333
1775728166515511000,5.888510986328125,0.25060728192329407,-0.919198751449585,3.026376724243164
1775728166534039300,5.907039306640625,0.20601414144039154,-0.27717989683151245,4.001927852630615
1775728166552567300,5.9255673828125,0.6543889045715332,0.41004297137260437,4.154644012451172
1775728166571095300,5.94409521484375,1.3110685348510742,0.7209731340408325,3.45398211479187
1775728166589623300,5.962623291015625,1.9317071437835693,0.3220784664154053,2.77470064163208
1775728166608151600,5.981151611328125,2.21270489692688,-0.45799586176872253,2.587165117263794
1775728166626679600,5.999679443359375,2.009286880493164,-1.3095413446426392,2.2291982173919678
1775728166645207600,6.01820751953125,1.3953678607940674,-2.4744606018066406,1.75455641746521
1775728166663735600,6.036735595703125,0.7655662894248962,-3.085325241088867,1.6140574216842651
1775728166682263800,6.055263916015625,0.2286161482334137,-2.48117995262146,2.05143666267395
1775728166700791800,6.073791748046875,0.1467602699995041,-1.1659882068634033,2.4430010318756104
1775728166719319800,6.09231982421875,0.264046311378479,-0.5264127254486084,2.313497543334961
1775728166737848000,6.11084814453125,0.16264274716377258,-0.35537058115005493,1.7386739253997803
1775728166756376000,6.1293759765625,0.1101083755493164,-0.2735147178173065,1.1998910903930664
1775728166774904000,6.147904052734375,0.12660172581672668,-0.4555523991584778,0.9048434495925903
1775728166793432000,6.16643212890625,0.304974228143692,-0.6039925217628479,0.47723811864852905
1775728166811960300,6.184960205078125,0.41126471757888794,-0.7139481902122498,0.12232567369937897
1775728166830488300,6.20348828125,0.44669488072395325,-0.8776599764823914,-0.027336198836565018
1775728166849016300,6.222016357421875,0.4387536346912384,-0.938746452331543,-0.18493930995464325
1775728166867544300,6.24054443359375,0.3862192630767822,-0.884379506111145,-0.5068650245666504
1775728166886072600,6.259072509765625,0.36422812938690186,-0.5948295593261719,-0.7041743993759155
1775728166904600600,6.2776005859375,0.33429574966430664,-0.25213444232940674,-1.0792453289031982
1775728166923128600,6.296128662109375,0.2286161482334137,-0.1769980639219284,-1.753640055656433
1775728166941656800,6.31465673828125,-0.14462223649024963,0.3972148299217224,-1.5453351736068726
1775728166960184800,6.333184814453125,-0.6583595275878906,1.3526073694229126,0.05329795181751251
1775728166978712800,6.351712890625,-0.6675224900245667,1.1308634281158447,-1.0315978527069092
1775728166997241000,6.370240966796875,-1.0926843881607056,2.930471181869507,-1.7768529653549194
1775728167015769000,6.38876904296875,-0.7921388745307922,2.7062838077545166,-1.5722131729125977
1775728167034297000,6.407297119140625,-0.40973755717277527,1.846796989440918,-2.0798418521881104
1775728167052825300,6.425825439453125,-0.02977965772151947,0.9353867173194885,-1.7151556015014648
1775728167071353300,6.444353271484375,-0.005345067009329796,0.6653844714164734,-1.5465569496154785
1775728167089881300,6.46288134765625,-0.02611446939408779,0.8144354820251465,-1.7035491466522217
1775728167108409600,6.48140966796875,-0.057268574833869934,0.8822414875030518,-1.743866205215454
1775728167126937600,6.4999375,-0.45127636194229126,1.0844377279281616,-1.7194316387176514
1775728167145465600,6.518465576171875,-0.7029526233673096,0.8700241446495056,-1.8703151941299438
1775728167163993900,6.536993896484375,-0.7872520089149475,0.7570141553878784,-1.9051345586776733
1775728167182521900,6.55552197265625,-0.9363030195236206,0.7179188132286072,-1.806174397468567
1775728167201049900,6.5740498046875,-0.8813251852989197,0.6201804876327515,-1.7402009963989258
1775728167219578000,6.592578125,-0.5795579552650452,0.5725330114364624,-1.6803362369537354
1775728167238106000,6.611106201171875,-0.4842630624771118,0.7539598345756531,-1.5777109861373901
1775728167256634000,6.629634033203125,-0.5526798963546753,1.085659384727478,-1.4366012811660767
1775728167275162400,6.648162353515625,-0.5416843295097351,1.075885534286499,-1.3889538049697876
1775728167293690400,6.6666904296875,-0.39629852771759033,0.8413135409355164,-1.3822343349456787
1775728167312218400,6.68521826171875,-0.2753472924232483,0.7814487814903259,-1.2539526224136353
1775728167330746600,6.70374658203125,-0.13790272176265717,0.6501128673553467,-1.1238384246826172
1775728167349274600,6.722274658203125,-0.051159925758838654,0.5377137064933777,-1.178816318511963
1775728167367802600,6.740802734375,-0.3468184769153595,0.4595230221748352,-1.1275036334991455
1775728167386331000,6.759330810546875,-0.6113229393959045,0.31291547417640686,-0.9320269227027893
1775728167404859000,6.77785888671875,-0.5697841048240662,-0.001679878099821508,-0.8336777091026306
1775728167423387100,6.79638720703125,-0.37552911043167114,-0.2698495090007782,-0.976620078086853
1775728167441915100,6.8149150390625,-0.23014330863952637,-0.3724747896194458,-1.0358740091323853
1775728167460443400,6.833443359375,-0.22769984602928162,-0.494647741317749,-0.8965967893600464
1775728167478971400,6.851971435546875,-0.2741255760192871,-0.6931788325309753,-0.6998983025550842
1775728167497499400,6.87049951171875,-0.17455461621284485,-0.8807142972946167,-0.495258629322052
1775728167516027600,6.889027587890625,-0.053603384643793106,-0.8306233882904053,-0.32421648502349854
1775728167534555600,6.9075556640625,-0.002901607658714056,-0.6968439817428589,-0.32849252223968506
1775728167553083600,6.926083740234375,0.017867794260382652,-0.42745262384414673,-0.4030180275440216
1775728167571612000,6.94461181640625,0.05818486958742142,-0.47693267464637756,-0.3474293351173401
1775728167590140000,6.963139892578125,-0.03649916872382164,-0.402407169342041,-0.11102467030286789
1775728167608668200,6.981668212890625,-0.14767655730247498,0.07223475724458694,0.378888875246048
1775728167627196200,7.000196044921875,-0.18616104125976562,0.42653632164001465,0.9280562996864319
1775728167645724200,7.01872412109375,-0.046883873641490936,0.12721258401870728,0.9524909257888794
1775728167664252400,7.03725244140625,0.14981459081172943,-0.671187698841095,0.8608611822128296
1775728167682780400,7.055780517578125,0.3685041666030884,-1.2576178312301636,1.086881160736084
1775728167701308700,7.07430859375,0.49250972270965576,-1.205694317817688,1.6048945188522339
1775728167719836700,7.092836669921875,0.523052990436554,-1.0022764205932617,2.3324344158172607
1775728167738364700,7.11136474609375,0.5719221234321594,-0.4335612654685974,3.3159267902374268
1775728167756893000,7.129892822265625,0.5383245944976807,0.2750418782234192,4.000095367431641
1775728167775421000,7.1484208984375,0.5823068618774414,0.49373146891593933,3.7655231952667236
1775728167793949200,7.16694921875,0.8529199361801147,0.4796815812587738,2.8938190937042236
1775728167812477200,7.185477294921875,1.208443284034729,0.04657844081521034,2.433837890625
1775728167831005400,7.20400537109375,1.3959786891937256,-0.6998983025550842,2.534019708633423
1775728167849533400,7.222533447265625,1.320231556892395,-1.577100157737732,2.3373212814331055
1775728167868061400,7.2410615234375,0.9891427755355835,-2.1720824241638184,1.9787437915802002
1775728167886589700,7.259589599609375,0.36422812938690186,-2.305861711502075,2.1021385192871094
1775728167905117700,7.27811767578125,-0.021838415414094925,-1.4659227132797241,2.8034112453460693
1775728167923646000,7.29664599609375,0.09361502528190613,-0.9925025701522827,3.0465352535247803
1775728167942174000,7.315174072265625,0.4344775676727295,-1.0083850622177124,2.615875720977783
1775728167960702200,7.3337021484375,0.5065596103668213,-0.9637919068336487,1.9628612995147705
1775728167979230200,7.352230224609375,0.33001968264579773,-0.7078395485877991,1.4381283521652222
1775728167997758500,7.370758544921875,0.30741769075393677,-0.5813905596733093,1.190117359161377
1775728168016286500,7.389286376953125,0.5071704983711243,-0.8373429179191589,1.1357502937316895
1775728168034814500,7.407814453125,0.5303833484649658,-1.0920735597610474,0.808937668800354
1775728168053342700,7.4263427734375,0.33307403326034546,-1.1977530717849731,0.21945317089557648
1775728168071870700,7.44487060546875,0.1614210158586502,-1.024267554283142,-0.05482511222362518
1775728168090399000,7.46339892578125,0.22983787953853607,-0.826958179473877,-0.1971566081047058
1775728168108927000,7.481927001953125,0.2805396616458893,-0.5166388750076294,-0.6204859018325806
1775728168127455200,7.500455322265625,0.37583455443382263,-0.3211621642112732,-1.2820523977279663
1775728168145983200,7.518983154296875,0.31841325759887695,0.3153589367866516,-1.8037309646606445
1775728168164511500,7.537511474609375,-0.15745039284229279,1.4876084327697754,-0.6650790572166443
1775728168183039500,7.55603955078125,-0.34926193952560425,0.35934120416641235,-0.16539163887500763
1775728168201567700,7.574567626953125,-0.9466876983642578,1.121700406074524,-1.8513784408569336
1775728168220095700,7.593095703125,-1.0383174419403076,3.5419466495513916,-2.0945026874542236
1775728168238624000,7.6116240234375,-0.7200568318367004,3.554774761199951,-1.89047372341156
1775728168257152000,7.630152099609375,-0.4964803457260132,2.329991102218628,-2.0822854042053223
1775728168275680300,7.64868017578125,-0.2631300091743469,1.6507093906402588,-1.9423972368240356
1775728168294208300,7.667208251953125,-0.3211621642112732,1.4857758283615112,-1.8892520666122437
1775728168312736500,7.685736572265625,-0.281455934047699,1.1852303743362427,-1.872147798538208
1775728168331264500,7.704264404296875,0.052076224237680435,0.9433279633522034,-1.7359249591827393
1775728168349792800,7.722792724609375,-0.002901607658714056,0.8156571984291077,-1.5532764196395874
1775728168368320800,7.74132080078125,-0.5899426341056824,0.901789128780365,-1.594204306602478
1775728168386848800,7.759848876953125,-1.041982650756836,0.7038689255714417,-1.6668972969055176
1775728168405377000,7.778376953125,-1.1091777086257935,0.4283689260482788,-1.5997021198272705
1775728168423905000,7.796905029296875,-1.1220059394836426,0.4350884258747101,-1.5154027938842773
1775728168442433300,7.815433349609375,-1.00594162940979,0.5804742574691772,-1.6290236711502075
1775728168460961300,7.833961181640625,-0.7518218159675598,0.7038689255714417,-1.6846123933792114
1775728168479489500,7.852489501953125,-0.69012451171875,0.7771727442741394,-1.7212642431259155
1775728168498017500,7.871017578125,-0.743880569934845,0.9469931125640869,-1.59664785861969
1775728168516545800,7.8895458984375,-0.6601921319961548,1.0282381772994995,-1.4262166023254395
1775728168535073800,7.90807373046875,-0.5600103139877319,1.1614066362380981,-1.3889538049697876
1775728168553602000,7.92660205078125,-0.4744892120361328,1.1870629787445068,-1.2961024045944214
1775728168572130300,7.94513037109375,-0.39446592330932617,1.0972658395767212,-1.15132737159729
1775728168590658300,7.963658203125,-0.20082180202007294,0.8138245940208435,-1.068860650062561
1775728168609186600,7.9821865234375,-0.10735948383808136,0.5016726851463318,-1.039539098739624
1775728168627714600,8.000714599609376,-0.11896591633558273,0.20479241013526917,-1.0841323137283325
1775728168646242800,8.019242919921876,-0.15989385545253754,-0.2484692484140396,-1.0780236721038818
1775728168664770800,8.037770751953126,-0.3773617148399353,-0.6504182815551758,-1.0022764205932617
1775728168683299000,8.056299072265626,-0.3987419903278351,-1.0768018960952759,-0.8984293937683105
1775728168701827000,8.0748271484375,-0.38652467727661133,-1.087186574935913,-0.772591233253479
1775728168720355300,8.093355224609375,-0.5019781589508057,-0.7115047574043274,-0.606436014175415
1775728168738883600,8.111883544921875,-0.34987279772758484,-0.5728384256362915,-0.5245801210403442
1775728168757411600,8.13041162109375,-0.2283107042312622,-0.3883572816848755,-0.3107774555683136
1775728168775939800,8.14893994140625,-0.1562286615371704,0.01847865991294384,-0.1721111536026001
1775728168794467800,8.1674677734375,-0.0010690133785828948,0.1815795600414276,-0.06887500733137131
1775728168812996000,8.18599609375,0.14798198640346527,0.42653632164001465,0.21029019355773926
1775728168831524000,8.204524169921875,0.04046979174017906,0.7307469844818115,0.652556300163269
1775728168850052400,8.22305224609375,-0.19165882468223572,0.6024653911590576,0.9677625298500061
1775728168868580400,8.241580322265625,-0.2845102846622467,-0.07559451460838318,1.1198678016662598
1775728168887108600,8.260108642578125,-0.12263110280036926,-0.9986112117767334,1.2200497388839722
1775728168905636600,8.27863671875,0.18646647036075592,-1.6546800136566162,1.3788745403289795
1775728168924164900,8.297164794921875,0.2078467458486557,-1.8477132320404053,1.9158246517181396
1775728168942693000,8.315693115234374,0.0948367565870285,-1.2802199125289917,2.9402449131011963
1775728168961221000,8.33422119140625,0.2750418782234192,-0.2124282270669937,3.7826273441314697
1775728168979749400,8.352749267578124,0.7765618562698364,0.3220784664154053,3.909076452255249
1775728168998277400,8.37127734375,0.9164499044418335,0.23533566296100616,3.180314779281616
1775728169016805600,8.3898056640625,1.3526073694229126,-0.26618432998657227,2.5407392978668213
1775728169035334000,8.408333984375,1.6433789730072021,-0.919198751449585,2.6287038326263428
1775728169053862000,8.42686181640625,1.4265220165252686,-1.1116211414337158,2.696509838104248
1775728169072390100,8.44539013671875,0.8547525405883789,-1.4799726009368896,2.4020731449127197
1775728169090918100,8.463918212890626,0.3061959743499756,-1.6284128427505493,1.7557780742645264
1775728169109446400,8.4824462890625,-0.012675444595515728,-1.4512619972229004,1.2096649408340454
1775728169127974400,8.500974365234375,-0.09941824525594711,-0.7377719283103943,1.8101450204849243
1775728169146502700,8.519502685546875,0.23472478985786438,-0.48181959986686707,2.917642831802368
1775728169165030700,8.53803076171875,0.4033234715461731,-0.7585413455963135,2.662912368774414
1775728169183559000,8.556558837890625,0.38988444209098816,-0.8972076177597046,1.6537636518478394
1775728169202087200,8.575087158203125,0.3868301212787628,-0.791528046131134,0.8535308241844177
1775728169220615200,8.593615234375,0.35017824172973633,-0.5917752385139465,0.7203623056411743
1775728169239143400,8.612143310546875,0.35934120416641235,-0.5349648594856262,0.910952091217041
1775728169257671700,8.630671630859375,0.6947059631347656,-0.8281798958778381,0.8431460857391357
1775728169276199700,8.64919970703125,0.7032580971717834,-0.8917098641395569,0.27320927381515503
1775728169294728000,8.66772802734375,0.35384342074394226,-0.4335612654685974,-0.2606865465641022
1775728169313256200,8.686256103515625,0.014813470654189587,-0.09392046183347702,-0.4592176079750061
1775728169331784200,8.7047841796875,0.37949973344802856,-0.2136499583721161,-0.7389936447143555
1775728169350312400,8.7233125,0.15470150113105774,0.2292270064353943,-1.195920467376709
1775728169368840400,8.74184033203125,-0.5514581799507141,1.2127193212509155,-0.7903063297271729
1775728169387368700,8.76036865234375,-0.8587231636047363,0.3116937577724457,-0.20387612283229828
1775728169405896700,8.778896728515624,-1.131779670715332,0.8077159523963928,-1.7750203609466553
1775728169424425000,8.797425048828124,-1.6687299013137817,2.7392704486846924,-2.26310133934021
1775728169442953200,8.815953125,-0.9503529071807861,2.3128867149353027,-1.690721035003662
1775728169461481500,8.8344814453125,-0.4903717041015625,1.707519769668579,-1.7414227724075317
1775728169480009500,8.853009521484376,-0.14523309469223022,1.1406372785568237,-1.5752675533294678
1775728169498537700,8.871537841796876,-0.0591011680662632,1.0936006307601929,-1.6210824251174927
1775728169517066000,8.89006591796875,-0.04321868345141411,1.019685983657837,-1.6736167669296265
1775728169535594000,8.908593994140626,0.212733656167984,0.6800451874732971,-1.7658573389053345
1775728169554122200,8.927122314453126,0.14920371770858765,0.9036217331886292,-1.5147919654846191
1775728169572650200,8.945650146484375,-0.38102689385414124,1.0887137651443481,-1.560606837272644
1775728169591178500,8.964178466796875,-0.771980345249176,0.8425352573394775,-1.6522364616394043
1775728169609706800,8.982706787109375,-0.7365502119064331,0.3819431960582733,-1.6326888799667358
1775728169628234800,9.00123486328125,-0.6754637360572815,0.04535670951008797,-1.5526655912399292
1775728169646763000,9.019762939453125,-0.5306887626647949,-0.09880737960338593,-1.5459460020065308
1775728169665291300,9.038291259765625,-0.47815442085266113,0.22983787953853607,-1.7023273706436157
1775728169683819300,9.0568193359375,-0.6400335431098938,0.873078465461731,-1.8306090831756592
1775728169702347500,9.075347412109375,-0.8831577301025391,1.2493711709976196,-1.7542508840560913
1775728169720875500,9.09387548828125,-0.8507819175720215,1.2322670221328735,-1.6522364616394043
1775728169739403800,9.11240380859375,-0.5392408967018127,0.8810197114944458,-1.7011057138442993
1775728169757932000,9.13093212890625,-0.23686282336711884,0.6385064125061035,-1.7230968475341797
1775728169776460300,9.149460205078125,0.026419902220368385,0.42103853821754456,-1.503185510635376
1775728169794988300,9.16798828125,-0.17821979522705078,0.49189886450767517,-1.338252067565918
1775728169813516500,9.1865166015625,-0.4848739206790924,0.0013744457392022014,-1.2527309656143188
1775728169832044800,9.205044921875,-0.4604393243789673,-0.5429060459136963,-1.0743584632873535
1775728169850573000,9.223572998046874,-0.43600472807884216,-0.7512109875679016,-0.7683151960372925
1775728169869101000,9.24210107421875,-0.25213444232940674,-0.7854194045066833,-0.6058251261711121
1775728169887629300,9.26062939453125,-0.054214250296354294,-0.781754195690155,-0.8061888217926025
1775728169906157300,9.2791572265625,-0.13912445306777954,-0.708450436592102,-0.9088140726089478
1775728169924685600,9.297685546875,-0.2863428592681885,-0.5606211423873901,-0.6962331533432007
1775728169943213800,9.3162138671875,-0.33765551447868347,-0.27840161323547363,-0.45677414536476135
1775728169961742000,9.3347421875,-0.29733842611312866,-0.01695149764418602,-0.25579962134361267
1775728169980270000,9.35327001953125,-0.21548254787921906,0.2738201320171356,-0.05177079141139984
1775728169998798300,9.37179833984375,-0.11224640160799026,0.6317868828773499,0.07101303339004517
1775728170017326600,9.39032666015625,-0.04260781779885292,0.7130318880081177,0.05818486958742142
1775728170035854800,9.408854736328125,0.0019853105768561363,0.6678279042243958,0.1766926348209381
1775728170054382800,9.4273828125,0.009926552884280682,0.40698865056037903,0.4405862092971802
1775728170072911000,9.4459111328125,-0.015729768201708794,-0.145843967795372,0.6232348084449768
1775728170091439000,9.464439208984375,-0.021838415414094925,-0.7744238376617432,0.9085086584091187
1775728170109967400,9.48296728515625,0.14431680738925934,-1.0499238967895508,1.483943223953247
1775728170128495600,9.50149560546875,0.2438877671957016,-1.032208800315857,2.0361649990081787
1775728170147024000,9.52002392578125,0.40026915073394775,-1.3156499862670898,2.427729368209839
1775728170165552000,9.53855224609375,0.6042979955673218,-1.1128429174423218,2.8736605644226074
1775728170184080100,9.557080078125,0.7191405892372131,-0.21609342098236084,3.3886196613311768
1775728170202608400,9.5756083984375,0.8950695991516113,0.2860374450683594,3.5633270740509033
1775728170221136600,9.59413671875,0.8791871070861816,0.388051837682724,3.104567527770996
1775728170239664600,9.61266455078125,1.023962140083313,0.2023489624261856,2.6091561317443848
1775728170258193000,9.63119287109375,1.5908446311950684,0.0691804364323616,2.7569854259490967
1775728170276721200,9.64972119140625,1.651320219039917,-0.6101012229919434,2.8040220737457275
1775728170295249400,9.66824951171875,1.4882192611694336,-1.6925536394119263,1.9927936792373657
1775728170313777700,9.686777587890624,1.2689188718795776,-2.545320749282837,1.4808889627456665
1775728170332305700,9.7053056640625,0.8516982197761536,-2.3657264709472656,1.5712969303131104
1775728170350834000,9.723833984375,0.5566505193710327,-1.4139991998672485,2.1784965991973877
1775728170369362200,9.742362060546874,0.541378915309906,-0.7890845537185669,2.4326162338256836
1775728170387890200,9.76089013671875,0.7368556261062622,-1.0041090250015259,2.017839193344116
1775728170406418400,9.77941845703125,0.6452259421348572,-1.2356266975402832,1.3972004652023315
1775728170424946700,9.79794677734375,0.439364492893219,-1.2472331523895264,1.0600031614303589
1775728170443475000,9.816474853515626,0.4686860144138336,-1.200196623802185,0.994640588760376
1775728170462003000,9.8350029296875,0.633619487285614,-1.2411245107650757,0.9463822841644287
1775728170480531200,9.85353125,0.5670352578163147,-1.0664172172546387,0.7148644924163818
1775728170499059500,9.8720595703125,0.3452913165092468,-0.7023417949676514,0.3966039717197418
1775728170517587700,9.890587646484375,0.45158177614212036,-0.5019781589508057,0.13881902396678925
1775728170536116000,9.909115966796875,0.44119709730148315,-0.21059563755989075,-0.16783510148525238
1775728170554644200,9.927644287109375,0.46135562658309937,0.017256930470466614,-0.503810703754425
1775728170573172200,9.946172119140625,0.35811948776245117,-0.08170316368341446,-0.8501710295677185
1775728170591700500,9.964700439453125,-0.02611446939408779,-0.004734201822429895,-1.4506511688232422
1775728170610228700,9.983228759765625,-0.31444263458251953,0.7124210596084595,-1.46409010887146
1775728170628757000,10.001757080078125,-0.35964664816856384,0.12904518842697144,0.06490438431501389
1775728170647285000,10.020284912109375,-0.7353284955024719,0.212733656167984,-0.9308052062988281
1775728170665813200,10.038813232421875,-1.4311034679412842,3.3550221920013428,-2.1897974014282227
1775728170684341500,10.057341552734375,-1.0584759712219238,3.126558542251587,-1.898414969444275
1775728170702869800,10.075869873046875,-0.41218101978302,2.0263912677764893,-2.486677885055542
1775728170721397800,10.094397705078125,-0.12202023714780807,1.179121732711792,-1.8660391569137573
1775728170739926000,10.112926025390625,0.08689551800489426,0.892015278339386,-1.7200424671173096
1775728170758454300,10.131454345703125,0.4033234715461731,0.7411317229270935,-1.8464914560317993
1775728170776982500,10.149982421875,0.33490660786628723,0.9042325615882874,-1.8794782161712646
1775728170795510800,10.1685107421875,-0.17394374310970306,1.1131483316421509,-1.6522364616394043
1775728170814039000,10.1870390625,-0.3565923273563385,0.901178240776062,-1.5990912914276123
1775728170832567000,10.205567138671874,-0.46166107058525085,0.4699077308177948,-1.7347033023834229
1775728170851095300,10.22409521484375,-0.6223185062408447,0.09666935354471207,-1.7298163175582886
1775728170869623600,10.24262353515625,-0.7738129496574402,0.02153298258781433,-1.6913318634033203
1775728170888151800,10.26115185546875,-0.8972076177597046,0.3006981909275055,-1.6412409543991089
1775728170906680000,10.27968017578125,-0.7933606505393982,0.6812669634819031,-1.6369649171829224
1775728170925208300,10.298208251953126,-0.5056433081626892,0.921336829662323,-1.660788655281067
1775728170943736300,10.316736328125,-0.38469210267066956,1.3153445720672607,-1.651014804840088
1775728170962264600,10.3352646484375,-0.434783011674881,1.6238312721252441,-1.603978157043457
1775728170980792800,10.353792724609375,-0.2606865465641022,1.7661627531051636,-1.4622576236724854
1775728170999321000,10.372321044921875,-0.044440411031246185,1.689193844795227,-1.4213296175003052
1775728171017849300,10.390849365234375,-0.10735948383808136,1.457065224647522,-1.3156499862670898
1775728171036377600,10.409377685546875,-0.22769984602928162,0.9885319471359253,-1.0480912923812866
1775728171054905900,10.42790576171875,-0.4689914286136627,0.3379609286785126,-0.7670934200286865
1775728171073434000,10.44643408203125,-0.6571378111839294,-0.04627300798892975,-0.558788537979126
1775728171091962000,10.464962158203125,-0.5942187309265137,-0.2631300091743469,-0.5508472919464111
1775728171110490400,10.483490478515625,-0.46776971220970154,-0.29733842611312866,-0.7133373618125916
1775728171129018600,10.5020185546875,-0.33337944746017456,-0.3205513060092926,-0.8281798958778381
1775728171147547000,10.520546875,-0.1818849891424179,-0.504421591758728,-0.7377719283103943
1775728171166075100,10.5390751953125,-0.3211621642112732,-0.5276344418525696,-0.6094903349876404
1775728171184603400,10.557603271484375,-0.5312996506690979,-0.5581777095794678,-0.4909825623035431
1775728171203131400,10.57613134765625,-0.5117519497871399,-0.5917752385139465,-0.1715002804994583
1775728171221659600,10.59465966796875,-0.4909825623035431,-0.30222535133361816,0.052687086164951324
1775728171240188000,10.61318798828125,-0.4072940945625305,0.16508620977401733,0.2897026240825653
1775728171258716200,10.631716064453125,-0.001679878099821508,0.5890263915061951,0.5193877816200256
1775728171277244400,10.650244384765625,0.337350070476532,0.6000219583511353,0.5303833484649658
1775728171305036800,10.678036865234375,0.33979353308677673,0.4247037470340729,0.45769044756889343
1775728171323565000,10.69656494140625,0.2860374450683594,0.04780016839504242,0.6537780165672302
1775728171342093300,10.71509326171875,0.10888664424419403,-0.6082686185836792,0.8816305994987488
1775728171360621600,10.73362158203125,0.0642935186624527,-1.1268928050994873,1.0960441827774048
1775728171379149800,10.75214990234375,0.06001746281981468,-1.103679895401001,1.4643956422805786
1775728171397678000,10.770677978515625,0.10827577859163284,-0.9986112117767334,2.065486431121826
1775728171416206000,10.7892060546875,0.141262486577034,-0.7738129496574402,2.796691656112671
1775728171434734300,10.807734375,0.41554075479507446,-0.3877464234828949,3.3690719604492188
1775728171453262600,10.8262626953125,1.1088722944259644,0.23228132724761963,3.389841318130493
1775728171471790800,10.844790771484375,1.2964078187942505,0.819322407245636,2.77164626121521
1775728171490319000,10.863319091796875,1.5175408124923706,0.8932369947433472,2.540128469467163
1775728171508847400,10.881847412109375,1.8199188709259033,-0.11713331937789917,2.9151995182037354
1775728171527375600,10.900375732421875,1.8419100046157837,-1.6265802383422852,2.5688390731811523
1775728171545903900,10.91890380859375,1.4772237539291382,-2.5471534729003906,1.5566362142562866
1775728171564432100,10.93743212890625,0.9958623051643372,-2.565479278564453,1.0233511924743652
1775728171582960400,10.95596044921875,0.7008146047592163,-1.7041599750518799,1.5596904754638672
1775728171601488600,10.974488525390624,0.549930989742279,-0.7231112122535706,2.634812593460083
1775728171620017000,10.993016845703124,0.5346593856811523,-0.7829759120941162,2.6842925548553467
1775728171638545200,11.011545166015624,0.6232348084449768,-1.123227596282959,1.7460042238235474
1775728171657073200,11.0300732421875,0.6507236957550049,-1.0596976280212402,1.021518588066101
1775728171675601400,11.048601318359376,0.6128500699996948,-0.7231112122535706,0.8993456959724426
1775728171694129700,11.067129638671876,0.6067414283752441,-0.7799215912818909,0.8535308241844177
1775728171712658200,11.085658203125,0.7026472091674805,-1.1995856761932373,0.5523744821548462
1775728171731186200,11.104186279296876,0.5554288029670715,-1.1305580139160156,0.10216713696718216
1775728171749714400,11.12271435546875,0.37400195002555847,-0.5844448804855347,-0.0951421856880188
1775728171768242700,11.14124267578125,0.3361283540725708,-0.28756460547447205,-0.1928805559873581
1775728171786771000,11.15977099609375,0.4283689260482788,-0.3407098352909088,-0.5655080676078796
1775728171805299200,11.17829931640625,0.5884155035018921,-0.5093085169792175,-1.1739293336868286
1775728171823827500,11.196827392578125,0.3666715919971466,-0.16661337018013,-1.641851782798767
1775728171842355700,11.215355712890625,-0.06582067906856537,0.6892082095146179,-0.6656898856163025
1775728171860884000,11.233884033203125,-0.2942841053009033,-0.5227475166320801,0.4082103967666626
1775728171879412200,11.252412109375,-0.6009382009506226,-0.3211621642112732,-1.3968950510025024
1775728171897940500,11.2709404296875,-1.308930516242981,2.14001202583313,-2.550818681716919
1775728171916468700,11.28946875,-1.096960425376892,2.7227771282196045,-1.575878381729126
1775728171934997000,11.3079970703125,-0.5215258002281189,1.871842384338379,-1.7878484725952148
1775728171953525200,11.326525146484375,-0.31871870160102844,1.080161690711975,-1.8049527406692505
1775728171972053500,11.345053466796875,-0.3065013885498047,1.1271982192993164,-1.9711079597473145
1775728171990581800,11.363581787109375,-0.08048143237829208,1.3660463094711304,-1.7621921300888062
1775728172009110000,11.382110107421875,0.16814053058624268,1.1326960325241089,-1.4231622219085693
1775728172027638300,11.40063818359375,0.12721258401870728,0.8981239199638367,-1.3687952756881714
1775728172046166500,11.41916650390625,-0.054214250296354294,0.46196648478507996,-1.5184571743011475
1775728172064694800,11.43769482421875,-0.12018764764070511,0.0062613640911877155,-1.566104531288147
1775728172083223000,11.45622314453125,-0.07742711156606674,-0.2075413018465042,-1.5563308000564575
1775728172101751300,11.474751220703125,-0.33765551447868347,-0.21487168967723846,-1.483637809753418
1775728172120279600,11.493279541015625,-0.58749920129776,0.07284562289714813,-1.4188861846923828
1775728172138807800,11.511807861328125,-0.7664825916290283,0.40026915073394775,-1.3223695755004883
1775728172157336000,11.530336181640624,-0.919198751449585,0.6140718460083008,-1.1476621627807617
1775728172175864300,11.5488642578125,-0.8141300082206726,0.6604975461959839,-1.200196623802185
1775728172194392600,11.567392578125,-0.6333140730857849,0.8419243693351746,-1.1653772592544556
1775728172212920800,11.5859208984375,-0.5258018374443054,1.1895064115524292,-0.8617774844169617
1775728172231449000,11.604448974609374,-0.3352120518684387,1.2243257761001587,-0.6235402226448059
1775728172249977300,11.622977294921874,-0.11346813291311264,1.0105230808258057,-0.6693550944328308
1775728172268505600,11.641505615234376,-0.0743727833032608,0.7838922142982483,-0.8379537463188171
1775728172287034000,11.6600341796875,-0.17577634751796722,0.5792525410652161,-1.0053306818008423
1775728172305562000,11.67856201171875,-0.31383177638053894,0.4344775676727295,-1.1311688423156738
1775728172324090400,11.69709033203125,-0.3309359848499298,0.14309507608413696,-1.0780236721038818
1775728172342619000,11.715618896484376,-0.3681987524032593,-0.03283398225903511,-0.8251255750656128
1775728172361147100,11.734147216796876,-0.42562004923820496,-0.03283398225903511,-0.5648971796035767
1775728172379675400,11.75267529296875,-0.3926333487033844,-0.0694858655333519,-0.41095927357673645
1775728172398203600,11.77120361328125,-0.300392746925354,-0.18493930995464325,-0.49892380833625793
1775728172416732000,11.78973193359375,-0.3040579557418823,-0.3413206934928894,-0.6186532974243164
1775728172435260200,11.80826025390625,-0.3877464234828949,-0.2808450758457184,-0.5245801210403442
1775728172453788400,11.826788330078125,-0.3620901107788086,-0.13240493834018707,-0.32299473881721497
1775728172472316700,11.845316650390625,-0.3358229100704193,0.12293653935194016,-0.031612250953912735
1775728172490845000,11.863844970703125,-0.23564109206199646,0.4234820008277893,0.24083344638347626
1775728172509373200,11.882373291015625,-0.11468986421823502,0.5022835731506348,0.38438665866851807
1775728172527901400,11.9009013671875,-0.12812888622283936,0.32268932461738586,0.41126471757888794
1775728172546429700,11.9194296875,-0.07742711156606674,-0.3248273432254791,0.30802857875823975
1775728172564958000,11.9379580078125,0.05513054504990578,-1.107956051826477,0.3672824501991272
1775728172583486200,11.956486328125,0.0001527161948615685,-1.4549272060394287,0.7484620809555054
1775728172602014700,11.9750146484375,-0.09453132748603821,-1.362075686454773,1.2426517009735107
1775728172629807000,12.00280712890625,0.10949750989675522,-1.2276854515075684,2.0770928859710693
1775728172648335400,12.02133544921875,0.25549420714378357,-1.0615302324295044,2.5279111862182617
1775728172666863600,12.039863525390626,0.4198168218135834,-0.5575668215751648,2.942688465118408
1775728172685392000,12.058391845703126,0.716697096824646,-0.021227551624178886,3.115563154220581
1775728172703920000,12.076920166015626,0.7863357067108154,0.347123920917511,2.6946773529052734
1775728172722448400,12.095448486328126,0.9042325615882874,0.36544984579086304,2.3715298175811768
1775728172740976600,12.1139765625,1.2719731330871582,0.0001527161948615685,2.8040220737457275
1775728172759505200,12.132505126953125,1.530979871749878,-0.763428270816803,3.2365143299102783
1775728172778033200,12.151033203125,1.5205951929092407,-1.6168063879013062,2.635423421859741
1775728172796561700,12.169561767578125,1.1736239194869995,-2.285703182220459,1.567631721496582
1775728172815090000,12.18808984375,0.6598866581916809,-2.416428327560425,0.9482148289680481
1775728172833618200,12.2066181640625,0.4228711426258087,-1.957058072090149,1.5835142135620117
1775728172852146400,12.225146484375,0.35934120416641235,-1.1549925804138184,2.570671796798706
1775728172870674700,12.2436748046875,0.3507890999317169,-0.7548761367797852,2.662301540374756
1775728172889203000,12.262202880859375,0.35384342074394226,-0.5856665968894958,2.0349433422088623
1775728172907731200,12.280731201171875,0.3092502951622009,-0.5917752385139465,1.4039199352264404
1775728172926259700,12.299259765625,0.3782780170440674,-0.6290380358695984,1.169347882270813
1775728172944788000,12.3177880859375,0.5383245944976807,-0.7896954417228699,1.1058179140090942
1775728172963316200,12.336316162109375,0.5853611826896667,-0.7322741746902466,0.9311106204986572
1775728172981844500,12.354844482421875,0.41676250100135803,-0.7829759120941162,0.531605064868927
1775728173000372700,12.373372802734375,0.41492989659309387,-0.855057954788208,0.1461493968963623
1775728173018901000,12.39190087890625,0.37583455443382263,-0.6272054314613342,-0.09575305134057999
1775728173037429500,12.410429443359375,0.35445427894592285,-0.3578140437602997,-0.360868364572525
1775728173055957800,12.428957763671875,0.4082103967666626,-0.15439607203006744,-0.5887209177017212
1775728173074486000,12.447486083984375,0.4082103967666626,-0.1104138121008873,-0.9466876983642578
1775728173093014300,12.46601416015625,0.22739441692829132,0.10399972647428513,-1.6143629550933838
1775728173111542500,12.48454248046875,-0.22036947309970856,1.2206605672836304,-1.1507165431976318
1775728173130070800,12.50307080078125,-0.1769980639219284,0.9983057379722595,0.20540328323841095
1775728173148599300,12.521599365234374,-0.3987419903278351,0.7826704978942871,-0.6168206930160522
1775728173167127600,12.54012744140625,-0.6852375864982605,2.254854679107666,-2.257603406906128
1775728173185655800,12.55865576171875,-0.790917158126831,2.8089089393615723,-1.9619449377059937
1775728173204184000,12.57718408203125,-0.6076577305793762,2.4295618534088135,-1.6956079006195068
1775728173222712300,12.59571240234375,-0.7958040833473206,1.3691006898880005,-1.8422154188156128
1775728173241240600,12.614240478515624,-0.7640390992164612,0.8859066367149353,-1.6406301259994507
1775728173259769000,12.63276904296875,-0.5007563829421997,0.6696605086326599,-1.6540690660476685
1775728173278297300,12.65129736328125,-0.22525638341903687,0.47723811864852905,-1.743866205215454
1775728173296825600,12.66982568359375,0.07223475724458694,0.41065385937690735,-1.8055635690689087
1775728173315353900,12.688353759765626,0.049632761627435684,0.6898190379142761,-1.7310380935668945
1775728173333882000,12.706882080078126,-0.27168211340904236,0.9488257169723511,-1.6186389923095703
1775728173352410600,12.72541064453125,-0.3920224606990814,0.7887791395187378,-1.5471677780151367
1775728173370939000,12.74393896484375,-0.5288561582565308,0.5682569742202759,-1.6284128427505493
1775728173389467100,12.762467041015626,-0.8348994255065918,0.6067414283752441,-1.6815580129623413
1775728173407995400,12.780995361328126,-0.8752164840698242,0.6214022040367126,-1.496466040611267
1775728173426524000,12.79952392578125,-0.6693550944328308,0.7386882305145264,-1.3584105968475342
1775728173445052200,12.81805224609375,-0.47265663743019104,0.9738711714744568,-1.3950624465942383
1775728173463580400,12.836580322265625,-0.33460119366645813,1.1919498443603516,-1.420718789100647
1775728173482108700,12.855108642578125,-0.24541492760181427,1.2585341930389404,-1.3168717622756958
1775728173500637000,12.873636962890625,-0.2582430839538574,1.1271982192993164,-1.215468168258667
1775728173519165400,12.89216552734375,-0.4079049527645111,0.9537126421928406,-1.0914626121520996
1775728173537693700,12.910693603515625,-0.4195113778114319,0.5462658405303955,-0.9332486391067505
1775728173556222000,12.929221923828125,-0.2942841053009033,0.09605848789215088,-0.8776599764823914
1775728173574750500,12.94775048828125,-0.2600756883621216,-0.15867212414741516,-0.9521854519844055
1775728173593278500,12.966278564453125,-0.29856017231941223,-0.17577634751796722,-0.9564615488052368
1775728173611807000,12.984806884765625,-0.2900080680847168,-0.04505127668380737,-0.8220712542533875
1775728173630335200,13.003335205078125,-0.19532401859760284,-0.17394374310970306,-0.772591233253479
1775728173648863500,13.021863525390625,-0.08659008145332336,-0.43172869086265564,-0.7970257997512817
1775728173667392000,13.04039208984375,-0.03711003437638283,-0.47143489122390747,-0.7707586288452148
1775728173685920300,13.058920166015625,-0.06826414167881012,-0.4897608458995819,-0.7163916826248169
1775728173704448500,13.077448486328125,-0.20204351842403412,-0.4292852282524109,-0.5123628377914429
1775728173722977000,13.09597705078125,-0.32849252223968506,-0.2631300091743469,-0.3052796721458435
1775728173741505000,13.114505126953125,-0.3468184769153595,-0.10247256606817245,-0.3584249019622803
1775728173760033500,13.133033447265625,-0.27840161323547363,-0.03527744114398956,-0.36880961060523987
1775728173778561800,13.151561767578125,-0.004123337101191282,0.1766926348209381,-0.05849030241370201
1775728173797090000,13.170090087890625,0.11743875592947006,0.4839576184749603,0.18280129134655
1775728173815618600,13.18861865234375,-0.0383317656815052,0.8529199361801147,0.22678354382514954
1775728173834146800,13.207146728515625,-0.07742711156606674,0.8174898028373718,0.1980729103088379
1775728173852675000,13.225675048828125,-0.027336198836565018,0.30314165353775024,0.2854265570640564
1775728173871203600,13.24420361328125,0.030085090547800064,-0.4127918779850006,0.615293562412262
1775728173889731800,13.26273193359375,0.11866047978401184,-1.1213949918746948,0.9836450219154358
1775728173908260000,13.281260009765624,0.22617268562316895,-1.6638429164886475,1.2573124170303345
1775728173926788400,13.299788330078124,0.03741546720266342,-1.826332926750183,1.6366595029830933
1775728173945316900,13.31831689453125,-0.14889828860759735,-1.3681844472885132,2.2334742546081543
1775728173963845000,13.33684521484375,-0.10186170041561127,-0.46288278698921204,3.0129377841949463
1775728173982373400,13.355373291015624,0.3617846667766571,0.233503058552742,3.6311330795288086
1775728174000902000,13.37390185546875,0.7490729093551636,0.17608177661895752,3.277442216873169
1775728174019430100,13.39243017578125,0.6116283535957336,-0.06826414167881012,2.559065341949463
1775728174037958400,13.41095849609375,0.8370374441146851,-0.8306233882904053,2.796691656112671
1775728174056487000,13.42948681640625,1.3251184225082397,-1.9802708625793457,3.391674041748047
1775728174075015200,13.44801513671875,1.1925607919692993,-2.8037166595458984,2.7679810523986816
1775728174093543400,13.46654345703125,0.4094321131706238,-2.626565933227539,1.835801362991333
1775728174112072000,13.485072021484376,-0.3669770061969757,-1.9344559907913208,1.820529818534851
1775728174130600200,13.50360009765625,-0.6021599769592285,-1.2521201372146606,2.4625487327575684
1775728174149128400,13.52212841796875,-0.3981311321258545,-0.9912807941436768,2.9652903079986572
1775728174167656700,13.54065673828125,-0.1049160286784172,-0.6785180568695068,2.738659620285034
1775728174186185200,13.559185302734376,0.13332124054431915,-0.4848739206790924,2.262795925140381
1775728174204713500,13.57771337890625,0.16752967238426208,-0.4237874448299408,1.9512548446655273
1775728174223241700,13.59624169921875,0.03558287397027016,-0.4402807950973511,1.771660566329956
1775728174241770200,13.614770263671875,0.01908952370285988,-0.6394227147102356,1.5554144382476807
1775728174260298500,13.633298583984375,0.06612611562013626,-0.5929969549179077,1.3129011392593384
1775728174278826800,13.65182666015625,0.05513054504990578,-0.5355756878852844,1.0551161766052246
1775728174297355300,13.670355224609375,0.045967575162649155,-0.40973755717277527,0.799774706363678
1775728174315883500,13.688883544921875,0.052076224237680435,-0.16294817626476288,0.5114465355873108
1775728174334411800,13.707411865234375,-0.0010690133785828948,0.11621702462434769,0.2799287736415863
1775728174352940000,13.72593994140625,-0.05299251899123192,0.23716825246810913,0.24694208800792694
1775728174371468500,13.744468505859375,0.028863361105322838,0.1156061589717865,-0.021227551624178886
1775728174389996800,13.762996826171875,0.13759729266166687,0.18341214954853058,-0.4292852282524109
1775728174408525000,13.781525146484375,-0.028557928279042244,0.6397281289100647,-0.6687442064285278
1775728174427053600,13.800053466796875,-0.16905683279037476,1.2066106796264648,-0.8220712542533875
1775728174445581800,13.818581787109375,-0.33276858925819397,1.9091051816940308,-0.7664825916290283
1775728174464110300,13.8371103515625,-0.46288278698921204,2.464992046356201,-0.4787652790546417
1775728174482638600,13.855638671875,-0.6601921319961548,1.4057525396347046,-0.6369792222976685
1775728174501166800,13.874166748046875,-1.0279327630996704,2.662301540374756,-0.6571378111839294
1775728174519695400,13.8926953125,-0.7567087411880493,3.0801329612731934,-1.1207841634750366
1775728174538223600,13.9112236328125,-0.6534726023674011,1.8993313312530518,-2.3932154178619385
1775728174556752000,13.929751953125,-0.7218894362449646,1.8388557434082031,-1.4439315795898438
1775728174575280000,13.948280029296875,-0.6015490889549255,1.6555962562561035,-1.1452187299728394
1775728174593808600,13.96680859375,-0.5984947681427002,1.5401427745819092,-1.753029227256775
1775728174612337000,13.9853369140625,-0.5178605914115906,1.5450297594070435,-1.838550329208374
1775728174630865400,14.003865478515625,-0.2955058515071869,1.2536472082138062,-1.6155846118927002
1775728174649393700,14.0223935546875,-0.36880961060523987,0.9836450219154358,-1.6161954402923584
1775728174667922000,14.040921875,-0.5484038591384888,0.9121738076210022,-1.4854704141616821
1775728174686450400,14.059450439453125,-0.7475457787513733,0.7814487814903259,-1.4091123342514038
1775728174704978700,14.077978759765625,-0.919198751449585,0.4503600597381592,-1.4158318042755127
1775728174723507000,14.0965068359375,-0.9320269227027893,0.28664830327033997,-1.3168717622756958
1775728174742035500,14.115035400390624,-0.9051488637924194,0.2536616027355194,-1.179427146911621
1775728174760563700,14.133563720703124,-0.9436333775520325,0.49984011054039,-1.172096848487854
1775728174779092200,14.15209228515625,-0.9039271473884583,0.6458367705345154,-1.2063052654266357
1775728174797620500,14.170620361328124,-0.7298306822776794,0.8272636532783508,-1.103679895401001
1775728174816148700,14.189148681640624,-0.6113229393959045,1.0538945198059082,-0.9210313558578491
1775728174834677200,14.20767724609375,-0.588110089302063,1.3153445720672607,-0.7982475757598877
1775728174853205500,14.22620556640625,-0.5227475166320801,1.3642138242721558,-0.8141300082206726
1775728174871734000,14.244734130859374,-0.5282453298568726,1.6720895767211914,-0.7139481902122498
1775728174890262300,14.26326220703125,-0.5288561582565308,1.8474078178405762,-0.5948295593261719
1775728174908790500,14.28179052734375,-0.5820014476776123,1.909716010093689,-0.5404626131057739
1775728174927318800,14.30031884765625,-0.5661189556121826,2.039219379425049,-0.48670652508735657
1775728174945847300,14.318847412109376,-0.3773617148399353,1.9842414855957031,-0.41157013177871704
1775728174964375600,14.33737548828125,-0.2331976294517517,2.053269147872925,-0.34498587250709534
1775728174982904000,14.355904052734376,-0.17394374310970306,2.1943790912628174,-0.2136499583721161
1775728175001432300,14.374432373046876,-0.25091269612312317,2.2701263427734375,-0.07315105944871902
1775728175019960600,14.392960693359376,-0.3828594982624054,2.321438789367676,0.10155627131462097
1775728175038489000,14.411489013671876,-0.3413206934928894,2.3098323345184326,0.2909243404865265
1775728175057017300,14.430017333984376,-0.33337944746017456,2.391688346862793,0.388662725687027
1775728175075545900,14.4485458984375,-0.3370446562767029,2.540128469467163,0.47784897685050964
1775728175094074000,14.46707421875,-0.37980517745018005,2.7905831336975098,0.6201804876327515
1775728175112602600,14.4856025390625,-0.3413206934928894,2.9384121894836426,0.736244797706604
1775728175131131000,14.504130859375,-0.31444263458251953,3.0630288124084473,0.7002037763595581
1775728175149659100,14.5226591796875,-0.393244206905365,3.0715808868408203,0.7386882305145264
1775728175168187600,14.541187744140625,-0.42012226581573486,3.1815364360809326,1.0416771173477173
1775728175186716000,14.5597158203125,-0.35353797674179077,3.3311984539031982,1.3348922729492188
1775728175205244400,14.578244384765625,-0.3211621642112732,3.366628408432007,1.513264775276184
1775728175223772700,14.596772705078125,-0.19960007071495056,3.55172061920166,1.7301217317581177
1775728175242301000,14.615301025390625,-0.1623373180627823,3.5700464248657227,1.9695807695388794
1775728175260829200,14.6338291015625,-0.08720094710588455,3.3293657302856445,1.884670615196228
1775728175279357700,14.652357666015625,0.09911280870437622,2.962235927581787,1.4888302087783813
1775728175297886200,14.67088623046875,0.2591593861579895,2.615875720977783,1.3599376678466797
1775728175316414500,14.68941455078125,0.0899498388171196,2.2194244861602783,1.2603667974472046
1775728175334942700,14.707942626953125,-0.39141160249710083,1.752112865447998,1.1760674715042114
1775728175353471200,14.72647119140625,-0.6650790572166443,1.2609776258468628,1.3489421606063843
1775728175371999500,14.74499951171875,-0.7994692921638489,0.7594576478004456,1.5358667373657227
1775728175390527700,14.76352783203125,-1.00288724899292,0.5517635941505432,1.262810230255127
1775728175409056300,14.78205615234375,-0.9845613241195679,0.7582359313964844,0.9622647166252136
1775728175427584500,14.80058447265625,-0.9943351149559021,1.1772891283035278,0.9726494550704956
1775728175446113000,14.819113037109375,-1.1458295583724976,1.615279197692871,1.1882847547531128
1775728175464641300,14.837641357421875,-1.371849536895752,2.022726058959961,1.4381283521652222
1775728175483169800,14.856169677734375,-1.5361721515655518,2.4210097789764404,1.4448479413986206
1775728175501698000,14.874697998046875,-1.5007420778274536,2.6812381744384766,1.080161690711975
1775728175520226300,14.893226318359375,-1.215468168258667,2.6836817264556885,0.7148644924163818
1775728175538754800,14.9117548828125,-0.9283617734909058,2.7447681427001953,0.6574432253837585
1775728175557283000,14.930282958984375,-0.9937242865562439,3.168097496032715,0.7038689255714417
1775728175575811600,14.9488115234375,-1.161101222038269,3.4570364952087402,0.625067412853241
1775728175594339800,14.96733984375,-1.024267554283142,3.093571901321411,0.5792525410652161
1775728175612868400,14.985868408203125,-0.8312342762947083,2.4375030994415283,0.4082103967666626
1775728175631396600,15.004396728515625,-0.7695369124412537,2.0276129245758057,0.27137666940689087
1775728175649925000,15.022925048828125,-0.7127264738082886,1.9115486145019531,0.2848156988620758
1775728175668453400,15.041453369140624,-0.6308705806732178,2.0135629177093506,0.22617268562316895
1775728175686981600,15.059981689453124,-0.773202121257782,2.321438789367676,0.13332124054431915
1775728175705510100,15.07851025390625,-0.8611665964126587,2.5053091049194336,0.12782345712184906
1775728175724038400,15.097038330078124,-0.679739773273468,2.321438789367676,0.2848156988620758
1775728175742567000,15.11556689453125,-0.41645705699920654,2.092975378036499,0.4503600597381592
1775728175761095200,15.13409521484375,-0.4036289155483246,2.1888811588287354,0.44119709730148315
1775728175779623700,15.152623779296874,-0.4286743700504303,2.3183846473693848,0.35017824172973633
1775728175798152000,15.17115185546875,-0.42073312401771545,2.305556297302246,0.2835939824581146
1775728175816680400,15.189680419921874,-0.34376415610313416,2.031278133392334,0.21395538747310638
1775728175835208700,15.208208740234374,-0.20448698103427887,1.7405065298080444,0.31413722038269043
1775728175853737000,15.226737060546874,-0.1305723488330841,1.837023138999939,0.5737547278404236
1775728175872265500,15.245265380859376,-0.17027856409549713,1.51143217086792,0.6073523163795471
1775728175890793700,15.263793701171876,-0.10063996911048889,1.152243733406067,0.3776671588420868
1775728175909322200,15.282322265625,0.036193739622831345,1.0722204446792603,0.19501857459545135
1775728175927850500,15.3008505859375,0.16508620977401733,1.0361794233322144,0.18463388085365295
1775728175946379000,15.31937890625,0.10949750989675522,1.0178533792495728,0.10277800261974335
1775728175964907300,15.3379072265625,0.13271036744117737,0.9170607328414917,0.02153298258781433
1775728175983435800,15.356435791015626,0.22556181252002716,0.7893900275230408,0.06979130208492279
1775728176001964000,15.374964111328126,0.13454297184944153,0.7118101716041565,0.19868376851081848
1775728176020492500,15.393492431640626,-0.04199695214629173,0.6116283535957336,0.337350070476532
1775728176039020800,15.412020751953126,-0.09880737960338593,0.2738201320171356,0.3990474045276642
1775728176057549000,15.430549072265626,-0.0334448479115963,0.28298309445381165,0.3202458620071411
1775728176076077600,15.44907763671875,-0.07070759683847427,0.5572614073753357,0.13454297184944153
1775728176094605800,15.467605712890625,-0.14523309469223022,0.7667880058288574,0.17486004531383514
1775728176113134300,15.48613427734375,-0.09147699922323227,0.9830341339111328,0.35995206236839294
1775728176131662600,15.50466259765625,-0.017562363296747208,0.9268345832824707,0.24999640882015228
1775728176150191000,15.523191162109375,-0.057268574833869934,0.7851139307022095,-0.06765327602624893
1775728176168719400,15.54171923828125,-0.051159925758838654,0.5590940117835999,-0.1562286615371704
1775728176187247900,15.560247802734375,0.004428769461810589,0.6360629796981812,0.10705405473709106
1775728176205776100,15.578776123046875,-0.031001387163996696,0.7692314982414246,0.2603811025619507
1775728176224304600,15.5973046875,0.01359174121171236,0.9476040005683899,0.20906847715377808
1775728176242833000,15.6158330078125,-0.11102467030286789,0.9995275139808655,0.2597702443599701
1775728176261361400,15.634361328125,-0.1568395346403122,0.9311106204986572,0.46807512640953064
1775728176279889700,15.6528896484375,-0.09208786487579346,0.5749764442443848,0.5364919900894165
1775728176298418200,15.671418212890625,-0.16539163887500763,0.6281217336654663,0.4228711426258087
1775728176316946400,15.689946533203125,-0.16783510148525238,0.8303179740905762,0.5939132571220398
1775728176335475000,15.708474853515625,-0.17394374310970306,0.939662754535675,0.8559742569923401
1775728176354003200,15.727003173828125,-0.27290382981300354,1.1308634281158447,0.8113811612129211
1775728176372531500,15.745531494140625,-0.29184064269065857,1.0752747058868408,0.5841394662857056
1775728176391060000,15.76406005859375,-0.27168211340904236,0.6440041661262512,0.3776671588420868
1775728176409588200,15.782588134765625,-0.3455967605113983,0.6629409790039062,0.314748078584671
1775728176428116700,15.80111669921875,-0.4390590488910675,0.8541416525840759,0.2286161482334137
1775728176446645000,15.81964501953125,-0.28206682205200195,0.6171261668205261,0.05818486958742142
1775728176465173500,15.838173583984375,-0.23197589814662933,0.5022835731506348,-0.04505127668380737
1775728176483701800,15.85670166015625,-0.2594648003578186,0.5798633694648743,0.0007635809597559273
1775728176502230300,15.875230224609375,-0.10247256606817245,0.42164942622184753,0.18890993297100067
1775728176520758500,15.893758544921875,-0.0334448479115963,0.30863943696022034,0.212733656167984
1775728176539287000,15.912287109375,-0.05604684352874756,0.39538222551345825,0.162031888961792
1775728176557815300,15.930815185546875,-0.16966769099235535,0.458301305770874,0.1931859850883484
1775728176576343800,15.94934375,-0.2649625837802887,0.4967857897281647,0.18524473905563354
1775728176594872000,15.9678720703125,-0.29794928431510925,0.4497492015361786,0.08078686892986298
1775728176613400600,15.986400634765625,-0.22708898782730103,0.20723587274551392,0.06001746281981468
1775728176631928800,16.0049287109375,-0.11896591633558273,0.1870773434638977,0.06246092543005943
1775728176650457300,16.023457275390626,-0.08659008145332336,0.3006981909275055,-0.04993819445371628
1775728176668985600,16.041985595703125,-0.1256854236125946,0.3428478538990021,-0.009621120058000088
1775728176687514000,16.06051416015625,-0.15012001991271973,0.33368489146232605,0.14859285950660706
1775728176706042400,16.07904248046875,-0.06765327602624893,0.18646647036075592,0.11194097250699997
1775728176724571000,16.09757080078125,0.03802633285522461,0.11133010685443878,-0.01695149764418602
1775728176743099100,16.11609912109375,0.022754713892936707,0.07345648854970932,-0.09575305134057999
1775728176761627600,16.134627685546874,-0.027336198836565018,-0.0010690133785828948,-0.08720094710588455
1775728176780156000,16.153156005859376,-0.06337722390890121,-0.06826414167881012,-0.021838415414094925
1775728176798684400,16.171684326171874,-0.10308343172073364,-0.07620538026094437,0.005650499369949102
1775728176817212700,16.190212646484376,-0.12263110280036926,0.08017600327730179,0.006872228812426329
1775728176835741200,16.2087412109375,-0.09330959618091583,0.15836669504642487,0.0062613640911877155
1775728176854269400,16.22726953125,-0.05543597787618637,0.13698641955852509,0.03252854943275452
1775728176872798000,16.2457978515625,-0.03222311660647392,0.022754713892936707,0.030695954337716103
1775728176891326200,16.264326171875,0.019700389355421066,-0.21609342098236084,-0.04199695214629173
1775728176909854700,16.282854736328126,0.025809036567807198,-0.2484692484140396,-0.024281874299049377
1775728176928383000,16.301383056640624,-0.03711003437638283,-0.04199695214629173,0.0746782198548317
1775728176946911500,16.319911376953126,-0.03649916872382164,0.05940660089254379,0.06734783947467804
1775728176965439700,16.338439697265624,-0.021227551624178886,-0.017562363296747208,0.0025961752980947495
1775728176983968300,16.35696826171875,-0.06887500733137131,-0.004123337101191282,0.0154243353754282
1775728177002496500,16.37549658203125,-0.04505127668380737,-0.04627300798892975,0.0435241162776947
1775728177021025000,16.39402490234375,-0.024281874299049377,-0.064598947763443,-0.01511890348047018
1775728177039553300,16.41255322265625,-0.004123337101191282,-0.09575305134057999,-0.07681624591350555
1775728177058081800,16.431081787109374,-0.003512472379952669,-0.11163553595542908,-0.056657709181308746
1775728177076610000,16.449610107421876,-0.01511890348047018,-0.013897174037992954,-0.01511890348047018
1775728177095138600,16.468138671875,-0.027336198836565018,-0.03527744114398956,-0.060933761298656464
1775728177113666800,16.486666748046876,-0.021227551624178886,-0.1262962967157364,-0.11163553595542908
1775728177132195300,16.5051953125,0.03252854943275452,-0.13362666964530945,-0.1623373180627823
1775728177150723600,16.5237236328125,0.11316270381212234,-0.1721111536026001,-0.4451677203178406
1775728177169252000,16.542252197265626,0.06368265300989151,-0.1262962967157364,-0.19654574990272522
1775728177187780400,16.5607802734375,0.017256930470466614,-0.12690715491771698,0.1253799945116043
1775728177206308900,16.579308837890625,0.052076224237680435,-0.1366809904575348,0.16447533667087555
1775728177224837000,16.597837158203124,0.03191768378019333,-0.1153007298707962,0.16508620977401733
1775728177243365600,16.61636572265625,-0.005955931730568409,-0.0743727833032608,0.2842048406600952
1775728177261894100,16.63489404296875,0.0435241162776947,-0.004734201822429895,0.141262486577034
1775728177280422400,16.65342236328125,0.07528908550739288,-0.07192932814359665,-0.02672533318400383
1775728177298951000,16.671950927734375,0.12660172581672668,-0.1464548259973526,0.005650499369949102
1775728177317479200,16.690479248046874,0.17363831400871277,-0.1776089370250702,0.11866047978401184
1775728177336007700,16.709007568359375,0.09178243577480316,-0.10980294644832611,0.1363755613565445
1775728177354536200,16.7275361328125,0.0038179049734026194,-0.004734201822429895,-0.03588830679655075
1775728177373064400,16.746064453125,-0.004734201822429895,-0.005955931730568409,-0.15256348252296448
1775728177391593000,16.764593017578125,-0.004123337101191282,0.016035201027989388,-0.05299251899123192
1775728177410121200,16.783121337890623,-0.0334448479115963,0.08017600327730179,0.05146535858511925
1775728177428649700,16.801649658203125,-0.02672533318400383,-0.003512472379952669,-0.009621120058000088
1775728177447178000,16.820177978515623,-0.05482511222362518,-0.043829549103975296,-0.0743727833032608
1775728177465706500,16.83870654296875,-0.13729186356067657,0.06246092543005943,-0.0847574844956398
1775728177484234800,16.85723486328125,-0.1519526094198227,0.11499529331922531,-0.08414662629365921
1775728177502763300,16.87576318359375,-0.10247256606817245,0.1003345400094986,-0.09147699922323227
1775728177521291500,16.89429150390625,-0.15439607203006744,0.14859285950660706,-0.14278964698314667
1775728177539820000,16.912820068359373,-0.2026543915271759,0.1766926348209381,-0.10919208079576492
1775728177558348300,16.931348388671875,-0.1360701322555542,0.15286891162395477,-0.047494735568761826
1775728177576876800,16.949876708984377,-0.13362666964530945,0.0899498388171196,-0.07376192510128021
1775728177595405300,16.9684052734375,-0.16783510148525238,0.01847865991294384,-0.1617264449596405
1775728177613933600,16.98693359375,-0.1366809904575348,-0.027336198836565018,-0.15439607203006744
1775728177632462000,17.005462158203127,-0.09392046183347702,-0.02306014485657215,-0.0743727833032608
1775728177650990300,17.023990234375,-0.17821979522705078,0.13759729266166687,-0.027947064489126205
1775728177669518800,17.042518798828127,-0.18677189946174622,0.24510949850082397,-0.021838415414094925
1775728177688047000,17.061047119140625,-0.13790272176265717,0.09239330142736435,0.03191768378019333
1775728177706575600,17.07957568359375,-0.12324196845293045,-0.001679878099821508,0.1003345400094986
1775728177725104000,17.098104248046877,-0.14523309469223022,0.07528908550739288,0.23472478985786438
1775728177743632400,17.11663232421875,-0.12324196845293045,0.09789107739925385,0.40576693415641785
1775728177762161000,17.135160888671876,-0.08720094710588455,0.039248060435056686,0.5145008563995361
1775728177799217700,17.1722177734375,-0.05299251899123192,-0.48792824149131775,0.7050906419754028
1775728177817746200,17.19074609375,0.26282456517219543,-0.586888313293457,0.9506583213806152
1775728177836274400,17.2092744140625,0.5285507440567017,-0.6039925217628479,1.113759160041809
1775728177854803000,17.227802978515626,0.5340485572814941,-0.523969292640686,1.1730130910873413
1775728177873331500,17.24633154296875,0.6824886798858643,-0.5160280466079712,1.2890774011611938
1775728177891859700,17.264859619140626,0.8852958083152771,-0.7603739500045776,1.4479022026062012
1775728177910388200,17.28338818359375,0.9323323965072632,-0.9631810188293457,1.4161372184753418
1775728177928916700,17.301916748046875,1.0386228561401367,-1.3571888208389282,1.3544399738311768
1775728177947445200,17.3204453125,1.0667226314544678,-1.5899282693862915,1.364824652671814
1775728177965973500,17.338973388671874,0.8865175247192383,-0.596662163734436,1.2035562992095947
1775728177984502000,17.357501953125,0.7026472091674805,0.09056070446968079,1.0111339092254639
1775728178003030500,17.376030517578126,0.6959276795387268,-0.5832231640815735,0.6183478832244873
1775728178021558800,17.394558837890624,0.5652026534080505,-1.2802199125289917,0.2188423126935959
1775728178040087300,17.41308740234375,0.314748078584671,-1.142775297164917,0.1980729103088379
1775728178058615800,17.43161572265625,0.17302745580673218,-0.6834049820899963,0.32879796624183655
1775728178077144300,17.450144287109374,0.14859285950660706,-0.38041603565216064,0.24694208800792694
1775728178095672600,17.468672607421876,0.08933897316455841,-0.11896591633558273,0.026419902220368385
1775728178114201000,17.487201171875,-0.01206457894295454,-0.06154462695121765,-0.12935061752796173
1775728178132729600,17.5057294921875,0.01359174121171236,-0.1464548259973526,-0.3107774555683136
1775728178151258000,17.524258056640626,0.055741410702466965,-0.018784092739224434,-0.6101012229919434
1775728178169786600,17.54278662109375,0.03802633285522461,0.11682789027690887,-0.8587231636047363
1775728178188315000,17.56131494140625,0.1052214577794075,0.011759147047996521,-0.8874338269233704
1775728178206843400,17.579843505859376,-0.002901607658714056,0.15592323243618011,-0.7628173828125
1775728178225372000,17.598371826171874,-0.1262962967157364,0.3685041666030884,-0.718224287033081
1775728178243900400,17.616900390625,-0.14217877388000488,0.7148644924163818,-0.7805324792861938
1775728178262428700,17.6354287109375,-0.12202023714780807,0.9469931125640869,-0.7994692921638489
1775728178280957200,17.653957275390624,-0.028557928279042244,1.2841905355453491,-0.6663007736206055
1775728178299485700,17.672485595703126,-0.031001387163996696,1.401476502418518,-0.7225003242492676
1775728178318014200,17.69101416015625,-0.07009673118591309,1.1601849794387817,-0.9717331528663635
1775728178336542700,17.709542724609374,0.06490438431501389,0.7942769527435303,-1.2508983612060547
1775728178355071200,17.7280712890625,0.11743875592947006,0.8309288024902344,-1.3425281047821045
1775728178373599700,17.746599853515626,0.0062613640911877155,0.9616538882255554,-1.3474149703979492
1775728178392128000,17.7651279296875,0.04718930274248123,0.8034399151802063,-1.0609194040298462
1775728178410656500,17.783656494140626,0.04169152304530144,0.8492547869682312,-0.8538362383842468
1775728178429185000,17.80218505859375,0.042913250625133514,0.6562215089797974,-0.9222530722618103
1775728178447713500,17.820713623046874,0.08811724185943604,0.4436405599117279,-0.957683265209198
1775728178466242000,17.839241943359376,0.20540328323841095,0.10461059212684631,-0.957072377204895
1775728178484770600,17.8577705078125,0.3623955249786377,-0.2942841053009033,-1.050534725189209
1775728178503299000,17.876299072265624,0.439364492893219,-0.698676586151123,-1.1922553777694702
1775728178521827600,17.89482763671875,0.4387536346912384,-0.8220712542533875,-1.2179116010665894
1775728178540356000,17.913356201171876,-0.1256854236125946,-0.3119991719722748,-0.8324559926986694
1775728178558884600,17.931884521484374,-0.5978838801383972,0.33001968264579773,0.0038179049734026194
1775728178577412900,17.950412841796876,-0.9967786073684692,0.27137666940689087,0.5810851454734802
1775728178595941400,17.96894140625,-1.1727076768875122,-0.10797034949064255,0.7148644924163818
1775728178614470000,17.987469970703124,-0.9534072279930115,-0.7066178321838379,1.0367902517318726
1775728178632998400,18.005998291015626,-0.2735147178173065,-0.8391754627227783,1.1858412027359009
1775728178651527000,18.02452685546875,0.6757691502571106,-0.6296488642692566,0.33307403326034546
1775728178670055400,18.043055419921874,1.1058179140090942,0.1766926348209381,-0.6730202436447144
1775728178688584000,18.061583984375,0.9402735829353333,0.4277580678462982,-1.2044726610183716
1775728178707112400,18.080112548828126,0.12171480804681778,0.6378955245018005,-0.4353938698768616
1775728178725641000,18.098640869140624,-0.5312996506690979,0.8657481074333191,0.2909243404865265
1775728178744169500,18.11716943359375,-0.8941532969474792,0.9133955836296082,-0.2759581506252289
1775728178762698000,18.135697998046876,-0.5917752385139465,0.21151192486286163,-0.9558506608009338
1775728178781226500,18.1542265625,-0.21731515228748322,-0.3730856776237488,-0.7744238376617432
1775728178818283500,18.191283447265626,-0.23075416684150696,-0.2631300091743469,-1.1293362379074097
1775728178836812000,18.20981201171875,-0.2441931962966919,-0.3046688139438629,-1.0285435914993286
1775728178855340500,18.228340576171874,-0.48914995789527893,0.09117157012224197,-0.8617774844169617
1775728178873869000,18.246869140625,-0.5697841048240662,0.4644099473953247,-0.5789470672607422
1775728178892397600,18.2653974609375,-0.6302597522735596,0.615293562412262,-0.2441931962966919
1775728178910926000,18.283926025390624,-0.5850557684898376,0.8077159523963928,-0.12018764764070511
1775728178929454600,18.30245458984375,-0.2545779049396515,0.7918334603309631,0.17424917221069336
1775728178947983000,18.320983154296876,-0.004123337101191282,0.6000219583511353,0.2683223485946655
1775728178966511600,18.33951171875,-0.014508038759231567,0.3477347791194916,0.4448622763156891
1775728178985040100,18.3580400390625,-0.040775224566459656,0.24327689409255981,0.5560396909713745
1775728179003568600,18.376568603515626,-0.08781181275844574,0.48701193928718567,0.57008957862854
1775728179022097200,18.39509716796875,-0.03894263133406639,0.5334376692771912,0.3721693754196167
1775728179040625700,18.413625732421874,0.1308777779340744,0.212733656167984,0.3043633699417114
1775728179059154200,18.432154296875,0.14370593428611755,0.039858926087617874,0.7179188132286072
1775728179077682700,18.4506826171875,-0.006566796451807022,0.025809036567807198,1.0844377279281616
1775728179096211200,18.469211181640624,0.08078686892986298,-0.43722647428512573,0.744796872138977
1775728179114739700,18.48773974609375,0.1669187992811203,-0.8953750729560852,0.47357290983200073
1775728179133268200,18.506268310546876,0.09544762223958969,-0.9308052062988281,0.6134609580039978
1775728179151796700,18.524796630859374,-0.0487164668738842,-0.5441278219223022,1.399643898010254
1775728179170325200,18.5433251953125,0.1925751268863678,-0.503810703754425,1.881616234779358
1775728179188854000,18.56185400390625,0.5352702736854553,-1.131779670715332,1.2078323364257812
1775728179216646700,18.589646728515625,0.5823068618774414,-1.1091777086257935,1.1644610166549683
1775728179235175200,18.608175048828127,0.6568323373794556,-0.44150251150131226,1.6079487800598145
1775728179253703700,18.62670361328125,0.8413135409355164,-0.20570871233940125,2.251800298690796
1775728179272232200,18.645232177734375,0.9195042252540588,-0.11652245372533798,2.300058603286743
1775728179290760700,18.6637607421875,0.4747946560382843,-0.11407899856567383,1.743560791015625
1775728179309289200,18.682289306640627,0.025809036567807198,-0.17088942229747772,1.8693989515304565
1775728179327817700,18.700817626953125,-0.0798705667257309,-0.5410735011100769,1.788153886795044
1775728179346346500,18.719346435546875,0.6378955245018005,-1.07558012008667,1.0978766679763794
1775728179364875000,18.737875,1.1351394653320312,-1.308930516242981,0.6757691502571106
1775728179383403500,18.756403564453127,1.1467459201812744,-0.4195113778114319,0.4656316637992859
1775728179401932000,18.77493212890625,0.7979421019554138,0.3764454126358032,0.45707955956459045
1775728179420460500,18.79346044921875,0.4179842174053192,0.7276926636695862,0.4173733592033386
1775728179438989000,18.811989013671877,0.18585561215877533,0.5988001823425293,0.17424917221069336
1775728179457517600,18.830517578125,0.05696314200758934,0.22434009611606598,-0.35475972294807434
1775728179476046000,18.849046142578125,0.10644318908452988,-0.34498587250709534,-0.9705114364624023
1775728179494574800,18.867574951171875,0.12843431532382965,-0.6382009983062744,-1.2997674942016602
1775728179513103400,18.886103271484377,0.06490438431501389,-0.4897608458995819,-1.4372121095657349
1775728179531631900,18.9046318359375,-0.25274530053138733,-0.485484778881073,-1.50196373462677
1775728179550160400,18.923160400390625,-0.44761115312576294,-0.3871355652809143,-1.585652232170105
1775728179568689000,18.94168896484375,-0.6528617143630981,-0.3260490894317627,-1.3278672695159912
1775728179587217400,18.960217529296877,-0.7127264738082886,-0.4066832363605499,-0.9607375860214233
1775728179605746000,18.978745849609375,-0.6449204683303833,-0.425009161233902,-0.8678861260414124
1775728179624274400,18.9972744140625,-0.4799869954586029,-0.0591011680662632,-1.0963495969772339
1775728179642803200,19.01580322265625,-0.4598284661769867,0.6971494555473328,-1.4121665954589844
1775728179661331700,19.034331787109377,-0.42134398221969604,1.5981749296188354,-1.4482076168060303
1775728179679860200,19.052860107421875,-0.34926193952560425,2.1754422187805176,-1.31870436668396
1775728179698388700,19.071388671875,-0.3889681398868561,2.0807580947875977,-1.254563570022583
1775728179716917200,19.089917236328127,-0.3052796721458435,1.3251184225082397,-1.093906044960022
1775728179735445800,19.10844580078125,-0.09819651395082474,0.7026472091674805,-0.8672752976417542
1775728179753974300,19.126974365234375,0.20173808932304382,0.49373146891593933,-0.7878628373146057
1775728179772503000,19.1455029296875,0.2390008419752121,0.24510949850082397,-0.8355103135108948
1775728179791031600,19.164031494140627,0.3196350038051605,-0.1818849891424179,-0.21609342098236084
1775728179809560000,19.18256005859375,0.22739441692829132,-0.16661337018013,0.397825688123703
1775728179828088600,19.201088623046875,0.11255183815956116,-1.2551743984222412,-0.40485063195228577
1775728179846617300,19.219617431640625,-0.1262962967157364,-2.545931577682495,-1.3681844472885132
1775728179865145900,19.238145751953127,-0.31932955980300903,-1.4561488628387451,0.9524909257888794
1775728179883674400,19.25667431640625,-0.1305723488330841,-0.5031998753547668,1.5529710054397583
1775728179902203000,19.275202880859375,0.08384118974208832,-0.19349141418933868,-0.04993819445371628
1775728179920731400,19.2937314453125,0.3929387629032135,-0.019394956529140472,-0.9326378107070923
1775728179939260200,19.31226025390625,0.24510949850082397,0.31413722038269043,-0.8575014472007751
1775728179957788700,19.33078857421875,-0.02611446939408779,0.6079631447792053,-0.281455934047699
1775728179976317200,19.349317138671875,-0.024892739951610565,0.827874481678009,-0.1617264449596405
1775728179994845700,19.367845703125,-0.1715002804994583,0.6067414283752441,-0.41584619879722595
1775728180013374500,19.38637451171875,-0.29733842611312866,0.3208567202091217,-0.7402154207229614
1775728180031903000,19.404903076171873,-0.27168211340904236,-0.15745039284229279,-0.8232930302619934
1775728180050431500,19.423431396484375,-0.11285726726055145,-0.651639997959137,-0.6272054314613342
1775728180068960000,19.4419599609375,0.06368265300989151,-0.7896954417228699,-0.4598284661769867
1775728180087488800,19.46048876953125,0.15958842635154724,-0.7389936447143555,-0.23564109206199646
1775728180106017300,19.479017333984373,-0.03222311660647392,-0.5887209177017212,0.10155627131462097
1775728180124545800,19.4975458984375,-0.2649625837802887,-0.22953243553638458,0.10461059212684631
1775728180143074300,19.51607421875,-0.1617264449596405,-0.27779075503349304,0.17974695563316345
1775728180161603000,19.53460302734375,-0.14401137828826904,-0.1519526094198227,0.2701549530029297
1775728180180131600,19.553131591796873,-0.15745039284229279,-0.0010690133785828948,0.6928733587265015
1775728180198660000,19.57166015625,-0.1623373180627823,-0.23686282336711884,0.9628756046295166
1775728180217188600,19.590188720703125,-0.2942841053009033,-0.43722647428512573,1.0532835721969604
1775728180235717400,19.60871728515625,-0.4237874448299408,-0.494647741317749,1.0887137651443481
1775728180254246000,19.627245849609373,-0.5093085169792175,-0.14401137828826904,1.2505929470062256
1775728180272774400,19.6457744140625,-0.6235402226448059,0.25610506534576416,1.3300052881240845
1775728180291303200,19.66430322265625,-0.31932955980300903,0.0539088174700737,1.4772237539291382
1775728180309831700,19.682831787109375,0.13881902396678925,-0.20021092891693115,1.3697115182876587
1775728180328360200,19.701360107421873,0.4436405599117279,-0.3364337682723999,1.6421571969985962
1775728180346888700,19.719888671875,0.6885973215103149,-0.1311832070350647,1.3978112936019897
1775728180365417200,19.738417236328125,0.3306305706501007,-0.002290742937475443,1.8138102293014526
1775728180383946000,19.756946044921875,-0.21548254787921906,0.20173808932304382,2.4149012565612793
1775728180402474500,19.775474609375,0.06490438431501389,0.6311760544776917,1.9042181968688965
1775728180421003300,19.794003173828123,0.39477136731147766,0.20479241013526917,1.5352559089660645
1775728180448796200,19.821796142578126,0.531605064868927,-0.6675224900245667,1.253036379814148
1775728180467324700,19.84032470703125,1.021518588066101,-1.4543163776397705,0.9897536635398865
1775728180485853200,19.858853271484374,1.3532181978225708,-1.2820523977279663,0.6806560754776001
1775728180504381700,19.877381591796876,1.188895583152771,-0.6137663722038269,0.35995206236839294
1775728180522910500,19.895910400390626,0.3868301212787628,0.24205516278743744,0.01847865991294384
1775728180541439000,19.91443896484375,-0.29733842611312866,0.6843212842941284,-0.2484692484140396
1775728180559967700,19.9329677734375,-0.3413206934928894,0.4955640435218811,-0.6137663722038269
1775728180578496300,19.951496337890624,0.06551524996757507,-0.08781181275844574,-1.1122320890426636
1775728180597024800,19.970024658203126,0.3092502951622009,-0.5105302333831787,-1.4775291681289673
1775728180615553300,19.98855322265625,0.16019928455352783,-0.2893971800804138,-1.6559016704559326
1775728180634082000,20.00708203125,-0.10063996911048889,-0.13790272176265717,-1.633299708366394
1775728180652610600,20.025610595703125,-0.3211621642112732,-0.19960007071495056,-1.6174172163009644
1775728180671139300,20.044139404296875,-0.49220430850982666,0.058795735239982605,-1.7102686166763306
1775728180689667800,20.062667724609376,-0.5221366882324219,0.24022257328033447,-1.7499748468399048
1775728180708196400,20.0811962890625,-0.41218101978302,0.35384342074394226,-1.8495458364486694
1775728180726725000,20.09972509765625,-0.2759581506252289,0.5309942364692688,-1.8617631196975708
1775728180745253600,20.118253662109375,-0.11957678198814392,0.6287325620651245,-1.6644538640975952
1775728180763782100,20.1367822265625,-0.02977965772151947,0.8938478827476501,-1.2600613832473755
1775728180782310700,20.155310546875,-0.05482511222362518,1.2585341930389404,-0.9118683934211731
1775728180800839400,20.17383935546875,0.023365577682852745,1.226769208908081,-0.7609847784042358
1775728180819368000,20.192367919921875,0.1614210158586502,0.8895718455314636,-0.7829759120941162
1775728180837896700,20.210896728515625,0.22556181252002716,0.5254964232444763,-0.7890845537185669
1775728180856425200,20.22942529296875,0.2835939824581146,0.11743875592947006,-0.7365502119064331
1775728180874954000,20.2479541015625,0.33307403326034546,-0.04993819445371628,-0.5502364635467529
1775728180893482500,20.266482421875,0.2683223485946655,-0.009010255336761475,0.02764163166284561
1775728180912011000,20.285010986328125,0.04413498193025589,0.20357069373130798,0.4692968726158142
1775728180930539800,20.303539794921875,-0.10125083476305008,-0.1776089370250702,-0.17821979522705078
1775728180949068300,20.322068359375,-0.443945974111557,-0.6601921319961548,0.13209950923919678
1775728180967596800,20.3405966796875,-0.40485063195228577,-0.13790272176265717,1.9817980527877808
1775728180986125600,20.35912548828125,0.20906847715377808,-0.3969093859195709,1.1076505184173584
1775728181004654000,20.377654052734375,0.8034399151802063,-0.4286743700504303,-0.6235402226448059
1775728181023182800,20.396182861328125,0.60490882396698,-0.5887209177017212,-1.7676899433135986
1775728181041711400,20.41471142578125,-0.06643154472112656,0.40149086713790894,-0.32421648502349854
1775728181060240100,20.433240234375,-0.6553052067756653,1.3055707216262817,0.6207913160324097
1775728181078768600,20.4517685546875,-0.8605557680130005,1.2316560745239258,0.0001527161948615685
1775728181097297200,20.470297119140625,-0.5471821427345276,0.6549997329711914,-0.5612320303916931
1775728181115826000,20.488825927734375,-0.16294817626476288,0.43631017208099365,-0.3920224606990814
1775728181134354400,20.5073544921875,-0.17394374310970306,0.304974228143692,-0.2637408673763275
1775728181152883200,20.52588330078125,-0.10613775253295898,-0.02367101050913334,-0.45127636194229126
1775728181171411700,20.54441162109375,0.004428769461810589,-0.20937390625476837,-0.6168206930160522
1775728181189940500,20.5629404296875,-0.13973531126976013,-0.02000582218170166,-0.4555523991584778
1775728181208469000,20.581468994140625,-0.35475972294807434,0.24572035670280457,-0.14462223649024963
1775728181226997800,20.599997802734375,-0.25213444232940674,0.2536616027355194,0.09605848789215088
1775728181245526300,20.6185263671875,-0.18066325783729553,0.22067490220069885,0.16386447846889496
1775728181264055000,20.637054931640623,-0.22586725652217865,0.11377356201410294,0.2811505198478699
1775728181282583600,20.65558349609375,-0.25213444232940674,-0.22525638341903687,0.45707955956459045
1775728181301112300,20.6741123046875,-0.2747364342212677,-0.258853942155838,0.8938478827476501
1775728181319640800,20.692640869140625,-0.13240493834018707,-0.12324196845293045,1.3019055128097534
1775728181338169600,20.711169677734375,0.11804962158203125,0.08567378669977188,1.2756383419036865
1775728181356698000,20.729697998046873,0.20540328323841095,-0.019394956529140472,0.8669698238372803
1775728181375227000,20.748226806640623,-0.018173227086663246,-0.38530296087265015,0.9005674123764038
1775728181393755400,20.76675537109375,-0.13240493834018707,-0.5642863512039185,1.3410009145736694
1775728181412284000,20.785283935546875,-0.1623373180627823,-0.6589703559875488,1.5535818338394165
1775728181430812700,20.803812744140625,0.1052214577794075,-0.5832231640815735,1.8510730266571045
1775728181449341200,20.822341064453123,0.22128576040267944,-0.3969093859195709,1.8993313312530518
1775728181467870000,20.840869873046874,0.16752967238426208,-0.054214250296354294,2.4356706142425537
1775728181486398500,20.8593984375,0.1571449637413025,0.5309942364692688,2.403294801712036
1775728181504927200,20.87792724609375,0.058795735239982605,0.9561560750007629,2.025780439376831
1775728181523456000,20.8964560546875,0.08811724185943604,0.9250019788742065,1.8003711700439453
1775728181541984500,20.914984619140625,0.055741410702466965,0.8254310488700867,1.3336704969406128
1775728181560513300,20.93351318359375,0.3306305706501007,0.6006327867507935,1.060613989830017
1775728181579041800,20.952041748046874,0.7820596098899841,-0.5361865758895874,0.975703775882721
1775728181597570600,20.970570556640624,1.2096649408340454,-1.3052653074264526,0.687986433506012
1775728181616099300,20.989099365234374,1.0691660642623901,-1.1635446548461914,0.2438877671957016
1775728181634627800,21.0076279296875,0.6885973215103149,-0.45249807834625244,-0.1360701322555542
1775728181653156600,21.026156494140626,0.15897755324840546,0.15225805342197418,-0.360868364572525
1775728181671685000,21.04468505859375,-0.08109229803085327,0.08689551800489426,-0.5655080676078796
1775728181690214000,21.0632138671875,-0.14278964698314667,-0.23564109206199646,-0.9124792814254761
1775728181708742400,21.081742431640624,-0.07131846249103546,-0.43050694465637207,-1.3150391578674316
1775728181727271200,21.100271240234374,0.016646064817905426,-0.5453495383262634,-1.5893174409866333
1775728181745800000,21.118800048828124,0.06795870512723923,-0.4292852282524109,-1.6406301259994507
1775728181764328400,21.137328369140626,0.1107192412018776,-0.2857320010662079,-1.5764893293380737
1775728181782857200,21.155857177734376,-0.04321868345141411,-0.16966769099235535,-1.5880956649780273
1775728181801385700,21.1743857421875,-0.22159120440483093,-0.02916879393160343,-1.5502220392227173
1775728181819914500,21.19291455078125,-0.35475972294807434,-0.008399390615522861,-1.3296998739242554
1775728181838443300,21.211443359375,-0.3578140437602997,-0.10186170041561127,-1.029765248298645
1775728181856971800,21.2299716796875,-0.434783011674881,0.03252854943275452,-0.8019127249717712
1775728181875500500,21.24850048828125,-0.5086976289749146,0.717307984828949,-0.919198751449585
1775728181894029000,21.267029052734376,-0.3883572816848755,1.2127193212509155,-1.215468168258667
1775728181912557800,21.285557861328126,-0.2234237939119339,1.319009780883789,-1.4249948263168335
1775728181931086300,21.30408642578125,0.09728021919727325,1.1180353164672852,-1.310152292251587
1775728181949615000,21.322614990234374,0.30741769075393677,0.6293434500694275,-1.0908517837524414
1775728181968144000,21.341143798828124,0.3196350038051605,-0.09269873052835464,-0.8489493131637573
1775728181986672400,21.35967236328125,0.37949973344802856,-0.7945823669433594,-0.826958179473877
1775728182005201200,21.378201171875,0.2805396616458893,-0.7939714789390564,-0.8122974634170532
1775728182023730000,21.39672998046875,0.337350070476532,-0.5648971796035767,0.2023489624261856
1775728182042258400,21.415258544921876,0.3306305706501007,-0.5893318057060242,0.01359174121171236
1775728182060787200,21.433787109375,0.27320927381515503,-1.8293873071670532,-1.9423972368240356
1775728182079315700,21.452315673828124,-0.28695371747016907,-2.1580326557159424,-1.3034327030181885
1775728182097844500,21.470844482421874,-1.362075686454773,0.5346593856811523,3.372737169265747
1775728182116373200,21.489373291015625,-0.9198096394538879,0.5566505193710327,2.3874123096466064
1775728182134901800,21.50790185546875,0.46196648478507996,-0.0792597085237503,0.2707658112049103
1775728182153430500,21.526430419921876,1.0245729684829712,-0.7451022863388062,-1.6662863492965698
1775728182171959300,21.544959228515626,0.27137666940689087,0.33857181668281555,-1.494633436203003
1775728182190487800,21.56348779296875,-0.3761399984359741,1.6103923320770264,0.7747292518615723
1775728182209016600,21.5820166015625,-0.6186532974243164,1.806479811668396,0.5480984449386597
1775728182227545300,21.60054541015625,-0.6583595275878906,1.4448479413986206,-0.5667297840118408
1775728182246073900,21.619073974609375,-0.2130390852689743,1.0813833475112915,-0.7322741746902466
1775728182264602600,21.6376025390625,0.15470150113105774,0.9640973210334778,-0.5129737257957458
1775728182283131400,21.65613134765625,0.3006981909275055,0.7466294765472412,-0.38957902789115906
1775728182301660000,21.674659912109377,0.3422369956970215,0.304974228143692,-0.4298960864543915
1775728182320188700,21.693188720703127,0.13759729266166687,-0.1049160286784172,-0.3529271185398102
1775728182338717400,21.711717529296877,-0.27840161323547363,-0.2942841053009033,-0.16355904936790466
1775728182357246000,21.730245849609375,-0.40485063195228577,-0.36942046880722046,0.06001746281981468
1775728182375774700,21.748774658203125,-0.2802342176437378,-0.49220430850982666,0.21700970828533173
1775728182394303500,21.767303466796875,0.06734783947467804,-0.5862774848937988,0.35934120416641235
1775728182412832000,21.78583203125,0.08200860023498535,-0.47815442085266113,0.3116937577724457
1775728182431360800,21.80436083984375,-0.12751802802085876,-0.29184064269065857,0.24999640882015228
1775728182449889500,21.8228896484375,-0.21487168967723846,-0.4995346665382385,0.4705185890197754
1775728182468418000,21.84141796875,-0.2484692484140396,-0.4641045033931732,1.226769208908081
1775728182486946800,21.85994677734375,-0.45738500356674194,-0.38408124446868896,1.3880374431610107
1775728182505475600,21.8784755859375,-0.4653262495994568,-0.20998476445674896,0.8736893534660339
1775728182524004000,21.897004150390625,-0.23258677124977112,0.01908952370285988,0.7722858190536499
1775728182542532900,21.915532958984375,0.005650499369949102,0.2078467458486557,1.3715441226959229
1775728182561061600,21.9340615234375,0.21090106666088104,0.4234820008277893,1.8400774002075195
1775728182579590100,21.952590087890623,0.41187557578086853,0.1406516134738922,1.9323179721832275
1775728182598119000,21.971118896484374,0.35934120416641235,-0.15989385545253754,1.613446593284607
1775728182616647700,21.989647705078124,0.014813470654189587,0.1980729103088379,1.8131994009017944
1775728182635176200,22.00817626953125,0.03252854943275452,0.22556181252002716,2.4155120849609375
1775728182653705000,22.026705078125,0.2084576040506363,-0.041386090219020844,1.6849178075790405
1775728182672233700,22.045233642578125,0.32330018281936646,-0.4897608458995819,0.8052725195884705
1775728182690762500,22.063762451171876,0.6861538887023926,-0.9185879230499268,0.6482802629470825
1775728182709291000,22.082291015625,0.7185297012329102,-1.3602432012557983,0.6757691502571106
1775728182727819800,22.10081982421875,0.8565851449966431,-1.2270746231079102,0.5071704983711243
1775728182746348500,22.1193486328125,0.9219476580619812,-0.864220917224884,0.23472478985786438
1775728182764877300,22.137877197265624,0.6501128673553467,-0.4604393243789673,-0.0798705667257309
1775728182783405800,22.15640576171875,0.16752967238426208,-0.11102467030286789,-0.33948808908462524
1775728182801934600,22.1749345703125,-0.2441931962966919,0.1766926348209381,-0.6052142977714539
1775728182820463400,22.19346337890625,-0.2582430839538574,0.11438442766666412,-0.9222530722618103
1775728182838992100,22.2119921875,0.004428769461810589,-0.17577634751796722,-1.2954914569854736
1775728182857520600,22.230520751953126,0.14248420298099518,-0.31322091817855835,-1.6290236711502075
1775728182876049400,22.24904931640625,0.18341214954853058,-0.3205513060092926,-1.8141156435012817
1775728182894578200,22.267578125,0.09972367435693741,-0.2606865465641022,-1.864817500114441
1775728182913106700,22.286106689453124,-0.12202023714780807,0.02764163166284561,-1.8324415683746338
1775728182931635500,22.304635498046874,-0.3150535225868225,0.10583232343196869,-1.753640055656433
1775728182950164200,22.323164306640624,-0.41218101978302,0.049021899700164795,-1.5740457773208618
1775728182968692700,22.341692626953126,-0.42745262384414673,0.052076224237680435,-1.2466223239898682
1775728182987221500,22.360221435546876,-0.29245150089263916,0.16019928455352783,-1.030987024307251
1775728183005750300,22.378750244140626,-0.22708898782730103,0.6042979955673218,-1.0932952165603638
1775728183024279000,22.397279052734376,-0.12751802802085876,1.131474256515503,-1.1354448795318604
1775728183042807800,22.415807861328126,0.12293653935194016,1.523038625717163,-1.1073451042175293
1775728183061336300,22.43433642578125,0.233503058552742,1.5621339082717896,-0.8929315805435181
1775728183079865000,22.452864990234374,0.22983787953853607,1.0447314977645874,-0.6357575058937073
1775728183098393900,22.471393798828124,0.32818710803985596,0.04230238497257233,-0.5435169339179993
1775728183116922600,22.489922607421875,0.3862192630767822,-0.7988584041595459,-0.21426081657409668
1775728183135451400,22.508451416015625,0.6733257174491882,-1.068860650062561,0.7979421019554138
1775728183153980000,22.52697998046875,0.9182825088500977,-0.7780889868736267,0.9909753799438477
1775728183172508700,22.5455087890625,0.7606793642044067,-0.4689914286136627,-0.15073087811470032
1775728183191037400,22.564037353515626,0.2701549530029297,-1.0456477403640747,-1.8299981355667114
1775728183209566200,22.582566162109377,-0.1262962967157364,-0.31261005997657776,-0.2863428592681885
1775728183228094700,22.6010947265625,-0.12996147572994232,-0.0206166859716177,1.863901138305664
1775728183246623500,22.61962353515625,-0.47143489122390747,0.006872228812426329,1.6568180322647095
1775728183265152300,22.63815234375,-0.30772313475608826,-0.28206682205200195,-0.019394956529140472
1775728183283681000,22.656680908203125,0.01908952370285988,-0.08903354406356812,-1.2783873081207275
1775728183302209800,22.675209716796875,0.11194097250699997,0.5010618567466736,-1.0596976280212402
1775728183320738300,22.69373828125,0.0746782198548317,1.2774709463119507,-0.022449281066656113
1775728183339267000,22.71226708984375,-0.1360701322555542,1.7557780742645264,0.24022257328033447
1775728183357795800,22.7307958984375,-0.4757109582424164,1.8883357048034668,0.012980876490473747
1775728183376324600,22.74932470703125,-0.5893318057060242,1.7234022617340088,-0.19960007071495056
1775728183394853400,22.767853271484373,-0.49342602491378784,1.3568834066390991,-0.39507678151130676
1775728183413382100,22.786382080078123,-0.21670427918434143,0.70753413438797,-0.41706791520118713
1775728183431910700,22.80491064453125,0.03558287397027016,0.023365577682852745,-0.2753472924232483
1775728183450439400,22.823439453125,0.15592323243618011,-0.2631300091743469,-0.14767655730247498
1775728183468968200,22.84196826171875,0.04169152304530144,-0.2331976294517517,-0.004734201822429895
1775728183487497000,22.8604970703125,-0.15745039284229279,-0.18310672044754028,0.1363755613565445
1775728183506025500,22.879025390625,-0.23014330863952637,-0.27779075503349304,0.15042544901371002
1775728183524554200,22.89755419921875,-0.10186170041561127,-0.48181959986686707,0.27320927381515503
1775728183543083000,22.9160830078125,-0.05971203371882439,-0.49342602491378784,0.6140718460083008
1775728183561611800,22.93461181640625,-0.10735948383808136,-0.35048365592956543,0.5847502946853638
1775728183580140500,22.953140625,-0.19349141418933868,-0.2759581506252289,0.6195695996284485
1775728183598669300,22.97166943359375,-0.07559451460838318,-0.20570871233940125,1.2573124170303345
1775728183617198000,22.990197998046874,0.016035201027989388,-0.11407899856567383,1.6452115774154663
