time,seconds_elapsed,z,y,x
1775728160785292000,0.1582919921875,-18.75,83.56875610351562,-4.012500286102295
1775728160795292000,0.1682919921875,-16.481250762939453,82.7437515258789,-5.362500190734863
1775728160805292000,0.1782919921875,-15.318750381469727,80.55000305175781,-7.650000095367432
1775728160815292000,0.1882919921875,-15.318750381469727,80.55000305175781,-7.650000095367432
1775728160825292000,0.1982919921875,-15.90000057220459,82.42500305175781,-4.181250095367432
1775728160835292000,0.2082919921875,-18.318750381469727,82.20000457763672,-6.543750286102295
1775728160845292000,0.2182919921875,-14.906250953674316,84.22500610351562,-5.400000095367432
1775728160855292000,0.2282919921875,-14.456250190734863,80.5875015258789,-3.8625001907348633
1775728160865292000,0.2382919921875,-15.731250762939453,82.85625457763672,-4.668750286102295
1775728160875292000,0.2482919921875,-15.131250381469727,82.57500457763672,-4.875
1775728160885292000,0.2582919921875,-17.26875114440918,82.2750015258789,-4.3125
1775728160895292000,0.2682919921875,-15.15000057220459,81.45000457763672,-6.487500190734863
1775728160905292000,0.2782919921875,-16.575000762939453,84.28125,-5.90625
1775728160915292000,0.2882919921875,-16.668750762939453,81.35625457763672,-7.181250095367432
1775728160925292000,0.2982919921875,-16.51875114440918,81.1875,-7.500000476837158
1775728160935292000,0.3082919921875,-13.293750762939453,80.2125015258789,-12.43125057220459
1775728160945292000,0.3182919921875,-12.093750953674316,80.3062515258789,-10.03125
1775728160955292000,0.3282919921875,-14.86875057220459,79.25625610351562,-10.443750381469727
1775728160965292000,0.3382919921875,-14.86875057220459,80.2125015258789,-8.15625
1775728160975292000,0.3482919921875,-16.275001525878906,81.82500457763672,-1.4625000953674316
1775728160985292000,0.3582919921875,-16.256250381469727,82.63125610351562,-0.16875000298023224
1775728160995292000,0.3682919921875,-17.025001525878906,83.26875305175781,1.6687500476837158
1775728161005292000,0.3782919921875,-16.5,83.0625,-3.187500238418579
1775728161015292000,0.3882919921875,-15.80625057220459,83.00625610351562,0.7312500476837158
1775728161025292000,0.3982919921875,-18.993751525878906,83.60625457763672,2.2125000953674316
1775728161035292000,0.4082919921875,-17.64375114440918,82.38750457763672,0.65625
1775728161045292000,0.4182919921875,-19.275001525878906,84.28125,2.625
1775728161055292000,0.4282919921875,-15.80625057220459,84.01875305175781,3.3187501430511475
1775728161065292000,0.4382919921875,-17.475000381469727,83.8125,3.6187500953674316
1775728161075292000,0.4482919921875,-20.34375,84.1875,2.7750000953674316
1775728161085292000,0.4582919921875,-18.075000762939453,84.01875305175781,3.3937501907348633
1775728161095292000,0.4682919921875,-20.0625,83.71875,2.9625000953674316
1775728161105292000,0.4782919921875,-18.075000762939453,84.3375015258789,3.8812501430511475
1775728161115292000,0.4882919921875,-18.543750762939453,82.42500305175781,0.13125000894069672
1775728161125292000,0.4982919921875,-16.51875114440918,84.3375015258789,1.2937500476837158
1775728161135292000,0.5082919921875,-18.975000381469727,84.28125,2.625
1775728161145292000,0.5182919921875,-18.39375114440918,83.53125,2.606250047683716
1775728161155292000,0.5282919921875,-17.287500381469727,83.9625015258789,1.2375000715255737
1775728161165292000,0.5382919921875,-17.400001525878906,81.20625305175781,1.1437500715255737
1775728161175292000,0.5482919921875,-18.5625,83.9625015258789,4.668750286102295
1775728161185292000,0.5582919921875,-17.8125,83.17500305175781,3.5062501430511475
1775728161195292000,0.5682919921875,-18.356250762939453,84.91875457763672,3.562500238418579
1775728161205292000,0.5782919921875,-16.875,83.73750305175781,4.012500286102295
1775728161215292000,0.5882919921875,-19.762500762939453,84.46875,5.493750095367432
1775728161225292000,0.5982919921875,-19.89375114440918,84.2437515258789,3.2062501907348633
1775728161235292000,0.6082919921875,-17.493751525878906,83.10000610351562,3.0562500953674316
1775728161245292000,0.6182919921875,-18.375,83.92500305175781,2.6812500953674316
1775728161255292000,0.6282919921875,-17.493751525878906,83.5875015258789,3.8625001907348633
1775728161265292000,0.6382919921875,-17.493751525878906,83.5875015258789,3.8625001907348633
1775728161275292000,0.6482919921875,-20.512500762939453,83.83125305175781,3.6937501430511475
1775728161285292000,0.6582919921875,-20.043750762939453,84.09375,3.0375001430511475
1775728161295292000,0.6682919921875,-20.043750762939453,84.09375,3.0375001430511475
1775728161305292000,0.6782919921875,-18.881250381469727,83.17500305175781,4.368750095367432
1775728161315292000,0.6882919921875,-18.84375,83.98125457763672,3.1125001907348633
1775728161325292000,0.6982919921875,-19.14375114440918,83.60625457763672,3.0562500953674316
1775728161335292000,0.7082919921875,-18.84375,83.4937515258789,2.325000047683716
1775728161345292000,0.7182919921875,-18.28125,82.3687515258789,2.231250047683716
1775728161355292000,0.7282919921875,-18.412500381469727,82.78125,1.7437500953674316
1775728161365292000,0.7382919921875,-19.05000114440918,82.10625457763672,2.1937501430511475
1775728161375292000,0.7482919921875,-18.150001525878906,81.67500305175781,2.6625001430511475
1775728161385292000,0.7582919921875,-18.543750762939453,83.75625610351562,3.2062501907348633
1775728161395292000,0.7682919921875,-18.84375,83.53125,2.606250047683716
1775728161405292000,0.7782919921875,-19.012500762939453,83.1187515258789,3.093750238418579
1775728161415292000,0.7882919921875,-17.512500762939453,83.38125610351562,4.950000286102295
1775728161425292000,0.7982919921875,-20.043750762939453,85.16250610351562,6.056250095367432
1775728161435292000,0.8082919921875,-19.59375,84.09375,3.8625001907348633
1775728161445292000,0.8182919921875,-19.650001525878906,82.7437515258789,3.187500238418579
1775728161455292000,0.8282919921875,-19.743751525878906,84.03750610351562,2.5875000953674316
1775728161465292000,0.8382919921875,-19.03125,83.17500305175781,3.543750047683716
1775728161475292000,0.8482919921875,-18.356250762939453,84.88125610351562,3.281250238418579
1775728161485292000,0.8582919921875,-20.0625,83.92500305175781,4.40625
1775728161495292000,0.8682919921875,-18.412500381469727,83.8125,4.481250286102295
1775728161505292000,0.8782919921875,-18.881250381469727,82.85625457763672,3.9000000953674316
1775728161515292000,0.8882919921875,-18.881250381469727,82.6500015258789,2.4375
1775728161525292000,0.8982919921875,-19.33125114440918,82.81875610351562,2.7750000953674316
1775728161535292000,0.9082919921875,-16.725000381469727,83.4375,2.8125
1775728161545292000,0.9182919921875,-17.775001525878906,84.2437515258789,3.9937500953674316
1775728161555292000,0.9282919921875,-18.28125,83.1187515258789,4.912500381469727
1775728161565292000,0.9382919921875,-17.325000762939453,84.01875305175781,3.375000238418579
1775728161575292000,0.9482919921875,-17.34375,82.78125,1.725000023841858
1775728161585292000,0.9582919921875,-18.30000114440918,82.42500305175781,4.368750095367432
1775728161595292000,0.9682919921875,-19.3125,83.9625015258789,4.6875
1775728161605292000,0.9782919921875,-18.881250381469727,83.71875,5.606250286102295
1775728161615292000,0.9882919921875,-17.662500381469727,83.71875,5.587500095367432
1775728161625292000,0.9982919921875,-19.14375114440918,83.92500305175781,2.700000047683716
1775728161635292000,1.0082919921875,-18.900001525878906,82.91250610351562,4.331250190734863
1775728161645292000,1.0182919921875,-18.412500381469727,83.0625,3.637500047683716
1775728161655292000,1.0282919921875,-18.600000381469727,82.78125,5.137500286102295
1775728161665292000,1.0382919921875,-19.05000114440918,83.0625,4.5
1775728161675292000,1.0482919921875,-18.46875,82.80000305175781,6.131250381469727
1775728161685292000,1.0582919921875,-18.28125,83.17500305175781,5.212500095367432
1775728161695292000,1.0682919921875,-18.900001525878906,83.45625305175781,6.262500286102295
1775728161705292000,1.0782919921875,-18.600000381469727,82.6875,4.425000190734863
1775728161715292000,1.0882919921875,-17.793750762939453,83.66250610351562,4.293750286102295
1775728161725292000,1.0982919921875,-17.793750762939453,83.66250610351562,4.293750286102295
1775728161735292000,1.1082919921875,-18.900001525878906,82.96875,4.612500190734863
1775728161745292000,1.1182919921875,-18.5625,83.60625457763672,3.8812501430511475
1775728161755292000,1.1282919921875,-17.55000114440918,82.8375015258789,5.550000190734863
1775728161765292000,1.1382919921875,-17.868751525878906,82.03125,4.275000095367432
1775728161775292000,1.1482919921875,-17.475000381469727,84.41250610351562,5.137500286102295
1775728161785292000,1.1582919921875,-18.262500762939453,83.2125015258789,3.8062500953674316
1775728161795292000,1.1682919921875,-17.475000381469727,83.4375,2.8312501907348633
1775728161805292000,1.1782919921875,-18.412500381469727,82.53750610351562,1.7062500715255737
1775728161815292000,1.1882919921875,-20.100000381469727,83.32500457763672,4.575000286102295
1775728161825292000,1.1982919921875,-17.100000381469727,82.51875305175781,5.043750286102295
1775728161835292000,1.2082919921875,-17.625,84.01875305175781,3.375000238418579
1775728161845292000,1.2182919921875,-18.431251525878906,83.17500305175781,4.368750095367432
1775728161855292000,1.2282919921875,-19.21875,81.82500457763672,3.7125000953674316
1775728161865292000,1.2382919921875,-17.493751525878906,83.90625,4.350000381469727
1775728161875292000,1.2482919921875,-18.075000762939453,84.88125610351562,4.96875
1775728161885292000,1.2582919921875,-19.200000762939453,83.4937515258789,6.562500476837158
1775728161895292000,1.2682919921875,-20.100000381469727,83.32500457763672,4.575000286102295
1775728161905292000,1.2782919921875,-18.318750381469727,81.63750457763672,3.2250001430511475
1775728161915292000,1.2882919921875,-19.350000381469727,83.0250015258789,4.21875
1775728161925292000,1.2982919921875,-19.33125114440918,83.71875,4.631250381469727
1775728161935292000,1.3082919921875,-17.868751525878906,82.14375305175781,5.006250381469727
1775728161945292000,1.3182919921875,-17.662500381469727,83.10000610351562,3.9000000953674316
1775728161955292000,1.3282919921875,-19.950000762939453,82.81875610351562,3.637500047683716
1775728161965292000,1.3382919921875,-18.39375114440918,84.2437515258789,4.856250286102295
1775728161975292000,1.3482919921875,-18.600000381469727,83.34375,6.375000476837158
1775728161985292000,1.3582919921875,-18.28125,83.5875015258789,6.412500381469727
1775728161995292000,1.3682919921875,-19.200000762939453,83.0250015258789,5.0625
1775728162005292000,1.3782919921875,-17.681251525878906,82.95000457763672,4.59375
1775728162015292000,1.3882919921875,-18.450000762939453,82.42500305175781,3.5250000953674316
1775728162025292000,1.3982919921875,-19.05000114440918,82.7437515258789,4.856250286102295
1775728162035292000,1.4082919921875,-18.28125,82.57500457763672,3.6750001907348633
1775728162045292000,1.4182919921875,-16.275001525878906,82.8375015258789,1.2750000953674316
1775728162055292000,1.4282919921875,-18.84375,84.2437515258789,4.856250286102295
1775728162065292000,1.4382919921875,-19.631250381469727,82.85625457763672,2.2125000953674316
1775728162075292000,1.4482919921875,-19.21875,82.57500457763672,4.556250095367432
1775728162085292000,1.4582919921875,-19.3125,83.66250610351562,4.350000381469727
1775728162095292000,1.4682919921875,-18.131250381469727,83.0250015258789,5.025000095367432
1775728162105292000,1.4782919921875,-19.181251525878906,83.0625,3.656250238418579
1775728162115292000,1.4882919921875,-19.912500381469727,83.60625457763672,3.075000047683716
1775728162125292000,1.4982919921875,-17.83125114440918,83.41875457763672,5.25
1775728162135292000,1.5082919921875,-16.61250114440918,82.8375015258789,3.825000047683716
1775728162145292000,1.5182919921875,-17.625,83.38125610351562,1.5562500953674316
1775728162155292000,1.5282919921875,-18.412500381469727,83.00625610351562,3.2062501907348633
1775728162165292000,1.5382919921875,-17.64375114440918,81.73125457763672,-1.2937500476837158
1775728162175292000,1.5482919921875,-17.64375114440918,81.73125457763672,-1.2937500476837158
1775728162185292000,1.5582919921875,-17.325000762939453,82.57500457763672,0.26250001788139343
1775728162195292000,1.5682919921875,-17.025001525878906,81.50625610351562,-1.912500023841858
1775728162205292000,1.5782919921875,-17.793750762939453,82.05000305175781,0.03750000149011612
1775728162215292000,1.5882919921875,-18.375,84.84375,4.6875
1775728162225292000,1.5982919921875,-17.850000381469727,82.8375015258789,5.550000190734863
1775728162235292000,1.6082919921875,-19.96875,82.53750610351562,4.293750286102295
1775728162245292000,1.6182919921875,-18.131250381469727,83.2125015258789,4.650000095367432
1775728162255292000,1.6282919921875,-18.618751525878906,82.63125610351562,5.8125
1775728162265292000,1.6382919921875,-19.98750114440918,82.85625457763672,6.468750476837158
1775728162275292000,1.6482919921875,-19.98750114440918,83.34375,7.256250381469727
1775728162285292000,1.6582919921875,-18.618751525878906,83.4937515258789,7.387500286102295
1775728162295292000,1.6682919921875,-17.71875,83.15625,8.58750057220459
1775728162305292000,1.6782919921875,-19.40625,81.6187515258789,5.643750190734863
1775728162315292000,1.6882919921875,-18.9375,82.95000457763672,7.162500381469727
1775728162325292000,1.6982919921875,-19.181251525878906,84.6187515258789,7.481250286102295
1775728162335292000,1.7082919921875,-17.55000114440918,82.63125610351562,5.793750286102295
1775728162345292000,1.7182919921875,-18.65625,82.20000457763672,7.143750190734863
1775728162355292000,1.7282919921875,-16.98750114440918,82.01250457763672,6.637500286102295
1775728162365292000,1.7382919921875,-20.625,81.69375610351562,6.112500190734863
1775728162375292000,1.7482919921875,-17.493751525878906,80.45625305175781,7.068750381469727
1775728162385292000,1.7582919921875,-17.17500114440918,80.7750015258789,5.850000381469727
1775728162395292000,1.7682919921875,-19.70625114440918,83.13750457763672,8.34375
1775728162405292000,1.7782919921875,-18.637500762939453,82.3125,6.187500476837158
1775728162415292000,1.7882919921875,-19.106250762939453,82.42500305175781,6.918750286102295
1775728162425292000,1.7982919921875,-19.012500762939453,81.30000305175781,8.68125057220459
1775728162435292000,1.8082919921875,-17.887500762939453,82.66875457763672,8.625
1775728162445292000,1.8182919921875,-18.58125114440918,80.45625305175781,8.793750762939453
1775728162455292000,1.8282919921875,-18.712501525878906,81.45000457763672,8.850000381469727
1775728162465292000,1.8382919921875,-18.993751525878906,81.88125610351562,8.362500190734863
1775728162475292000,1.8482919921875,-19.33125114440918,81.67500305175781,11.15625
1775728162485292000,1.8582919921875,-17.212501525878906,80.8125,8.68125057220459
1775728162495292000,1.8682919921875,-18.993751525878906,81.73125457763672,9.037500381469727
1775728162505292000,1.8782919921875,-18.712501525878906,81.67500305175781,10.293750762939453
1775728162515292000,1.8882919921875,-18.39375114440918,81.88125610351562,9.206250190734863
1775728162525292000,1.8982919921875,-20.08125114440918,81.0562515258789,8.662500381469727
1775728162535292000,1.9082919921875,-18.46875,80.4937515258789,10.762500762939453
1775728162545292000,1.9182919921875,-16.350000381469727,79.48125457763672,8.96250057220459
1775728162555292000,1.9282919921875,-19.350000381469727,81.58125305175781,12.281250953674316
1775728162565292000,1.9382919921875,-17.681251525878906,80.66250610351562,9.375
1775728162575292000,1.9482919921875,-18.600000381469727,80.55000305175781,9.52500057220459
1775728162585292000,1.9582919921875,-19.368751525878906,80.17500305175781,9.46875
1775728162595292000,1.9682919921875,-19.462501525878906,81.9937515258789,9.956250190734863
1775728162605292000,1.9782919921875,-19.23750114440918,80.3062515258789,11.175000190734863
1775728162615292000,1.9882919921875,-17.943750381469727,82.10625457763672,10.78125
1775728162625292000,1.9982919921875,-17.943750381469727,82.10625457763672,10.78125
1775728162635292000,2.0082919921875,-18.58125114440918,80.45625305175781,8.793750762939453
1775728162645292000,2.0182919921875,-18.46875,80.0625,9.5625
1775728162655292000,2.0282919921875,-18.58125114440918,81.30000305175781,10.36875057220459
1775728162665292000,2.0382919921875,-18.75,81.09375,10.612500190734863
1775728162675292000,2.0482919921875,-18.75,81.09375,10.612500190734863
1775728162685292000,2.0582919921875,-19.51875114440918,80.83125305175781,10.575000762939453
1775728162695292000,2.0682919921875,-20.25,80.60625457763672,9
1775728162705292000,2.0782919921875,-20.73750114440918,80.32500457763672,9.675000190734863
1775728162715292000,2.0882919921875,-18.637500762939453,79.80000305175781,11.21250057220459
1775728162725292000,2.0982919921875,-19.368751525878906,80.34375,10.631250381469727
1775728162735292000,2.1082919921875,-19.368751525878906,80.7750015258789,10.987500190734863
1775728162745292000,2.1182919921875,-18.75,79.96875,8.850000381469727
1775728162755292000,2.1282919921875,-21.637500762939453,81.1500015258789,11.831250190734863
1775728162765292000,2.1382919921875,-23.193750381469727,80.5875015258789,12.187500953674316
1775728162775292000,2.1482919921875,-20.587501525878906,80.73750305175781,10.725000381469727
1775728162785292000,2.1582919921875,-20.231250762939453,81.73125457763672,10.78125
1775728162795292000,2.1682919921875,-21.356250762939453,80.10000610351562,10.631250381469727
1775728162805292000,2.1782919921875,-21.637500762939453,80.73750305175781,10.762500762939453
1775728162815292000,2.1882919921875,-21.056251525878906,79.5562515258789,8.550000190734863
1775728162825292000,2.1982919921875,-20.100000381469727,80.6812515258789,8.58750057220459
1775728162835292000,2.2082919921875,-20.118751525878906,81,10.762500762939453
1775728162845292000,2.2182919921875,-19.98750114440918,80.45625305175781,10.518750190734863
1775728162855292000,2.2282919921875,-21.5625,78.97500610351562,10.55625057220459
1775728162865292000,2.2382919921875,-19.350000381469727,81.03750610351562,11.043750762939453
1775728162875292000,2.2482919921875,-21.543750762939453,79.72500610351562,11.418750762939453
1775728162885292000,2.2582919921875,-20.15625,79.23750305175781,9.018750190734863
1775728162895292000,2.2682919921875,-20.92500114440918,79.38750457763672,10.068750381469727
1775728162905292000,2.2782919921875,-18.618751525878906,80.8687515258789,11.700000762939453
1775728162915292000,2.2882919921875,-21.39375114440918,78.97500610351562,9.71250057220459
1775728162925292000,2.2982919921875,-21.375,80.41875457763672,12.80625057220459
1775728162935292000,2.3082919921875,-20.625,79.35000610351562,9.768750190734863
1775728162945292000,2.3182919921875,-20.92500114440918,79.85625457763672,11.568750381469727
1775728162955292000,2.3282919921875,-22.78125,79.8375015258789,13.012500762939453
1775728162965292000,2.3382919921875,-22.33125114440918,79.61250305175781,13.237500190734863
1775728162975292000,2.3482919921875,-21.975000381469727,80.60625457763672,12.43125057220459
1775728162985292000,2.3582919921875,-23.0625,79.78125,11.887500762939453
1775728162995292000,2.3682919921875,-21.543750762939453,79.66875457763672,11.11875057220459
1775728163005292000,2.3782919921875,-22.3125,79.0875015258789,11.30625057220459
1775728163015292000,2.3882919921875,-21.67500114440918,80.51250457763672,11.700000762939453
1775728163025292000,2.3982919921875,-22.293750762939453,80.53125,12.71250057220459
1775728163035292000,2.4082919921875,-23.400001525878906,79.20000457763672,12.05625057220459
1775728163045292000,2.4182919921875,-21.525001525878906,80.83125305175781,13.031250953674316
1775728163055292000,2.4282919921875,-22.631250381469727,79.29375457763672,12.768750190734863
1775728163065292000,2.4382919921875,-20.981250762939453,78.75,12.487500190734863
1775728163075292000,2.4482919921875,-22.293750762939453,80.6812515258789,13.725000381469727
1775728163085292000,2.4582919921875,-22.293750762939453,80.6812515258789,13.725000381469727
1775728163095292000,2.4682919921875,-22.3125,78.9375,10.293750762939453
1775728163105292000,2.4782919921875,-21.693750381469727,79.40625,10.08750057220459
1775728163115292000,2.4882919921875,-21.693750381469727,79.875,11.58750057220459
1775728163125292000,2.4982919921875,-21.543750762939453,80.08125305175781,12.187500953674316
1775728163135292000,2.5082919921875,-20.775001525878906,80.08125305175781,12.168750762939453
1775728163145292000,2.5182919921875,-22.42500114440918,80.625,12.450000762939453
1775728163155292000,2.5282919921875,-21.412500381469727,79.9312515258789,13.706250190734863
1775728163165292000,2.5382919921875,-22.33125114440918,79.6500015258789,13.537500381469727
1775728163175292000,2.5482919921875,-20.962501525878906,79.33125305175781,12.168750762939453
1775728163185292000,2.5582919921875,-20.025001525878906,79.91250610351562,12.825000762939453
1775728163195292000,2.5682919921875,-20.962501525878906,79.1812515258789,12.843750953674316
1775728163205292000,2.5782919921875,-20.943750381469727,80.0250015258789,12.731250762939453
1775728163215292000,2.5882919921875,-20.943750381469727,79.21875,11.4375
1775728163225292000,2.5982919921875,-20.34375,79.38750457763672,11.737500190734863
1775728163235292000,2.6082919921875,-19.106250762939453,80.4000015258789,12.750000953674316
1775728163245292000,2.6182919921875,-21.95625114440918,81.35625457763672,13.293750762939453
1775728163255292000,2.6282919921875,-22.443750381469727,79.875,11.606250762939453
1775728163265292000,2.6382919921875,-20.793750762939453,79.9312515258789,12.843750953674316
1775728163275292000,2.6482919921875,-20.043750762939453,80.08125305175781,13.987500190734863
1775728163285292000,2.6582919921875,-22.33125114440918,79.40625,13.481250762939453
1775728163295292000,2.6682919921875,-20.8125,78.78750610351562,11.925000190734863
1775728163305292000,2.6782919921875,-21.056251525878906,80.83125305175781,13.012500762939453
1775728163315292000,2.6882919921875,-20.90625,81.09375,13.218750953674316
1775728163325292000,2.6982919921875,-20.08125114440918,78.63750457763672,12.581250190734863
1775728163335292000,2.7082919921875,-20.400001525878906,78.31875610351562,12.956250190734863
1775728163345292000,2.7182919921875,-20.325000762939453,80.0250015258789,11.86875057220459
1775728163355292000,2.7282919921875,-20.625,80.51250457763672,13.518750190734863
1775728163365292000,2.7382919921875,-18.787500381469727,79.7437515258789,9.9375
1775728163375292000,2.7482919921875,-17.981250762939453,80.0625,7.856250286102295
1775728163385292000,2.7582919921875,-18.450000762939453,80.28750610351562,9.318750381469727
1775728163395292000,2.7682919921875,-16.818750381469727,78.375,7.350000381469727
1775728163405292000,2.7782919921875,-19.96875,79.81875610351562,7.856250286102295
1775728163415292000,2.7882919921875,-18.731250762939453,78.78750610351562,3.3937501907348633
1775728163425292000,2.7982919921875,-17.793750762939453,79.25625610351562,3.187500238418579
1775728163435292000,2.8082919921875,-18.712501525878906,78.58125305175781,1.9500000476837158
1775728163445292000,2.8182919921875,-19.818750381469727,79.06875610351562,6.168750286102295
1775728163455292000,2.8282919921875,-19.837501525878906,79.06875610351562,7.856250286102295
1775728163465292000,2.8382919921875,-17.700000762939453,79.91250610351562,8.53125
1775728163475292000,2.8482919921875,-18.75,79.7437515258789,7.387500286102295
1775728163485292000,2.8582919921875,-20.568750381469727,80.88750457763672,10.050000190734863
1775728163495292000,2.8682919921875,-20.306251525878906,80.3062515258789,11.21250057220459
1775728163505292000,2.8782919921875,-17.850000381469727,80.98125457763672,12.393750190734863
1775728163515292000,2.8882919921875,-20.943750381469727,79.61250305175781,11.512500762939453
1775728163525292000,2.8982919921875,-20.306251525878906,80.41875457763672,11.925000190734863
1775728163535292000,2.9082919921875,-20.306251525878906,80.41875457763672,11.925000190734863
1775728163545292000,2.9182919921875,-19.200000762939453,81.03750610351562,10.18125057220459
1775728163555292000,2.9282919921875,-19.200000762939453,81.03750610351562,10.18125057220459
1775728163565292000,2.9382919921875,-19.818750381469727,80.98125457763672,10.762500762939453
1775728163575292000,2.9482919921875,-20.73750114440918,80.88750457763672,10.912500381469727
1775728163585292000,2.9582919921875,-20.606250762939453,80.71875,13.125000953674316
1775728163595292000,2.9682919921875,-21.67500114440918,80.3062515258789,12.093750953674316
1775728163605292000,2.9782919921875,-19.762500762939453,82.3125,11.287500381469727
1775728163615292000,2.9882919921875,-19.537500381469727,79.7437515258789,9.956250190734863
1775728163625292000,2.9982919921875,-19.23750114440918,79.7437515258789,9.9375
1775728163635292000,3.0082919921875,-21.075000762939453,79.9312515258789,11.15625
1775728163645292000,3.0182919921875,-19.537500381469727,80.4000015258789,11.90625
1775728163655292000,3.0282919921875,-20.625,80.34375,12.356250762939453
1775728163665292000,3.0382919921875,-19.875,80.0250015258789,12.693750381469727
1775728163675292000,3.0482919921875,-20.137500762939453,80.0250015258789,10.162500381469727
1775728163685292000,3.0582919921875,-19.78125,81.5250015258789,10.162500381469727
1775728163695292000,3.0682919921875,-19.21875,81.30000305175781,12.075000762939453
1775728163705292000,3.0782919921875,-19.087501525878906,80.08125305175781,10.575000762939453
1775728163715292000,3.0882919921875,-18.67500114440918,79.76250457763672,12.61875057220459
1775728163725292000,3.0982919921875,-20.137500762939453,80.4937515258789,11.662500381469727
1775728163735292000,3.1082919921875,-22.59375,80.08125305175781,12.206250190734863
1775728163745292000,3.1182919921875,-18.637500762939453,80.23125457763672,11.568750381469727
1775728163755292000,3.1282919921875,-18.28125,82.33125305175781,13.08750057220459
1775728163765292000,3.1382919921875,-19.387500762939453,81.1875,13.893750190734863
1775728163775292000,3.1482919921875,-19.856250762939453,81.30000305175781,14.625000953674316
1775728163785292000,3.1582919921875,-21.375,79.81875610351562,11.287500381469727
1775728163795292000,3.1682919921875,-20.868751525878906,81.88125610351562,12.656250953674316
1775728163805292000,3.1782919921875,-19.368751525878906,81.78750610351562,13.725000381469727
1775728163815292000,3.1882919921875,-19.05000114440918,81.88125610351562,12.600000381469727
1775728163825292000,3.1982919921875,-20.962501525878906,78.95625305175781,11.40000057220459
1775728163835292000,3.2082919921875,-21.337501525878906,81.20625305175781,12.262500762939453
1775728163845292000,3.2182919921875,-17.962501525878906,81.46875,10.668750762939453
1775728163855292000,3.2282919921875,-19.837501525878906,80.45625305175781,11.362500190734863
1775728163865292000,3.2382919921875,-20.34375,80.0250015258789,13.55625057220459
1775728163875292000,3.2482919921875,-20.606250762939453,81.16875457763672,13.631250381469727
1775728163885292000,3.2582919921875,-19.40625,80.3062515258789,12.037500381469727
1775728163895292000,3.2682919921875,-19.068750381469727,80.7750015258789,10.987500190734863
1775728163905292000,3.2782919921875,-18.337501525878906,79.70625305175781,10.481250762939453
1775728163915292000,3.2882919921875,-19.387500762939453,79.6500015258789,10.068750381469727
1775728163925292000,3.2982919921875,-18.76875114440918,81.1500015258789,12.731250762939453
1775728163935292000,3.3082919921875,-18.356250762939453,78.88125610351562,9.1875
1775728163945292000,3.3182919921875,-19.387500762939453,80.60625457763672,12.375000953674316
1775728163955292000,3.3282919921875,-19.818750381469727,81.69375610351562,13.012500762939453
1775728163965292000,3.3382919921875,-20.606250762939453,79.6500015258789,10.106250762939453
1775728163975292000,3.3482919921875,-17.71875,78.78750610351562,7.593750476837158
1775728163985292000,3.3582919921875,-17.71875,78.78750610351562,7.593750476837158
1775728163995292000,3.3682919921875,-16.3125,78.76875305175781,4.181250095367432
1775728164005292000,3.3782919921875,-13.83750057220459,77.92500305175781,-0.8437500596046448
1775728164015292000,3.3882919921875,-15.15000057220459,77.83125305175781,-4.931250095367432
1775728164025292000,3.3982919921875,-17.493751525878906,78,0.5250000357627869
1775728164035292000,3.4082919921875,-16.106250762939453,78.07500457763672,-1.4625000953674316
1775728164045292000,3.4182919921875,-21.450000762939453,80.66250610351562,7.631250381469727
1775728164055292000,3.4282919921875,-19.05000114440918,79.5562515258789,6.937500476837158
1775728164065292000,3.4382919921875,-19.98750114440918,81.20625305175781,13.068750381469727
1775728164075292000,3.4482919921875,-21.056251525878906,80.60625457763672,11.568750381469727
1775728164085292000,3.4582919921875,-20.756250381469727,80.34375,11.512500762939453
1775728164095292000,3.4682919921875,-20.17500114440918,79.5,10.762500762939453
1775728164105292000,3.4782919921875,-19.537500381469727,81.26250457763672,13.481250762939453
1775728164115292000,3.4882919921875,-19.256250381469727,79.91250610351562,11.100000381469727
1775728164125292000,3.4982919921875,-20.17500114440918,79.96875,12.262500762939453
1775728164135292000,3.5082919921875,-19.80000114440918,81.67500305175781,11.175000190734863
1775728164145292000,3.5182919921875,-18.356250762939453,79.95000457763672,12.225000381469727
1775728164155292000,3.5282919921875,-18.637500762939453,79.7437515258789,10.78125
1775728164165292000,3.5382919921875,-20.756250381469727,80.71875,12.281250953674316
1775728164175292000,3.5482919921875,-21.356250762939453,80.88750457763672,11.77500057220459
1775728164185292000,3.5582919921875,-20.006250381469727,80.51250457763672,12.656250953674316
1775728164195292000,3.5682919921875,-20.325000762939453,78.86250305175781,9.80625057220459
1775728164205292000,3.5782919921875,-19.856250762939453,80.19375610351562,11.325000762939453
1775728164215292000,3.5882919921875,-18.46875,79.2750015258789,8.418750762939453
1775728164225292000,3.5982919921875,-20.26875114440918,80.94375610351562,11.325000762939453
1775728164235292000,3.6082919921875,-20.118751525878906,81.69375610351562,13.012500762939453
1775728164245292000,3.6182919921875,-17.887500762939453,79.8375015258789,11.475000381469727
1775728164255292000,3.6282919921875,-20.92500114440918,79.9312515258789,12
1775728164265292000,3.6382919921875,-18.76875114440918,81.1500015258789,12.731250762939453
1775728164275292000,3.6482919921875,-19.931251525878906,81.35625457763672,9.84375
1775728164285292000,3.6582919921875,-20.625,79.61250305175781,11.512500762939453
1775728164295292000,3.6682919921875,-17.118751525878906,80.17500305175781,11.25
1775728164305292000,3.6782919921875,-17.868751525878906,80.66250610351562,12.768750190734863
1775728164315292000,3.6882919921875,-19.275001525878906,78.95625305175781,10.5
1775728164325292000,3.6982919921875,-17.55000114440918,80.75625610351562,10.93125057220459
1775728164335292000,3.7082919921875,-20.137500762939453,81.09375,13.18125057220459
1775728164345292000,3.7182919921875,-19.912500381469727,78.75,12.450000762939453
1775728164355292000,3.7282919921875,-22.012500762939453,79.72500610351562,12.262500762939453
1775728164365292000,3.7382919921875,-20.90625,81,12.487500190734863
1775728164375292000,3.7482919921875,-21.375,80.56875610351562,12.131250381469727
1775728164385292000,3.7582919921875,-21.131250381469727,78.78750610351562,11.925000190734863
1775728164395292000,3.7682919921875,-20.73750114440918,80.51250457763672,10.83750057220459
1775728164405292000,3.7782919921875,-20.34375,79.5,12.468750953674316
1775728164415292000,3.7882919921875,-21.86250114440918,79.44375610351562,12.075000762939453
1775728164425292000,3.7982919921875,-21.86250114440918,79.44375610351562,12.075000762939453
1775728164435292000,3.8082919921875,-20.775001525878906,79.70625305175781,11.381250381469727
1775728164445292000,3.8182919921875,-20.775001525878906,79.70625305175781,11.381250381469727
1775728164455292000,3.8282919921875,-21.037500381469727,81,11.643750190734863
1775728164465292000,3.8382919921875,-21.543750762939453,80.08125305175781,12.187500953674316
1775728164475292000,3.8482919921875,-20.756250381469727,80.88750457763672,13.443750381469727
1775728164485292000,3.8582919921875,-21.056251525878906,80.56875610351562,11.268750190734863
1775728164495292000,3.8682919921875,-19.368751525878906,81.30000305175781,12.918750762939453
1775728164505292000,3.8782919921875,-19.087501525878906,80.66250610351562,12.787500381469727
1775728164515292000,3.8882919921875,-20.92500114440918,81.31875610351562,14.662500381469727
1775728164525292000,3.8982919921875,-21.037500381469727,80.94375610351562,11.34375
1775728164535292000,3.9082919921875,-20.625,80.51250457763672,13.518750190734863
1775728164545292000,3.9182919921875,-21.506250381469727,81.31875610351562,13.83750057220459
1775728164555292000,3.9282919921875,-20.887500762939453,81.69375610351562,13.050000190734863
1775728164565292000,3.9382919921875,-20.90625,80.56875610351562,12.112500190734863
1775728164575292000,3.9482919921875,-21.356250762939453,81.41250610351562,13.706250190734863
1775728164585292000,3.9582919921875,-20.756250381469727,80.3062515258789,11.21250057220459
1775728164595292000,3.9682919921875,-20.887500762939453,81.69375610351562,13.050000190734863
1775728164605292000,3.9782919921875,-18.65625,79.91250610351562,11.943750381469727
1775728164615292000,3.9882919921875,-18.65625,80.1187515258789,13.387500762939453
1775728164625292000,3.9982919921875,-20.287500381469727,81.5250015258789,13.55625057220459
1775728164635292000,4.0082919921875,-16.950000762939453,81.2437515258789,13.406250953674316
1775728164645292000,4.0182919921875,-16.51875114440918,80.53125,12.843750953674316
1775728164655292000,4.0282919921875,-17.868751525878906,81.07500457763672,13.125000953674316
1775728164665292000,4.0382919921875,-17.868751525878906,81.54375457763672,14.625000953674316
1775728164675292000,4.0482919921875,-16.481250762939453,81.03750610351562,11.943750381469727
1775728164685292000,4.0582919921875,-17.100000381469727,81.03750610351562,12.80625057220459
1775728164695292000,4.0682919921875,-17.0625,82.35000610351562,13.350000381469727
1775728164705292000,4.0782919921875,-16.481250762939453,81.03750610351562,11.943750381469727
1775728164715292000,4.0882919921875,-17.55000114440918,80.98125457763672,12.393750190734863
1775728164725292000,4.0982919921875,-15.393750190734863,81.60000610351562,11.606250762939453
1775728164735292000,4.1082919921875,-13.687500953674316,81.91875457763672,10.350000381469727
1775728164745292000,4.1182919921875,-17.53125,81.01875305175781,10.987500190734863
1775728164755292000,4.1282919921875,-13.27500057220459,81.54375457763672,12.112500190734863
1775728164765292000,4.1382919921875,-13.912500381469727,80.7750015258789,12.825000762939453
1775728164775292000,4.1482919921875,-14.756250381469727,82.44375610351562,12.318750381469727
1775728164785292000,4.1582919921875,-13.83750057220459,82.5,11.737500190734863
1775728164795292000,4.1682919921875,-13.725000381469727,81.95625305175781,13.18125057220459
1775728164805292000,4.1782919921875,-12.975000381469727,81.48750305175781,11.662500381469727
1775728164815292000,4.1882919921875,-11.456250190734863,81.54375457763672,12.05625057220459
1775728164825292000,4.1982919921875,-11.006250381469727,80.71875,10.762500762939453
1775728164835292000,4.2082919921875,-10.706250190734863,80.625,10.03125
1775728164845292000,4.2182919921875,-11.287500381469727,80.66250610351562,9.487500190734863
1775728164855292000,4.2282919921875,-10.818750381469727,81.35625457763672,10.03125
1775728164865292000,4.2382919921875,-10.068750381469727,81.5250015258789,11.175000190734863
1775728164875292000,4.2482919921875,-10.668750762939453,82.63125610351562,13.65000057220459
1775728164885292000,4.2582919921875,-7.631250381469727,81.5625,10.537500381469727
1775728164895292000,4.2682919921875,-7.631250381469727,81.5625,10.537500381469727
1775728164905292000,4.2782919921875,-8.231250762939453,82.3687515258789,12.693750381469727
1775728164915292000,4.2882919921875,-9.318750381469727,81.07500457763672,10.631250381469727
1775728164925292000,4.2982919921875,-8.49375057220459,83.66250610351562,12.937500953674316
1775728164935292000,4.3082919921875,-8.25,81.5625,11.418750762939453
1775728164945292000,4.3182919921875,-6.150000095367432,79.80000305175781,8.756250381469727
1775728164955292000,4.3282919921875,-6.731250286102295,80.4937515258789,8.34375
1775728164965292000,4.3382919921875,-3.9750001430511475,82.06875610351562,10.6875
1775728164975292000,4.3482919921875,-3.075000047683716,80.51250457763672,7.687500476837158
1775728164985292000,4.3582919921875,-4.650000095367432,80.04375457763672,10.46250057220459
1775728164995292000,4.3682919921875,-6.018750190734863,79.48125457763672,9.956250190734863
1775728165005292000,4.3782919921875,-3.281250238418579,79.76250457763672,10.237500190734863
1775728165015292000,4.3882919921875,-3.562500238418579,80.08125305175781,9.018750190734863
1775728165025292000,4.3982919921875,-5.100000381469727,81.07500457763672,13.200000762939453
1775728165035292000,4.4082919921875,-2.325000047683716,80.83125305175781,9.84375
1775728165045292000,4.4182919921875,-3.562500238418579,80.73750305175781,10.987500190734863
1775728165055292000,4.4282919921875,-2.34375,80.92500305175781,10.575000762939453
1775728165065292000,4.4382919921875,-2.9625000953674316,81,11.86875057220459
1775728165075292000,4.4482919921875,-3.1312501430511475,79.98750305175781,10.125
1775728165085292000,4.4582919921875,-2.3812501430511475,79.53750610351562,9.600000381469727
1775728165095292000,4.4682919921875,-0.675000011920929,79.95000457763672,9.075000762939453
1775728165105292000,4.4782919921875,-1.9312500953674316,78.58125305175781,8.137500762939453
1775728165115292000,4.4882919921875,-2.3062500953674316,81.16875457763672,9.61875057220459
1775728165125292000,4.4982919921875,1.818750023841858,81.7125015258789,9.206250190734863
1775728165135292000,4.5082919921875,1.6125000715255737,80.26875305175781,9.487500190734863
1775728165145292000,4.5182919921875,-1.4625000953674316,79.81875610351562,10.612500190734863
1775728165155292000,4.5282919921875,-1.8750001192092896,80.4937515258789,8.49375057220459
1775728165165292000,4.5382919921875,-1.1062500476837158,80.92500305175781,9.693750381469727
1775728165175292000,4.5482919921875,-1.4625000953674316,79.21875,8.25
1775728165185292000,4.5582919921875,-0.8062500357627869,80.34375,8.30625057220459
1775728165195292000,4.5682919921875,-3.2250001430511475,80.8687515258789,9.318750381469727
1775728165205292000,4.5782919921875,-0.05625000223517418,80.66250610351562,10.46250057220459
1775728165215292000,4.5882919921875,-1.8375000953674316,81.35625457763672,8.381250381469727
1775728165225292000,4.5982919921875,-2.1937501430511475,80.23125457763672,9.168750762939453
1775728165235292000,4.6082919921875,-2.9250001907348633,80.51250457763672,8.53125
1775728165245292000,4.6182919921875,-3.5812501907348633,79.89375305175781,9.412500381469727
1775728165255292000,4.6282919921875,-5.775000095367432,82.6875,11.418750762939453
1775728165265292000,4.6382919921875,-5.381250381469727,81.0562515258789,11.381250381469727
1775728165275292000,4.6482919921875,-7.068750381469727,80.17500305175781,10.40625
1775728165285292000,4.6582919921875,-8.268750190734863,81.28125,12.05625057220459
1775728165295292000,4.6682919921875,-10.875,80.75625610351562,12.731250762939453
1775728165305292000,4.6782919921875,-12.843750953674316,81.41250610351562,12.918750762939453
1775728165315292000,4.6882919921875,-16.21875,81.16875457763672,15.506250381469727
1775728165325292000,4.6982919921875,-16.03125,81.39375305175781,13.55625057220459
1775728165335292000,4.7082919921875,-18.037500381469727,80.51250457763672,12.600000381469727
1775728165345292000,4.7182919921875,-18.037500381469727,80.51250457763672,12.600000381469727
1775728165355292000,4.7282919921875,-21.84375,80.73750305175781,14.156250953674316
1775728165365292000,4.7382919921875,-21.11250114440918,80.25,15.018750190734863
1775728165375292000,4.7482919921875,-21.975000381469727,81.20625305175781,13.968750953674316
1775728165385292000,4.7582919921875,-23.868751525878906,79.57500457763672,14.700000762939453
1775728165395292000,4.7682919921875,-23.868751525878906,79.6875,15.412500381469727
1775728165405292000,4.7782919921875,-26.437501907348633,80.23125457763672,14.887500762939453
1775728165415292000,4.7882919921875,-27.075000762939453,79.48125457763672,14.906250953674316
1775728165425292000,4.7982919921875,-28.650001525878906,77.98125457763672,15.637500762939453
1775728165435292000,4.8082919921875,-29.73750114440918,77.38125610351562,15.843750953674316
1775728165445292000,4.8182919921875,-29.718751907348633,77.6812515258789,15.33750057220459
1775728165455292000,4.8282919921875,-31.443750381469727,75.7125015258789,13.725000381469727
1775728165465292000,4.8382919921875,-32.962501525878906,75.82500457763672,14.49375057220459
1775728165475292000,4.8482919921875,-34.51875305175781,75.60000610351562,15.487500190734863
1775728165485292000,4.8582919921875,-35.90625,74.41875457763672,14.175000190734863
1775728165495292000,4.8682919921875,-36.54375076293945,73.61250305175781,14.58750057220459
1775728165505292000,4.8782919921875,-37.06875228881836,71.90625,14.006250381469727
1775728165515292000,4.8882919921875,-40.85625076293945,72.91875457763672,16.6875
1775728165525292000,4.8982919921875,-40.087501525878906,72.88125610351562,16.387500762939453
1775728165535292000,4.9082919921875,-39.82500076293945,72.375,17.26875114440918
1775728165545292000,4.9182919921875,-41.55000305175781,70.98750305175781,17.887500762939453
1775728165555292000,4.9282919921875,-42.91875076293945,70.63125610351562,16.3125
1775728165565292000,4.9382919921875,-40.33125305175781,70.9312515258789,17.568750381469727
1775728165575292000,4.9482919921875,-43.06875228881836,70.40625,15.71250057220459
1775728165585292000,4.9582919921875,-41.92500305175781,68.55000305175781,15.750000953674316
1775728165595292000,4.9682919921875,-43.03125,67.51875305175781,16.42500114440918
1775728165605292000,4.9782919921875,-43.087501525878906,69.67500305175781,14.86875057220459
1775728165615292000,4.9882919921875,-44.493751525878906,68.15625,13.912500381469727
1775728165625292000,4.9982919921875,-42.35625076293945,69.1875,15.881250381469727
1775728165635292000,5.0082919921875,-44.17500305175781,68.56875610351562,14.11875057220459
1775728165645292000,5.0182919921875,-46.42500305175781,69.60000610351562,14.381250381469727
1775728165655292000,5.0282919921875,-45.712501525878906,68.92500305175781,16.631250381469727
1775728165665292000,5.0382919921875,-41.88750076293945,69.01875305175781,14.700000762939453
1775728165675292000,5.0482919921875,-43.66875076293945,71.00625610351562,16.40625
1775728165685292000,5.0582919921875,-44.625,69.20625305175781,15.937500953674316
1775728165695292000,5.0682919921875,-42.91875076293945,70.42500305175781,16.70625114440918
1775728165705292000,5.0782919921875,-41.55000305175781,69.91875457763672,14.86875057220459
1775728165715292000,5.0882919921875,-40.95000076293945,69.76875305175781,14.68125057220459
1775728165725292000,5.0982919921875,-41.66250228881836,72.16875457763672,18.412500381469727
1775728165735292000,5.1082919921875,-40.14375305175781,72.0562515258789,17.64375114440918
1775728165745292000,5.1182919921875,-42.20625305175781,70.4625015258789,19.5
1775728165755292000,5.1282919921875,-40.3125,71.13750457763672,16.481250762939453
1775728165765292000,5.1382919921875,-41.4375,70.35000610351562,18.76875114440918
1775728165775292000,5.1482919921875,-38.94375228881836,71.56875610351562,17.662500381469727
1775728165785292000,5.1582919921875,-37.14375305175781,71.36250305175781,18.84375
1775728165795292000,5.1682919921875,-37.14375305175781,71.36250305175781,18.84375
1775728165805292000,5.1782919921875,-38.66250228881836,71.36250305175781,18.881250381469727
1775728165815292000,5.1882919921875,-37.85625076293945,72.9375,19.443750381469727
1775728165825292000,5.1982919921875,-37.85625076293945,72.9375,19.443750381469727
1775728165835292000,5.2082919921875,-36.75,74.28750610351562,20.100000381469727
1775728165845292000,5.2182919921875,-34.80000305175781,72.67500305175781,17.606250762939453
1775728165855292000,5.2282919921875,-35.04375076293945,73.98750305175781,17.306251525878906
1775728165865292000,5.2382919921875,-33.525001525878906,75.86250305175781,21.58125114440918
1775728165875292000,5.2482919921875,-31.537500381469727,74.71875,18.056251525878906
1775728165885292000,5.2582919921875,-32.962501525878906,73.40625,18.412500381469727
1775728165895292000,5.2682919921875,-32.17500305175781,73.57500457763672,17.006250381469727
1775728165905292000,5.2782919921875,-31.23750114440918,76.23750305175781,21.58125114440918
1775728165915292000,5.2882919921875,-30.356250762939453,75.5250015258789,21.84375
1775728165925292000,5.2982919921875,-29.512500762939453,76.63125610351562,19.21875
1775728165935292000,5.3082919921875,-29.287500381469727,74.8687515258789,20.850000381469727
1775728165945292000,5.3182919921875,-27.712501525878906,76.89375305175781,21.900001525878906
1775728165955292000,5.3282919921875,-28.481250762939453,76.29375457763672,20.400001525878906
1775728165965292000,5.3382919921875,-26.306251525878906,77.6812515258789,21.318750381469727
1775728165975292000,5.3482919921875,-23.381250381469727,78.26250457763672,19.368751525878906
1775728165985292000,5.3582919921875,-23.287500381469727,76.06875610351562,18.806251525878906
1775728165995292000,5.3682919921875,-25.293750762939453,76.14375305175781,20.137500762939453
1775728166005292000,5.3782919921875,-22.068750381469727,76.48125457763672,19.125
1775728166015292000,5.3882919921875,-20.325000762939453,78.09375,18.262500762939453
1775728166025292000,5.3982919921875,-19.012500762939453,77.10000610351562,19.181251525878906
1775728166035292000,5.4082919921875,-18.65625,77.26875305175781,16.087501525878906
1775728166045292000,5.4182919921875,-17.26875114440918,77.23125457763672,14.906250953674316
1775728166055292000,5.4282919921875,-14.925000190734863,78.11250305175781,12.487500190734863
1775728166065292000,5.4382919921875,-14.756250381469727,78.7125015258789,13.162500381469727
1775728166075292000,5.4482919921875,-14.100000381469727,79.89375305175781,11.8125
1775728166085292000,5.4582919921875,-11.512500762939453,79.91250610351562,12.037500381469727
1775728166095292000,5.4682919921875,-13.256250381469727,78.8062515258789,13.83750057220459
1775728166105292000,5.4782919921875,-11.71875,78.48750305175781,11.625
1775728166115292000,5.4882919921875,-13.706250190734863,79.125,14.343750953674316
1775728166125292000,5.4982919921875,-13.443750381469727,78.41250610351562,16.3125
1775728166135292000,5.5082919921875,-12.637500762939453,79.91250610351562,16.293750762939453
1775728166145292000,5.5182919921875,-11.418750762939453,79.61250305175781,15.075000762939453
1775728166155292000,5.5282919921875,-10.987500190734863,78.6187515258789,15.15000057220459
1775728166165292000,5.5382919921875,-7.987500190734863,78.22500610351562,16.6875
1775728166175292000,5.5482919921875,-9.600000381469727,79.57500457763672,15.731250762939453
1775728166185292000,5.5582919921875,-8.25,79.14375305175781,15.318750381469727
1775728166195292000,5.5682919921875,-9.1875,78.4312515258789,15.637500762939453
1775728166205292000,5.5782919921875,-10.256250381469727,78.45000457763672,15.675000190734863
1775728166215292000,5.5882919921875,-7.875000476837158,76.6875,15.543750762939453
1775728166225292000,5.5982919921875,-10.125,78.30000305175781,18.037500381469727
1775728166235292000,5.6082919921875,-9.46875,79.44375610351562,16.537500381469727
1775728166245292000,5.6182919921875,-9.46875,79.44375610351562,16.537500381469727
1775728166255292000,5.6282919921875,-5.962500095367432,79.01250457763672,14.531250953674316
1775728166265292000,5.6382919921875,-7.481250286102295,79.23750305175781,16.03125
1775728166275292000,5.6482919921875,-7.050000190734863,78.48750305175781,15.168750762939453
1775728166285292000,5.6582919921875,-7.050000190734863,79.0875015258789,16.6875
1775728166295292000,5.6682919921875,-8.4375,78.0562515258789,15.543750762939453
1775728166305292000,5.6782919921875,-9.131250381469727,79.72500610351562,15.881250381469727
1775728166315292000,5.6882919921875,-7.031250476837158,78.91875457763672,15.52500057220459
1775728166325292000,5.6982919921875,-7.500000476837158,79.03125,16.275001525878906
1775728166335292000,5.7082919921875,-7.200000286102295,79.6500015258789,17.92500114440918
1775728166345292000,5.7182919921875,-6.525000095367432,76.70625305175781,16.650001525878906
1775728166355292000,5.7282919921875,-7.181250095367432,79.33125305175781,15.750000953674316
1775728166365292000,5.7382919921875,-6.150000095367432,77.94375610351562,14.906250953674316
1775728166375292000,5.7482919921875,-7.068750381469727,77.4937515258789,14.268750190734863
1775728166385292000,5.7582919921875,-6.318750381469727,78.16875457763672,17.212501525878906
1775728166395292000,5.7682919921875,-6.112500190734863,80.08125305175781,18.412500381469727
1775728166405292000,5.7782919921875,-7.031250476837158,80.73750305175781,19.40625
1775728166415292000,5.7882919921875,-8.756250381469727,78.86250305175781,18.525001525878906
1775728166425292000,5.7982919921875,-8.512500762939453,80.64375305175781,17.025001525878906
1775728166435292000,5.8082919921875,-9.318750381469727,79.10625457763672,16.762500762939453
1775728166445292000,5.8182919921875,-10.106250762939453,78.7125015258789,16.70625114440918
1775728166455292000,5.8282919921875,-9,79.8375015258789,17.587501525878906
1775728166465292000,5.8382919921875,-9.1875,79.01250457763672,17.868751525878906
1775728166475292000,5.8482919921875,-10.350000381469727,79.80000305175781,15.506250381469727
1775728166485292000,5.8582919921875,-10.893750190734863,78.1875,17.325000762939453
1775728166495292000,5.8682919921875,-11.15625,79.33125305175781,18.262500762939453
1775728166505292000,5.8782919921875,-12.71250057220459,78.13125610351562,16.950000762939453
1775728166515292000,5.8882919921875,-14.793750762939453,78.78750610351562,16.275001525878906
1775728166525292000,5.8982919921875,-16.96875,78.82500457763672,19.03125
1775728166535292000,5.9082919921875,-18.075000762939453,77.5875015258789,19.106250762939453
1775728166545292000,5.9182919921875,-19.725000381469727,77.79375457763672,17.90625
1775728166555292000,5.9282919921875,-20.887500762939453,79.4625015258789,18.262500762939453
1775728166565292000,5.9382919921875,-23.64375114440918,79.16250610351562,19.537500381469727
1775728166575292000,5.9482919921875,-22.181251525878906,78.07500457763672,20.71875
1775728166585292000,5.9582919921875,-25.218751907348633,77.73750305175781,20.025001525878906
1775728166595292000,5.9682919921875,-26.043750762939453,76.57500457763672,20.53125
1775728166605292000,5.9782919921875,-26.568750381469727,75.22500610351562,22.40625
1775728166615292000,5.9882919921875,-28.106250762939453,74.00625610351562,20.100000381469727
1775728166625292000,5.9982919921875,-30.637500762939453,72.31875610351562,22.950000762939453
1775728166635292000,6.0082919921875,-29.400001525878906,73.53750610351562,24.562501907348633
1775728166645292000,6.0182919921875,-29.287500381469727,71.98125457763672,23.26875114440918
1775728166655292000,6.0282919921875,-32.493751525878906,71.04375457763672,22.743751525878906
1775728166665292000,6.0382919921875,-34.57500076293945,71.70000457763672,21.243751525878906
1775728166675292000,6.0482919921875,-34.650001525878906,70.20000457763672,22.087501525878906
1775728166685292000,6.0582919921875,-36.1875,69.20625305175781,21.225000381469727
1775728166695292000,6.0682919921875,-36.30000305175781,70.10625457763672,20.55000114440918
1775728166705292000,6.0782919921875,-36.30000305175781,70.10625457763672,20.55000114440918
1775728166715292000,6.0882919921875,-38.32500076293945,68.94375610351562,21.09375
1775728166725292000,6.0982919921875,-39.39375305175781,68.5875015258789,20.34375
1775728166735292000,6.1082919921875,-41.08125305175781,68.64375305175781,21.525001525878906
1775728166745292000,6.1182919921875,-40.5,67.72500610351562,21.20625114440918
1775728166755292000,6.1282919921875,-40.96875,66.97500610351562,20.36250114440918
1775728166765292000,6.1382919921875,-41.775001525878906,66.07500457763672,20.212501525878906
1775728166775292000,6.1482919921875,-41.75625228881836,66.03750610351562,19.912500381469727
1775728166785292000,6.1582919921875,-42.88125228881836,64.91250610351562,20.71875
1775728166795292000,6.1682919921875,-41.775001525878906,65.5875015258789,19.40625
1775728166805292000,6.1782919921875,-42.82500076293945,66.3375015258789,20.287500381469727
1775728166815292000,6.1882919921875,-42.712501525878906,65.51250457763672,21.39375114440918
1775728166825292000,6.1982919921875,-41.64375305175781,65.4000015258789,20.64375114440918
1775728166835292000,6.2082919921875,-43.35000228881836,64.42500305175781,19.931251525878906
1775728166845292000,6.2182919921875,-43.61250305175781,65.7750015258789,20.625
1775728166855292000,6.2282919921875,-43.48125076293945,64.5562515258789,19.125
1775728166865292000,6.2382919921875,-42.82500076293945,66.09375,20.25
1775728166875292000,6.2482919921875,-45.91875076293945,64.40625,19.725000381469727
1775728166885292000,6.2582919921875,-45.41250228881836,66.20625305175781,20.193750381469727
1775728166895292000,6.2682919921875,-44.08125305175781,63.78750228881836,17.287500381469727
1775728166905292000,6.2782919921875,-43.275001525878906,65.28750610351562,17.26875114440918
1775728166915292000,6.2882919921875,-44.962501525878906,65.36250305175781,18.600000381469727
1775728166925292000,6.2982919921875,-44.19375228881836,65.85000610351562,19.387500762939453
1775728166935292000,6.3082919921875,-43.23750305175781,66.60000610351562,17.8125
1775728166945292000,6.3182919921875,-43.51875305175781,67.3125,18.375
1775728166955292000,6.3282919921875,-42.73125076293945,67.59375,17.700000762939453
1775728166965292000,6.3382919921875,-41.55000305175781,67.0875015258789,17.71875
1775728166975292000,6.3482919921875,-40.05000305175781,66.07500457763672,16.78125
1775728166985292000,6.3582919921875,-41.98125076293945,67.72500610351562,18.693750381469727
1775728166995292000,6.3682919921875,-39.30000305175781,66.13125610351562,17.193750381469727
1775728167005292000,6.3782919921875,-36.9375,67.76250457763672,15.600000381469727
1775728167015292000,6.3882919921875,-33.20625305175781,70.66875457763672,17.606250762939453
1775728167025292000,6.3982919921875,-32.493751525878906,68.85000610351562,16.256250381469727
1775728167035292000,6.4082919921875,-31.98750114440918,69.5625,15.112500190734863
1775728167045292000,6.4182919921875,-33.50625228881836,70.89375305175781,18.225000381469727
1775728167055292000,6.4282919921875,-31.668750762939453,70.91250610351562,17.625
1775728167065292000,6.4382919921875,-30.67500114440918,69.65625,19.181251525878906
1775728167075292000,6.4482919921875,-31.275001525878906,70.40625,20.90625
1775728167085292000,6.4582919921875,-31.537500381469727,71.53125,20.137500762939453
1775728167095292000,6.4682919921875,-30.187501907348633,72.46875,23.943750381469727
1775728167105292000,6.4782919921875,-31.275001525878906,71.25,22.481250762939453
1775728167115292000,6.4882919921875,-30.48750114440918,72.09375,22.33125114440918
1775728167125292000,6.4982919921875,-28.593751907348633,72.28125,18.506250381469727
1775728167135292000,6.5082919921875,-26.756250381469727,71.70000457763672,16.23750114440918
1775728167145292000,6.5182919921875,-26.756250381469727,71.70000457763672,16.23750114440918
1775728167155292000,6.5282919921875,-24.637500762939453,72.07500457763672,17.943750381469727
1775728167165292000,6.5382919921875,-26.868751525878906,74.2125015258789,19.818750381469727
1775728167175292000,6.5482919921875,-25.368751525878906,74.41875457763672,21.225000381469727
1775728167185292000,6.5582919921875,-24.30000114440918,74.3062515258789,20.475000381469727
1775728167195292000,6.5682919921875,-24.225000381469727,75.8062515258789,19.631250381469727
1775728167205292000,6.5782919921875,-24.093751907348633,75.58125305175781,19.725000381469727
1775728167215292000,6.5882919921875,-21.20625114440918,76.3687515258789,21.76875114440918
1775728167225292000,6.5982919921875,-21.95625114440918,76.33125305175781,21.506250381469727
1775728167235292000,6.6082919921875,-21.168750762939453,76.85625457763672,20.868751525878906
1775728167245292000,6.6182919921875,-19.443750381469727,77.92500305175781,20.475000381469727
1775728167255292000,6.6282919921875,-19.462501525878906,76.51875305175781,17.662500381469727
1775728167265292000,6.6382919921875,-17.34375,77.04375457763672,19.6875
1775728167275292000,6.6482919921875,-18.693750381469727,77.25,18.48750114440918
1775728167285292000,6.6582919921875,-16.387500762939453,78.54375457763672,20.512500762939453
1775728167295292000,6.6682919921875,-16.40625,77.23125457763672,18.431251525878906
1775728167305292000,6.6782919921875,-15.487500190734863,77.83125305175781,19.068750381469727
1775728167315292000,6.6882919921875,-14.268750190734863,76.5,15.975000381469727
1775728167325292000,6.6982919921875,-14.100000381469727,76.72500610351562,14.86875057220459
1775728167335292000,6.7082919921875,-14.062500953674316,77.83125305175781,15.656250953674316
1775728167345292000,6.7182919921875,-11.02500057220459,77.8687515258789,15.99375057220459
1775728167355292000,6.7282919921875,-11.100000381469727,76.3125,16.40625
1775728167365292000,6.7382919921875,-10.481250762939453,75.73125457763672,15.018750190734863
1775728167375292000,6.7482919921875,-9.375,77.8125,16.51875114440918
1775728167385292000,6.7582919921875,-7.706250190734863,77.47500610351562,15.843750953674316
1775728167395292000,6.7682919921875,-10.912500381469727,77.23125457763672,16.725000381469727
1775728167405292000,6.7782919921875,-11.49375057220459,77.92500305175781,16.3125
1775728167415292000,6.7882919921875,-10.40625,78.76875305175781,17.006250381469727
1775728167425292000,6.7982919921875,-9.506250381469727,78.82500457763672,18.262500762939453
1775728167435292000,6.8082919921875,-8.325000762939453,77.00625610351562,15.206250190734863
1775728167445292000,6.8182919921875,-9.675000190734863,78.7125015258789,18.39375114440918
1775728167455292000,6.8282919921875,-8.0625,76.89375305175781,17.850000381469727
1775728167465292000,6.8382919921875,-9.05625057220459,78.60000610351562,17.64375114440918
1775728167475292000,6.8482919921875,-9.131250381469727,76.14375305175781,16.181251525878906
1775728167485292000,6.8582919921875,-7.743750095367432,76.72500610351562,16.6875
1775728167495292000,6.8682919921875,-8.100000381469727,76.5,19.481250762939453
1775728167505292000,6.8782919921875,-8.625,78.54375457763672,19.743751525878906
1775728167515292000,6.8882919921875,-10.162500381469727,77.64375305175781,17.90625
1775728167525292000,6.8982919921875,-8.606250762939453,79.14375305175781,19.575000762939453
1775728167535292000,6.9082919921875,-6.506250381469727,77.3062515258789,16.481250762939453
1775728167545292000,6.9182919921875,-8.4375,79.10625457763672,18.5625
1775728167555292000,6.9282919921875,-7.912500381469727,77.3062515258789,19.912500381469727
1775728167565292000,6.9382919921875,-9.543750762939453,77.4375,17.287500381469727
1775728167575292000,6.9482919921875,-9.225000381469727,78.28125,18.86250114440918
1775728167585292000,6.9582919921875,-9.075000762939453,78.28125,18
1775728167595292000,6.9682919921875,-9.075000762939453,78.28125,18
1775728167605292000,6.9782919921875,-9.05625057220459,78.67500305175781,18.075000762939453
1775728167615292000,6.9882919921875,-8.77500057220459,77.32500457763672,16.537500381469727
1775728167625292000,6.9982919921875,-10.125,77.71875,15.80625057220459
1775728167635292000,7.0082919921875,-9.71250057220459,77.4937515258789,18.58125114440918
1775728167645292000,7.0182919921875,-10.143750190734863,77.92500305175781,17.26875114440918
1775728167655292000,7.0282919921875,-8.30625057220459,78.28125,17.981250762939453
1775728167665292000,7.0382919921875,-11.02500057220459,77.8687515258789,15.99375057220459
1775728167675292000,7.0482919921875,-11.77500057220459,78.9937515258789,17.64375114440918
1775728167685292000,7.0582919921875,-12.450000762939453,76.59375,16.650001525878906
1775728167695292000,7.0682919921875,-12.581250190734863,77.4937515258789,17.662500381469727
1775728167705292000,7.0782919921875,-13.950000762939453,77.51250457763672,16.856250762939453
1775728167715292000,7.0882919921875,-13.031250953674316,78.20625305175781,18.243751525878906
1775728167725292000,7.0982919921875,-13.200000762939453,77.3062515258789,17.231250762939453
1775728167735292000,7.1082919921875,-15.000000953674316,76.95000457763672,14.812500953674316
1775728167745292000,7.1182919921875,-16.40625,76.72500610351562,16.631250381469727
1775728167755292000,7.1282919921875,-17.025001525878906,76.3125,17.137500762939453
1775728167765292000,7.1382919921875,-20.962501525878906,77.0625,17.100000381469727
1775728167775292000,7.1482919921875,-20.118751525878906,75.67500305175781,18.787500381469727
1775728167785292000,7.1582919921875,-21.9375,74.98125457763672,16.59375
1775728167795292000,7.1682919921875,-21.356250762939453,74.19375610351562,16.275001525878906
1775728167805292000,7.1782919921875,-23.043750762939453,74.7750015258789,19.40625
1775728167815292000,7.1882919921875,-25.80000114440918,74.00625610351562,18.337501525878906
1775728167825292000,7.1982919921875,-26.606250762939453,73.33125305175781,19.631250381469727
1775728167835292000,7.2082919921875,-27.20625114440918,73.48125457763672,19.818750381469727
1775728167845292000,7.2182919921875,-29.400001525878906,71.92500305175781,20.287500381469727
1775728167855292000,7.2282919921875,-27.731250762939453,72.30000305175781,21.168750762939453
1775728167865292000,7.2382919921875,-28.968751907348633,71.0625,19.556251525878906
1775728167875292000,7.2482919921875,-31.70625114440918,71.47500610351562,21.39375114440918
1775728167885292000,7.2582919921875,-33.54375076293945,71.0625,21.075000762939453
1775728167895292000,7.2682919921875,-33.22500228881836,71.51250457763672,21.731250762939453
1775728167905292000,7.2782919921875,-34.78125,69.9375,19.350000381469727
1775728167915292000,7.2882919921875,-35.56875228881836,69.07500457763672,19.5
1775728167925292000,7.2982919921875,-36.75,70.53750610351562,20.92500114440918
1775728167935292000,7.3082919921875,-37.85625076293945,68.4937515258789,18.037500381469727
1775728167945292000,7.3182919921875,-38.493751525878906,67.66875457763672,19.162500381469727
1775728167955292000,7.3282919921875,-39.16875076293945,65.90625,18.975000381469727
1775728167965292000,7.3382919921875,-40.837501525878906,65.8687515258789,17.887500762939453
1775728167975292000,7.3482919921875,-40.38750076293945,65.55000305175781,17.400001525878906
1775728167985292000,7.3582919921875,-42.375,65.26875305175781,18.09375
1775728167995292000,7.3682919921875,-42.39375305175781,64.70625305175781,18.412500381469727
1775728168005292000,7.3782919921875,-44.08125305175781,64.16250610351562,18.075000762939453
1775728168015292000,7.3882919921875,-42.86250305175781,64.59375,18.543750762939453
1775728168025292000,7.3982919921875,-44.85000228881836,64.125,17.793750762939453
1775728168035292000,7.4082919921875,-42.45000076293945,63.41250228881836,18.168750762939453
1775728168045292000,7.4182919921875,-44.306251525878906,62.19375228881836,18.262500762939453
1775728168055292000,7.4282919921875,-44.306251525878906,62.19375228881836,18.262500762939453
1775728168065292000,7.4382919921875,-45.1875,63.31875228881836,18.356250762939453
1775728168075292000,7.4482919921875,-44.71875,63.91875076293945,19.03125
1775728168085292000,7.4582919921875,-44.36250305175781,64.6500015258789,17.193750381469727
1775728168095292000,7.4682919921875,-46.275001525878906,61.98750305175781,16.875
1775728168105292000,7.4782919921875,-44.41875076293945,62.718753814697266,16.818750381469727
1775728168115292000,7.4882919921875,-44.88750076293945,61.406253814697266,13.762500762939453
1775728168125292000,7.4982919921875,-44.19375228881836,63.91875076293945,14.77500057220459
1775728168135292000,7.5082919921875,-42.09375,62.868751525878906,13.537500381469727
1775728168145292000,7.5182919921875,-44.4375,61.98750305175781,15.975000381469727
1775728168155292000,7.5282919921875,-44.70000076293945,63.056251525878906,15.61875057220459
1775728168165292000,7.5382919921875,-44.775001525878906,65.08125305175781,15.862500190734863
1775728168175292000,7.5482919921875,-43.3125,62.94375228881836,14.006250381469727
1775728168185292000,7.5582919921875,-43.25625228881836,65.60625457763672,16.912500381469727
1775728168195292000,7.5682919921875,-43.14375305175781,64.38750457763672,16.256250381469727
1775728168205292000,7.5782919921875,-42.50625228881836,65.8125,18.337501525878906
1775728168215292000,7.5882919921875,-41.10000228881836,67.29375457763672,19.162500381469727
1775728168225292000,7.5982919921875,-40.05000305175781,66.65625,19.012500762939453
1775728168235292000,7.6082919921875,-38.625,67.76250457763672,17.193750381469727
1775728168245292000,7.6182919921875,-36.056251525878906,68.0625,19.3125
1775728168255292000,7.6282919921875,-35.25,68.92500305175781,18.46875
1775728168265292000,7.6382919921875,-34.03125,69.31875610351562,19.5
1775728168275292000,7.6482919921875,-33.69375228881836,70.66875457763672,20.17500114440918
1775728168285292000,7.6582919921875,-33.22500228881836,71.41875457763672,21
1775728168295292000,7.6682919921875,-32.32500076293945,70.0875015258789,18.75
1775728168305292000,7.6782919921875,-30.525001525878906,69.75,19.068750381469727
1775728168315292000,7.6882919921875,-29.287500381469727,70.59375,20.606250762939453
1775728168325292000,7.6982919921875,-30.693750381469727,70.03125,21.806251525878906
1775728168335292000,7.7082919921875,-28.500001907348633,71.98125457763672,21.543750762939453
1775728168345292000,7.7182919921875,-27.750001907348633,71.625,20.756250381469727
1775728168355292000,7.7282919921875,-26.062501907348633,70.7437515258789,18.150001525878906
1775728168365292000,7.7382919921875,-25.012500762939453,70.20000457763672,17.025001525878906
1775728168375292000,7.7482919921875,-24.20625114440918,72.60000610351562,20.700000762939453
1775728168385292000,7.7582919921875,-25.875001907348633,73.40625,22.743751525878906
1775728168395292000,7.7682919921875,-24.168750762939453,73.9312515258789,21.243751525878906
1775728168405292000,7.7782919921875,-23.606250762939453,72.60000610351562,21.543750762939453
1775728168415292000,7.7882919921875,-23.8125,74.53125,19.368751525878906
1775728168425292000,7.7982919921875,-21.84375,74.66250610351562,19.481250762939453
1775728168435292000,7.8082919921875,-21.243751525878906,73.76250457763672,18.450000762939453
1775728168445292000,7.8182919921875,-21.1875,74.88750457763672,17.681251525878906
1775728168455292000,7.8282919921875,-21.09375,73.3125,17.100000381469727
1775728168465292000,7.8382919921875,-19.537500381469727,74.5875015258789,17.287500381469727
1775728168475292000,7.8482919921875,-17.83125114440918,75.01875305175781,16.912500381469727
1775728168485292000,7.8582919921875,-18.01875114440918,75.60000610351562,19.98750114440918
1775728168495292000,7.8682919921875,-18.731250762939453,75.97500610351562,18.243751525878906
1775728168505292000,7.8782919921875,-18.731250762939453,75.97500610351562,18.243751525878906
1775728168515292000,7.8882919921875,-17.36250114440918,76.72500610351562,20.043750762939453
1775728168525292000,7.8982919921875,-15.975000381469727,76.29375457763672,17.943750381469727
1775728168535292000,7.9082919921875,-14.737500190734863,77.08125305175781,18.20625114440918
1775728168545292000,7.9182919921875,-14.268750190734863,77.3062515258789,17.25
1775728168555292000,7.9282919921875,-13.350000381469727,76.85625457763672,15.862500190734863
1775728168565292000,7.9382919921875,-14.550000190734863,77.4000015258789,16.98750114440918
1775728168575292000,7.9482919921875,-12.300000190734863,77.0625,17.287500381469727
1775728168585292000,7.9582919921875,-12.281250953674316,77.45625305175781,17.36250114440918
1775728168595292000,7.9682919921875,-11.21250057220459,77.4937515258789,16.78125
1775728168605292000,7.9782919921875,-9.975000381469727,77.47500610351562,15.90000057220459
1775728168615292000,7.9882919921875,-10.875,78.09375,16.61250114440918
1775728168625292000,7.9982919921875,-9.693750381469727,77.08125305175781,15.675000190734863
1775728168635292000,8.0082919921875,-9.112500190734863,76.53750610351562,16.256250381469727
1775728168645292000,8.0182919921875,-7.575000286102295,76.3125,14.77500057220459
1775728168655292000,8.0282919921875,-6.525000095367432,76.1812515258789,15.562500953674316
1775728168665292000,8.0382919921875,-8.8125,76.0875015258789,14.887500762939453
1775728168675292000,8.0482919921875,-7.856250286102295,76.85625457763672,14.175000190734863
1775728168685292000,8.0582919921875,-10.3125,76.95000457763672,16.51875114440918
1775728168695292000,8.0682919921875,-7.631250381469727,75.1875,15.543750762939453
1775728168705292000,8.0782919921875,-8.850000381469727,74.8125,14.662500381469727
1775728168715292000,8.0882919921875,-7.500000476837158,78.45000457763672,14.887500762939453
1775728168725292000,8.0982919921875,-7.837500095367432,78.45000457763672,16.59375
1775728168735292000,8.1082919921875,-7.143750190734863,75.97500610351562,14.96250057220459
1775728168745292000,8.1182919921875,-5.4375,77.19375610351562,15.731250762939453
1775728168755292000,8.1282919921875,-5.775000095367432,76.38750457763672,16.98750114440918
1775728168765292000,8.1382919921875,-6.918750286102295,76.80000305175781,13.012500762939453
1775728168775292000,8.1482919921875,-8.49375057220459,76.51875305175781,15.24375057220459
1775728168785292000,8.1582919921875,-7.743750095367432,76.1812515258789,15.600000381469727
1775728168795292000,8.1682919921875,-7.237500190734863,77.2125015258789,14.081250190734863
1775728168805292000,8.1782919921875,-7.687500476837158,76.3687515258789,12.52500057220459
1775728168815292000,8.1882919921875,-6.037500381469727,77.10000610351562,15.862500190734863
1775728168825292000,8.1982919921875,-7.706250190734863,77.0625,14.77500057220459
1775728168835292000,8.2082919921875,-6.487500190734863,76.42500305175781,12.918750762939453
1775728168845292000,8.2182919921875,-7.125000476837158,75.88125610351562,14.381250381469727
1775728168855292000,8.2282919921875,-6.168750286102295,76.8375015258789,13.27500057220459
1775728168865292000,8.2382919921875,-8.58750057220459,76.80000305175781,12.05625057220459
1775728168875292000,8.2482919921875,-7.518750190734863,76.78125,12.037500381469727
1775728168885292000,8.2582919921875,-9.018750190734863,78.1500015258789,14.456250190734863
1775728168895292000,8.2682919921875,-8.662500381469727,79.2750015258789,12.825000762939453
1775728168905292000,8.2782919921875,-11.043750762939453,77.53125,16.21875
1775728168915292000,8.2882919921875,-10.706250190734863,77.94375610351562,14.737500190734863
1775728168925292000,8.2982919921875,-11.662500381469727,77.34375,15.768750190734863
1775728168935292000,8.3082919921875,-12.393750190734863,77.625,15.15000057220459
1775728168945292000,8.3182919921875,-13.162500381469727,76.8375015258789,14.02500057220459
1775728168955292000,8.3282919921875,-13.162500381469727,76.8375015258789,14.02500057220459
1775728168965292000,8.3382919921875,-17.137500762939453,76.63125610351562,14.231250762939453
1775728168975292000,8.3482919921875,-17.137500762939453,76.63125610351562,14.231250762939453
1775728168985292000,8.3582919921875,-17.381250381469727,78.65625,15.33750057220459
1775728168995292000,8.3682919921875,-19.537500381469727,77.66250610351562,15.33750057220459
1775728169015292000,8.3882919921875,-21.825000762939453,76.8375015258789,13.83750057220459
1775728169025292000,8.3982919921875,-21.075000762939453,76.81875610351562,13.818750381469727
1775728169035292000,8.4082919921875,-24.20625114440918,74.53125,15.15000057220459
1775728169045292000,8.4182919921875,-27.243751525878906,74.75625610351562,15.000000953674316
1775728169055292000,8.4282919921875,-28.200000762939453,74.34375,17.193750381469727
1775728169065292000,8.4382919921875,-27.787500381469727,73.20000457763672,17.962501525878906
1775728169075292000,8.4482919921875,-28.875001907348633,73.16250610351562,18.543750762939453
1775728169085292000,8.4582919921875,-30.562501907348633,72.75,19.068750381469727
1775728169095292000,8.4682919921875,-30.693750381469727,73.1812515258789,18.600000381469727
1775728169105292000,8.4782919921875,-31.61250114440918,72.48750305175781,17.212501525878906
1775728169115292000,8.4882919921875,-30.431251525878906,71.73750305175781,17.325000762939453
1775728169125292000,8.4982919921875,-32.83125305175781,72.95625305175781,18.75
1775728169135292000,8.5082919921875,-33.03750228881836,71.15625,17.568750381469727
1775728169145292000,8.5182919921875,-34.368751525878906,71.8125,16.875
1775728169155292000,8.5282919921875,-35.90625,71.70000457763672,18.58125114440918
1775728169165292000,8.5382919921875,-36.431251525878906,69.6187515258789,18.056251525878906
1775728169175292000,8.5482919921875,-37.66875076293945,68.88750457763672,17.25
1775728169185292000,8.5582919921875,-39.01875305175781,69.67500305175781,17.587501525878906
1775728169195292000,8.5682919921875,-39.54375076293945,67.3125,16.725000381469727
1775728169205292000,8.5782919921875,-39.78750228881836,68.94375610351562,16.762500762939453
1775728169215292000,8.5882919921875,-36.30000305175781,67.61250305175781,13.725000381469727
1775728169225292000,8.5982919921875,-37.10625076293945,67.35000610351562,16.087501525878906
1775728169235292000,8.6082919921875,-41.88750076293945,65.45625305175781,16.70625114440918
1775728169245292000,8.6182919921875,-39.5625,66.5625,15.862500190734863
1775728169255292000,8.6282919921875,-42.69375228881836,68.2125015258789,15.99375057220459
1775728169265292000,8.6382919921875,-40.78125,67.53750610351562,18.20625114440918
1775728169275292000,8.6482919921875,-41.55000305175781,67.0875015258789,17.71875
1775728169285292000,8.6582919921875,-42.78750228881836,66.30000305175781,17.45625114440918
1775728169295292000,8.6682919921875,-41.962501525878906,67.3687515258789,16.23750114440918
1775728169305292000,8.6782919921875,-41.94375228881836,67.91250610351562,15.61875057220459
1775728169315292000,8.6882919921875,-42.75,67.20000457763672,17.625
1775728169325292000,8.6982919921875,-42.01875305175781,66.30000305175781,17.4375
1775728169335292000,8.7082919921875,-40.5,66.30000305175781,17.400001525878906
1775728169345292000,8.7182919921875,-41.681251525878906,67.0875015258789,16.875
1775728169355292000,8.7282919921875,-40.76250076293945,67.3687515258789,17.043750762939453
1775728169365292000,8.7382919921875,-40.76250076293945,67.3687515258789,17.043750762939453
1775728169375292000,8.7482919921875,-38.66250228881836,67.29375457763672,18.243751525878906
1775728169385292000,8.7582919921875,-40.01250076293945,67.03125,17.381250381469727
1775728169395292000,8.7682919921875,-39.35625076293945,69.31875610351562,19.350000381469727
1775728169405292000,8.7782919921875,-39.35625076293945,69.31875610351562,19.350000381469727
1775728169415292000,8.7882919921875,-41.0625,68.2125015258789,18.618751525878906
1775728169425292000,8.7982919921875,-36.712501525878906,69.9375,16.856250762939453
1775728169435292000,8.8082919921875,-36.375,71.08125305175781,16.931251525878906
1775728169445292000,8.8182919921875,-33.76875305175781,70.85625457763672,15.412500381469727
1775728169455292000,8.8282919921875,-35.26875305175781,71.4937515258789,15.562500953674316
1775728169465292000,8.8382919921875,-34.51875305175781,72.5625,18.58125114440918
1775728169475292000,8.8482919921875,-34.33125305175781,72.35625457763672,16.275001525878906
1775728169485292000,8.8582919921875,-32.118751525878906,71.26875305175781,17.418750762939453
1775728169495292000,8.8682919921875,-30.056251525878906,73.16250610351562,15.881250381469727
1775728169505292000,8.8782919921875,-28.98750114440918,72.75,14.793750762939453
1775728169515292000,8.8882919921875,-29.325000762939453,72.4312515258789,16.856250762939453
1775728169525292000,8.8982919921875,-27.337501525878906,72.09375,15.468750953674316
1775728169535292000,8.9082919921875,-28.406251907348633,72.31875610351562,15.262500762939453
1775728169545292000,8.9182919921875,-26.325000762939453,74.8687515258789,14.850000381469727
1775728169555292000,8.9282919921875,-26.043750762939453,74.1187515258789,14.831250190734863
1775728169565292000,8.9382919921875,-24.225000381469727,73.80000305175781,14.456250190734863
1775728169575292000,8.9482919921875,-24.86250114440918,73.72500610351562,15.581250190734863
1775728169585292000,8.9582919921875,-24.86250114440918,74.47500610351562,18.11250114440918
1775728169595292000,8.9682919921875,-24.131250381469727,74.7750015258789,20.26875114440918
1775728169605292000,8.9782919921875,-23.475000381469727,75.8062515258789,19.61250114440918
1775728169615292000,8.9882919921875,-22.537500381469727,77.08125305175781,21.525001525878906
1775728169625292000,8.9982919921875,-21.618751525878906,75.3375015258789,16.368751525878906
1775728169635292000,9.0082919921875,-20.83125114440918,76.81875610351562,18.037500381469727
1775728169645292000,9.0182919921875,-21.30000114440918,76.25625610351562,17.662500381469727
1775728169655292000,9.0282919921875,-20.512500762939453,77.26875305175781,18.543750762939453
1775728169665292000,9.0382919921875,-20.025001525878906,78.13125610351562,18.543750762939453
1775728169675292000,9.0482919921875,-19.443750381469727,77.15625,17.775001525878906
1775728169685292000,9.0582919921875,-18.056251525878906,76.66875457763672,15.393750190734863
1775728169695292000,9.0682919921875,-17.700000762939453,78.65625,16.181251525878906
1775728169705292000,9.0782919921875,-17.17500114440918,76.03125,16.087501525878906
1775728169715292000,9.0882919921875,-15.262500762939453,78,15.15000057220459
1775728169725292000,9.0982919921875,-14.193750381469727,78.5250015258789,15.356250762939453
1775728169735292000,9.1082919921875,-13.256250381469727,78.97500610351562,15.000000953674316
1775728169745292000,9.1182919921875,-14.662500381469727,78.69375610351562,16.387500762939453
1775728169755292000,9.1282919921875,-12.187500953674316,79.3125,15.600000381469727
1775728169765292000,9.1382919921875,-12.375000953674316,78.76875305175781,17.0625
1775728169775292000,9.1482919921875,-11.15625,78.5625,15.562500953674316
1775728169785292000,9.1582919921875,-10.800000190734863,79.42500305175781,14.737500190734863
1775728169795292000,9.1682919921875,-9.318750381469727,78.50625610351562,15.225000381469727
1775728169805292000,9.1782919921875,-8.02500057220459,76.3125,13.93125057220459
1775728169815292000,9.1882919921875,-7.068750381469727,77.8125,14.756250381469727
1775728169825292000,9.1982919921875,-9.09375,76.63125610351562,15.15000057220459
1775728169835292000,9.2082919921875,-8.700000762939453,78.88125610351562,14.437500953674316
1775728169845292000,9.2182919921875,-8.418750762939453,78.60000610351562,15.093750953674316
1775728169855292000,9.2282919921875,-8.418750762939453,78.60000610351562,15.093750953674316
1775728169865292000,9.2382919921875,-7.987500190734863,77.66250610351562,14.606250762939453
1775728169875292000,9.2482919921875,-6.412500381469727,77.90625,12.075000762939453
1775728169885292000,9.2582919921875,-9.206250190734863,77.75625610351562,15.225000381469727
1775728169895292000,9.2682919921875,-6.881250381469727,78.01875305175781,12.825000762939453
1775728169905292000,9.2782919921875,-5.568750381469727,77.04375457763672,13.875000953674316
1775728169915292000,9.2882919921875,-8.287500381469727,77.85000610351562,15.075000762939453
1775728169925292000,9.2982919921875,-8.568750381469727,77.55000305175781,12.918750762939453
1775728169935292000,9.3082919921875,-8.325000762939453,77.10000610351562,15.918750762939453
1775728169945292000,9.3182919921875,-5.681250095367432,78.375,15.24375057220459
1775728169955292000,9.3282919921875,-6.450000286102295,78.3375015258789,14.981250762939453
1775728169965292000,9.3382919921875,-5.53125,77.5875015258789,13.256250381469727
1775728169975292000,9.3482919921875,-5.681250095367432,77.26875305175781,11.943750381469727
1775728169985292000,9.3582919921875,-8.30625057220459,77.2125015258789,14.96250057220459
1775728169995292000,9.3682919921875,-6.468750476837158,77.66250610351562,14.568750381469727
1775728170005292000,9.3782919921875,-6.131250381469727,77.70000457763672,13.162500381469727
1775728170015292000,9.3882919921875,-3.918750047683716,76.61250305175781,14.30625057220459
1775728170025292000,9.3982919921875,-4.462500095367432,77.51250457763672,12.787500381469727
1775728170035292000,9.4082919921875,-6.112500190734863,78.45000457763672,14.006250381469727
1775728170045292000,9.4182919921875,-6.412500381469727,78.76875305175781,13.65000057220459
1775728170055292000,9.4282919921875,-7.200000286102295,77.70000457763672,13.18125057220459
1775728170065292000,9.4382919921875,-8.231250762939453,79.51875305175781,15.393750190734863
1775728170075292000,9.4482919921875,-5.493750095367432,78.86250305175781,13.500000953674316
1775728170085292000,9.4582919921875,-7.931250095367432,78.28125,12.90000057220459
1775728170095292000,9.4682919921875,-5.53125,77.1187515258789,11.756250381469727
1775728170105292000,9.4782919921875,-7.650000095367432,78.45000457763672,14.043750762939453
1775728170115292000,9.4882919921875,-7.631250381469727,78.84375,14.11875057220459
1775728170125292000,9.4982919921875,-9.675000190734863,77.71875,15.787500381469727
1775728170135292000,9.5082919921875,-10.856250762939453,78.30000305175781,15.506250381469727
1775728170145292000,9.5182919921875,-11.475000381469727,78.01875305175781,15.33750057220459
1775728170155292000,9.5282919921875,-12.975000381469727,78.41250610351562,15.450000762939453
1775728170165292000,9.5382919921875,-16.33125114440918,78.48750305175781,15.843750953674316
1775728170175292000,9.5482919921875,-15.675000190734863,79.61250305175781,15.90000057220459
1775728170185292000,9.5582919921875,-16.181251525878906,78.39375305175781,16.106250762939453
1775728170195292000,9.5682919921875,-17.850000381469727,77.92500305175781,14.49375057220459
1775728170205292000,9.5782919921875,-18.95625114440918,77.53125,16.14375114440918
1775728170215292000,9.5882919921875,-20.793750762939453,77.13750457763672,15.975000381469727
1775728170225292000,9.5982919921875,-22.51875114440918,75.73125457763672,16.61250114440918
1775728170235292000,9.6082919921875,-21.900001525878906,75.07500457763672,14.625000953674316
1775728170245292000,9.6182919921875,-24.318750381469727,76.9312515258789,17.868751525878906
1775728170255292000,9.6282919921875,-24.506250381469727,75.91875457763672,18.67500114440918
1775728170265292000,9.6382919921875,-27.30000114440918,74.5875015258789,18.056251525878906
1775728170275292000,9.6482919921875,-27.30000114440918,74.4375,18.75
1775728170285292000,9.6582919921875,-27.450000762939453,74.85000610351562,18.95625114440918
1775728170295292000,9.6682919921875,-28.256250381469727,73.78125,20.193750381469727
1775728170305292000,9.6782919921875,-28.256250381469727,73.78125,20.193750381469727
1775728170315292000,9.6882919921875,-32.681251525878906,72.50625610351562,18.225000381469727
1775728170325292000,9.6982919921875,-33.78750228881836,72.45000457763672,20.36250114440918
1775728170335292000,9.7082919921875,-34.42500305175781,71.64375305175781,19.950000762939453
1775728170345292000,9.7182919921875,-33.84375,69.9937515258789,18.075000762939453
1775728170355292000,9.7282919921875,-34.85625076293945,72.13125610351562,19.912500381469727
1775728170365292000,9.7382919921875,-37.81875228881836,69.88125610351562,18.993751525878906
1775728170375292000,9.7482919921875,-38.41875076293945,69.73125457763672,18.84375
1775728170385292000,9.7582919921875,-39.76875305175781,70.5,18.881250381469727
1775728170395292000,9.7682919921875,-39.35625076293945,69.20625305175781,18.637500762939453
1775728170405292000,9.7782919921875,-40.5,67.57500457763672,20.17500114440918
1775728170415292000,9.7882919921875,-40.01250076293945,66.97500610351562,16.950000762939453
1775728170425292000,9.7982919921875,-41.70000076293945,66.88125610351562,17.118751525878906
1775728170435292000,9.8082919921875,-42.056251525878906,64.95000457763672,16.762500762939453
1775728170445292000,9.8182919921875,-43.25625228881836,65.66250610351562,17.34375
1775728170455292000,9.8282919921875,-44.17500305175781,65.0250015258789,16.40625
1775728170465292000,9.8382919921875,-44.32500076293945,65.92500305175781,17.418750762939453
1775728170475292000,9.8482919921875,-44.8125,64.21875,15.99375057220459
1775728170485292000,9.8582919921875,-44.400001525878906,63.375003814697266,16.950000762939453
1775728170495292000,9.8682919921875,-43.275001525878906,64.3687515258789,15.262500762939453
1775728170505292000,9.8782919921875,-44.10000228881836,63.03750228881836,16.443750381469727
1775728170515292000,9.8882919921875,-47.4375,62.75625228881836,14.362500190734863
1775728170525292000,9.8982919921875,-46.29375076293945,65.625,17.006250381469727
1775728170535292000,9.9082919921875,-46.21875,63.50625228881836,16.162500381469727
1775728170545292000,9.9182919921875,-44.79375076293945,64.875,16.106250762939453
1775728170555292000,9.9282919921875,-44.85000228881836,63.056251525878906,14.77500057220459
1775728170565292000,9.9382919921875,-47.25,63.60000228881836,15.093750953674316
1775728170575292000,9.9482919921875,-45,62.85000228881836,14.175000190734863
1775728170585292000,9.9582919921875,-44.15625,65.6812515258789,16.537500381469727
1775728170595292000,9.9682919921875,-46.48125076293945,64.23750305175781,15.187500953674316
1775728170605292000,9.9782919921875,-43.59375,64.53750610351562,16.443750381469727
1775728170615292000,9.9882919921875,-42.82500076293945,64.81875610351562,15.768750190734863
1775728170625292000,9.9982919921875,-44.94375228881836,65.13750457763672,17.15625
1775728170635292000,10.0082919921875,-44.26875305175781,66.84375,16.89375114440918
1775728170645292000,10.0182919921875,-44.90625,66.31875610351562,16.668750762939453
1775728170655292000,10.0282919921875,-43.38750076293945,66.0562515258789,16.575000762939453
1775728170665292000,10.0382919921875,-42.618751525878906,67.01250457763672,18.86250114440918
1775728170675292000,10.0482919921875,-40.743751525878906,68.0625,17.606250762939453
1775728170685292000,10.0582919921875,-40.875,68.85000610351562,17.887500762939453
1775728170695292000,10.0682919921875,-39.48750305175781,69.375,18.09375
1775728170705292000,10.0782919921875,-37.06875228881836,69.03750610351562,17.400001525878906
1775728170715292000,10.0882919921875,-35.36250305175781,69.30000305175781,15.862500190734863
1775728170725292000,10.0982919921875,-35.306251525878906,71.4937515258789,18.11250114440918
1775728170735292000,10.1082919921875,-36.09375,71.4937515258789,19.818750381469727
1775728170745292000,10.1182919921875,-34.53750228881836,72.3375015258789,19.668750762939453
1775728170755292000,10.1282919921875,-34.53750228881836,72.3375015258789,19.668750762939453
1775728170765292000,10.1382919921875,-34.125,71.66250610351562,20.92500114440918
1775728170775292000,10.1482919921875,-33.03750228881836,71.625,19.068750381469727
1775728170785292000,10.1582919921875,-32.25,72.0562515258789,17.71875
1775728170795292000,10.1682919921875,-30.168750762939453,71.08125305175781,18.75
1775728170805292000,10.1782919921875,-30.000001907348633,71.2125015258789,17.90625
1775728170815292000,10.1882919921875,-28.368751525878906,70.10625457763672,18.09375
1775728170825292000,10.1982919921875,-29.043750762939453,73.20000457763672,20.53125
1775728170835292000,10.2082919921875,-27.712501525878906,73.05000305175781,22.012500762939453
1775728170845292000,10.2182919921875,-28.575000762939453,74.4375,22.162500381469727
1775728170855292000,10.2282919921875,-27.618751525878906,75.01875305175781,20.981250762939453
1775728170865292000,10.2382919921875,-26.906251907348633,73.25625610351562,19.21875
1775728170875292000,10.2482919921875,-25.181251525878906,74.53125,18.5625
1775728170885292000,10.2582919921875,-24.337501525878906,75.4312515258789,16.162500381469727
1775728170895292000,10.2682919921875,-24.356250762939453,75.63750457763672,17.625
1775728170905292000,10.2782919921875,-23.006250381469727,76.01250457763672,19.350000381469727
1775728170915292000,10.2882919921875,-25.575000762939453,76.06875610351562,18.86250114440918
1775728170925292000,10.2982919921875,-21.11250114440918,76.53750610351562,16.162500381469727
1775728170935292000,10.3082919921875,-20.306251525878906,77.625,15.075000762939453
1775728170945292000,10.3182919921875,-20.475000381469727,76.35000610351562,13.987500190734863
1775728170955292000,10.3282919921875,-18.168750762939453,76.875,13.312500953674316
1775728170965292000,10.3382919921875,-18.618751525878906,77.13750457763672,13.387500762939453
1775728170975292000,10.3482919921875,-17.868751525878906,77.34375,14.812500953674316
1775728170985292000,10.3582919921875,-17.475000381469727,75.91875457763672,15.375000953674316
1775728170995292000,10.3682919921875,-14.850000381469727,77.19375610351562,15.543750762939453
1775728171005292000,10.3782919921875,-13.74375057220459,77.41875457763672,12.881250381469727
1775728171015292000,10.3882919921875,-11.418750762939453,76.78125,8.456250190734863
1775728171025292000,10.3982919921875,-12.581250190734863,76.85625457763672,15.843750953674316
1775728171035292000,10.4082919921875,-10.425000190734863,77.56875610351562,14.793750762939453
1775728171045292000,10.4182919921875,-11.96250057220459,77.4937515258789,16.80000114440918
1775728171055292000,10.4282919921875,-9.975000381469727,77.38125610351562,15.168750762939453
1775728171065292000,10.4382919921875,-10.6875,78.65625,15.43125057220459
1775728171075292000,10.4482919921875,-9.918750762939453,79.5562515258789,17.287500381469727
1775728171085292000,10.4582919921875,-10.875,78.01875305175781,16.162500381469727
1775728171095292000,10.4682919921875,-9.05625057220459,77.00625610351562,13.518750190734863
1775728171105292000,10.4782919921875,-9.956250190734863,78.01875305175781,15.300000190734863
1775728171115292000,10.4882919921875,-10.106250762939453,77.8687515258789,15.131250381469727
1775728171125292000,10.4982919921875,-8.700000762939453,78.39375305175781,13.65000057220459
1775728171135292000,10.5082919921875,-10.36875057220459,79.20000457763672,15.675000190734863
1775728171145292000,10.5182919921875,-10.425000190734863,77.98125457763672,15.862500190734863
1775728171155292000,10.5282919921875,-10.387500762939453,78.46875,14.96250057220459
1775728171165292000,10.5382919921875,-8.268750190734863,79.14375305175781,17.025001525878906
1775728171175292000,10.5482919921875,-9.450000762939453,79.14375305175781,14.512500762939453
1775728171185292000,10.5582919921875,-7.987500190734863,77.70000457763672,14.906250953674316
1775728171195292000,10.5682919921875,-7.800000190734863,78.84375,14.96250057220459
1775728171205292000,10.5782919921875,-7.800000190734863,78.84375,14.96250057220459
1775728171215292000,10.5882919921875,-9.487500190734863,77.71875,13.256250381469727
1775728171225292000,10.5982919921875,-9.46875,78.03750610351562,12.881250381469727
1775728171235292000,10.6082919921875,-9.46875,78.03750610351562,12.881250381469727
1775728171245292000,10.6182919921875,-10.668750762939453,79.01250457763672,15.225000381469727
1775728171255292000,10.6282919921875,-7.575000286102295,78.95625305175781,10.612500190734863
1775728171265292000,10.6382919921875,-8.700000762939453,78.2437515258789,12.61875057220459
1775728171275292000,10.6482919921875,-9.543750762939453,79.7437515258789,12.656250953674316
1775728171285292000,10.6582919921875,-9.43125057220459,79.63125610351562,15.300000190734863
1775728171305292000,10.6782919921875,-8.68125057220459,78.73125457763672,13.425000190734863
1775728171315292000,10.6882919921875,-11.137500762939453,78.41250610351562,14.550000190734863
1775728171325292000,10.6982919921875,-10.987500190734863,78.46875,14.137500762939453
1775728171335292000,10.7082919921875,-9.1875,77.8687515258789,14.250000953674316
1775728171345292000,10.7182919921875,-11.887500762939453,78.65625,13.631250381469727
1775728171355292000,10.7282919921875,-11.193750381469727,76.9312515258789,14.700000762939453
1775728171365292000,10.7382919921875,-12.356250762939453,78.26250457763672,13.575000762939453
1775728171375292000,10.7482919921875,-12.637500762939453,78.48750305175781,12.487500190734863
1775728171385292000,10.7582919921875,-12.318750381469727,79.1812515258789,13.050000190734863
1775728171395292000,10.7682919921875,-13.668750762939453,79.20000457763672,12.225000381469727
1775728171405292000,10.7782919921875,-14.02500057220459,78.97500610351562,15.018750190734863
1775728171415292000,10.7882919921875,-16.631250381469727,77.60625457763672,14.11875057220459
1775728171425292000,10.7982919921875,-16.443750381469727,78.13125610351562,12.52500057220459
1775728171435292000,10.8082919921875,-18.881250381469727,78.95625305175781,14.718750953674316
1775728171445292000,10.8182919921875,-20.418750762939453,78.58125305175781,14.68125057220459
1775728171455292000,10.8282919921875,-20.943750381469727,76.29375457763672,13.55625057220459
1775728171465292000,10.8382919921875,-22.443750381469727,76.5562515258789,13.65000057220459
1775728171475292000,10.8482919921875,-21.637500762939453,77.625,12.43125057220459
1775728171485292000,10.8582919921875,-23.493751525878906,76.91250610351562,13.46250057220459
1775728171495292000,10.8682919921875,-23.006250381469727,73.95000457763672,13.74375057220459
1775728171505292000,10.8782919921875,-27.58125114440918,74.26875305175781,15.90000057220459
1775728171515292000,10.8882919921875,-27.150001525878906,73.42500305175781,15.15000057220459
1775728171525292000,10.8982919921875,-29.343751907348633,72.67500305175781,18.600000381469727
1775728171535292000,10.9082919921875,-28.80000114440918,75.0562515258789,18.618751525878906
1775728171545292000,10.9182919921875,-31.350000381469727,71.15625,16.668750762939453
1775728171555292000,10.9282919921875,-32.70000076293945,71.66250610351562,16.668750762939453
1775728171565292000,10.9382919921875,-31.218751907348633,70.72500610351562,17.15625
1775728171575292000,10.9482919921875,-33.03750228881836,70.51875305175781,15.750000953674316
1775728171585292000,10.9582919921875,-32.73750305175781,70.5562515258789,16.03125
1775728171595292000,10.9682919921875,-34.10625076293945,69.63750457763672,13.912500381469727
1775728171605292000,10.9782919921875,-34.650001525878906,68.1187515258789,16.3125
1775728171615292000,10.9882919921875,-36,67.76250457763672,14.737500190734863
1775728171625292000,10.9982919921875,-38.025001525878906,66.60000610351562,14.418750762939453
1775728171635292000,11.0082919921875,-38.66250228881836,66.31875610351562,15.937500953674316
1775728171645292000,11.0182919921875,-38.34375,66.75,16.293750762939453
1775728171655292000,11.0282919921875,-38.34375,66.75,16.293750762939453
1775728171665292000,11.0382919921875,-38.493751525878906,66.5625,15.843750953674316
1775728171675292000,11.0482919921875,-38.85000228881836,64.3687515258789,13.593750953674316
1775728171685292000,11.0582919921875,-40.38750076293945,65.0625,16.59375
1775728171695292000,11.0682919921875,-40.40625,63.900001525878906,14.68125057220459
1775728171705292000,11.0782919921875,-40.368751525878906,65.23125457763672,15.206250190734863
1775728171715292000,11.0882919921875,-41.775001525878906,63.468753814697266,13.36875057220459
1775728171725292000,11.0982919921875,-41.775001525878906,63.50625228881836,13.65000057220459
1775728171735292000,11.1082919921875,-41.17500305175781,63.63750076293945,15.356250762939453
1775728171745292000,11.1182919921875,-42.60000228881836,62.718753814697266,16.762500762939453
1775728171755292000,11.1282919921875,-43.650001525878906,61.98750305175781,13.406250953674316
1775728171765292000,11.1382919921875,-43.14375305175781,64.06875610351562,15.768750190734863
1775728171775292000,11.1482919921875,-41.08125305175781,62.531253814697266,15.562500953674316
1775728171785292000,11.1582919921875,-42.09375,62.868751525878906,13.537500381469727
1775728171795292000,11.1682919921875,-41.79375076293945,63.41250228881836,14.756250381469727
1775728171805292000,11.1782919921875,-39.67500305175781,62.51250076293945,13.687500953674316
1775728171815292000,11.1882919921875,-42.84375,63.13125228881836,12.768750190734863
1775728171825292000,11.1982919921875,-41.88750076293945,65.19375610351562,14.96250057220459
1775728171835292000,11.2082919921875,-40.38750076293945,64.6500015258789,15.52500057220459
1775728171845292000,11.2182919921875,-41.15625,64.10625457763672,14.30625057220459
1775728171855292000,11.2282919921875,-40.10625076293945,64.48125457763672,16.89375114440918
1775728171865292000,11.2382919921875,-42,66.16875457763672,14.86875057220459
1775728171875292000,11.2482919921875,-41.75625228881836,63.806251525878906,13.143750190734863
1775728171885292000,11.2582919921875,-39.88125228881836,65.38125610351562,13.668750762939453
1775728171895292000,11.2682919921875,-39.86250305175781,66.26250457763672,15.543750762939453
1775728171905292000,11.2782919921875,-39.84375,66.76875305175781,14.643750190734863
1775728171915292000,11.2882919921875,-39.03750228881836,67.78125,14.812500953674316
1775728171925292000,11.2982919921875,-36.11250305175781,68.94375610351562,15.112500190734863
1775728171945292000,11.3182919921875,-33.95625305175781,69.03750610351562,13.237500190734863
1775728171955292000,11.3282919921875,-33.95625305175781,69.86250305175781,14.662500381469727
1775728171965292000,11.3382919921875,-33.54375076293945,68.4375,14.231250762939453
1775728171975292000,11.3482919921875,-33.01875305175781,71.38125610351562,17.325000762939453
1775728171985292000,11.3582919921875,-33.806251525878906,70.2750015258789,15.71250057220459
1775728171995292000,11.3682919921875,-32.90625,70.06875610351562,16.087501525878906
1775728172005292000,11.3782919921875,-32.08125305175781,71.85000610351562,17.100000381469727
1775728172015292000,11.3882919921875,-31.443750381469727,73.14375305175781,18.318750381469727
1775728172025292000,11.3982919921875,-30.600000381469727,70.875,17.306251525878906
1775728172035292000,11.4082919921875,-29.212501525878906,71.73750305175781,17.287500381469727
1775728172045292000,11.4182919921875,-26.700000762939453,72.73125457763672,14.737500190734863
1775728172055292000,11.4282919921875,-27.337501525878906,72.41250610351562,15.956250190734863
1775728172065292000,11.4382919921875,-26.156251907348633,71.8687515258789,16.51875114440918
1775728172075292000,11.4482919921875,-26.625001907348633,71.71875,17.212501525878906
1775728172085292000,11.4582919921875,-26.45625114440918,70.875,13.106250762939453
1775728172095292000,11.4682919921875,-25.33125114440918,73.42500305175781,16.106250762939453
1775728172105292000,11.4782919921875,-25.350000381469727,72.73125457763672,15.543750762939453
1775728172115292000,11.4882919921875,-25.350000381469727,72.73125457763672,15.543750762939453
1775728172125292000,11.4982919921875,-26.100000381469727,73.53750610351562,16.837501525878906
1775728172135292000,11.5082919921875,-25.818750381469727,72.45000457763672,16.200000762939453
1775728172145292000,11.5182919921875,-25.61250114440918,74.5875015258789,17.17500114440918
1775728172155292000,11.5282919921875,-24.225000381469727,74.25,15.80625057220459
1775728172165292000,11.5382919921875,-23.4375,75.28125,15.975000381469727
1775728172175292000,11.5482919921875,-22.89375114440918,72.67500305175781,14.343750953674316
1775728172185292000,11.5582919921875,-20.887500762939453,74.08125305175781,14.700000762939453
1775728172195292000,11.5682919921875,-23.025001525878906,74.25,15.768750190734863
1775728172205292000,11.5782919921875,-22.537500381469727,73.98750305175781,13.162500381469727
1775728172215292000,11.5882919921875,-21.731250762939453,75.26250457763672,13.387500762939453
1775728172225292000,11.5982919921875,-20.943750381469727,75.97500610351562,13.93125057220459
1775728172235292000,11.6082919921875,-22.668750762939453,75.26250457763672,15.956250190734863
1775728172245292000,11.6182919921875,-18.86250114440918,74.88750457763672,13.387500762939453
1775728172255292000,11.6282919921875,-18.975000381469727,75.78750610351562,12.71250057220459
1775728172265292000,11.6382919921875,-17.756250381469727,76.33125305175781,14.756250381469727
1775728172275292000,11.6482919921875,-18.67500114440918,75.63750457763672,13.387500762939453
1775728172285292000,11.6582919921875,-18.806251525878906,76.16250610351562,13.631250381469727
1775728172295292000,11.6682919921875,-17.756250381469727,76.42500305175781,15.33750057220459
1775728172305292000,11.6782919921875,-17.793750762939453,76.20000457763672,16.42500114440918
1775728172315292000,11.6882919921875,-16.256250381469727,75.67500305175781,14.58750057220459
1775728172325292000,11.6982919921875,-15.375000953674316,74.5875015258789,13.08750057220459
1775728172335292000,11.7082919921875,-14.081250190734863,76.57500457763672,13.856250762939453
1775728172345292000,11.7182919921875,-14.756250381469727,75.28125,14.475000381469727
1775728172355292000,11.7282919921875,-14.887500762939453,75.01875305175781,11.756250381469727
1775728172365292000,11.7382919921875,-14.58750057220459,74.8687515258789,12.412500381469727
1775728172375292000,11.7482919921875,-13.781250953674316,76.03125,11.90625
1775728172385292000,11.7582919921875,-13.93125057220459,76.29375457763672,12.80625057220459
1775728172395292000,11.7682919921875,-13.725000381469727,77.10000610351562,10.706250190734863
1775728172405292000,11.7782919921875,-14.100000381469727,75.76875305175781,12.581250190734863
1775728172415292000,11.7882919921875,-13.500000953674316,75.7125015258789,13.106250762939453
1775728172425292000,11.7982919921875,-13.200000762939453,75.60000610351562,12.375000953674316
1775728172435292000,11.8082919921875,-15.356250762939453,74.4937515258789,12.356250762939453
1775728172445292000,11.8182919921875,-14.662500381469727,76.3687515258789,10.725000381469727
1775728172455292000,11.8282919921875,-14.043750762939453,77.26875305175781,11.86875057220459
1775728172465292000,11.8382919921875,-12.750000953674316,75.7125015258789,13.08750057220459
1775728172475292000,11.8482919921875,-13.125000953674316,76.61250305175781,10.74375057220459
1775728172485292000,11.8582919921875,-12.543750762939453,76.23750305175781,11.643750190734863
1775728172495292000,11.8682919921875,-12.581250190734863,75.39375305175781,11.756250381469727
1775728172505292000,11.8782919921875,-13.012500762939453,75.9937515258789,11.606250762939453
1775728172515292000,11.8882919921875,-13.293750762939453,76.4625015258789,10.575000762939453
1775728172525292000,11.8982919921875,-13.912500381469727,76.57500457763672,12.168750762939453
1775728172535292000,11.9082919921875,-14.943750381469727,77.26875305175781,10.912500381469727
1775728172545292000,11.9182919921875,-12.656250953674316,77.36250305175781,11.568750381469727
1775728172555292000,11.9282919921875,-12.656250953674316,77.36250305175781,11.568750381469727
1775728172565292000,11.9382919921875,-14.081250190734863,76.10625457763672,12.356250762939453
1775728172575292000,11.9482919921875,-14.231250762939453,76.63125610351562,12.600000381469727
1775728172585292000,11.9582919921875,-13.293750762939453,76.63125610351562,11.737500190734863
1775728172595292000,11.9682919921875,-14.568750381469727,75.01875305175781,11.737500190734863
1775728172605292000,11.9782919921875,-15.468750953674316,75.9937515258789,12.52500057220459
1775728172615292000,11.9882919921875,-17.45625114440918,75.5250015258789,12.61875057220459
1775728172625292000,11.9982919921875,-17.71875,76.20000457763672,12.187500953674316
1775728172635292000,12.0082919921875,-18.1875,75.5250015258789,10.950000762939453
1775728172645292000,12.0182919921875,-18.600000381469727,76.5,10.725000381469727
1775728172655292000,12.0282919921875,-20.306251525878906,75.97500610351562,10.518750190734863
1775728172665292000,12.0382919921875,-20.775001525878906,75.07500457763672,10.36875057220459
1775728172675292000,12.0482919921875,-22.012500762939453,74.85000610351562,10.5
1775728172685292000,12.0582919921875,-22.481250762939453,74.8687515258789,12.33750057220459
1775728172695292000,12.0682919921875,-26.250001907348633,75.73125457763672,12.187500953674316
1775728172705292000,12.0782919921875,-25.106250762939453,73.29375457763672,9.99375057220459
1775728172715292000,12.0882919921875,-26.756250381469727,74.71875,12.15000057220459
1775728172725292000,12.0982919921875,-26.812501907348633,72.69375610351562,11.0625
1775728172735292000,12.1082919921875,-28.537500381469727,71.2125015258789,11.100000381469727
1775728172745292000,12.1182919921875,-28.350000381469727,73.38750457763672,14.043750762939453
1775728172755292000,12.1282919921875,-29.756250381469727,71.9625015258789,13.668750762939453
1775728172765292000,12.1382919921875,-28.406251907348633,71.15625,13.350000381469727
1775728172775292000,12.1482919921875,-30.600000381469727,69.5625,12.52500057220459
1775728172785292000,12.1582919921875,-33.243751525878906,68.64375305175781,14.831250190734863
1775728172795292000,12.1682919921875,-34.76250076293945,68.2125015258789,13.518750190734863
1775728172805292000,12.1782919921875,-33.525001525878906,69.13125610351562,14.793750762939453
1775728172815292000,12.1882919921875,-34.931251525878906,67.40625,13.08750057220459
1775728172825292000,12.1982919921875,-36.78750228881836,66.63750457763672,13.83750057220459
1775728172835292000,12.2082919921875,-36.46875,66.5625,11.550000190734863
1775728172845292000,12.2182919921875,-37.10625076293945,65.64375305175781,11.25
1775728172855292000,12.2282919921875,-37.25625228881836,65.53125,11.381250381469727
1775728172865292000,12.2382919921875,-38.34375,65.1187515258789,11.887500762939453
1775728172875292000,12.2482919921875,-39.41250228881836,65.17500305175781,12.356250762939453
1775728172885292000,12.2582919921875,-42.54375076293945,63.16875076293945,13.050000190734863
1775728172895292000,12.2682919921875,-40.96875,63.281253814697266,9.487500190734863
1775728172905292000,12.2782919921875,-41.34375,62.025001525878906,12.093750953674316
1775728172915292000,12.2882919921875,-44.25,61.650001525878906,11.943750381469727
1775728172925292000,12.2982919921875,-43.16250228881836,62.26875305175781,12.037500381469727
1775728172935292000,12.3082919921875,-43.181251525878906,60.712501525878906,9.918750762939453
1775728172945292000,12.3182919921875,-44.98125076293945,61.63125228881836,10.125
1775728172955292000,12.3282919921875,-44.71875,61.16250228881836,11.15625
1775728172965292000,12.3382919921875,-44.47500228881836,59.98125076293945,12.487500190734863
1775728172975292000,12.3482919921875,-44.13750076293945,60.07500076293945,11.512500762939453
1775728172985292000,12.3582919921875,-45.07500076293945,60.01875305175781,11.943750381469727
1775728172995292000,12.3682919921875,-42.9375,59.64375305175781,10.256250381469727
1775728173005292000,12.3782919921875,-42.9375,59.64375305175781,10.256250381469727
1775728173015292000,12.3882919921875,-44.775001525878906,59.23125076293945,10.800000190734863
1775728173025292000,12.3982919921875,-44.15625,58.76250076293945,8.4375
1775728173035292000,12.4082919921875,-45.1875,59.250003814697266,7.425000190734863
1775728173045292000,12.4182919921875,-44.26875305175781,59.98125076293945,9.09375
1775728173055292000,12.4282919921875,-44.306251525878906,58.85625076293945,8.175000190734863
1775728173065292000,12.4382919921875,-43.38750076293945,59.062503814697266,8.756250381469727
1775728173075292000,12.4482919921875,-43.70625305175781,58.875003814697266,9.15000057220459
1775728173085292000,12.4582919921875,-45.056251525878906,59.55000305175781,10.443750381469727
1775728173095292000,12.4682919921875,-43.98750305175781,59.437503814697266,9.693750381469727
1775728173105292000,12.4782919921875,-46.66875076293945,60.806251525878906,9.600000381469727
1775728173115292000,12.4882919921875,-44.681251525878906,61.72500228881836,10.856250762939453
1775728173125292000,12.4982919921875,-43.16250228881836,62.56875228881836,12.375000953674316
1775728173135292000,12.5082919921875,-43.181251525878906,61.57500076293945,11.49375057220459
1775728173145292000,12.5182919921875,-45,61.80000305175781,11.287500381469727
1775728173155292000,12.5282919921875,-42.75,60.54375076293945,11.268750190734863
1775728173165292000,12.5382919921875,-41.88750076293945,63.63750076293945,11.137500762939453
1775728173175292000,12.5482919921875,-41.13750076293945,63.806251525878906,12.281250953674316
1775728173185292000,12.5582919921875,-40.10625076293945,62.156253814697266,11.231250762939453
1775728173195292000,12.5682919921875,-39.63750076293945,63.093753814697266,11.68125057220459
1775728173205292000,12.5782919921875,-36.82500076293945,64.63125610351562,10.350000381469727
1775728173215292000,12.5882919921875,-38.08125305175781,63.618751525878906,11.02500057220459
1775728173225292000,12.5982919921875,-35.625,65.3062515258789,13.27500057220459
1775728173235292000,12.6082919921875,-36.76875305175781,66.3375015258789,11.793750762939453
1775728173245292000,12.6182919921875,-35.400001525878906,66.86250305175781,12
1775728173255292000,12.6282919921875,-34.06875228881836,66.31875610351562,13.425000190734863
1775728173265292000,12.6382919921875,-34.80000305175781,67.01250457763672,13.856250762939453
1775728173275292000,12.6482919921875,-33.150001525878906,66.35625457763672,12.843750953674316
1775728173285292000,12.6582919921875,-35.306251525878906,69.91875457763672,13.293750762939453
1775728173295292000,12.6682919921875,-33.20625305175781,68.85000610351562,13.593750953674316
1775728173305292000,12.6782919921875,-33.056251525878906,68.8125,12.600000381469727
1775728173315292000,12.6882919921875,-32.34375,68.26875305175781,14.86875057220459
1775728173325292000,12.6982919921875,-33.26250076293945,67.5562515258789,13.350000381469727
1775728173335292000,12.7082919921875,-31.51875114440918,69.35625457763672,13.800000190734863
1775728173345292000,12.7182919921875,-29.250001907348633,69.69375610351562,14.362500190734863
1775728173355292000,12.7282919921875,-29.381250381469727,70.21875,14.606250762939453
1775728173365292000,12.7382919921875,-28.481250762939453,69.78750610351562,15.05625057220459
1775728173375292000,12.7482919921875,-27.843751907348633,69.9937515258789,12.975000381469727
1775728173385292000,12.7582919921875,-27.525001525878906,70.63125610351562,13.08750057220459
1775728173395292000,12.7682919921875,-27.543750762939453,69.31875610351562,11.006250381469727
1775728173405292000,12.7782919921875,-27.48750114440918,72.0562515258789,14.343750953674316
1775728173415292000,12.7882919921875,-25.856250762939453,70.61250305175781,13.875000953674316
1775728173425292000,12.7982919921875,-27.281251907348633,73.2750015258789,13.293750762939453
1775728173435292000,12.8082919921875,-24.918750762939453,71.60625457763672,13.912500381469727
1775728173445292000,12.8182919921875,-24.86250114440918,72.4312515258789,12.656250953674316
1775728173455292000,12.8282919921875,-24.86250114440918,72.4312515258789,12.656250953674316
1775728173465292000,12.8382919921875,-24.39375114440918,73.06875610351562,12.750000953674316
1775728173475292000,12.8482919921875,-23.475000381469727,73.3125,13.631250381469727
1775728173485292000,12.8582919921875,-23.625,72.9937515258789,12.300000190734863
1775728173495292000,12.8682919921875,-23.025001525878906,73.35000610351562,13.912500381469727
1775728173505292000,12.8782919921875,-21.1875,74.04375457763672,14.418750762939453
1775728173515292000,12.8882919921875,-20.887500762939453,73.23750305175781,13.125000953674316
1775728173525292000,12.8982919921875,-21.825000762939453,72.95625305175781,14.643750190734863
1775728173535292000,12.9082919921875,-20.287500381469727,73.25625610351562,14.100000381469727
1775728173545292000,12.9182919921875,-17.793750762939453,74.0250015258789,11.77500057220459
1775728173555292000,12.9282919921875,-17.962501525878906,73.85625457763672,12.318750381469727
1775728173565292000,12.9382919921875,-19.6875,72.48750305175781,12.24375057220459
1775728173575292000,12.9482919921875,-16.743751525878906,74.23125457763672,12.356250762939453
1775728173585292000,12.9582919921875,-17.962501525878906,73.9312515258789,12.750000953674316
1775728173595292000,12.9682919921875,-20.400001525878906,73.66875457763672,11.77500057220459
1775728173605292000,12.9782919921875,-18.5625,74.04375457763672,11.793750762939453
1775728173615292000,12.9882919921875,-16.762500762939453,74.0250015258789,13.443750381469727
1775728173625292000,12.9982919921875,-17.36250114440918,73.23750305175781,10.631250381469727
1775728173635292000,13.0082919921875,-18.65625,75.4312515258789,11.925000190734863
1775728173645292000,13.0182919921875,-15.33750057220459,74.0625,9.46875
1775728173655292000,13.0282919921875,-16.443750381469727,73.33125305175781,10.481250762939453
1775728173665292000,13.0382919921875,-16.70625114440918,74.98125457763672,11.512500762939453
1775728173675292000,13.0482919921875,-17.512500762939453,73.85625457763672,12.300000190734863
1775728173685292000,13.0582919921875,-16.293750762939453,72.67500305175781,9.356250762939453
1775728173695292000,13.0682919921875,-15.412500381469727,73.20000457763672,12.112500190734863
1775728173705292000,13.0782919921875,-15.637500762939453,74.0250015258789,9.1875
1775728173715292000,13.0882919921875,-17.306251525878906,73.85625457763672,8.90625
1775728173725292000,13.0982919921875,-15.33750057220459,74.0625,9.46875
1775728173735292000,13.1082919921875,-15.05625057220459,74.15625,11.02500057220459
1775728173745292000,13.1182919921875,-14.906250953674316,74.08125305175781,11.287500381469727
1775728173755292000,13.1282919921875,-16.40625,73.70625305175781,8.71875
1775728173765292000,13.1382919921875,-15.375000953674316,73.59375,10.5
1775728173775292000,13.1482919921875,-14.77500057220459,73.63125610351562,11.625
1775728173785292000,13.1582919921875,-15.075000762939453,73.51875305175781,10.912500381469727
1775728173795292000,13.1682919921875,-14.77500057220459,73.59375,11.325000762939453
1775728173805292000,13.1782919921875,-15.675000190734863,73.7437515258789,11.53125
1775728173815292000,13.1882919921875,-17.006250381469727,74.98125457763672,12.356250762939453
1775728173825292000,13.1982919921875,-14.850000381469727,75.1875,10.36875057220459
1775728173835292000,13.2082919921875,-14.606250762939453,73.16250610351562,9.262500762939453
1775728173845292000,13.2182919921875,-13.575000762939453,72.88125610351562,10.74375057220459
1775728173855292000,13.2282919921875,-14.737500190734863,74.75625610351562,12.543750762939453
1775728173865292000,13.2382919921875,-13.83750057220459,73.51875305175781,10.03125
1775728173875292000,13.2482919921875,-15.075000762939453,73.05000305175781,9.393750190734863
1775728173885292000,13.2582919921875,-16.481250762939453,72.0562515258789,10.237500190734863
1775728173895292000,13.2682919921875,-16.70625114440918,75.09375,12.24375057220459
1775728173905292000,13.2782919921875,-16.70625114440918,75.09375,12.24375057220459
1775728173915292000,13.2882919921875,-17.943750381469727,74.45625305175781,12.15000057220459
1775728173925292000,13.2982919921875,-18.09375,74.13750457763672,10.818750381469727
1775728173935292000,13.3082919921875,-18.86250114440918,73.81875610351562,10.350000381469727
1775728173945292000,13.3182919921875,-18.806251525878906,75.46875,11.381250381469727
1775728173955292000,13.3282919921875,-19.762500762939453,73.89375305175781,9.975000381469727
1775728173965292000,13.3382919921875,-22.61250114440918,73.2750015258789,6.543750286102295
1775728173975292000,13.3482919921875,-23.006250381469727,71.51250457763672,7.200000286102295
1775728173985292000,13.3582919921875,-23.418750762939453,73.21875,8.662500381469727
1775728173995292000,13.3682919921875,-25.725000381469727,72.9000015258789,10.78125
1775728174005292000,13.3782919921875,-27.168750762939453,70.98750305175781,11.30625057220459
1775728174015292000,13.3882919921875,-28.181251525878906,72.31875610351562,10.18125057220459
1775728174025292000,13.3982919921875,-27.76875114440918,71.5875015258789,11.15625
1775728174035292000,13.4082919921875,-28.837501525878906,71.04375457763672,10.800000190734863
1775728174045292000,13.4182919921875,-30.525001525878906,70.3687515258789,9.581250190734863
1775728174055292000,13.4282919921875,-31.912500381469727,70.2750015258789,11.4375
1775728174065292000,13.4382919921875,-31.312501907348633,69.76875305175781,9.768750190734863
1775728174075292000,13.4482919921875,-34.03125,66.65625,11.362500190734863
1775728174085292000,13.4582919921875,-35.34375,68.15625,12.24375057220459
1775728174095292000,13.4682919921875,-36.712501525878906,68.15625,11.4375
1775728174105292000,13.4782919921875,-35.92500305175781,67.48125457763672,8.475000381469727
1775728174115292000,13.4882919921875,-37.5,67.3125,11.58750057220459
1775728174125292000,13.4982919921875,-39,66.86250305175781,8.4375
1775728174135292000,13.5082919921875,-39.45000076293945,66.69375610351562,8.11875057220459
1775728174145292000,13.5182919921875,-39.50625228881836,65.51250457763672,8.606250762939453
1775728174155292000,13.5282919921875,-40.20000076293945,63.48750305175781,9.225000381469727
1775728174165292000,13.5382919921875,-40.743751525878906,65.23125457763672,9.300000190734863
1775728174175292000,13.5482919921875,-43.01250076293945,64.95000457763672,9.018750190734863
1775728174185292000,13.5582919921875,-40.78125,63.45000076293945,7.256250381469727
1775728174195292000,13.5682919921875,-42.54375076293945,60.76875305175781,7.650000095367432
1775728174205292000,13.5782919921875,-43.14375305175781,60.993751525878906,7.556250095367432
1775728174215292000,13.5882919921875,-44.36250305175781,60.73125076293945,7.406250476837158
1775728174225292000,13.5982919921875,-44.85000228881836,59.88750076293945,7.537500381469727
1775728174235292000,13.6082919921875,-44.41875076293945,59.45625305175781,7.162500381469727
1775728174245292000,13.6182919921875,-45.76875305175781,59.681251525878906,6.956250190734863
1775728174255292000,13.6282919921875,-45.78750228881836,59.025001525878906,6.843750476837158
1775728174265292000,13.6382919921875,-46.38750076293945,59.13750076293945,6.731250286102295
1775728174275292000,13.6482919921875,-45.1875,58.218753814697266,4.6875
1775728174285292000,13.6582919921875,-47.90625,58.875003814697266,4.893750190734863
1775728174295292000,13.6682919921875,-46.59375,57.712501525878906,6.318750381469727
1775728174305292000,13.6782919921875,-47.45625305175781,58.556251525878906,5.231250286102295
1775728174315292000,13.6882919921875,-47.71875,56.587501525878906,7.125000476837158
1775728174325292000,13.6982919921875,-49.218753814697266,55.85625076293945,4.631250381469727
1775728174335292000,13.7082919921875,-47.625,58.25625228881836,5.756250381469727
1775728174345292000,13.7182919921875,-47.400001525878906,56.73750305175781,6.431250095367432
1775728174355292000,13.7282919921875,-47.400001525878906,56.73750305175781,6.431250095367432
1775728174365292000,13.7382919921875,-48.468753814697266,56.47500228881836,6.412500381469727
1775728174375292000,13.7482919921875,-48.712501525878906,58.20000076293945,7.031250476837158
1775728174385292000,13.7582919921875,-48.712501525878906,58.20000076293945,7.031250476837158
1775728174395292000,13.7682919921875,-47.36250305175781,57.712501525878906,6.337500095367432
1775728174405292000,13.7782919921875,-45.50625228881836,58.35000228881836,6.412500381469727
1775728174415292000,13.7882919921875,-46.63125228881836,57.16875076293945,6.918750286102295
1775728174425292000,13.7982919921875,-46.76250076293945,57.281253814697266,6.806250095367432
1775728174435292000,13.8082919921875,-45.60000228881836,59.718753814697266,6.393750190734863
1775728174445292000,13.8182919921875,-47.212501525878906,58.031253814697266,7.668750286102295
1775728174455292000,13.8282919921875,-45.150001525878906,59.60625076293945,5.662500381469727
1775728174465292000,13.8382919921875,-45.525001525878906,58.500003814697266,7.425000190734863
1775728174475292000,13.8482919921875,-43.6875,58.593753814697266,7.256250381469727
