time,seconds_elapsed,z,y,x
1775728160729059000,0.10205908203125,6.379784107208252,-2.972590208053589,-6.828794956207275
1775728160738999600,0.11199951171875,6.363384246826172,-2.96521258354187,-6.8472795486450195
1775728160758710500,0.13171044921875,6.3404083251953125,-2.9778573513031006,-6.863089084625244
1775728160768650800,0.141650634765625,6.341024398803711,-2.9990851879119873,-6.853268146514893
1775728160778752300,0.151752197265625,6.340464115142822,-3.000511884689331,-6.8531622886657715
1775728160788823000,0.161822998046875,6.339481353759766,-3.0046231746673584,-6.852270603179932
1775728160798893800,0.171893798828125,6.338998317718506,-3.0062096118927,-6.852021217346191
1775728160808903400,0.1819033203125,6.338320732116699,-3.0080759525299072,-6.851829528808594
1775728160819035400,0.192035400390625,6.339300155639648,-3.0085039138793945,-6.850735187530518
1775728160849186800,0.222186767578125,6.343830108642578,-3.0036301612854004,-6.84868049621582
1775728160879429600,0.2524296875,6.3427042961120605,-3.002614736557007,-6.850168228149414
1775728160909611500,0.282611572265625,6.341123104095459,-3.0005877017974854,-6.852518558502197
1775728160919682300,0.292682373046875,6.34237813949585,-2.997767925262451,-6.852591514587402
1775728160959965400,0.33296533203125,6.346634864807129,-2.9885098934173584,-6.852695465087891
1775728160980046000,0.353046142578125,6.343069076538086,-2.991333484649658,-6.854763507843018
1775728160990116900,0.363116943359375,6.341470718383789,-2.993685245513916,-6.8552165031433105
1775728161000187600,0.373187744140625,6.340652942657471,-2.996567964553833,-6.854712963104248
1775728161010228000,0.38322802734375,6.339369773864746,-3.001771926879883,-6.853622913360596
1775728161020329200,0.3933291015625,6.338776588439941,-3.004441499710083,-6.853002548217773
1775728161030400000,0.40339990234375,6.337336540222168,-3.0092761516571045,-6.852212429046631
1775728161090702800,0.463702880859375,6.324807643890381,-3.0433783531188965,-6.848726749420166
1775728161110875000,0.483875,6.321147441864014,-3.054459810256958,-6.847172737121582
1775728161120915200,0.493915283203125,6.319931507110596,-3.0576484203338623,-6.846871376037598
1775728161130986000,0.503986083984375,6.318288803100586,-3.0600035190582275,-6.847334861755371
1775728161151158000,0.524157958984375,6.3176188468933105,-3.0643508434295654,-6.84600830078125
1775728161161229000,0.53422900390625,6.316334247589111,-3.0687482357025146,-6.845224380493164
1775728161171299800,0.5442998046875,6.313785552978516,-3.0760865211486816,-6.844282627105713
1775728161181370600,0.55437060546875,6.312655925750732,-3.0809953212738037,-6.843114852905273
1775728161191471900,0.564471923828125,6.310062885284424,-3.0900917053222656,-6.841404438018799
1775728161201542700,0.574542724609375,6.309986591339111,-3.0942680835723877,-6.839587688446045
1775728161211613400,0.584613525390625,6.31063985824585,-3.0970797538757324,-6.837713241577148
1775728161231694000,0.604694091796875,6.310601234436035,-3.1021313667297363,-6.8354573249816895
1775728161241764900,0.614764892578125,6.308104038238525,-3.1147468090057373,-6.83202600479126
1775728161272007700,0.645007568359375,6.2993292808532715,-3.139977216720581,-6.828571319580078
1775728161302159000,0.6751591796875,6.291412830352783,-3.1717846393585205,-6.821165561676025
1775728161312260400,0.68526025390625,6.288238525390625,-3.1800498962402344,-6.820244789123535
1775728161322331100,0.6953310546875,6.284316062927246,-3.1946587562561035,-6.817030906677246
1775728161332402000,0.70540185546875,6.279239177703857,-3.2141194343566895,-6.812560558319092
1775728161342503400,0.71550341796875,6.275834083557129,-3.224886894226074,-6.810608863830566
1775728161352574200,0.72557421875,6.273721694946289,-3.2306418418884277,-6.8098273277282715
1775728161382817000,0.755817138671875,6.267682075500488,-3.2498414516448975,-6.806251525878906
1775728161392857300,0.765857421875,6.26388692855835,-3.25974440574646,-6.8050127029418945
1775728161402928000,0.77592822265625,6.2620110511779785,-3.2665412425994873,-6.803478240966797
1775728161412968400,0.785968505859375,6.261078834533691,-3.2717323303222656,-6.801842212677002
1775728161423008800,0.7960087890625,6.261117935180664,-3.2766740322113037,-6.799426078796387
1775728161433079600,0.80607958984375,6.2611775398254395,-3.279359817504883,-6.798076629638672
1775728161443180800,0.816180908203125,6.260337829589844,-3.2841219902038574,-6.796550750732422
1775728161453221000,0.82622119140625,6.259073257446289,-3.2887613773345947,-6.795472145080566
1775728161513615400,0.886615478515625,6.244521141052246,-3.3102293014526367,-6.798435211181641
1775728161523686100,0.89668603515625,6.241453647613525,-3.312199592590332,-6.800293922424316
1775728161533696000,0.906696044921875,6.238183498382568,-3.3174350261688232,-6.800742149353027
1775728161543797200,0.91679736328125,6.234106063842773,-3.3216044902801514,-6.8024444580078125
1775728161573979100,0.946979248046875,6.223276138305664,-3.3303987979888916,-6.808058738708496
1775728161594059800,0.967059814453125,6.218624591827393,-3.333583116531372,-6.810751914978027
1775728161614231800,0.987231689453125,6.21402645111084,-3.3391659259796143,-6.812212944030762
1775728161624302600,0.997302490234375,6.212588787078857,-3.3399524688720703,-6.813137531280518
1775728161634373400,1.007373291015625,6.211693286895752,-3.343482255935669,-6.812224388122559
1775728161644444200,1.017444091796875,6.208804607391357,-3.3506946563720703,-6.811313152313232
1775728161654515200,1.02751513671875,6.201260566711426,-3.3615505695343018,-6.812836170196533
1775728161684788500,1.05778857421875,6.190775394439697,-3.3797571659088135,-6.813363552093506
1775728161694859300,1.067859375,6.189759731292725,-3.3851189613342285,-6.811624050140381
1775728161715000800,1.088000732421875,6.191323757171631,-3.398621082305908,-6.803475379943848
1775728161725071600,1.098071533203125,6.191616058349609,-3.403928279876709,-6.8005547523498535
1775728161735081500,1.10808154296875,6.191158771514893,-3.4096314907073975,-6.798113822937012
1775728161745182700,1.1181826171875,6.188676834106445,-3.414257764816284,-6.798051834106445
1775728161755253500,1.12825341796875,6.1844706535339355,-3.4233641624450684,-6.797299861907959
1775728161775364600,1.148364501953125,6.182987213134766,-3.431861162185669,-6.794363498687744
1775728161785466000,1.158466064453125,6.182888031005859,-3.4333386421203613,-6.793708801269531
1775728161795567400,1.1685673828125,6.184436321258545,-3.4339993000030518,-6.791965484619141
1775728161805638100,1.17863818359375,6.188302993774414,-3.430250406265259,-6.790336608886719
1775728161815709000,1.188708984375,6.1916656494140625,-3.430976629257202,-6.786904811859131
1775728161825810200,1.19881005859375,6.191996097564697,-3.4349570274353027,-6.784588813781738
1775728161835850500,1.2088505859375,6.192055702209473,-3.439718008041382,-6.7821221351623535
1775728161845951700,1.21895166015625,6.191745281219482,-3.44303560256958,-6.780721664428711
1775728161856022500,1.2290224609375,6.192604064941406,-3.4500277042388916,-6.776383399963379
1775728161926610000,1.29960986328125,6.1907548904418945,-3.4933810234069824,-6.755829811096191
1775728161936619500,1.30961962890625,6.1867995262146,-3.502856731414795,-6.754546165466309
1775728161946720800,1.319720703125,6.175040245056152,-3.5156280994415283,-6.758670806884766
1775728161956791800,1.329791748046875,6.169287204742432,-3.5202903747558594,-6.761496067047119
1775728161966801400,1.339801513671875,6.151241779327393,-3.533987522125244,-6.770785808563232
1775728161987004200,1.360004150390625,6.117557048797607,-3.5596296787261963,-6.787851333618164
1775728161997075000,1.370074951171875,6.09587287902832,-3.580505847930908,-6.7963738441467285
1775728162007176200,1.38017626953125,6.063277721405029,-3.618678569793701,-6.8053083419799805
1775728162017247000,1.3902470703125,6.0433855056762695,-3.6453895568847656,-6.808745384216309
1775728162027317800,1.40031787109375,5.99554967880249,-3.7176144123077393,-6.811983585357666
1775728162037419000,1.4104189453125,5.979113578796387,-3.737581253051758,-6.815503120422363
1775728162047490000,1.420489990234375,5.941121578216553,-3.792053699493408,-6.8186354637146
1775728162057560800,1.430560791015625,5.9266357421875,-3.815300703048706,-6.818273067474365
1775728162087742700,1.46074267578125,5.819249629974365,-3.9934725761413574,-6.808735370635986
1775728162097844000,1.470843994140625,5.7909393310546875,-4.0376176834106445,-6.806839466094971
1775728162107914800,1.480914794921875,5.762057781219482,-4.079095840454102,-6.806619644165039
1775728162117985500,1.490985595703125,5.747628211975098,-4.098851680755615,-6.80695104598999
1775728162128056300,1.501056396484375,5.721280574798584,-4.132183074951172,-6.808994293212891
1775728162138127000,1.511127197265625,5.695417881011963,-4.168656349182129,-6.808444976806641
1775728162148198000,1.521197998046875,5.6481475830078125,-4.228769779205322,-6.810750961303711
1775728162178379800,1.5513798828125,5.538963317871094,-4.353766441345215,-6.821657180786133
1775728162208500700,1.581500732421875,5.464650630950928,-4.450043678283691,-6.819463729858398
1775728162218602000,1.59160205078125,5.438485622406006,-4.484061241149902,-6.8180975914001465
1775728162228672800,1.6016728515625,5.405241012573242,-4.528263568878174,-6.815319538116455
1775728162238743600,1.61174365234375,5.393277645111084,-4.536891937255859,-6.819058895111084
1775728162248784000,1.621783935546875,5.370231628417969,-4.556075096130371,-6.824455261230469
1775728162258854700,1.631854736328125,5.334069728851318,-4.584445476531982,-6.833807945251465
1775728162268925400,1.641925537109375,5.309711456298828,-4.60253381729126,-6.840616703033447
1775728162289036500,1.66203662109375,5.2727556228637695,-4.625507354736328,-6.85369348526001
1775728162319249000,1.692248779296875,5.2073845863342285,-4.683757781982422,-6.864106178283691
1775728162329319700,1.702319580078125,5.175022602081299,-4.722219944000244,-6.862227916717529
1775728162339421200,1.712421142578125,5.158654689788818,-4.7383036613464355,-6.863464832305908
1775728162349461200,1.722461181640625,5.107258319854736,-4.799919128417969,-6.859086036682129
1775728162359501600,1.73250146484375,5.065389633178711,-4.843961715698242,-6.859172344207764
1775728162369511400,1.742511474609375,5.021701335906982,-4.885269641876221,-6.861999988555908
1775728162379582200,1.752582275390625,4.975525379180908,-4.927341938018799,-6.865555763244629
1775728162409794600,1.782794677734375,4.834255695343018,-5.056494235992432,-6.87257194519043
1775728162429966800,1.802966796875,4.725134372711182,-5.165217399597168,-6.8676066398620605
1775728162440037600,1.81303759765625,4.654181003570557,-5.224246501922607,-6.871407508850098
1775728162450139000,1.823138916015625,4.615189075469971,-5.259191513061523,-6.871050834655762
1775728162460179200,1.83317919921875,4.580959320068359,-5.291261672973633,-6.869332790374756
1775728162470250000,1.84325,4.562734603881836,-5.3095011711120605,-6.86738920211792
1775728162480320800,1.85332080078125,4.522102355957031,-5.344719886779785,-6.866947650909424
1775728162510472200,1.88347216796875,4.381877422332764,-5.459665775299072,-6.867429733276367
1775728162520543000,1.89354296875,4.335545063018799,-5.493869781494141,-6.869558334350586
1775728162530583300,1.903583251953125,4.309896945953369,-5.5087080001831055,-6.873814582824707
1775728162540654000,1.913654052734375,4.235660552978516,-5.555963039398193,-6.881919860839844
1775728162550724900,1.923724853515625,4.181281089782715,-5.591246128082275,-6.886599063873291
1775728162560734500,1.933734375,4.123059272766113,-5.630643367767334,-6.889603614807129
1775728162570805200,1.94380517578125,4.0917816162109375,-5.647951126098633,-6.894081115722656
1775728162580845600,1.953845458984375,4.031120300292969,-5.683752536773682,-6.900392055511475
1775728162590916400,1.963916259765625,3.967865228652954,-5.726261138916016,-6.901910305023193
1775728162611027500,1.98402734375,3.8201160430908203,-5.842434883117676,-6.887892246246338
1775728162641239800,2.01423974609375,3.710824966430664,-5.942172527313232,-6.862270355224609
1775728162651341300,2.02434130859375,3.617539167404175,-6.012948513031006,-6.850418567657471
1775728162661412000,2.034412109375,3.577143669128418,-6.042812347412109,-6.845353126525879
1775728162671513300,2.044513427734375,3.4962692260742188,-6.097147464752197,-6.838953495025635
1775728162681553700,2.0545537109375,3.3965818881988525,-6.159013271331787,-6.833752632141113
1775728162691655000,2.064655029296875,3.333610773086548,-6.190601348876953,-6.836217880249023
1775728162711827200,2.0848271484375,3.2614047527313232,-6.209824562072754,-6.853590965270996
1775728162731968800,2.10496875,3.2032477855682373,-6.189642906188965,-6.899123668670654
1775728162742039600,2.11503955078125,3.1577279567718506,-6.184036731719971,-6.925087928771973
1775728162752140800,2.125140869140625,3.123833179473877,-6.1824564933776855,-6.9418487548828125
1775728162762211600,2.135211669921875,3.007289409637451,-6.201006889343262,-6.976683139801025
1775728162772282400,2.145282470703125,2.952263832092285,-6.22321081161499,-6.98041296005249
1775728162782322700,2.15532275390625,2.781934976577759,-6.276904106140137,-7.002264976501465
1775728162792363000,2.165363037109375,2.7179722785949707,-6.295322895050049,-7.010842323303223
1775728162812443600,2.185443603515625,2.4716639518737793,-6.346597194671631,-7.055635452270508
1775728162842686500,2.2156865234375,2.2835283279418945,-6.385584831237793,-7.083798885345459
1775728162852757200,2.22575732421875,2.1794378757476807,-6.410386085510254,-7.094178676605225
1775728162862797600,2.235797607421875,2.12917160987854,-6.436267852783203,-7.086005210876465
1775728162872898800,2.24589892578125,2.0560660362243652,-6.468677520751953,-7.078079700469971
1775728162882969600,2.255969482421875,1.9761356115341187,-6.498281478881836,-7.073728561401367
1775728162893040400,2.266040283203125,1.9368782043457031,-6.514143466949463,-7.0699968338012695
1775728162903111200,2.276111083984375,1.8251649141311646,-6.554499626159668,-7.06241512298584
1775728162923222300,2.29622216796875,1.7016867399215698,-6.606751441955566,-7.04453706741333
1775728162943425000,2.316425048828125,1.620252013206482,-6.646330833435059,-7.026482105255127
1775728162953495800,2.326495849609375,1.5678911209106445,-6.672981262207031,-7.013091564178467
1775728162963566600,2.336566650390625,1.5199004411697388,-6.706013202667236,-6.992114543914795
1775728162973637400,2.346637451171875,1.477984070777893,-6.740879058837891,-6.967531204223633
1775728162983708200,2.356708251953125,1.418025016784668,-6.756446361541748,-6.964912414550781
1775728162993779000,2.366779052734375,1.3749208450317383,-6.7644453048706055,-6.965790271759033
1775728163003849700,2.376849609375,1.3357312679290771,-6.773611545562744,-6.964510440826416
1775728163034001200,2.407001220703125,1.2700886726379395,-6.795932292938232,-6.955039024353027
1775728163044072000,2.417072021484375,1.2607555389404297,-6.796879291534424,-6.955812454223633
1775728163064183000,2.43718310546875,1.2472829818725586,-6.797120094299316,-6.9580078125
1775728163074284300,2.4472841796875,1.244271159172058,-6.792816638946533,-6.962745189666748
1775728163084355000,2.45735498046875,1.2434022426605225,-6.78824520111084,-6.967358589172363
1775728163094425900,2.46742578125,1.242780089378357,-6.783788681030273,-6.97180700302124
1775728163104435700,2.477435791015625,1.2426520586013794,-6.782183647155762,-6.973391056060791
1775728163114476000,2.48747607421875,1.2425538301467896,-6.781397342681885,-6.974172115325928
1775728163124577300,2.497577392578125,1.244297742843628,-6.784737586975098,-6.970614433288574
1775728163144688400,2.5176884765625,1.2540762424468994,-6.796009540557861,-6.957870006561279
1775728163154728700,2.527728759765625,1.2620192766189575,-6.799581527709961,-6.952941417694092
1775728163164738600,2.537738525390625,1.2662997245788574,-6.800439834594727,-6.951324939727783
1775728163174809300,2.547809326171875,1.2772899866104126,-6.800258159637451,-6.949489116668701
1775728163184880000,2.557880126953125,1.2886492013931274,-6.798035144805908,-6.949568271636963
1775728163194981400,2.5679814453125,1.309441328048706,-6.796563625335693,-6.94711971282959
1775728163204991200,2.5779912109375,1.3159235715866089,-6.794784069061279,-6.947635650634766
1775728163215092500,2.588092529296875,1.333371877670288,-6.792757987976074,-6.946290969848633
1775728163235203600,2.60820361328125,1.3577269315719604,-6.788684844970703,-6.945555686950684
1775728163265355000,2.63835498046875,1.4123308658599854,-6.774118423461914,-6.948888301849365
1775728163275395000,2.64839501953125,1.427707314491272,-6.772132396697998,-6.947680950164795
1775728163285435400,2.658435302734375,1.4330880641937256,-6.773107051849365,-6.945621967315674
1775728163295506200,2.668506103515625,1.4347697496414185,-6.774850845336914,-6.94357442855835
1775728163305546500,2.67854638671875,1.4354262351989746,-6.776741027832031,-6.94159460067749
1775728163315617300,2.6886171875,1.4408067464828491,-6.776231288909912,-6.940977096557617
1775728163325688000,2.69868798828125,1.444931149482727,-6.775955677032471,-6.94038724899292
1775728163345830000,2.718829833984375,1.4530179500579834,-6.773148059844971,-6.941439628601074
1775728163376042200,2.749042236328125,1.4564263820648193,-6.772347450256348,-6.941506862640381
1775728163396183800,2.769183837890625,1.4660142660140991,-6.773922443389893,-6.937951564788818
1775728163406254600,2.779254638671875,1.4707579612731934,-6.7738356590271,-6.937032222747803
1775728163416295000,2.789294921875,1.4718679189682007,-6.772594451904297,-6.938010215759277
1775728163426396200,2.799396240234375,1.4732860326766968,-6.769711494445801,-6.940518856048584
1775728163436467000,2.809467041015625,1.4740114212036133,-6.768180847167969,-6.941859245300293
1775728163456639000,2.829638916015625,1.4830857515335083,-6.7674736976623535,-6.940614223480225
1775728163466710000,2.8397099609375,1.4869035482406616,-6.769438743591309,-6.937883377075195
1775728163476811300,2.849811279296875,1.4903039932250977,-6.770656108856201,-6.9359660148620605
1775728163486820900,2.85982080078125,1.491620421409607,-6.773459434509277,-6.932945251464844
1775728163496922400,2.86992236328125,1.491609811782837,-6.775218963623047,-6.9312286376953125
1775728163506993200,2.8799931640625,1.489307165145874,-6.776778697967529,-6.9301981925964355
1775728163517064000,2.89006396484375,1.4890800714492798,-6.777528285980225,-6.9295125007629395
1775728163527104300,2.900104248046875,1.4893804788589478,-6.777896881103516,-6.929086208343506
1775728163557347000,2.93034716796875,1.4977771043777466,-6.776845932006836,-6.928305149078369
1775728163567357000,2.94035693359375,1.4996634721755981,-6.776284694671631,-6.928447246551514
1775728163577458200,2.950458251953125,1.5037732124328613,-6.77639102935791,-6.927451133728027
1775728163587529000,2.960529052734375,1.5102885961532593,-6.775815963745117,-6.926594257354736
1775728163597569300,2.9705693359375,1.5155013799667358,-6.7751383781433105,-6.926119327545166
1775728163607579100,2.9805791015625,1.5216622352600098,-6.772995471954346,-6.926865100860596
1775728163617619200,2.990619140625,1.5219991207122803,-6.77079439163208,-6.928944110870361
1775728163627690200,3.000690185546875,1.523790717124939,-6.770947456359863,-6.928399562835693
1775728163637761000,3.010760986328125,1.5263395309448242,-6.776382923126221,-6.922523021697998
1775728163657872100,3.0308720703125,1.5294921398162842,-6.776075839996338,-6.922126770019531
1775728163667912200,3.040912109375,1.5314061641693115,-6.772349834442139,-6.925350666046143
1775728163678013700,3.051013671875,1.5403987169265747,-6.765530109405518,-6.930020332336426
1775728163688054000,3.061053955078125,1.5466336011886597,-6.759532928466797,-6.934480667114258
1775728163698155300,3.0711552734375,1.555219292640686,-6.754852771759033,-6.9371209144592285
1775728163708226000,3.08122607421875,1.5610116720199585,-6.752321720123291,-6.9382853507995605
1775728163718296800,3.091296875,1.5635651350021362,-6.75187873840332,-6.938141822814941
1775728163728337200,3.101337158203125,1.561506986618042,-6.75266695022583,-6.937837600708008
1775728163738438400,3.1114384765625,1.5598613023757935,-6.754101276397705,-6.936811923980713
1775728163748448300,3.1214482421875,1.5520988702774048,-6.7592573165893555,-6.933529853820801
1775728163788731400,3.1617314453125,1.5467615127563477,-6.764047622680664,-6.930050849914551
1775728163798802200,3.17180224609375,1.5461612939834595,-6.766319751739502,-6.927964687347412
1775728163808842500,3.181842529296875,1.541961431503296,-6.77241849899292,-6.922938823699951
1775728163818913300,3.191913330078125,1.541135549545288,-6.776130199432373,-6.919490814208984
1775728163828984000,3.201984130859375,1.5423493385314941,-6.776634693145752,-6.918725967407227
1775728163839054800,3.212054931640625,1.5444468259811401,-6.777742862701416,-6.917174339294434
1775728163849125600,3.222125732421875,1.5495357513427734,-6.777050971984863,-6.916713714599609
1775728163879307500,3.2523076171875,1.564260721206665,-6.771758556365967,-6.918582439422607
1775728163889287000,3.262286865234375,1.5678411722183228,-6.76964807510376,-6.919837474822998
1775728163899388200,3.27238818359375,1.5724366903305054,-6.765259265899658,-6.9230852127075195
1775728163909459000,3.282458984375,1.574979305267334,-6.761564254760742,-6.926117897033691
1775728163919529700,3.29252978515625,1.5767408609390259,-6.759126663208008,-6.928093910217285
1775728163929508900,3.3025087890625,1.5747241973876953,-6.756795883178711,-6.930825233459473
1775728163939610400,3.3126103515625,1.5721917152404785,-6.7554097175598145,-6.932751655578613
1775728163979924000,3.352924072265625,1.552210807800293,-6.733919143676758,-6.9581146240234375
1775728164000004600,3.373004638671875,1.5346769094467163,-6.720833778381348,-6.974637508392334
1775728164010075400,3.383075439453125,1.5241951942443848,-6.714779853820801,-6.982760429382324
1775728164020115700,3.39311572265625,1.521317958831787,-6.709182262420654,-6.988767147064209
1775728164030217000,3.403217041015625,1.5124025344848633,-6.70053243637085,-6.9989914894104
1775728164040287700,3.413287841796875,1.5023469924926758,-6.690244197845459,-7.010990619659424
1775728164060459800,3.433459716796875,1.4555606842041016,-6.672734260559082,-7.037497043609619
1775728164070500000,3.4435,1.4257231950759888,-6.670687675476074,-7.0455403327941895
1775728164080540400,3.45354052734375,1.4097625017166138,-6.666346073150635,-7.052858829498291
1775728164090611200,3.463611083984375,1.3628662824630737,-6.663097858428955,-7.065133094787598
1775728164100651500,3.473651611328125,1.3533806800842285,-6.655296325683594,-7.074306011199951
1775728164110631000,3.483630859375,1.348645806312561,-6.650167465209961,-7.08003044128418
1775728164120732200,3.493732177734375,1.3556567430496216,-6.643316268920898,-7.085122108459473
1775728164130772500,3.5037724609375,1.462583065032959,-6.577127456665039,-7.125492572784424
1775728164140873700,3.513873779296875,1.5187079906463623,-6.5237345695495605,-7.162736415863037
1775728164191227600,3.5642275390625,2.36987566947937,-5.632936000823975,-7.669689178466797
1775728164201298400,3.57429833984375,2.5251624584198,-5.426344871520996,-7.768444538116455
1775728164211369200,3.584369140625,2.5975797176361084,-5.307619094848633,-7.826375484466553
1775728164221440000,3.59443994140625,2.7428786754608154,-5.080733776092529,-7.9267354011535645
1775728164231511000,3.604510986328125,2.8689348697662354,-4.847597122192383,-8.02747917175293
1775728164241612300,3.6146123046875,2.9842076301574707,-4.628990650177002,-8.114021301269531
1775728164251652600,3.624652587890625,3.0825870037078857,-4.407614231109619,-8.20005989074707
1775728164281865000,3.654864990234375,3.2780814170837402,-3.665681838989258,-8.48453426361084
1775728164291874800,3.664874755859375,3.2842512130737305,-3.560711622238159,-8.526748657226562
1775728164301976000,3.67497607421875,3.3056576251983643,-3.3375632762908936,-8.60835075378418
1775728164312046800,3.685046875,3.3206405639648438,-3.109710216522217,-8.687545776367188
1775728164322148000,3.695148193359375,3.3233230113983154,-2.8850700855255127,-8.763690948486328
1775728164332188400,3.7051884765625,3.3106489181518555,-2.6762359142303467,-8.834464073181152
1775728164342228700,3.715228759765625,3.267019033432007,-2.3906753063201904,-8.93205738067627
1775728164352269000,3.72526904296875,3.222656488418579,-2.2109181880950928,-8.994260787963867
1775728164402653400,3.7756533203125,2.913071632385254,-1.3509283065795898,-9.266036033630371
1775728164412724200,3.78572412109375,2.872497320175171,-1.2792227268218994,-9.288850784301758
1775728164422795000,3.795794921875,2.790170192718506,-1.1375900506973267,-9.332268714904785
1775728164432865800,3.80586572265625,2.6565983295440674,-0.9357447624206543,-9.393468856811523
1775728164442936800,3.815936767578125,2.566239356994629,-0.8111503720283508,-9.430103302001953
1775728164453007600,3.826007568359375,2.5167694091796875,-0.7674579620361328,-9.447076797485352
1775728164463108900,3.83610888671875,2.404782772064209,-0.6008327007293701,-9.488224983215332
1775728164483281000,3.856281005859375,2.2891297340393066,-0.5136147141456604,-9.521895408630371
1775728164513432300,3.886432373046875,2.0768415927886963,-0.41457244753837585,-9.57524299621582
1775728164533574000,3.906573974609375,1.9781016111373901,-0.38328853249549866,-9.597426414489746
1775728164543614200,3.9166142578125,1.9584827423095703,-0.3989461362361908,-9.600811004638672
1775728164553624000,3.9266240234375,1.9158023595809937,-0.4024839401245117,-9.609272003173828
1775728164563725300,3.936725341796875,1.8524525165557861,-0.41824910044670105,-9.621011734008789
1775728164583836400,3.95683642578125,1.7805414199829102,-0.5659770369529724,-9.627030372619629
1775728164593907200,3.9669072265625,1.7718840837478638,-0.6431593894958496,-9.623781204223633
1775728164603978000,3.97697802734375,1.70242178440094,-0.7163830399513245,-9.631144523620605
1775728164614048800,3.987048828125,1.6848393678665161,-0.7732993960380554,-9.629833221435547
1775728164624119600,3.99711962890625,1.6381711959838867,-0.8305354714393616,-9.633119583129883
1775728164634190300,4.0071904296875,1.5865373611450195,-0.9292054176330566,-9.6327486038208
1775728164644261000,4.01726123046875,1.5751570463180542,-0.9787220358848572,-9.62971305847168
1775728164654332000,4.027331787109375,1.5251365900039673,-1.0626918077468872,-9.628864288330078
1775728164694615300,4.067615234375,1.4381698369979858,-1.3427976369857788,-9.607233047485352
1775728164704655400,4.0776552734375,1.4877233505249023,-1.4365788698196411,-9.586100578308105
1775728164714695700,4.08769580078125,1.4610486030578613,-1.5306106805801392,-9.575642585754395
1775728164724797000,4.097796875,1.4451918601989746,-1.591277003288269,-9.568158149719238
1775728164734837200,4.107837158203125,1.413673758506775,-1.6395046710968018,-9.564724922180176
1775728164744938800,4.117938720703125,1.3697233200073242,-1.6811965703964233,-9.563880920410156
1775728164755009500,4.128009521484375,1.3508938550949097,-1.7049311399459839,-9.562358856201172
1775728164765110800,4.13811083984375,1.2758017778396606,-1.7589242458343506,-9.56289291381836
1775728164815342600,4.188342529296875,1.2568930387496948,-1.974822998046875,-9.52316665649414
1775728164825444000,4.198444091796875,1.265584945678711,-2.037957191467285,-9.508703231811523
1775728164835515000,4.208514892578125,1.286921501159668,-2.1397299766540527,-9.483447074890137
1775728164845616000,4.2186162109375,1.2982170581817627,-2.1792728900909424,-9.472898483276367
1775728164855687000,4.22868701171875,1.3262357711791992,-2.262084484100342,-9.44957447052002
1775728164865757700,4.2387578125,1.3627489805221558,-2.3513424396514893,-9.422552108764648
1775728164875828500,4.248828369140625,1.4054925441741943,-2.447859525680542,-9.391643524169922
1775728164885868800,4.258868896484375,1.4727863073349,-2.602114677429199,-9.339716911315918
1775728164916112000,4.28911181640625,1.5586363077163696,-2.870091438293457,-9.246818542480469
1775728164926121500,4.29912158203125,1.5905826091766357,-2.9680869579315186,-9.210369110107422
1775728164936192300,4.309192138671875,1.6276382207870483,-3.058044910430908,-9.174397468566895
1775728164946263000,4.319262939453125,1.7136497497558594,-3.18220591545105,-9.116324424743652
1775728164956333800,4.329333740234375,1.7415961027145386,-3.2248423099517822,-9.096022605895996
1775728164966404600,4.339404541015625,1.8228574991226196,-3.3089215755462646,-9.049785614013672
1775728164976475600,4.3494755859375,1.9757740497589111,-3.442162036895752,-8.967621803283691
1775728164996647700,4.369647705078125,2.140892744064331,-3.5925776958465576,-8.870195388793945
1775728165016789200,4.389789306640625,2.4437835216522217,-3.9020872116088867,-8.658638954162598
1775728165026829600,4.39982958984375,2.498126983642578,-3.971850872039795,-8.611281394958496
1775728165036870000,4.409869873046875,2.60621976852417,-4.116702079772949,-8.510627746582031
1775728165046940700,4.419940673828125,2.709156036376953,-4.263065814971924,-8.405779838562012
1775728165057011500,4.430011474609375,2.8707597255706787,-4.468725204467773,-8.243762016296387
1775728165067112700,4.44011279296875,2.9886457920074463,-4.595458030700684,-8.131429672241211
1775728165077183500,4.45018359375,3.0471036434173584,-4.6555562019348145,-8.07535457611084
1775728165097325000,4.470324951171875,3.334101915359497,-4.8541646003723145,-7.8416361808776855
1775728165107426600,4.480426513671875,3.4921135902404785,-4.934292316436768,-7.721935749053955
1775728165117466600,4.490466552734375,3.743751049041748,-5.037041664123535,-7.535447120666504
1775728165127537400,4.500537353515625,3.8216817378997803,-5.063701152801514,-7.478240489959717
1775728165137639000,4.510638916015625,4.064258098602295,-5.150145530700684,-7.288910865783691
1775728165147709700,4.520709716796875,4.206709384918213,-5.20369815826416,-7.169068336486816
1775728165157780500,4.530780517578125,4.322465896606445,-5.251955986022949,-7.064251899719238
1775728165167881700,4.5408818359375,4.434224605560303,-5.316468715667725,-6.9457316398620605
1775728165177922000,4.550922119140625,4.546265125274658,-5.398805618286133,-6.808433532714844
1775728165208073500,4.581073486328125,4.787265777587891,-5.6351423263549805,-6.441866397857666
1775728165228215000,4.601215087890625,4.942980766296387,-5.821681022644043,-6.151858806610107
1775728165238255400,4.61125537109375,5.024389266967773,-5.893901348114014,-6.015632152557373
1775728165248295700,4.621295654296875,5.1159162521362305,-5.944725513458252,-5.887106895446777
1775728165258336000,4.6313359375,5.2790141105651855,-5.975018501281738,-5.709778785705566
1775728165268406800,4.64140673828125,5.334885597229004,-5.9765238761901855,-5.656020164489746
1775728165278477600,4.6514775390625,5.463867664337158,-5.95504093170166,-5.554640769958496
1775728165288578800,4.661578857421875,5.604475975036621,-5.909139156341553,-5.462812900543213
1775728165298649600,4.671649658203125,5.762047290802002,-5.8293633460998535,-5.384025573730469
1775728165318730200,4.691730224609375,6.2431416511535645,-5.460452556610107,-5.232306957244873
1775728165359043800,4.7320439453125,6.764617443084717,-4.9234466552734375,-5.115663528442383
1775728165369114600,4.742114501953125,6.8838791847229,-4.751132011413574,-5.119505405426025
1775728165379155000,4.752155029296875,6.935317039489746,-4.652620315551758,-5.1405134201049805
1775728165399296500,4.772296630859375,6.963830947875977,-4.493195533752441,-5.242771148681641
1775728165409397800,4.782397705078125,6.950235366821289,-4.451264381408691,-5.2963080406188965
1775728165419438000,4.79243798828125,6.887454986572266,-4.363908290863037,-5.448822498321533
1775728165429478400,4.802478515625,6.8078837394714355,-4.2921929359436035,-5.603588104248047
1775728165439549200,4.812549072265625,6.723600387573242,-4.2316389083862305,-5.749505996704102
1775728165449620000,4.822619873046875,6.627361297607422,-4.1690850257873535,-5.904845714569092
1775728165459690800,4.832690673828125,6.514050483703613,-4.10214900970459,-6.075352191925049
1775728165469792300,4.842792236328125,6.383235931396484,-4.036518573760986,-6.255494117736816
1775728165479893500,4.8528935546875,6.235261917114258,-3.97149658203125,-6.443533420562744
1775728165520115700,4.89311572265625,5.516980171203613,-3.698899507522583,-7.214670658111572
1775728165530217000,4.903217041015625,5.274052619934082,-3.640022039413452,-7.423274040222168
1775728165540257300,4.91325732421875,5.002490520477295,-3.5897514820098877,-7.63277006149292
1775728165550328000,4.923328125,4.7068305015563965,-3.545807361602783,-7.838583469390869
1775728165560398800,4.93339892578125,4.393280029296875,-3.5006766319274902,-8.038329124450684
1775728165570469600,4.9434697265625,3.90482234954834,-3.4294276237487793,-8.316357612609863
1775728165580510000,4.953510009765625,3.7385621070861816,-3.3968212604522705,-8.405661582946777
1775728165610691800,4.98369189453125,2.7686781883239746,-3.125608205795288,-8.873295783996582
1775728165620732200,4.993732177734375,2.329719305038452,-2.9295244216918945,-9.064252853393555
1775728165630833400,5.00383349609375,2.1859853267669678,-2.857340097427368,-9.122907638549805
1775728165640904200,5.013904296875,1.798909068107605,-2.6302056312561035,-9.27449893951416
1775728165650975000,5.02397509765625,1.6753201484680176,-2.551480293273926,-9.319530487060547
1775728165661076500,5.034076416015625,1.4447189569473267,-2.3889667987823486,-9.40085220336914
1775728165671116500,5.044116455078125,1.1393998861312866,-2.123046636581421,-9.50604248046875
1775728165681156900,5.054156982421875,1.0464750528335571,-2.0321366786956787,-9.536545753479004
1775728165691227600,5.0642275390625,0.8795866370201111,-1.8456089496612549,-9.591166496276855
1775728165761723400,5.134723388671875,0.018025284633040428,-0.8297171592712402,-9.77147102355957
1775728165791905300,5.1649052734375,-0.11055058985948563,-0.6688685417175293,-9.783188819885254
1775728165801945600,5.174945556640625,-0.10509057343006134,-0.6731989979743958,-9.782951354980469
1775728165812016400,5.185016357421875,-0.07649897783994675,-0.7048656344413757,-9.780987739562988
1775728165822087200,5.195087158203125,-0.11322791874408722,-0.6688299775123596,-9.783160209655762
1775728165832158000,5.205157958984375,-0.08450732380151749,-0.6994614005088806,-9.781310081481934
1775728165842198300,5.2151982421875,-0.10414978116750717,-0.6896750330924988,-9.781814575195312
1775728165852299500,5.225299560546875,-0.1620919406414032,-0.6568398475646973,-9.783286094665527
1775728165862370300,5.235370361328125,-0.18527473509311676,-0.6551268696784973,-9.782989501953125
1775728165872471600,5.245471435546875,-0.1992746889591217,-0.6681867241859436,-9.781831741333008
1775728165882542300,5.255542236328125,-0.20342406630516052,-0.6975216865539551,-9.77969741821289
1775728165892582700,5.265582763671875,-0.1553553193807602,-0.758303165435791,-9.776054382324219
1775728165902653400,5.2756533203125,-0.07991532236337662,-0.8716694712638855,-9.767505645751953
1775728165932865800,5.30586572265625,0.20262876152992249,-1.2743492126464844,-9.721386909484863
1775728165942906000,5.315906005859375,0.25864341855049133,-1.3411411046981812,-9.711068153381348
1775728165953007600,5.326007568359375,0.28695452213287354,-1.4208990335464478,-9.698923110961914
1775728165963078400,5.336078369140625,0.3034534454345703,-1.493189811706543,-9.687554359436035
1775728165973118500,5.346118408203125,0.31165751814842224,-1.5893126726150513,-9.671989440917969
1775728165983158800,5.35615869140625,0.3228466510772705,-1.656934142112732,-9.660266876220703
1775728165993199000,5.36619921875,0.3356717824935913,-1.694121241569519,-9.653376579284668
1775728166003239400,5.376239501953125,0.3519502878189087,-1.730888843536377,-9.646271705627441
1775728166033390800,5.406390869140625,0.52226722240448,-2.0143184661865234,-9.58332633972168
1775728166043400400,5.416400390625,0.5607046484947205,-2.055255174636841,-9.572455406188965
1775728166053471500,5.426471435546875,0.6612633466720581,-2.18203067779541,-9.537918090820312
1775728166063481000,5.436481201171875,0.6978539824485779,-2.2275333404541016,-9.52478313446045
1775728166073552000,5.4465517578125,0.7698405385017395,-2.320192575454712,-9.497076034545898
1775728166093724200,5.46672412109375,0.9684113264083862,-2.5585694313049316,-9.417340278625488
1775728166103764200,5.47676416015625,1.0587077140808105,-2.655837297439575,-9.380622863769531
1775728166133824300,5.50682421875,1.3290379047393799,-2.9095895290374756,-9.270294189453125
1775728166164067000,5.537067138671875,1.7586994171142578,-3.2177608013153076,-9.095240592956543
1775728166184208600,5.557208740234375,2.1887154579162598,-3.4616827964782715,-8.910481452941895
1775728166194279400,5.567279541015625,2.2812349796295166,-3.5092976093292236,-8.868551254272461
1775728166204380700,5.577380615234375,2.47827410697937,-3.607358455657959,-8.775848388671875
1775728166214421000,5.5874208984375,2.682190179824829,-3.707886219024658,-8.673397064208984
1775728166234501600,5.607501708984375,3.1040902137756348,-3.9169259071350098,-8.437576293945312
1775728166244542000,5.6175419921875,3.319744825363159,-4.021821975708008,-8.305096626281738
1775728166254612700,5.62761279296875,3.6568169593811035,-4.175897598266602,-8.084549903869629
1775728166264653000,5.637653076171875,3.760406970977783,-4.222574710845947,-8.01246452331543
1775728166274723800,5.647723876953125,3.9818472862243652,-4.311620712280273,-7.856540203094482
1775728166284703000,5.657702880859375,4.312005996704102,-4.425576686859131,-7.615200519561768
1775728166294804500,5.667804443359375,4.523268699645996,-4.492064476013184,-7.451964378356934
1775728166304875300,5.677875244140625,4.611594200134277,-4.52086067199707,-7.380068302154541
1775728166314915600,5.68791552734375,4.790913105010986,-4.5811638832092285,-7.227065086364746
1775728166345066800,5.718066650390625,5.225615978240967,-4.7919793128967285,-6.774972915649414
1775728166355107000,5.728107177734375,5.388858795166016,-4.879136562347412,-6.582143783569336
1775728166375218200,5.74821826171875,5.68260383605957,-5.067831039428711,-6.180250644683838
1775728166385289000,5.7582890625,5.8126220703125,-5.164488792419434,-5.975940704345703
1775728166395359700,5.76835986328125,5.931850910186768,-5.258327484130859,-5.773519039154053
1775728166405339100,5.778339111328125,6.04152774810791,-5.34765100479126,-5.574313640594482
1775728166415410000,5.788409912109375,6.143266201019287,-5.432433128356934,-5.3776702880859375
1775728166455632100,5.828632080078125,6.485183238983154,-5.736613750457764,-4.604785919189453
1775728166465703000,5.838702880859375,6.55495023727417,-5.800612926483154,-4.422206401824951
1775728166475773700,5.848773681640625,6.6199798583984375,-5.856914520263672,-4.247683525085449
1775728166485783300,5.858783203125,6.68089485168457,-5.90310525894165,-4.08526611328125
1775728166495884800,5.868884765625,6.741889476776123,-5.939501762390137,-3.929330348968506
1775728166505924900,5.8789248046875,6.8299641609191895,-5.977752208709717,-3.713279962539673
1775728166515965200,5.888965087890625,6.881843090057373,-5.9968671798706055,-3.5844409465789795
1775728166525944600,5.898944580078125,6.905447959899902,-6.005222320556641,-3.524553060531616
1775728166556187400,5.9291875,6.996025562286377,-6.0473480224609375,-3.2642927169799805
1775728166586338800,5.9593388671875,7.015350818634033,-6.058947563171387,-3.2006866931915283
1775728166596409600,5.96940966796875,6.994706630706787,-6.056273937225342,-3.2505404949188232
1775728166606419500,5.97941943359375,6.966735363006592,-6.050555229187012,-3.320509672164917
1775728166616520700,5.989520751953125,6.944331169128418,-6.045676231384277,-3.3758625984191895
1775728166626591500,5.999591552734375,6.884450912475586,-6.026957988739014,-3.528529644012451
1775728166666874600,6.03987451171875,6.415166854858398,-5.746960163116455,-4.6891865730285645
1775728166687047000,6.060046875,6.229433536529541,-5.5856218338012695,-5.115209579467773
1775728166697117700,6.07011767578125,6.006300449371338,-5.390285015106201,-5.571317195892334
1775728166707188500,6.0801884765625,5.919218063354492,-5.319596290588379,-5.730194568634033
1775728166727360500,6.100360595703125,5.385944843292236,-4.942921161651611,-6.536782264709473
1775728166747471600,6.1204716796875,4.974345684051514,-4.697443962097168,-7.0256876945495605
1775728166757572900,6.13057275390625,4.668396472930908,-4.527382850646973,-7.340250015258789
1775728166767613200,6.14061328125,4.3436408042907715,-4.3476667404174805,-7.64205265045166
1775728166817936600,6.1909365234375,2.6396758556365967,-3.2425665855407715,-8.870640754699707
1775728166827946500,6.200946533203125,2.3074381351470947,-2.973635673522949,-9.055583000183105
1775728166898442000,6.27144189453125,0.6276845932006836,-1.1344391107559204,-9.720569610595703
1775728166928623900,6.301623779296875,0.26789310574531555,-0.592272937297821,-9.785083770751953
1775728167009160000,6.382159912109375,0.40321359038352966,-1.1505076885223389,-9.730578422546387
1775728167039280600,6.41228076171875,0.4422966241836548,-1.4837217330932617,-9.68366527557373
1775728167099522300,6.472522216796875,0.5649473071098328,-1.8474422693252563,-9.61447811126709
1775728167119694600,6.492694580078125,0.6604732275009155,-1.9322669506072998,-9.591690063476562
1775728167129704200,6.5027041015625,0.7235364317893982,-1.9717364311218262,-9.579099655151367
1775728167139775000,6.51277490234375,0.8014156222343445,-2.017936944961548,-9.56326675415039
1775728167149815300,6.522815185546875,0.9636603593826294,-2.113675355911255,-9.527545928955078
1775728167159825200,6.5328251953125,1.0557713508605957,-2.1637086868286133,-9.506529808044434
1775728167169896000,6.54289599609375,1.1186017990112305,-2.1945698261260986,-9.49225902557373
1775728167220127700,6.593127685546875,1.3386672735214233,-2.2937369346618652,-9.44018840789795
1775728167230229200,6.603229248046875,1.3872143030166626,-2.307352066040039,-9.429854393005371
1775728167240300000,6.613300048828125,1.440266728401184,-2.322214126586914,-9.418246269226074
1775728167250370800,6.623370849609375,1.5383926630020142,-2.3524656295776367,-9.39519214630127
1775728167270451500,6.643451416015625,1.6626478433609009,-2.39141845703125,-9.36413860321045
1775728167300663800,6.673663818359375,1.9361662864685059,-2.5334219932556152,-9.2738037109375
1775728167310734600,6.683734619140625,2.0200178623199463,-2.602135181427002,-9.23681926727295
1775728167320805400,6.693805419921875,2.098311424255371,-2.677884578704834,-9.197629928588867
1775728167330845700,6.703845703125,2.172866106033325,-2.7566778659820557,-9.156951904296875
1775728167340916500,6.71391650390625,2.248469352722168,-2.8332855701446533,-9.115220069885254
1775728167350987300,6.7239873046875,2.330287218093872,-2.900618076324463,-9.073400497436523
1775728167361058000,6.73405810546875,2.426154851913452,-2.956770658493042,-9.03004264831543
1775728167371128800,6.74412890625,2.543111562728882,-3.0087761878967285,-8.980548858642578
1775728167381199600,6.75419970703125,2.7596471309661865,-3.095944881439209,-8.886499404907227
1775728167421513500,6.794513427734375,3.3223743438720703,-3.3727221488952637,-8.588188171386719
1775728167431584300,6.804584228515625,3.4808781147003174,-3.475667715072632,-8.48372745513916
1775728167441655000,6.814655029296875,3.636964797973633,-3.5888946056365967,-8.370347023010254
1775728167451695400,6.8246953125,3.7895679473876953,-3.7083351612091064,-8.249716758728027
1775728167461766100,6.83476611328125,4.021246910095215,-3.897036075592041,-8.050657272338867
1775728167471867400,6.844867431640625,4.17067813873291,-4.021305084228516,-7.912329196929932
1775728167481968600,6.85496875,4.320459842681885,-4.142038345336914,-7.768367767333984
1775728167492039400,6.865039306640625,4.46929931640625,-4.257906913757324,-7.6201043128967285
1775728167532383700,6.9053837890625,4.792002201080322,-4.616229057312012,-7.203993797302246
1775728167542454500,6.91545458984375,4.886680603027344,-4.728755474090576,-7.066089630126953
1775728167552525300,6.925525390625,5.003433704376221,-4.847464561462402,-6.902037620544434
1775728167562596000,6.93559619140625,5.123810768127441,-4.96819543838501,-6.725623607635498
1775728167572667000,6.9456669921875,5.295761585235596,-5.151979446411133,-6.448441982269287
1775728167582768000,6.95576806640625,5.395590305328369,-5.2745280265808105,-6.26397180557251
1775728167592839200,6.965839111328125,5.440251350402832,-5.334812164306641,-6.173640251159668
1775728167643101400,7.016101318359375,5.815526008605957,-5.928508281707764,-5.215635299682617
1775728167653111300,7.026111328125,5.869479179382324,-6.008406639099121,-5.061488151550293
1775728167663151600,7.036151611328125,5.919742584228516,-6.079687118530273,-4.915736198425293
1775728167673192000,7.04619189453125,5.9653778076171875,-6.142961502075195,-4.780030727386475
1775728167683232000,7.05623193359375,6.005731105804443,-6.199414253234863,-4.6549811363220215
1775728167693303000,7.066302978515625,6.0401482582092285,-6.250673294067383,-4.540494918823242
1775728167733586200,7.106586181640625,6.098310470581055,-6.407279968261719,-4.2341203689575195
1775728167743626500,7.11662646484375,6.091708183288574,-6.461878299713135,-4.160001754760742
1775728167753636000,7.126635986328125,6.081509113311768,-6.490682601928711,-4.129971981048584
1775728167763676400,7.136676513671875,6.074840068817139,-6.5031962394714355,-4.120090484619141
1775728167773777700,7.146777587890625,6.053964138031006,-6.5192999839782715,-4.125365734100342
1775728167783848400,7.156848388671875,6.044259071350098,-6.5207624435424805,-4.137265682220459
1775728167793919500,7.16691943359375,6.018460750579834,-6.50285005569458,-4.2025532722473145
1775728167803929000,7.17692919921875,5.997344493865967,-6.47764778137207,-4.2711052894592285
1775728167824101400,7.197101318359375,5.938297271728516,-6.413481712341309,-4.446826457977295
1775728167854313700,7.227313720703125,5.667415618896484,-6.112875461578369,-5.165611743927002
1775728167864415000,7.2374150390625,5.592972278594971,-6.007599353790283,-5.366357803344727
1775728167874485800,7.24748583984375,5.510344505310059,-5.8924126625061035,-5.5754804611206055
1775728167884556500,7.257556640625,5.462237358093262,-5.829402446746826,-5.687919616699219
1775728167894657800,7.26765771484375,5.365993022918701,-5.694976806640625,-5.911323070526123
1775728167904759300,7.27775927734375,5.188594341278076,-5.478667736053467,-6.263631820678711
1775728167934880000,7.3078798828125,4.788139343261719,-5.092557430267334,-6.878223896026611
1775728167955082800,7.328082763671875,4.3809075355529785,-4.791730880737305,-7.349649906158447
1775728167965123000,7.338123046875,4.158497333526611,-4.64007568359375,-7.572779178619385
1775728167975224300,7.348224365234375,3.9304141998291016,-4.483668327331543,-7.785817623138428
1775728167985295000,7.358295166015625,3.7003698348999023,-4.321476936340332,-7.987646579742432
1775728167995335400,7.36833544921875,3.471886396408081,-4.1534528732299805,-8.177117347717285
1775728168005375700,7.378375732421875,3.251047372817993,-3.9812307357788086,-8.351698875427246
1775728168015477000,7.38847705078125,2.942995309829712,-3.717714786529541,-8.584159851074219
1775728168035588000,7.408588134765625,2.6600990295410156,-3.4410271644592285,-8.789403915405273
1775728168045659000,7.418658935546875,2.494636058807373,-3.2524971961975098,-8.908895492553711
1775728168055729700,7.428729736328125,2.346909761428833,-3.0637125968933105,-9.015323638916016
1775728168065831000,7.438830810546875,2.2155277729034424,-2.879310131072998,-9.108864784240723
1775728168075932400,7.448932373046875,2.0481576919555664,-2.6210246086120605,-9.225273132324219
1775728168086003200,7.459003173828125,1.9521876573562622,-2.464553117752075,-9.288990020751953
1775728168096074000,7.469073974609375,1.8679119348526,-2.325397253036499,-9.342044830322266
1775728168106144800,7.479144775390625,1.7924574613571167,-2.20526123046875,-9.385858535766602
1775728168116185000,7.48918505859375,1.7235865592956543,-2.1051669120788574,-9.421672821044922
1775728168146458400,7.519458251953125,1.5749698877334595,-1.963756799697876,-9.478055000305176
1775728168156529200,7.529529052734375,1.521398901939392,-1.9665292501449585,-9.486226081848145
1775728168166569500,7.539569580078125,1.5086220502853394,-1.99887216091156,-9.481507301330566
1775728168176579300,7.549579345703125,1.4801865816116333,-1.979769229888916,-9.48999309539795
1775728168186680600,7.5596806640625,1.475629448890686,-1.9873697757720947,-9.489113807678223
1775728168196781800,7.56978173828125,1.4539222717285156,-1.972382664680481,-9.495590209960938
1775728168206852600,7.5798525390625,1.4411165714263916,-1.9716888666152954,-9.497684478759766
1775728168216923600,7.589923583984375,1.4279227256774902,-1.975677728652954,-9.498849868774414
1775728168267338500,7.64033837890625,1.3430298566818237,-2.0596604347229004,-9.493391036987305
1775728168277378800,7.65037890625,1.3019942045211792,-2.101914882659912,-9.489847183227539
1775728168287419100,7.660419189453125,1.2971293926239014,-2.130950689315796,-9.484034538269043
1775728168297429000,7.670428955078125,1.2514348030090332,-2.174057960510254,-9.480387687683105
1775728168307530200,7.6805302734375,1.2441726922988892,-2.200207233428955,-9.475311279296875
1775728168317601000,7.69060107421875,1.195815920829773,-2.246208429336548,-9.470742225646973
1775728168337712000,7.710712158203125,1.1587125062942505,-2.3130571842193604,-9.459259033203125
1775728168347752400,7.72075244140625,1.1402602195739746,-2.3640594482421875,-9.448884963989258
1775728168377873200,7.750873046875,1.2531076669692993,-2.687861442565918,-9.347487449645996
1775728168387974700,7.760974609375,1.3009533882141113,-2.7740964889526367,-9.315702438354492
1775728168397984300,7.770984375,1.3290092945098877,-2.8341987133026123,-9.293623924255371
1775728168408055000,7.781054931640625,1.3489651679992676,-2.88165545463562,-9.276138305664062
1775728168418125800,7.791125732421875,1.3633219003677368,-2.9041566848754883,-9.267017364501953
1775728168448246800,7.821246826171875,1.3900840282440186,-3.007600784301758,-9.229973793029785
1775728168458287000,7.831287109375,1.3967218399047852,-3.0223324298858643,-9.224157333374023
1775728168468358000,7.84135791015625,1.4144046306610107,-3.054535150527954,-9.210845947265625
1775728168478428700,7.8514287109375,1.4392215013504028,-3.093886613845825,-9.193851470947266
1775728168488499500,7.86149951171875,1.4702140092849731,-3.138993978500366,-9.173635482788086
1775728168498600700,7.8716005859375,1.5266835689544678,-3.2132794857025146,-9.138627052307129
1775728168508702200,7.8817021484375,1.5471231937408447,-3.2390296459198,-9.126089096069336
1775728168518711800,7.8917119140625,1.6161011457443237,-3.3189947605133057,-9.085309982299805
1775728168528813000,7.90181298828125,1.640328288078308,-3.3454458713531494,-9.071257591247559
1775728168548955000,7.921954833984375,1.765163779258728,-3.4562435150146484,-9.00605297088623
1775728168569096400,7.942096435546875,1.9316329956054688,-3.58324933052063,-8.921856880187988
1775728168579167200,7.952167236328125,2.0243115425109863,-3.6537106037139893,-8.87259578704834
1775728168589176800,7.9621767578125,2.123039484024048,-3.7288312911987305,-8.818102836608887
1775728168599186700,7.972186767578125,2.230034112930298,-3.8092567920684814,-8.757105827331543
1775728168609257500,7.982257568359375,2.4057095050811768,-3.940108060836792,-8.652081489562988
1775728168619358700,7.992358642578125,2.462186813354492,-3.984278917312622,-8.615888595581055
1775728168629429500,8.002429443359375,2.638634204864502,-4.1212263107299805,-8.49843978881836
1775728168649510100,8.02251025390625,2.875086784362793,-4.306020259857178,-8.328413963317871
1775728168669682400,8.042682373046874,3.05593204498291,-4.44236421585083,-8.191280364990234
1775728168679753200,8.052753173828124,3.185232162475586,-4.531114101409912,-8.092818260192871
1775728168689824000,8.062823974609374,3.3196849822998047,-4.615355014801025,-7.990530490875244
1775728168699894800,8.072894775390624,3.4594461917877197,-4.69460391998291,-7.884372234344482
1775728168709904400,8.082904296875,3.6799845695495605,-4.801761627197266,-7.718237400054932
1775728168719914200,8.092914306640624,3.7331981658935547,-4.827582836151123,-7.676461696624756
1775728168730015500,8.103015380859375,3.859529972076416,-4.882569789886475,-7.578583717346191
1775728168740086300,8.113086181640625,3.9663572311401367,-4.930719375610352,-7.491756439208984
1775728168770268200,8.14326806640625,4.184108734130859,-5.073200225830078,-7.27504301071167
1775728168780308500,8.15330859375,4.361231803894043,-5.178806304931641,-7.094366073608398
1775728168790409700,8.16340966796875,4.408844470977783,-5.21321439743042,-7.039523124694824
1775728168800480800,8.173480712890624,4.515079021453857,-5.289431571960449,-6.914216041564941
1775728168810551600,8.183551513671874,4.612711429595947,-5.368381023406982,-6.787766933441162
1775728168820622300,8.193622314453124,4.701679229736328,-5.449481964111328,-6.66091251373291
1775728168830632000,8.2036318359375,4.782266139984131,-5.5321526527404785,-6.534187316894531
1775728168840641800,8.213641845703124,4.856125354766846,-5.615311145782471,-6.407551288604736
1775728168860844500,8.233844482421874,4.9852213859558105,-5.780281066894531,-6.156809329986572
1775728168870884600,8.243884521484375,5.038675308227539,-5.858766078948975,-6.0379638671875
1775728168880894500,8.25389453125,5.086832046508789,-5.934366226196289,-5.922654151916504
1775728168890995700,8.26399560546875,5.13300895690918,-6.008179187774658,-5.807270526885986
1775728168901036000,8.2740361328125,5.177395820617676,-6.079864978790283,-5.692119121551514
1775728168911106800,8.28410693359375,5.218267917633057,-6.149663925170898,-5.578683853149414
1775728168921208000,8.2942080078125,5.253702640533447,-6.217495918273926,-5.46916389465332
1775728168931279000,8.304279052734374,5.295431137084961,-6.313760280609131,-5.316505432128906
1775728168971501000,8.3445009765625,5.341614246368408,-6.504627704620361,-5.0326313972473145
1775728168981541400,8.354541259765625,5.347042083740234,-6.549083709716797,-4.968806743621826
1775728168991643000,8.364642822265624,5.348590850830078,-6.58791446685791,-4.915521144866943
1775728169001713700,8.374713623046874,5.343738555908203,-6.6204657554626465,-4.8769145011901855
1775728169011784400,8.384784423828124,5.331762790679932,-6.645750999450684,-4.855583190917969
1775728169021855200,8.394855224609374,5.312710762023926,-6.662914276123047,-4.852943420410156
1775728169031926000,8.404926025390624,5.2834248542785645,-6.669081687927246,-4.8763885498046875
1775728169041996800,8.414996826171874,5.23902702331543,-6.660986423492432,-4.93500280380249
1775728169052067600,8.425067626953124,5.167459011077881,-6.630971908569336,-5.049551486968994
1775728169082249500,8.45524951171875,4.844326972961426,-6.430115699768066,-5.5996880531311035
1775728169092350700,8.465350830078124,4.773698806762695,-6.365508556365967,-5.7325825691223145
1775728169102421500,8.47542138671875,4.698975563049316,-6.291079044342041,-5.874721050262451
1775728169112523000,8.48552294921875,4.615294933319092,-6.202918529510498,-6.032680988311768
1775728169122532600,8.49553271484375,4.52067756652832,-6.100453853607178,-6.206313610076904
1775728169132633900,8.5056337890625,4.412346839904785,-5.985281944274902,-6.393588066101074
1775728169142705000,8.515704833984374,4.291776657104492,-5.858585357666016,-6.589995384216309
1775728169152775700,8.525775634765624,4.158205986022949,-5.723343849182129,-6.791397571563721
1775728169182926800,8.5559267578125,3.663402795791626,-5.245168209075928,-7.4322333335876465
1775728169192967200,8.56596728515625,3.3815789222717285,-4.955685615539551,-7.757351398468018
1775728169202946600,8.575946533203124,3.284268379211426,-4.852175712585449,-7.863865375518799
1775728169213047800,8.5860478515625,3.088228464126587,-4.63713264465332,-8.070330619812012
1775728169223118600,8.59611865234375,2.8919522762298584,-4.411925315856934,-8.266916275024414
1775728169233159000,8.606158935546874,2.700178861618042,-4.180283546447754,-8.450127601623535
1775728169243168500,8.61616845703125,2.5167322158813477,-3.9453182220458984,-8.618058204650879
1775728169253239600,8.626239501953124,2.34283709526062,-3.7099215984344482,-8.77029037475586
1775728169273350400,8.646350341796875,2.021674394607544,-3.249009370803833,-9.029241561889648
1775728169283421400,8.65642138671875,1.8750611543655396,-3.0334463119506836,-9.135247230529785
1775728169293522700,8.666522705078124,1.738745093345642,-2.8347318172454834,-9.22558879852295
1775728169303532300,8.6765322265625,1.61627197265625,-2.6555371284484863,-9.30086898803711
1775728169313603300,8.686603271484374,1.5086218118667603,-2.4972777366638184,-9.362588882446289
1775728169323643400,8.696643310546875,1.415939450263977,-2.36260986328125,-9.411886215209961
1775728169333714200,8.706714111328125,1.335551381111145,-2.252187967300415,-9.450626373291016
1775728169343754500,8.71675439453125,1.2655760049819946,-2.1690633296966553,-9.479658126831055
1775728169353825300,8.7268251953125,1.2075411081314087,-2.114257574081421,-9.499587059020996
1775728169363835100,8.736835205078124,1.1599793434143066,-2.0824460983276367,-9.512533187866211
1775728169394047500,8.767047607421874,1.0686267614364624,-2.044600486755371,-9.531423568725586
1775728169404118300,8.7771181640625,1.0433663129806519,-2.0473930835723877,-9.533623695373535
1775728169414219800,8.7872197265625,1.0204410552978516,-2.0585381984710693,-9.533705711364746
1775728169424259800,8.797259765625,0.9995545148849487,-2.0809149742126465,-9.531057357788086
1775728169434361300,8.807361328125,0.9803017973899841,-2.1124885082244873,-9.526111602783203
1775728169444371000,8.817370849609375,0.9609445333480835,-2.148129463195801,-9.520110130310059
1775728169454472400,8.827472412109374,0.9412757754325867,-2.1864993572235107,-9.513339042663574
1775728169464543200,8.837543212890624,0.921414315700531,-2.227681875228882,-9.505724906921387
1775728169484654300,8.857654296875,0.8723136186599731,-2.331928014755249,-9.485333442687988
1775728169494694400,8.8676943359375,0.8536613583564758,-2.3783626556396484,-9.475497245788574
1775728169504765400,8.877765380859374,0.852378785610199,-2.4166674613952637,-9.465917587280273
1775728169514836200,8.887836181640624,0.830958366394043,-2.45584774017334,-9.457732200622559
1775728169524876300,8.897876220703125,0.8190217018127441,-2.4998719692230225,-9.447233200073242
1775728169534916600,8.90791650390625,0.8168588280677795,-2.5475995540618896,-9.434663772583008
1775728169544987400,8.9179873046875,0.824439525604248,-2.605909585952759,-9.418063163757324
1775728169555058200,8.92805810546875,0.8502470254898071,-2.6888427734375,-9.392422676086426
1775728169565129000,8.93812890625,0.9069798588752747,-2.8058955669403076,-9.352792739868164
1775728169585209600,8.958209716796874,1.0371689796447754,-3.0421395301818848,-9.26499080657959
1775728169595280400,8.9682802734375,1.0842267274856567,-3.1333541870117188,-9.22913646697998
1775728169605320700,8.97832080078125,1.116382122039795,-3.215028762817383,-9.197155952453613
1775728169615391500,8.9883916015625,1.1413944959640503,-3.254382848739624,-9.180229187011719
1775728169625462300,8.998462158203125,1.1600199937820435,-3.295876979827881,-9.163074493408203
1775728169635472100,9.00847216796875,1.176522135734558,-3.329807996749878,-9.14869213104248
1775728169645573400,9.018573486328124,1.1919938325881958,-3.3605735301971436,-9.135432243347168
1775728169655583200,9.028583251953124,1.2079147100448608,-3.389617443084717,-9.122599601745605
1775728169665592800,9.0385927734375,1.224971055984497,-3.417715072631836,-9.109833717346191
1775728169685643000,9.05864306640625,1.2817356586456299,-3.4781150817871094,-9.07911205291748
1775728169695744300,9.068744140625,1.3211458921432495,-3.5105292797088623,-9.060968399047852
1775728169705845800,9.078845703125,1.3623231649398804,-3.544330358505249,-9.041692733764648
1775728169715885800,9.0888857421875,1.4180773496627808,-3.596890687942505,-9.012317657470703
1775728169725926100,9.098926025390625,1.4353240728378296,-3.61330509185791,-9.00301456451416
1775728169735997000,9.108996826171875,1.465644359588623,-3.6486854553222656,-8.983839988708496
1775728169746067700,9.119067626953125,1.494156002998352,-3.6845266819000244,-8.964494705200195
1775728169756138500,9.129138427734375,1.523855209350586,-3.7206900119781494,-8.944535255432129
1775728169766178800,9.1391787109375,1.5789903402328491,-3.776566505432129,-8.911495208740234
1775728169806462200,9.179462158203124,1.7726377248764038,-3.9084532260894775,-8.817718505859375
1775728169816563500,9.1895634765625,1.8440465927124023,-3.949274778366089,-8.784823417663574
1775728169826634200,9.19963427734375,1.9684516191482544,-4.018636226654053,-8.726178169250488
1775728169836735500,9.209735595703124,2.062382459640503,-4.071167469024658,-8.680010795593262
1775728169846806300,9.21980615234375,2.160371780395508,-4.128948211669922,-8.628729820251465
1775728169856877000,9.229876953125,2.199552059173584,-4.154755592346191,-8.606414794921875
1775728169866917400,9.23991748046875,2.2873029708862305,-4.215334415435791,-8.553923606872559
1775728169876988200,9.24998828125,2.3777034282684326,-4.280818462371826,-8.496559143066406
1775728169897129700,9.270129638671875,2.568331241607666,-4.419828414916992,-8.368941307067871
1775728169917271300,9.290271240234375,2.7848622798919678,-4.555804252624512,-8.225544929504395
1775728169927311600,9.3003115234375,2.975468635559082,-4.642104625701904,-8.10973834991455
1775728169937382400,9.31038232421875,3.0264339447021484,-4.659553527832031,-8.08082103729248
1775728169947484000,9.32048388671875,3.148430109024048,-4.697342872619629,-8.01203727722168
1775728169957554700,9.3305546875,3.2472214698791504,-4.722174644470215,-7.957828044891357
1775728169967625500,9.34062548828125,3.3287599086761475,-4.742527961730957,-7.911900997161865
1775728169977635000,9.350635009765625,3.447808027267456,-4.773952960968018,-7.841708660125732
1775728169987675400,9.36067529296875,3.569758176803589,-4.809542179107666,-7.765018463134766
1775728170007847700,9.38084765625,3.8504462242126465,-4.923718452453613,-7.556549549102783
1775728170017918500,9.39091845703125,3.942044258117676,-4.980996131896973,-7.471301555633545
1775728170027989200,9.4009892578125,4.02358341217041,-5.045827865600586,-7.383818626403809
1775728170037998800,9.410998779296875,4.0585618019104,-5.079634189605713,-7.34137487411499
1775728170048039200,9.4210390625,4.159244060516357,-5.19235372543335,-7.204897403717041
1775728170058049000,9.431049072265624,4.216108322143555,-5.271047592163086,-7.114131450653076
1775728170068150300,9.441150390625,4.268261432647705,-5.351848125457764,-7.0221123695373535
1775728170078221000,9.451220947265625,4.290377140045166,-5.3921308517456055,-6.977676868438721
1775728170088291800,9.461291748046875,4.33583402633667,-5.471011638641357,-6.887594699859619
1775728170118535000,9.491534912109374,4.491948127746582,-5.724301338195801,-6.574585914611816
1775728170128605700,9.501605712890624,4.535269260406494,-5.789793491363525,-6.486910820007324
1775728170138646000,9.51164599609375,4.555690765380859,-5.821681499481201,-6.443919658660889
1775728170148686300,9.521686279296874,4.6183953285217285,-5.915511131286621,-6.312492370605469
1775728170158757000,9.531757080078124,4.656070709228516,-5.9769287109375,-6.226372241973877
1775728170168797200,9.541797119140625,4.689662456512451,-6.037539482116699,-6.142114162445068
1775728170178868200,9.5518681640625,4.719288349151611,-6.097445011138916,-6.059692859649658
1775728170188939000,9.56193896484375,4.731695652008057,-6.12652063369751,-6.020562648773193
1775728170229161000,9.602160888671875,4.800300598144531,-6.3118767738342285,-5.7695512771606445
1775728170239262500,9.612262451171874,4.80889892578125,-6.339282989501953,-5.732222080230713
1775728170259373600,9.63237353515625,4.7802653312683105,-6.353367805480957,-5.74057149887085
1775728170269383200,9.642383056640625,4.6490020751953125,-6.296309947967529,-5.908778190612793
1775728170279484700,9.652484619140624,4.606945514678955,-6.270606994628906,-5.96874475479126
1775728170289524700,9.662524658203125,4.571092128753662,-6.23714542388916,-6.031045436859131
1775728170299595500,9.672595458984375,4.543755054473877,-6.194622039794922,-6.095190525054932
1775728170329808100,9.70280810546875,4.452642440795898,-5.998610496520996,-6.353033065795898
1775728170339879000,9.71287890625,4.409582138061523,-5.911462783813477,-6.4637908935546875
1775728170349949700,9.72294970703125,4.340123653411865,-5.749948501586914,-6.653707027435303
1775728170360020500,9.7330205078125,4.292582035064697,-5.6107683181762695,-6.801722049713135
1775728170370060800,9.743060791015624,4.26687479019165,-5.532196521759033,-6.881784439086914
1775728170380101000,9.75310107421875,4.219583034515381,-5.232711315155029,-7.140325546264648
1775728170390172000,9.763171875,4.198151588439941,-4.991156101226807,-7.323542594909668
1775728170400242700,9.77324267578125,4.178500175476074,-4.719766139984131,-7.512279987335205
1775728170460697900,9.83369775390625,3.7905666828155518,-2.9983766078948975,-8.532979011535645
1775728170470738200,9.84373828125,3.678647994995117,-2.7624917030334473,-8.66063404083252
1775728170480809000,9.85380908203125,3.544036626815796,-2.5635926723480225,-8.777139663696289
1775728170490879700,9.863879638671875,3.389986276626587,-2.402129888534546,-8.883027076721191
1775728170500920000,9.873920166015624,3.223628044128418,-2.274199962615967,-8.978119850158691
1775728170551274000,9.92427392578125,2.4216108322143555,-2.02376651763916,-9.284965515136719
1775728170561314300,9.934314208984375,2.2458558082580566,-2.0408737659454346,-9.32530689239502
1775728170571385000,9.944385009765625,2.0854201316833496,-2.0978333950042725,-9.349894523620605
1775728170581425400,9.95442529296875,1.9289532899856567,-2.2041826248168945,-9.35901165008545
1775728170591465700,9.9644658203125,1.7867274284362793,-2.3130764961242676,-9.360965728759766
1775728170601536500,9.97453662109375,1.6062963008880615,-2.447150945663452,-9.359576225280762
1775728170611637800,9.9846376953125,1.5182085037231445,-2.5579514503479004,-9.344640731811523
1775728170672001500,10.04500146484375,1.3549782037734985,-2.822502613067627,-9.293435096740723
1775728170682011400,10.055011474609374,1.3725029230117798,-2.798278570175171,-9.298185348510742
1775728170692082200,10.065082275390624,1.4056527614593506,-2.751925230026245,-9.307064056396484
1775728170702183400,10.075183349609375,1.4188659191131592,-2.7390024662017822,-9.308871269226074
1775728170712223700,10.0852236328125,1.438130497932434,-2.713107109069824,-9.313497543334961
1775728170722264000,10.09526416015625,1.449175477027893,-2.692204475402832,-9.317849159240723
1775728170762547200,10.135547119140625,1.3780090808868408,-2.699336051940918,-9.326581001281738
1775728170772648700,10.145648681640624,1.3768361806869507,-2.7275965213775635,-9.318526268005371
1775728170782719500,10.155719482421874,1.3248741626739502,-2.766636848449707,-9.314549446105957
1775728170792759800,10.165759765625,1.318389892578125,-2.807323455810547,-9.303288459777832
1775728170802799900,10.1757998046875,1.3743501901626587,-2.8669917583465576,-9.276955604553223
1775728170812871000,10.185870849609374,1.3506888151168823,-2.8873891830444336,-9.274105072021484
1775728170822941700,10.195941650390624,1.3555587530136108,-2.899690866470337,-9.26955509185791
1775728170853154000,10.226154052734374,1.2733017206192017,-2.8758974075317383,-9.28861141204834
1775728170873326000,10.246326171875,1.249603033065796,-2.862278938293457,-9.29603385925293
1775728170883396900,10.25639697265625,1.2329918146133423,-2.852729320526123,-9.301187515258789
1775728170893406700,10.26640673828125,1.2215840816497803,-2.8441414833068848,-9.305320739746094
1775728170903508000,10.276508056640624,1.2172313928604126,-2.8381030559539795,-9.307733535766602
1775728170913609200,10.286609130859375,1.225037693977356,-2.839975595474243,-9.30613899230957
1775728170923680000,10.296679931640625,1.2394777536392212,-2.8463830947875977,-9.302268981933594
1775728170933751000,10.3067509765625,1.2585909366607666,-2.8577916622161865,-9.296202659606934
1775728170963871700,10.336871826171874,1.3293089866638184,-2.9168498516082764,-9.26797103881836
1775728170973881600,10.346881591796874,1.3509761095046997,-2.942136526107788,-9.256839752197266
1775728170983922000,10.356921875,1.3724253177642822,-2.968766450881958,-9.245176315307617
1775728170993931500,10.366931640625,1.3987536430358887,-3.0035274028778076,-9.229988098144531
1775728171004033000,10.377032958984374,1.414731740951538,-3.0252363681793213,-9.220458984375
1775728171024144000,10.397143798828125,1.5158460140228271,-3.157412528991699,-9.159876823425293
1775728171034214700,10.407214599609375,1.571652889251709,-3.2333319187164307,-9.123918533325195
1775728171064427300,10.43742724609375,1.762084722518921,-3.4810004234313965,-8.997115135192871
1775728171074467600,10.447467529296874,1.9479867219924927,-3.642611026763916,-8.894217491149902
1775728171084538400,10.457538330078124,2.0178635120391846,-3.6967363357543945,-8.856226921081543
1775728171094609200,10.467609130859374,2.1790103912353516,-3.8082902431488037,-8.770362854003906
1775728171104680000,10.477679931640624,2.355756998062134,-3.925912380218506,-8.672255516052246
1775728171114689500,10.487689453125,2.644028425216675,-4.121639728546143,-8.496562957763672
1775728171124791000,10.497791015625,2.734705686569214,-4.184937953948975,-8.436711311340332
1775728171134861800,10.50786181640625,3.0369911193847656,-4.397110939025879,-8.222681045532227
1775728171175114500,10.548114501953124,3.6963791847229004,-4.863377571105957,-7.671684741973877
1775728171185185300,10.558185302734374,3.7707204818725586,-4.917302131652832,-7.600802898406982
1775728171195225600,10.5682255859375,3.945284366607666,-5.042044639587402,-7.428519248962402
1775728171205296400,10.57829638671875,4.110861301422119,-5.170014381408691,-7.248597621917725
1775728171215397600,10.588397705078124,4.266412258148193,-5.300085067749023,-7.062379837036133
1775728171225468400,10.598468505859374,4.410407066345215,-5.4280924797058105,-6.874190807342529
1775728171235478300,10.608478271484374,4.5436015129089355,-5.5521392822265625,-6.685794353485107
1775728171255650300,10.628650390625,4.78247594833374,-5.780450344085693,-6.315433502197266
1775728171265690600,10.638690673828124,4.890407085418701,-5.878758430480957,-6.139585494995117
1775728171275792000,10.6487919921875,4.992394924163818,-5.964031219482422,-5.972997665405273
1775728171285893000,10.65889306640625,5.089775085449219,-6.036020755767822,-5.816445350646973
1775728171295964200,10.668964111328124,5.228024482727051,-6.121261119842529,-5.600742340087891
1775728171306035000,10.679034912109374,5.27135705947876,-6.146090030670166,-5.53251838684082
1775728171316105700,10.689105712890624,5.355130195617676,-6.187987327575684,-5.403868675231934
1775728171326146000,10.69914599609375,5.432966709136963,-6.223872184753418,-5.283622741699219
1775728171336186000,10.70918603515625,5.50264310836792,-6.256110191345215,-5.1722731590271
1775728171346287600,10.71928759765625,5.563462257385254,-6.285841941833496,-5.070152759552002
1775728171366337500,10.739337646484374,5.671777248382568,-6.356670379638672,-4.8573737144470215
1775728171376408300,10.749408203125,5.685091972351074,-6.370782375335693,-4.823198318481445
1775728171386448600,10.75944873046875,5.716249465942383,-6.415531158447266,-4.726080417633057
1775728171396519400,10.76951953125,5.722172260284424,-6.43063497543335,-4.698305130004883
1775728171406620700,10.77962060546875,5.731548309326172,-6.460991859436035,-4.644925117492676
1775728171416630500,10.789630615234374,5.732630252838135,-6.490790843963623,-4.601844310760498
1775728171426701300,10.799701416015624,5.723802089691162,-6.519669055938721,-4.57191276550293
1775728171436802600,10.809802490234375,5.705092906951904,-6.546454906463623,-4.556999206542969
1775728171446904000,10.819904052734374,5.676224708557129,-6.569570064544678,-4.559781074523926
1775728171467076000,10.840076171875,5.591636657714844,-6.603067398071289,-4.615571975708008
1775728171477147000,10.85014697265625,5.534547805786133,-6.612578392028809,-4.670437335968018
1775728171487187200,10.860187255859374,5.463846683502197,-6.616568088531494,-4.74739933013916
1775728171497258000,10.870258056640624,5.3737711906433105,-6.610342025756836,-4.857608318328857
1775728171517430000,10.890429931640625,5.07370138168335,-6.512986660003662,-5.292348861694336
1775728171527531500,10.900531494140624,4.894498348236084,-6.438626289367676,-5.546022891998291
1775728171537571800,10.91057177734375,4.821514129638672,-6.399755954742432,-5.653892517089844
1775728171547581400,10.92058154296875,4.698864936828613,-6.329191207885742,-5.833729267120361
1775728171577732900,10.95073291015625,4.32496976852417,-6.028360843658447,-6.412790775299072
1775728171587803600,10.9608037109375,4.186978340148926,-5.89449405670166,-6.625296115875244
1775728171597874400,10.97087451171875,4.035132884979248,-5.745260715484619,-6.846902370452881
1775728171607975700,10.9809755859375,3.866655111312866,-5.583187103271484,-7.0744194984436035
1775728171618046500,10.99104638671875,3.5857934951782227,-5.322627067565918,-7.414991855621338
1775728171628148000,11.00114794921875,3.4843039512634277,-5.228693962097168,-7.529328346252441
1775728171638249200,11.011249267578124,3.2716479301452637,-5.031627655029297,-7.755606174468994
1775728171648320000,11.021320068359374,2.9356889724731445,-4.704192161560059,-8.08842945098877
1775728171658390800,11.031390869140624,2.706108331680298,-4.46626615524292,-8.300594329833984
1775728171688633600,11.061633544921875,2.023038387298584,-3.6808338165283203,-8.861668586730957
1775728171698704600,11.07170458984375,1.8028547763824463,-3.4058492183685303,-9.017778396606445
1775728171708775400,11.081775390625,1.694393277168274,-3.2663071155548096,-9.090141296386719
1775728171718815500,11.0918154296875,1.3941154479980469,-2.8604166507720947,-9.276037216186523
1775728171728917000,11.1019169921875,1.2998906373977661,-2.726224422454834,-9.329971313476562
1775728171738957300,11.111957275390624,1.1321791410446167,-2.4764065742492676,-9.421038627624512
1775728171749058600,11.12205859375,0.9824498891830444,-2.244621992111206,-9.495623588562012
1775728171759129300,11.13212939453125,0.7947465181350708,-1.9416413307189941,-9.579604148864746
1775728171779301400,11.15230126953125,0.6419146656990051,-1.6954765319824219,-9.63762092590332
1775728171789372200,11.1623720703125,0.5233380198478699,-1.5092023611068726,-9.675682067871094
1775728171799443000,11.17244287109375,0.45776042342185974,-1.418740153312683,-9.692678451538086
1775728171809513700,11.182513671875,0.40726542472839355,-1.3561204671859741,-9.703888893127441
1775728171819615200,11.192615234375,0.36970701813697815,-1.316786527633667,-9.710806846618652
1775728171829686000,11.20268603515625,0.34716567397117615,-1.3044111728668213,-9.713309288024902
1775728171839695600,11.212695556640625,0.33958354592323303,-1.3156142234802246,-9.712066650390625
1775728171849736000,11.22273583984375,0.3517315089702606,-1.3710505962371826,-9.703963279724121
1775728171859776300,11.2327763671875,0.38667672872543335,-1.4810713529586792,-9.686450958251953
1775728171889958100,11.262958251953124,0.4293745756149292,-1.5962308645248413,-9.666337013244629
1775728171910099700,11.283099609375,0.4551374018192291,-1.627112627029419,-9.660008430480957
1775728171920170500,11.29317041015625,0.46666035056114197,-1.6449370384216309,-9.656437873840332
1775728171930272000,11.30327197265625,0.46790802478790283,-1.6664528846740723,-9.652688980102539
1775728171940342800,11.3133427734375,0.4659377634525299,-1.6916873455047607,-9.648393630981445
1775728171950413600,11.32341357421875,0.45914268493652344,-1.719605803489685,-9.643782615661621
1775728171960423200,11.333423095703125,0.45125705003738403,-1.7533997297286987,-9.638068199157715
1775728171970524700,11.343524658203124,0.45469343662261963,-1.784735083580017,-9.632152557373047
1775728172010777300,11.38377734375,0.48385876417160034,-2.137708902359009,-9.558582305908203
1775728172020848000,11.39384814453125,0.5130746364593506,-2.2553374767303467,-9.529985427856445
1775728172030919000,11.4039189453125,0.5096294283866882,-2.331188440322876,-9.511898040771484
1775728172040928800,11.4139287109375,0.4998571276664734,-2.397378921508789,-9.495953559875488
1775728172050968800,11.42396875,0.47497519850730896,-2.4751200675964355,-9.477267265319824
1775728172061070300,11.4340703125,0.4740297198295593,-2.5338656902313232,-9.461776733398438
1775728172071141000,11.44414111328125,0.47805824875831604,-2.5901756286621094,-9.446314811706543
1775728172081181400,11.454181396484374,0.4862833619117737,-2.644845485687256,-9.430731773376465
1775728172131535400,11.504535400390624,0.6545248031616211,-2.931288480758667,-9.335392951965332
1775728172141575700,11.51457568359375,0.7226955890655518,-2.999417543411255,-9.308685302734375
1775728172151677000,11.524677001953124,0.7612456679344177,-3.0346179008483887,-9.294193267822266
1775728172161717200,11.53471728515625,0.8428415656089783,-3.106431007385254,-9.263375282287598
1775728172171818500,11.544818603515624,0.9308476448059082,-3.1804287433624268,-9.229776382446289
1775728172181828400,11.554828369140624,1.0760759115219116,-3.2921125888824463,-9.174663543701172
1775728172191929600,11.5649296875,1.1864595413208008,-3.366900682449341,-9.133821487426758
1775728172232151800,11.60515185546875,1.6675978899002075,-3.637617349624634,-8.953057289123535
1775728172242192100,11.615192138671874,1.8213412761688232,-3.7209906578063965,-8.888607025146484
1775728172252263000,11.625262939453124,2.0434041023254395,-3.8453030586242676,-8.786837577819824
1775728172262333700,11.635333740234374,2.1862406730651855,-3.9271750450134277,-8.715963363647461
1775728172272404500,11.645404541015624,2.3314692974090576,-4.012299060821533,-8.6392183303833
1775728172282475300,11.655475341796874,2.4841887950897217,-4.104706287384033,-8.552812576293945
1775728172292546000,11.665546142578124,2.55995774269104,-4.152309894561768,-8.507369041442871
1775728172302616800,11.675616943359374,2.7138288021087646,-4.258197784423828,-8.40674114227295
1775728172332737800,11.70573779296875,3.111513614654541,-4.573400020599365,-8.097708702087402
1775728172342778000,11.715778076171874,3.3089778423309326,-4.71262788772583,-7.938023567199707
1775728172352849000,11.725848876953124,3.42185378074646,-4.787144184112549,-7.845033645629883
1775728172362919700,11.735919677734374,3.5463945865631104,-4.855420112609863,-7.747152805328369
1775728172372990500,11.745990478515624,3.6717450618743896,-4.913056373596191,-7.651834011077881
1775728172383000000,11.756,3.7078163623809814,-4.931221961975098,-7.62269926071167
1775728172393040400,11.766040283203125,3.9279794692993164,-4.97943115234375,-7.479747772216797
1775728172413182000,11.786181884765625,4.034060955047607,-4.935863494873047,-7.452112197875977
1775728172453404200,11.826404052734375,4.778453826904297,-4.831410884857178,-7.070660591125488
1775728172463444500,11.836444580078124,4.935916900634766,-4.81392240524292,-6.9737548828125
1775728172473515300,11.846515380859374,5.0806193351745605,-4.803861141204834,-6.876091003417969
1775728172483555600,11.8565556640625,5.2077178955078125,-4.804619789123535,-6.779799938201904
1775728172493596000,11.866595947265624,5.263067722320557,-4.807618618011475,-6.734783172607422
1775728172503636200,11.87663623046875,5.361545085906982,-4.831040859222412,-6.639673233032227
1775728172523777800,11.89677783203125,5.485870838165283,-4.942237377166748,-6.453672885894775
1775728172543919400,11.91691943359375,5.583942413330078,-5.1233367919921875,-6.224259853363037
1775728172554020600,11.9270205078125,5.59623908996582,-5.1613640785217285,-6.181652069091797
1775728172564061000,11.93706103515625,5.62502384185791,-5.23001766204834,-6.097247123718262
1775728172574131700,11.947131591796875,5.6565093994140625,-5.290021896362305,-6.015809535980225
1775728172584202500,11.957202392578125,5.690492153167725,-5.340936660766602,-5.938274383544922
1775728172594273300,11.967273193359375,5.728034496307373,-5.380346298217773,-5.866164684295654
1775728172604344000,11.977343994140625,5.77126407623291,-5.406662940979004,-5.799215316772461
1775728172624516400,11.997516357421874,5.88676118850708,-5.435036659240723,-5.654804706573486
1775728172634526000,12.00752587890625,5.92234992980957,-5.444657802581787,-5.608195781707764
1775728172644566300,12.017566162109375,5.936609745025635,-5.450222015380859,-5.5876784324646
1775728172654576000,12.027576171875,5.95736026763916,-5.4626264572143555,-5.553374290466309
1775728172664677400,12.037677490234374,5.9718708992004395,-5.471350193023682,-5.529148101806641
1775728172674748200,12.047748046875,5.981454849243164,-5.4771199226379395,-5.513052940368652
1775728172684788500,12.05778857421875,5.983857154846191,-5.482517242431641,-5.505075931549072
1775728172694798300,12.06779833984375,5.974884510040283,-5.490623950958252,-5.506740570068359
1775728172704808000,12.077807861328125,5.951311111450195,-5.50290060043335,-5.519996643066406
1775728172735020500,12.1080205078125,5.78279447555542,-5.549059867858887,-5.651337146759033
1775728172745091300,12.11809130859375,5.698589324951172,-5.557912349700928,-5.727659225463867
1775728172755162000,12.128162109375,5.609891414642334,-5.550573348999023,-5.821566104888916
1775728172765202400,12.138202392578124,5.521085262298584,-5.5191240310668945,-5.9352569580078125
1775728172785344000,12.158343994140624,5.289161682128906,-5.333414554595947,-6.304747104644775
1775728172795445200,12.1684453125,5.182707786560059,-5.235119819641113,-6.473288536071777
1775728172805516000,12.17851611328125,5.015956401824951,-5.075021266937256,-6.727164268493652
1775728172815586800,12.1885869140625,4.951744079589844,-5.01240873336792,-6.8210248947143555
1775728172845738200,12.21873828125,4.423919677734375,-4.548157215118408,-7.477539539337158
1775728172855748000,12.228748046875,4.331203937530518,-4.475839138031006,-7.574821472167969
1775728172865757700,12.2387578125,4.135983943939209,-4.337100982666016,-7.762317180633545
1775728172875859000,12.24885888671875,3.922767162322998,-4.197429656982422,-7.94757080078125
1775728172885868800,12.258868896484374,3.6959848403930664,-4.0608015060424805,-8.12526798248291
1775728172896000800,12.269000732421874,3.457502603530884,-3.9251341819763184,-8.295143127441406
1775728172906071600,12.279071533203124,3.208223342895508,-3.7883639335632324,-8.457304000854492
1775728172916172800,12.2891728515625,2.9520950317382812,-3.6485354900360107,-8.610674858093262
1775728172946293800,12.319293701171874,2.224163293838501,-3.217087507247925,-8.992988586425781
1775728172956395000,12.32939501953125,2.0165817737579346,-3.0694217681884766,-9.09299087524414
1775728172966435300,12.339435302734374,1.8346222639083862,-2.9254326820373535,-9.178584098815918
1775728172976506000,12.349506103515624,1.676999807357788,-2.7860991954803467,-9.251794815063477
1775728172986515700,12.359515625,1.5456920862197876,-2.655008316040039,-9.313011169433594
1775728172996617200,12.3696171875,1.437390685081482,-2.5321967601776123,-9.36441707611084
1775728173006688000,12.37968798828125,1.3467986583709717,-2.415945053100586,-9.40849494934082
1775728173016758800,12.3897587890625,1.2672771215438843,-2.3036422729492188,-9.447627067565918
1775728173036900400,12.409900390625,1.127200961112976,-2.105092763900757,-9.511488914489746
1775728173046971100,12.41997119140625,1.06973135471344,-2.033897876739502,-9.533589363098145
1775728173057042000,12.4300419921875,1.0273656845092773,-1.9877619743347168,-9.547969818115234
1775728173067112700,12.44011279296875,0.997654378414154,-1.9662129878997803,-9.55557918548584
1775728173077122600,12.45012255859375,0.9827551245689392,-1.9752365350723267,-9.555261611938477
1775728173087163000,12.460162841796874,0.9800642132759094,-2.0110208988189697,-9.54807186126709
1775728173097264000,12.47026416015625,0.9704590439796448,-2.0253381729125977,-9.546026229858398
1775728173107304400,12.480304443359374,0.9652413129806519,-2.0455422401428223,-9.54224681854248
1775728173117405700,12.49040576171875,0.960978090763092,-2.072239875793457,-9.536916732788086
1775728173137547300,12.51054736328125,0.9483268857002258,-2.17380428314209,-9.515546798706055
1775728173147557000,12.52055712890625,0.9445933699607849,-2.2299699783325195,-9.502913475036621
1775728173157658400,12.530658447265624,0.9455105066299438,-2.266018867492676,-9.494290351867676
1775728173167668200,12.540668212890624,0.9410097002983093,-2.334440231323242,-9.478147506713867
1775728173177708500,12.55070849609375,0.9374069571495056,-2.4113292694091797,-9.459237098693848
1775728173187748600,12.56074853515625,0.9348901510238647,-2.490675687789917,-9.43890380859375
1775728173197850000,12.57085009765625,0.9348011612892151,-2.5699965953826904,-9.417625427246094
1775728173207859700,12.580859619140625,0.9388777613639832,-2.645350933074951,-9.396330833435059
1775728173217930500,12.590930419921875,0.9518027305603027,-2.7121191024780273,-9.375974655151367
1775728173248112400,12.6211123046875,1.0444915294647217,-2.894012928009033,-9.311505317687988
1775728173258183200,12.63118310546875,1.0686392784118652,-2.925474166870117,-9.29892349243164
1775728173268193000,12.641193115234374,1.1046671867370605,-2.975335121154785,-9.278874397277832
1775728173278294300,12.651294189453125,1.136709451675415,-3.0234360694885254,-9.25943374633789
1775728173288365000,12.661364990234375,1.1680957078933716,-3.0725300312042236,-9.239344596862793
1775728173298405400,12.6714052734375,1.2137672901153564,-3.1522433757781982,-9.206548690795898
1775728173308476200,12.68147607421875,1.2456237077713013,-3.213463306427002,-9.181093215942383
1775728173318547000,12.691546875,1.2696576118469238,-3.250657796859741,-9.164692878723145
1775728173328618000,12.701617919921874,1.3064204454421997,-3.322716236114502,-9.133630752563477
1775728173348668000,12.72166796875,1.4115931987762451,-3.4851043224334717,-9.057144165039062
1775728173358769200,12.73176904296875,1.4490420818328857,-3.5596985816955566,-9.022151947021484
1775728173368840000,12.74183984375,1.4811813831329346,-3.6296863555908203,-8.988986015319824
1775728173378880300,12.75188037109375,1.5095117092132568,-3.6959455013275146,-8.9572172164917
1775728173399021800,12.772021728515625,1.5690885782241821,-3.815328359603882,-8.896719932556152
1775728173409123300,12.782123291015624,1.604004979133606,-3.868175983428955,-8.86762523651123
1775728173419224600,12.792224609375,1.6442410945892334,-3.918447732925415,-8.838136672973633
1775728173429265000,12.802264892578124,1.6872981786727905,-3.9646918773651123,-8.809349060058594
1775728173469548000,12.842548095703124,1.8734692335128784,-4.144993782043457,-8.687896728515625
1775728173479588400,12.85258837890625,1.8932392597198486,-4.159492492675781,-8.676671981811523
1775728173489689600,12.862689697265624,1.9346990585327148,-4.187864780426025,-8.653848648071289
1775728173499760400,12.872760498046874,1.9757217168807983,-4.211230754852295,-8.633218765258789
1775728173509861600,12.882861572265625,2.0153579711914062,-4.230069160461426,-8.614827156066895
1775728173519932700,12.8929326171875,2.0531036853790283,-4.245227813720703,-8.598441123962402
1775728173530003500,12.90300341796875,2.0905516147613525,-4.256392478942871,-8.58388614654541
1775728173540074200,12.91307421875,2.1286232471466064,-4.262703895568848,-8.571390151977539
1775728173560185300,12.933185302734374,2.2007229328155518,-4.258587837219238,-8.55521297454834
1775728173570286600,12.94328662109375,2.23514986038208,-4.249505996704102,-8.550800323486328
1775728173580357400,12.953357421875,2.2895421981811523,-4.231095314025879,-8.545536994934082
1775728173590397700,12.963397705078124,2.306607723236084,-4.224358558654785,-8.544281005859375
1775728173600468500,12.973468505859374,2.371105909347534,-4.204448699951172,-8.536443710327148
1775728173610539300,12.983539306640624,2.387468099594116,-4.200188636779785,-8.533979415893555
1775728173620640500,12.993640625,2.4279603958129883,-4.193273544311523,-8.525952339172363
1775728173630741800,13.00374169921875,2.496828079223633,-4.187412261962891,-8.508925437927246
1775728173640751600,13.013751708984374,2.4989728927612305,-4.184416770935059,-8.509770393371582
1775728173650852900,13.023852783203125,2.54459285736084,-4.179492950439453,-8.498663902282715
1775728173670994700,13.04399462890625,2.6574299335479736,-4.173196792602539,-8.467164039611816
1775728173691075000,13.064074951171875,2.7939867973327637,-4.174081802368164,-8.422652244567871
1775728173701176600,13.074176513671874,2.869417905807495,-4.174372673034668,-8.397109031677246
1775728173711247400,13.084247314453124,2.944225788116455,-4.173023700714111,-8.371845245361328
1775728173721348600,13.0943486328125,3.055936574935913,-4.1739654541015625,-8.331245422363281
1775728173731419400,13.10441943359375,3.05534029006958,-4.167065620422363,-8.334918022155762
1775728173741490200,13.114490234375,3.1295828819274902,-4.177928924560547,-8.30186939239502
1775728173751500000,13.1245,3.2114980220794678,-4.199984073638916,-8.259347915649414
1775728173771580400,13.144580322265625,3.4057531356811523,-4.303202152252197,-8.127341270446777
1775728173781620700,13.154620849609374,3.437911033630371,-4.330079555511475,-8.099479675292969
1775728173791630600,13.164630615234374,3.4985132217407227,-4.393968105316162,-8.038895606994629
1775728173801701400,13.174701416015624,3.559936285018921,-4.457946300506592,-7.9764628410339355
1775728173811711200,13.184711181640624,3.612757921218872,-4.531322956085205,-7.911099433898926
1775728173821812500,13.1948125,3.6547787189483643,-4.610987663269043,-7.845494270324707
1775728173831883300,13.20488330078125,3.696995735168457,-4.69019079208374,-7.778477191925049
1775728173841954000,13.2149541015625,3.7366909980773926,-4.768829345703125,-7.711407661437988
1775728173852024800,13.22502490234375,3.7747039794921875,-4.844994068145752,-7.645132064819336
1775728173882237200,13.2552373046875,3.8831124305725098,-5.047194480895996,-7.4577250480651855
1775728173892247000,13.2652470703125,3.9170010089874268,-5.103529453277588,-7.4014506340026855
1775728173902378800,13.275378662109375,3.9495186805725098,-5.154930114746094,-7.348361015319824
1775728173912449500,13.285449462890625,3.9803013801574707,-5.202232837677002,-7.298243999481201
1775728173922520300,13.295520263671875,4.022111415863037,-5.265864372253418,-7.229362964630127
1775728173932591400,13.30559130859375,4.032036304473877,-5.285695552825928,-7.209333896636963
1775728173942692600,13.315692626953124,4.049322605133057,-5.322836399078369,-7.1722235679626465
1775728173952763400,13.325763427734374,4.0596818923950195,-5.357766151428223,-7.140288829803467
1775728173972905000,13.345905029296874,4.051403522491455,-5.436364650726318,-7.0853681564331055
1775728173982945300,13.3559453125,4.041437149047852,-5.450109004974365,-7.080500602722168
1775728173993046500,13.366046630859374,4.009421348571777,-5.488278865814209,-7.069209575653076
1775728174003117300,13.376117431640624,3.9911301136016846,-5.499234676361084,-7.071045398712158
1775728174013096700,13.3860966796875,3.953463315963745,-5.519211292266846,-7.076638221740723
1775728174023167500,13.39616748046875,3.9055163860321045,-5.534557342529297,-7.091263771057129
1775728174033177000,13.406177001953125,3.8451480865478516,-5.544256687164307,-7.116631984710693
1775728174043278600,13.416278564453124,3.7570016384124756,-5.545307636260986,-7.16274356842041
1775728174053379800,13.4263798828125,3.6342971324920654,-5.532175540924072,-7.235836982727051
1775728174063450600,13.43645068359375,3.518321990966797,-5.507507801055908,-7.3115763664245605
1775728174093632500,13.466632568359374,3.2562224864959717,-5.3664984703063965,-7.534460544586182
1775728174103703300,13.476703369140624,3.200448751449585,-5.329938888549805,-7.584146499633789
1775728174113804500,13.486804443359375,3.1495189666748047,-5.296555995941162,-7.628722667694092
1775728174123875300,13.496875244140625,3.0970518589019775,-5.266522407531738,-7.6708807945251465
1775728174133946000,13.506946044921875,3.042715311050415,-5.232486724853516,-7.715786457061768
1775728174144017200,13.51701708984375,2.986156940460205,-5.19345235824585,-7.764103412628174
1775728174154088000,13.527087890625,2.900481939315796,-5.126877307891846,-7.840454578399658
1775728174164128000,13.5371279296875,2.841787576675415,-5.074275493621826,-7.895971298217773
1775728174194371000,13.56737109375,2.6868362426757812,-4.903462886810303,-8.056509017944336
1775728174204411400,13.577411376953124,2.626898765563965,-4.817856311798096,-8.12761116027832
1775728174214451700,13.58745166015625,2.5423598289489746,-4.676944255828857,-8.236079216003418
1775728174234562600,13.6075625,2.421668767929077,-4.4713664054870605,-8.385272026062012
1775728174244664000,13.6176640625,2.389338254928589,-4.416788578033447,-8.42338752746582
1775728174254673700,13.627673583984375,2.2905707359313965,-4.2545247077941895,-8.533621788024902
1775728174264744400,13.637744384765625,2.2567713260650635,-4.199435710906982,-8.56983757019043
1775728174304997400,13.677997314453124,2.002540349960327,-3.750028371810913,-8.837279319763184
1775728174315068200,13.688068115234374,1.9861159324645996,-3.7090470790863037,-8.858255386352539
1775728174325139000,13.698138916015624,1.9565602540969849,-3.6076433658599854,-8.906579971313477
1775728174335179300,13.70817919921875,1.960660696029663,-3.583106279373169,-8.91557788848877
1775728174345219300,13.71821923828125,1.9775505065917969,-3.5473573207855225,-8.926138877868652
1775728174355259600,13.728259765625,2.0258851051330566,-3.5340089797973633,-8.920592308044434
1775728174365330400,13.738330322265625,2.0581042766571045,-3.5148847103118896,-8.92077350616455
1775728174385472000,13.758471923828125,2.1310720443725586,-3.5031566619873047,-8.908245086669922
1775728174395542800,13.768542724609375,2.1728615760803223,-3.51481032371521,-8.893548011779785
1775728174405613800,13.77861376953125,2.2443675994873047,-3.552694797515869,-8.860675811767578
1775728174415715000,13.788715087890624,2.27125883102417,-3.5673134326934814,-8.847940444946289
1775728174425785900,13.798785888671874,2.329444646835327,-3.604029893875122,-8.817882537841797
1775728174435856600,13.808856689453124,2.3939778804779053,-3.644451379776001,-8.783919334411621
1775728174445958000,13.8189580078125,2.4645636081695557,-3.686521530151367,-8.746764183044434
1775728174456028700,13.829028564453125,2.5394175052642822,-3.727924108505249,-8.707717895507812
1775728174466130200,13.839130126953124,2.5777008533477783,-3.7479426860809326,-8.687851905822754
1775728174496312000,13.86931201171875,2.8508622646331787,-3.8841915130615234,-8.541430473327637
1775728174506382800,13.8793828125,2.9577062129974365,-3.9398350715637207,-8.479392051696777
1775728174516453600,13.88945361328125,2.990241527557373,-3.959946870803833,-8.458585739135742
1775728174536625700,13.909625732421874,3.1123838424682617,-4.033839225769043,-8.379236221313477
1775728174546696400,13.919696533203124,3.1630911827087402,-4.069366455078125,-8.34299087524414
1775728174556767200,13.929767333984374,3.205242156982422,-4.104473114013672,-8.309639930725098
1775728174566807600,13.9398076171875,3.236715316772461,-4.138397693634033,-8.280563354492188
1775728174576878300,13.94987841796875,3.2556402683258057,-4.171982288360596,-8.256255149841309
1775728174607090700,13.980090576171875,3.227306842803955,-4.285521030426025,-8.20909309387207
1775728174617161500,13.990161376953125,3.188230276107788,-4.321345329284668,-8.205580711364746
1775728174627201800,14.000201904296874,3.1591217517852783,-4.344166278839111,-8.204789161682129
1775728174637242000,14.0102421875,3.0630059242248535,-4.397483825683594,-8.2128267288208
1775728174647252000,14.020251953125,3.011216878890991,-4.429783344268799,-8.214621543884277
1775728174657353200,14.030353271484374,2.9117190837860107,-4.485936641693115,-8.220015525817871
1775728174667424000,14.040424072265624,2.7986207008361816,-4.555585861206055,-8.22099494934082
1775728174677494800,14.050494873046874,2.710308790206909,-4.5908589363098145,-8.230955123901367
