time,seconds_elapsed,z,y,x
1775728160738999600,0.11199951171875,-1267.0799560546875,-319.5,555.3599853515625
1775728160748839700,0.121839599609375,-1260.5399169921875,-320.4599914550781,562.9199829101562
1775728160758710500,0.13171044921875,-1259.93994140625,-320.3999938964844,562.5599975585938
1775728160768650800,0.141650634765625,-1259.0399169921875,-321.05999755859375,561.2999877929688
1775728160778752300,0.151752197265625,-1258.3199462890625,-320.6999816894531,562.1400146484375
1775728160788823000,0.161822998046875,-1257.9599609375,-320.4599914550781,562.739990234375
1775728160798893800,0.171893798828125,-1257.179931640625,-320.3999938964844,562.739990234375
1775728160808903400,0.1819033203125,-1257.47998046875,-320.6399841308594,563.8800048828125
1775728160819035400,0.192035400390625,-1257.0599365234375,-320.7599792480469,564.1199951171875
1775728160859288000,0.2322880859375,-1259.52001953125,-321.6000061035156,562.3800048828125
1775728160899571200,0.2725712890625,-1260.719970703125,-321.6000061035156,561.8999633789062
1775728160909611500,0.282611572265625,-1260.8399658203125,-321.47998046875,562.260009765625
1775728160919682300,0.292682373046875,-1260.9000244140625,-321.53997802734375,562.4400024414062
1775728160959965400,0.33296533203125,-1262.8199462890625,-321.47998046875,561.5999755859375
1775728160969975300,0.342975341796875,-1261.97998046875,-320.82000732421875,561.719970703125
1775728160990116900,0.363116943359375,-1260.1199951171875,-320.4599914550781,562.0800170898438
1775728161000187600,0.373187744140625,-1259.4599609375,-320.6999816894531,562.2000122070312
1775728161010228000,0.38322802734375,-1258.919921875,-321.17999267578125,561.8399658203125
1775728161020329200,0.3933291015625,-1259.280029296875,-321.7200012207031,562.0800170898438
1775728161080723500,0.453723388671875,-1258.02001953125,-321.1199951171875,562.8599853515625
1775728161110875000,0.483875,-1258.3800048828125,-321.53997802734375,562.5
1775728161120915200,0.493915283203125,-1258.97998046875,-321.29998779296875,562.7999877929688
1775728161130986000,0.503986083984375,-1258.739990234375,-321,562.260009765625
1775728161151158000,0.524157958984375,-1259.8199462890625,-320.82000732421875,562.2000122070312
1775728161161229000,0.53422900390625,-1259.93994140625,-320.2200012207031,562.8599853515625
1775728161171299800,0.5442998046875,-1260.419921875,-320.2200012207031,562.8599853515625
1775728161181370600,0.55437060546875,-1261.199951171875,-319.6199951171875,563.2799682617188
1775728161191471900,0.564471923828125,-1260.8399658203125,-319.5,563.9400024414062
1775728161201542700,0.574542724609375,-1260.3599853515625,-319.91998291015625,563.4599609375
1775728161211613400,0.584613525390625,-1260,-319.67999267578125,564
1775728161231694000,0.604694091796875,-1258.679931640625,-319.739990234375,563.2799682617188
1775728161272007700,0.645007568359375,-1259.4599609375,-321.7200012207031,562.0800170898438
1775728161302159000,0.6751591796875,-1259.8199462890625,-321.8399963378906,561.0599975585938
1775728161312260400,0.68526025390625,-1259.3399658203125,-321.6600036621094,561.1799926757812
1775728161332402000,0.70540185546875,-1259.219970703125,-320.6999816894531,561.1199951171875
1775728161342503400,0.71550341796875,-1258.919921875,-319.8599853515625,562.3200073242188
1775728161382817000,0.755817138671875,-1258.260009765625,-319.97998046875,562.739990234375
1775728161392857300,0.765857421875,-1257.8399658203125,-319.97998046875,562.4400024414062
1775728161402928000,0.77592822265625,-1257.780029296875,-320.03997802734375,561.9599609375
1775728161412968400,0.785968505859375,-1258.5,-320.5199890136719,562.2000122070312
1775728161423008800,0.7960087890625,-1258.7999267578125,-320.8800048828125,562.5599975585938
1775728161433079600,0.80607958984375,-1259.3399658203125,-321.17999267578125,562.5599975585938
1775728161443180800,0.816180908203125,-1259.280029296875,-321.239990234375,562.260009765625
1775728161493535000,0.866534912109375,-1258.7999267578125,-319.8599853515625,561.5399780273438
1775728161523686100,0.89668603515625,-1258.43994140625,-319.8599853515625,563.3399658203125
1775728161533696000,0.906696044921875,-1257.8399658203125,-319.32000732421875,563.6400146484375
1775728161543797200,0.91679736328125,-1257.47998046875,-319.739990234375,563.0999755859375
1775728161573979100,0.946979248046875,-1256.699951171875,-319.0199890136719,563.0999755859375
1775728161594059800,0.967059814453125,-1258.0799560546875,-319.1999816894531,563.3999633789062
1775728161614231800,0.987231689453125,-1259.3399658203125,-319.739990234375,563.2799682617188
1775728161624302600,0.997302490234375,-1259.0999755859375,-319.79998779296875,562.97998046875
1775728161634373400,1.007373291015625,-1258.5,-319.32000732421875,562.97998046875
1775728161644444200,1.017444091796875,-1258.8599853515625,-319.44000244140625,563.219970703125
1775728161654515200,1.02751513671875,-1258.43994140625,-319.5,562.7999877929688
1775728161684788500,1.05778857421875,-1258.02001953125,-320.03997802734375,561.719970703125
1775728161715000800,1.088000732421875,-1258.7999267578125,-320.5199890136719,561.2999877929688
1775728161725071600,1.098071533203125,-1258.6199951171875,-320.5199890136719,561.9599609375
1775728161735081500,1.10808154296875,-1258.3199462890625,-319.91998291015625,562.6799926757812
1775728161755253500,1.12825341796875,-1258.02001953125,-319.739990234375,562.5599975585938
1775728161775364600,1.148364501953125,-1258.43994140625,-319.67999267578125,562.0800170898438
1775728161785466000,1.158466064453125,-1258.919921875,-319.91998291015625,562.5599975585938
1775728161795567400,1.1685673828125,-1258.679931640625,-319.2599792480469,563.2799682617188
1775728161805638100,1.17863818359375,-1258.8599853515625,-319.79998779296875,562.5599975585938
1775728161815709000,1.188708984375,-1258.679931640625,-319.97998046875,561.8999633789062
1775728161825810200,1.19881005859375,-1257.9000244140625,-320.2799987792969,561.47998046875
1775728161835850500,1.2088505859375,-1258.97998046875,-320.6399841308594,561.3599853515625
1775728161845951700,1.21895166015625,-1258.919921875,-320.3399963378906,562.1400146484375
1775728161856022500,1.2290224609375,-1258.8599853515625,-320.5199890136719,562.2000122070312
1775728161926610000,1.29960986328125,-1257.9599609375,-319.1399841308594,562.3200073242188
1775728161936619500,1.30961962890625,-1257.9000244140625,-319.5,561.7799682617188
1775728161946720800,1.319720703125,-1258.679931640625,-319.32000732421875,562.260009765625
1775728161956791800,1.329791748046875,-1258.260009765625,-319.1999816894531,562.4400024414062
1775728161966801400,1.339801513671875,-1258.3199462890625,-319.44000244140625,562.1400146484375
1775728161987004200,1.360004150390625,-1257.9599609375,-319.32000732421875,562.6199951171875
1775728161997075000,1.370074951171875,-1260,-319.55999755859375,562.3200073242188
1775728162007176200,1.38017626953125,-1261.260009765625,-318.7799987792969,562.6799926757812
1775728162017247000,1.3902470703125,-1261.1400146484375,-318.29998779296875,562.9199829101562
1775728162027317800,1.40031787109375,-1260.2999267578125,-318.3599853515625,562.5
1775728162037419000,1.4104189453125,-1257.9000244140625,-318.05999755859375,562.5
1775728162047490000,1.420489990234375,-1255.97998046875,-318.17999267578125,561.719970703125
1775728162057560800,1.430560791015625,-1255.7999267578125,-318.53997802734375,561.47998046875
1775728162087742700,1.46074267578125,-1255.6199951171875,-317.8800048828125,562.5
1775728162097844000,1.470843994140625,-1255.8599853515625,-316.97998046875,563.0999755859375
1775728162107914800,1.480914794921875,-1255.6199951171875,-317.4599914550781,563.2799682617188
1775728162117985500,1.490985595703125,-1255.5,-317.1000061035156,563.5800170898438
1775728162128056300,1.501056396484375,-1255.3199462890625,-317.3999938964844,562.9199829101562
1775728162138127000,1.511127197265625,-1254.3599853515625,-317.6999816894531,562.5599975585938
1775728162148198000,1.521197998046875,-1254.5999755859375,-316.6199951171875,563.5199584960938
1775728162178379800,1.5513798828125,-1256.4000244140625,-316.2599792480469,564.1199951171875
1775728162208500700,1.581500732421875,-1255.97998046875,-317.03997802734375,561.239990234375
1775728162218602000,1.59160205078125,-1255.6199951171875,-317.4599914550781,560.3399658203125
1775728162228672800,1.6016728515625,-1255.260009765625,-316.8599853515625,560.7000122070312
1775728162238743600,1.61174365234375,-1253.93994140625,-316.55999755859375,561.3599853515625
1775728162248784000,1.621783935546875,-1253.159912109375,-316.3800048828125,562.3800048828125
1775728162258854700,1.631854736328125,-1253.93994140625,-316.0199890136719,562.6199951171875
1775728162268925400,1.641925537109375,-1253.5799560546875,-316.739990234375,561.9599609375
1775728162278996200,1.651996337890625,-1253.280029296875,-316.8599853515625,562.1400146484375
1775728162319249000,1.692248779296875,-1252.260009765625,-316.1399841308594,563.219970703125
1775728162329319700,1.702319580078125,-1252.260009765625,-315.7200012207031,563.0999755859375
1775728162339421200,1.712421142578125,-1252.43994140625,-316.55999755859375,562.5599975585938
1775728162349461200,1.722461181640625,-1252.3199462890625,-316.8599853515625,562.2000122070312
1775728162359501600,1.73250146484375,-1253.0999755859375,-316.97998046875,562.3800048828125
1775728162369511400,1.742511474609375,-1253.4599609375,-317.1600036621094,562.7999877929688
1775728162379582200,1.752582275390625,-1252.43994140625,-316.1399841308594,563.3399658203125
1775728162399723800,1.772723876953125,-1252.260009765625,-315.6000061035156,563.0999755859375
1775728162429966800,1.802966796875,-1250.760009765625,-315.8999938964844,561.8999633789062
1775728162440037600,1.81303759765625,-1249.5599365234375,-315.6600036621094,561.9599609375
1775728162450139000,1.823138916015625,-1248.780029296875,-315.17999267578125,562.4400024414062
1775728162460179200,1.83317919921875,-1249.02001953125,-315.1199951171875,563.0999755859375
1775728162470250000,1.84325,-1249.679931640625,-314.6999816894531,563.6400146484375
1775728162480320800,1.85332080078125,-1250.4599609375,-315.239990234375,563.0999755859375
1775728162510472200,1.88347216796875,-1250.219970703125,-315.41998291015625,562.5
1775728162520543000,1.89354296875,-1250.0999755859375,-314.2799987792969,562.8599853515625
1775728162530583300,1.903583251953125,-1249.97998046875,-314.3399963378906,562.3800048828125
1775728162540654000,1.913654052734375,-1249.97998046875,-314.7599792480469,561.8399658203125
1775728162550724900,1.923724853515625,-1249.739990234375,-314.8800048828125,561.5399780273438
1775728162560734500,1.933734375,-1249.3199462890625,-315.47998046875,562.2000122070312
1775728162570805200,1.94380517578125,-1249.199951171875,-315.239990234375,562.739990234375
1775728162580845600,1.953845458984375,-1249.0799560546875,-314.8800048828125,563.0399780273438
1775728162590916400,1.963916259765625,-1248.3599853515625,-314.5799865722656,562.739990234375
1775728162600926200,1.97392626953125,-1247.8800048828125,-314.1000061035156,562.5599975585938
1775728162641239800,2.01423974609375,-1247.760009765625,-314.1000061035156,562.260009765625
1775728162651341300,2.02434130859375,-1248.780029296875,-313.44000244140625,563.219970703125
1775728162661412000,2.034412109375,-1249.1400146484375,-313.739990234375,563.3399658203125
1775728162671513300,2.044513427734375,-1248.719970703125,-313.67999267578125,563.9400024414062
1775728162681553700,2.0545537109375,-1248.5999755859375,-314.1000061035156,563.2799682617188
1775728162691655000,2.064655029296875,-1246.97998046875,-314.5199890136719,563.2799682617188
1775728162701725700,2.0747255859375,-1245.8399658203125,-314.4599914550781,562.6199951171875
1775728162731968800,2.10496875,-1245.47998046875,-314.6999816894531,562.2000122070312
1775728162742039600,2.11503955078125,-1245.780029296875,-314.5799865722656,563.219970703125
1775728162752140800,2.125140869140625,-1244.93994140625,-315,563.219970703125
1775728162762211600,2.135211669921875,-1244.6400146484375,-315.29998779296875,563.5199584960938
1775728162772282400,2.145282470703125,-1244.4599609375,-315.9599914550781,563.0999755859375
1775728162782322700,2.15532275390625,-1244.3399658203125,-316.739990234375,562.260009765625
1775728162792363000,2.165363037109375,-1244.4000244140625,-317.1000061035156,562.1400146484375
1775728162802342100,2.175342041015625,-1244.0999755859375,-316.91998291015625,562.3800048828125
1775728162832615700,2.20561572265625,-1243.5,-315.3599853515625,564.719970703125
1775728162842686500,2.2156865234375,-1243.3800048828125,-315.17999267578125,564.8399658203125
1775728162852757200,2.22575732421875,-1242.9599609375,-315.41998291015625,564.719970703125
1775728162862797600,2.235797607421875,-1242.5399169921875,-316.0199890136719,564.0599975585938
1775728162872898800,2.24589892578125,-1242.1199951171875,-316.0799865722656,563.7000122070312
1775728162882969600,2.255969482421875,-1241.280029296875,-316.1999816894531,563.760009765625
1775728162893040400,2.266040283203125,-1240.919921875,-315.6600036621094,563.9400024414062
1775728162913151500,2.2861513671875,-1240.0799560546875,-315.3599853515625,564.5399780273438
1775728162943425000,2.316425048828125,-1239.780029296875,-316.0799865722656,564.7799682617188
1775728162953495800,2.326495849609375,-1239.3599853515625,-315.47998046875,564.47998046875
1775728162963566600,2.336566650390625,-1240.199951171875,-316.0799865722656,563.219970703125
1775728162973637400,2.346637451171875,-1239.659912109375,-316.1399841308594,562.7999877929688
1775728162983708200,2.356708251953125,-1240.43994140625,-316.0799865722656,562.97998046875
1775728162993779000,2.366779052734375,-1240.3199462890625,-316.55999755859375,562.6799926757812
1775728163003849700,2.376849609375,-1240.1400146484375,-316.44000244140625,563.4599609375
1775728163034001200,2.407001220703125,-1241.3399658203125,-316.5,564
1775728163044072000,2.417072021484375,-1240.6199951171875,-315.9599914550781,564.5399780273438
1775728163064183000,2.43718310546875,-1239.47998046875,-315.7799987792969,564.8999633789062
1775728163074284300,2.4472841796875,-1239.239990234375,-315.8999938964844,564.7799682617188
1775728163084355000,2.45735498046875,-1239.179931640625,-316.32000732421875,564
1775728163094425900,2.46742578125,-1239.0599365234375,-316.44000244140625,563.7000122070312
1775728163104435700,2.477435791015625,-1238.52001953125,-316.55999755859375,563.760009765625
1775728163124577300,2.497577392578125,-1238.760009765625,-316.5,564.2999877929688
1775728163144688400,2.5176884765625,-1239.659912109375,-316.6199951171875,563.8800048828125
1775728163154728700,2.527728759765625,-1239.2999267578125,-316.67999267578125,563.3999633789062
1775728163164738600,2.537738525390625,-1239.0599365234375,-316.91998291015625,563.4599609375
1775728163174809300,2.547809326171875,-1239.3599853515625,-316.79998779296875,564.2999877929688
1775728163184880000,2.557880126953125,-1239.1199951171875,-317.2799987792969,563.3999633789062
1775728163194981400,2.5679814453125,-1239.239990234375,-317.2200012207031,563.7000122070312
1775728163204991200,2.5779912109375,-1240.739990234375,-316.55999755859375,564
1775728163215092500,2.588092529296875,-1241.5799560546875,-315.8999938964844,563.4599609375
1775728163225132800,2.5981328125,-1241.4599609375,-315.17999267578125,564.1799926757812
1775728163255345200,2.62834521484375,-1241.0999755859375,-314.94000244140625,564.8399658203125
1775728163265355000,2.63835498046875,-1241.760009765625,-314.2799987792969,565.2000122070312
1775728163275395000,2.64839501953125,-1242.9599609375,-314.3399963378906,565.0199584960938
1775728163285435400,2.658435302734375,-1243.919921875,-314.3399963378906,564.4199829101562
1775728163295506200,2.668506103515625,-1244.699951171875,-314.5799865722656,563.8800048828125
1775728163305546500,2.67854638671875,-1244.280029296875,-315.6000061035156,563.3399658203125
1775728163315617300,2.6886171875,-1243.5,-315.6600036621094,563.1599731445312
1775728163335789600,2.70878955078125,-1241.159912109375,-315.6600036621094,563.1599731445312
1775728163345830000,2.718829833984375,-1241.0999755859375,-314.8800048828125,563.2799682617188
1775728163376042200,2.749042236328125,-1240.919921875,-315.53997802734375,563.8200073242188
1775728163396183800,2.769183837890625,-1239.9000244140625,-315.8999938964844,562.8599853515625
1775728163406254600,2.779254638671875,-1239.8399658203125,-315.17999267578125,563.8200073242188
1775728163416295000,2.789294921875,-1240.43994140625,-315.17999267578125,563.3399658203125
1775728163436467000,2.809467041015625,-1241.5799560546875,-316.1999816894531,563.5199584960938
1775728163456639000,2.829638916015625,-1242.0599365234375,-316.67999267578125,563.9400024414062
1775728163466710000,2.8397099609375,-1242.2999267578125,-316.55999755859375,564.4199829101562
1775728163476811300,2.849811279296875,-1241.8199462890625,-315.7200012207031,565.2000122070312
1775728163486820900,2.85982080078125,-1241.0999755859375,-315.8999938964844,565.3200073242188
1775728163496922400,2.86992236328125,-1240.3199462890625,-316.55999755859375,564.9599609375
1775728163506993200,2.8799931640625,-1239.9599609375,-315.7799987792969,564.5399780273438
1775728163517064000,2.89006396484375,-1240.199951171875,-315.3599853515625,563.760009765625
1775728163527104300,2.900104248046875,-1240.199951171875,-315.3599853515625,563.3399658203125
1775728163557347000,2.93034716796875,-1240.6199951171875,-316.1399841308594,562.6799926757812
1775728163567357000,2.94035693359375,-1240.6199951171875,-316.67999267578125,562.4400024414062
1775728163577458200,2.950458251953125,-1240.919921875,-316.6199951171875,563.4599609375
1775728163587529000,2.960529052734375,-1240.919921875,-316.3800048828125,564
1775728163597569300,2.9705693359375,-1240.739990234375,-316.91998291015625,563.3399658203125
1775728163607579100,2.9805791015625,-1241.280029296875,-316.0799865722656,564.5399780273438
1775728163627690200,3.000690185546875,-1240.3800048828125,-316.5,563.7000122070312
1775728163647770600,3.0207705078125,-1239.47998046875,-315.6600036621094,563.3999633789062
1775728163657872100,3.0308720703125,-1239.659912109375,-315.8999938964844,563.4599609375
1775728163667912200,3.040912109375,-1241.219970703125,-315.3599853515625,563.6400146484375
1775728163678013700,3.051013671875,-1241.6400146484375,-315.6600036621094,563.4599609375
1775728163688054000,3.061053955078125,-1242.5399169921875,-315.6000061035156,564.6599731445312
1775728163698155300,3.0711552734375,-1243.02001953125,-315.53997802734375,564.0599975585938
1775728163708226000,3.08122607421875,-1242.3599853515625,-315.1199951171875,564.6599731445312
1775728163718296800,3.091296875,-1242.9000244140625,-314.8800048828125,564.719970703125
1775728163728337200,3.101337158203125,-1242.419921875,-315.05999755859375,564.239990234375
1775728163738438400,3.1114384765625,-1241.4000244140625,-314.7599792480469,564.4199829101562
1775728163778660600,3.15166064453125,-1240.97998046875,-315.239990234375,564.5399780273438
1775728163788731400,3.1617314453125,-1240.3800048828125,-315.1199951171875,563.7000122070312
1775728163798802200,3.17180224609375,-1240.5,-315.05999755859375,564.1799926757812
1775728163808842500,3.181842529296875,-1239.8399658203125,-315.239990234375,564.5999755859375
1775728163818913300,3.191913330078125,-1239.780029296875,-315.41998291015625,564.5399780273438
1775728163828984000,3.201984130859375,-1240.02001953125,-315.7200012207031,565.0199584960938
1775728163839054800,3.212054931640625,-1239.659912109375,-316.2599792480469,564.9599609375
1775728163879307500,3.2523076171875,-1240.0799560546875,-315.47998046875,564
1775728163889287000,3.262286865234375,-1239.5999755859375,-315.239990234375,563.8200073242188
1775728163899388200,3.27238818359375,-1240.3199462890625,-315.6600036621094,564
1775728163909459000,3.282458984375,-1240.7999267578125,-316.2599792480469,563.4599609375
1775728163919529700,3.29252978515625,-1241.3399658203125,-316.32000732421875,563.6400146484375
1775728163929508900,3.3025087890625,-1242.47998046875,-316.2599792480469,563.8200073242188
1775728163939610400,3.3126103515625,-1242.0599365234375,-316.2599792480469,563.760009765625
1775728163969822700,3.34282275390625,-1241.0399169921875,-315.6600036621094,566.0399780273438
1775728163979924000,3.352924072265625,-1240.5599365234375,-315.47998046875,566.0399780273438
1775728164000004600,3.373004638671875,-1239,-314.7599792480469,564.8399658203125
1775728164010075400,3.383075439453125,-1238.8199462890625,-315.05999755859375,564.239990234375
1775728164020115700,3.39311572265625,-1238.8800048828125,-315.6000061035156,564.0599975585938
1775728164030217000,3.403217041015625,-1238.3399658203125,-315.9599914550781,563.760009765625
1775728164040287700,3.413287841796875,-1239.5999755859375,-317.03997802734375,562.9199829101562
1775728164070500000,3.4435,-1239.47998046875,-317.2200012207031,563.5800170898438
1775728164080540400,3.45354052734375,-1238.699951171875,-316.5,564.2999877929688
1775728164090611200,3.463611083984375,-1237.8599853515625,-315.7799987792969,565.2000122070312
1775728164100651500,3.473651611328125,-1238.8199462890625,-316.55999755859375,565.6799926757812
1775728164110631000,3.483630859375,-1239.419921875,-316.67999267578125,565.97998046875
1775728164120732200,3.493732177734375,-1240.199951171875,-317.2200012207031,566.8800048828125
1775728164130772500,3.5037724609375,-1241.4599609375,-317.8800048828125,567.0599975585938
1775728164140873700,3.513873779296875,-1242.1199951171875,-317.4599914550781,567.239990234375
1775728164181156900,3.554156982421875,-1247.4599609375,-318.41998291015625,566.1599731445312
1775728164201298400,3.57429833984375,-1246.919921875,-320.82000732421875,564.9599609375
1775728164211369200,3.584369140625,-1246.6199951171875,-321.8399963378906,564.7799682617188
1775728164221440000,3.59443994140625,-1246.43994140625,-322.32000732421875,565.6799926757812
1775728164231511000,3.604510986328125,-1247.219970703125,-322.739990234375,567.4199829101562
1775728164241612300,3.6146123046875,-1248.3599853515625,-323.5799865722656,567.8999633789062
1775728164281865000,3.654864990234375,-1249.6199951171875,-328.2599792480469,567.6599731445312
1775728164291874800,3.664874755859375,-1249.7999267578125,-329.5799865722656,568.3800048828125
1775728164301976000,3.67497607421875,-1249.919921875,-330.9599914550781,568.9199829101562
1775728164312046800,3.685046875,-1249.7999267578125,-331.44000244140625,569.760009765625
1775728164322148000,3.695148193359375,-1250.219970703125,-332.5199890136719,569.9400024414062
1775728164332188400,3.7051884765625,-1250.219970703125,-333.6600036621094,568.9199829101562
1775728164342228700,3.715228759765625,-1249.919921875,-334.2599792480469,568.5599975585938
1775728164352269000,3.72526904296875,-1249.260009765625,-335.8800048828125,567.8399658203125
1775728164402653400,3.7756533203125,-1246.919921875,-340.5,567.2999877929688
1775728164412724200,3.78572412109375,-1246.739990234375,-340.67999267578125,567.239990234375
1775728164422795000,3.795794921875,-1246.5,-341.2200012207031,567.2999877929688
1775728164432865800,3.80586572265625,-1246.5,-341.5799865722656,567.5999755859375
1775728164442936800,3.815936767578125,-1247.280029296875,-342.29998779296875,567.8999633789062
1775728164453007600,3.826007568359375,-1247.4599609375,-343.3800048828125,568.260009765625
1775728164463108900,3.83610888671875,-1247.280029296875,-343.55999755859375,568.260009765625
1775728164483281000,3.856281005859375,-1246.3800048828125,-344.8800048828125,567
1775728164503392000,3.87639208984375,-6.239999771118164,-13.380000114440918,44.040000915527344
1775728164513432300,3.886432373046875,-6.420000076293945,-14.460000038146973,44.52000045776367
1775728164533574000,3.906573974609375,-8.760000228881836,-14.75999927520752,44.52000045776367
1775728164543614200,3.9166142578125,-9.899999618530273,-14.399999618530273,45.05999755859375
1775728164553624000,3.9266240234375,-11.219999313354492,-14.579999923706055,44.279998779296875
1775728164573765600,3.946765625,-17.8799991607666,-17.219999313354492,42.119998931884766
1775728164593907200,3.9669072265625,-17.520000457763672,-15.899999618530273,42.119998931884766
1775728164603978000,3.97697802734375,-17.03999900817871,-16.079999923706055,41.57999801635742
1775728164614048800,3.987048828125,-16.079999923706055,-16.260000228881836,41.63999938964844
1775728164624119600,3.99711962890625,-16.139999389648438,-16.85999870300293,41.7599983215332
1775728164634190300,4.0071904296875,-17.03999900817871,-16.85999870300293,41.099998474121094
1775728164644261000,4.01726123046875,-18,-17.69999885559082,41.21999740600586
1775728164654332000,4.027331787109375,-16.139999389648438,-16.440000534057617,41.63999938964844
1775728164694615300,4.067615234375,-14.880000114440918,-15.359999656677246,42.540000915527344
1775728164714695700,4.08769580078125,-15.479999542236328,-14.880000114440918,42.119998931884766
1775728164724797000,4.097796875,-16.19999885559082,-14.279999732971191,42.119998931884766
1775728164734837200,4.107837158203125,-15.479999542236328,-14.880000114440918,40.79999923706055
1775728164744938800,4.117938720703125,-15.119999885559082,-14.819999694824219,41.81999969482422
1775728164755009500,4.128009521484375,-14.75999927520752,-14.15999984741211,42.41999816894531
1775728164765110800,4.13811083984375,-14.039999961853027,-14.279999732971191,41.70000076293945
1775728164815342600,4.188342529296875,-15.59999942779541,-13.4399995803833,43.619998931884766
1775728164825444000,4.198444091796875,-15.779999732971191,-12.779999732971191,43.68000030517578
1775728164835515000,4.208514892578125,-16.260000228881836,-13.319999694824219,43.619998931884766
1775728164845616000,4.2186162109375,-15.839999198913574,-13.679999351501465,44.21999740600586
1775728164855687000,4.22868701171875,-15.960000038146973,-14.279999732971191,44.21999740600586
1775728164865757700,4.2387578125,-15.65999984741211,-14.519999504089355,44.7599983215332
1775728164875828500,4.248828369140625,-15.65999984741211,-14.09999942779541,44.87999725341797
1775728164885868800,4.258868896484375,-16.139999389648438,-13.799999237060547,44.34000015258789
1775728164916112000,4.28911181640625,-18.779998779296875,-13.559999465942383,43.37999725341797
1775728164926121500,4.29912158203125,-19.020000457763672,-14.039999961853027,43.02000045776367
1775728164936192300,4.309192138671875,-18.53999900817871,-14.15999984741211,42.41999816894531
1775728164946263000,4.319262939453125,-19.260000228881836,-14.15999984741211,42.84000015258789
1775728164956333800,4.329333740234375,-19.19999885559082,-14.09999942779541,43.5
1775728164966404600,4.339404541015625,-18.779998779296875,-14.09999942779541,43.2599983215332
1775728164976475600,4.3494755859375,-18.84000015258789,-14.15999984741211,42.779998779296875
1775728164986546400,4.35954638671875,-18,-13.679999351501465,42.47999954223633
1775728165016789200,4.389789306640625,-19.260000228881836,-13.619999885559082,44.57999801635742
1775728165026829600,4.39982958984375,-19.68000030517578,-14.639999389648438,43.86000061035156
1775728165036870000,4.409869873046875,-19.799999237060547,-14.639999389648438,43.86000061035156
1775728165046940700,4.419940673828125,-20.100000381469727,-14.699999809265137,43.20000076293945
1775728165057011500,4.430011474609375,-19.31999969482422,-13.979999542236328,43.20000076293945
1775728165067112700,4.44011279296875,-19.020000457763672,-12.960000038146973,43.2599983215332
1775728165077183500,4.45018359375,-18,-11.75999927520752,43.31999969482422
1775728165087223800,4.460223876953125,-18.18000030517578,-10.859999656677246,43.79999923706055
1775728165097325000,4.470324951171875,-18.65999984741211,-10.979999542236328,42.65999984741211
1775728165117466600,4.490466552734375,-18.059999465942383,-9.539999961853027,43.5
1775728165127537400,4.500537353515625,-17.520000457763672,-8.460000038146973,43.20000076293945
1775728165137639000,4.510638916015625,-17.459999084472656,-7.619999885559082,44.040000915527344
1775728165147709700,4.520709716796875,-18.53999900817871,-6.599999904632568,44.15999984741211
1775728165157780500,4.530780517578125,-19.31999969482422,-5.759999752044678,43.86000061035156
1775728165167881700,4.5408818359375,-20.279998779296875,-5.759999752044678,43.20000076293945
1775728165177922000,4.550922119140625,-21.35999870300293,-3.9599997997283936,43.37999725341797
1775728165208073500,4.581073486328125,-21.959999084472656,-1.7999999523162842,43.5
1775728165228215000,4.601215087890625,-21.899999618530273,-1.7400000095367432,41.52000045776367
1775728165238255400,4.61125537109375,-22.439998626708984,-1.6200000047683716,40.73999786376953
1775728165248295700,4.621295654296875,-22.68000030517578,-0.8999999761581421,40.86000061035156
1775728165258336000,4.6313359375,-23.03999900817871,-0.35999998450279236,40.73999786376953
1775728165268406800,4.64140673828125,-24.119998931884766,-0.41999998688697815,41.040000915527344
1775728165278477600,4.6514775390625,-24.18000030517578,0.35999998450279236,41.63999938964844
1775728165288578800,4.661578857421875,-25.799999237060547,0.7199999690055847,41.63999938964844
1775728165318730200,4.691730224609375,-28.619998931884766,0.7199999690055847,40.2599983215332
1775728165359043800,4.7320439453125,-29.099998474121094,-1.7999999523162842,40.31999969482422
1775728165369114600,4.742114501953125,-28.559999465942383,-2.5199999809265137,40.13999938964844
1775728165379155000,4.752155029296875,-28.139999389648438,-3.4800000190734863,39.23999786376953
1775728165399296500,4.772296630859375,-28.19999885559082,-4.019999980926514,38.459999084472656
1775728165409397800,4.782397705078125,-28.559999465942383,-4.019999980926514,38.7599983215332
1775728165419438000,4.79243798828125,-29.399999618530273,-3.6599998474121094,39.599998474121094
1775728165429478400,4.802478515625,-29.639999389648438,-4.139999866485596,40.2599983215332
1775728165439549200,4.812549072265625,-29.51999855041504,-3.5999999046325684,41.279998779296875
1775728165449620000,4.822619873046875,-28.799999237060547,-4.019999980926514,41.52000045776367
1775728165459690800,4.832690673828125,-28.260000228881836,-4.859999656677246,40.13999938964844
1775728165479893500,4.8528935546875,-25.979999542236328,-5.639999866485596,40.2599983215332
1775728165520115700,4.89311572265625,-24.899999618530273,-7.199999809265137,41.63999938964844
1775728165530217000,4.903217041015625,-23.03999900817871,-7.619999885559082,42.599998474121094
1775728165540257300,4.91325732421875,-21.059999465942383,-8.460000038146973,42.47999954223633
1775728165550328000,4.923328125,-19.439998626708984,-8.399999618530273,43.13999938964844
1775728165560398800,4.93339892578125,-18.65999984741211,-8.639999389648438,43.37999725341797
1775728165570469600,4.9434697265625,-17.940000534057617,-8.9399995803833,43.619998931884766
1775728165580510000,4.953510009765625,-18,-9.239999771118164,44.34000015258789
1775728165610691800,4.98369189453125,-17.639999389648438,-12.359999656677246,43.86000061035156
1775728165620732200,4.993732177734375,-16.739999771118164,-13.079999923706055,43.55999755859375
1775728165630833400,5.00383349609375,-17.579999923706055,-14.039999961853027,43.02000045776367
1775728165640904200,5.013904296875,-16.619998931884766,-14.699999809265137,42.540000915527344
1775728165650975000,5.02397509765625,-16.85999870300293,-15.420000076293945,42
1775728165661076500,5.034076416015625,-17.81999969482422,-16.739999771118164,41.7599983215332
1775728165671116500,5.044116455078125,-16.31999969482422,-17.399999618530273,41.459999084472656
1775728165681156900,5.054156982421875,-16.079999923706055,-17.81999969482422,41.81999969482422
1775728165691227600,5.0642275390625,-13.920000076293945,-18.479999542236328,42.05999755859375
1775728165751713500,5.124713623046875,-11.15999984741211,-19.739999771118164,40.5
1775728165791905300,5.1649052734375,-11.039999961853027,-22.979999542236328,39
1775728165801945600,5.174945556640625,-11.15999984741211,-23.100000381469727,39
1775728165812016400,5.185016357421875,-11.460000038146973,-23.939998626708984,39
1775728165822087200,5.195087158203125,-12.539999961853027,-23.69999885559082,38.81999969482422
1775728165832158000,5.205157958984375,-12.899999618530273,-23.279998779296875,38.87999725341797
1775728165842198300,5.2151982421875,-14.699999809265137,-23.219999313354492,39.119998931884766
1775728165852299500,5.225299560546875,-15.899999618530273,-22.559999465942383,39.119998931884766
1775728165862370300,5.235370361328125,-16.020000457763672,-22.920000076293945,39
1775728165872471600,5.245471435546875,-15.59999942779541,-22.559999465942383,38.7599983215332
1775728165882542300,5.255542236328125,-14.699999809265137,-22.020000457763672,39.05999755859375
1775728165892582700,5.265582763671875,-13.5,-21.719999313354492,39.779998779296875
1775728165932865800,5.30586572265625,-12.59999942779541,-20.8799991607666,39.23999786376953
1775728165942906000,5.315906005859375,-13.4399995803833,-22.139999389648438,39
1775728165953007600,5.326007568359375,-14.219999313354492,-21.899999618530273,39.41999816894531
1775728165963078400,5.336078369140625,-14.399999618530273,-20.939998626708984,40.20000076293945
1775728165973118500,5.346118408203125,-15,-20.8799991607666,40.13999938964844
1775728165983158800,5.35615869140625,-14.579999923706055,-20.579999923706055,40.37999725341797
1775728165993199000,5.36619921875,-13.859999656677246,-20.639999389648438,40.20000076293945
1775728166033390800,5.406390869140625,-11.639999389648438,-18.239999771118164,40.439998626708984
1775728166043400400,5.416400390625,-11.9399995803833,-17.8799991607666,41.70000076293945
1775728166053471500,5.426471435546875,-12.059999465942383,-17.8799991607666,42.05999755859375
1775728166063481000,5.436481201171875,-13.079999923706055,-17.8799991607666,42.23999786376953
1775728166083622700,5.45662255859375,-13.199999809265137,-17.639999389648438,41.099998474121094
1775728166093724200,5.46672412109375,-13.019999504089355,-17.100000381469727,40.619998931884766
1775728166103764200,5.47676416015625,-13.25999927520752,-16.920000076293945,40.13999938964844
1775728166123784000,5.496783935546875,-13.139999389648438,-16.020000457763672,41.459999084472656
1775728166164067000,5.537067138671875,-15.119999885559082,-13.079999923706055,42.47999954223633
1775728166184208600,5.557208740234375,-15.179999351501465,-11.219999313354492,42.779998779296875
1775728166194279400,5.567279541015625,-14.519999504089355,-10.800000190734863,42.36000061035156
1775728166204380700,5.577380615234375,-13.679999351501465,-9.420000076293945,42.84000015258789
1775728166214421000,5.5874208984375,-13.380000114440918,-9.539999961853027,42.29999923706055
1775728166234501600,5.607501708984375,-14.579999923706055,-8.519999504089355,42.05999755859375
1775728166244542000,5.6175419921875,-17.639999389648438,-8.460000038146973,41.459999084472656
1775728166254612700,5.62761279296875,-19.19999885559082,-7.559999942779541,41.39999771118164
1775728166264653000,5.637653076171875,-20.760000228881836,-6.420000076293945,40.79999923706055
1775728166274723800,5.647723876953125,-22.85999870300293,-6.119999885559082,40.20000076293945
1775728166284703000,5.657702880859375,-23.579999923706055,-6.239999771118164,39.23999786376953
1775728166294804500,5.667804443359375,-26.219999313354492,-5.819999694824219,39.05999755859375
1775728166304875300,5.677875244140625,-26.939998626708984,-5.699999809265137,39.540000915527344
1775728166314915600,5.68791552734375,-26.579999923706055,-5.519999980926514,39.05999755859375
1775728166345066800,5.718066650390625,-26.219999313354492,-3.299999952316284,38.87999725341797
1775728166355107000,5.728107177734375,-27.119998931884766,-2.5799999237060547,38.939998626708984
1775728166375218200,5.74821826171875,-30.35999870300293,-1.8600000143051147,37.07999801635742
1775728166385289000,5.7582890625,-31.439998626708984,-1.1399999856948853,36.540000915527344
1775728166395359700,5.76835986328125,-31.979999542236328,-0.41999998688697815,36
1775728166405339100,5.778339111328125,-31.19999885559082,0.23999999463558197,35.34000015258789
1775728166415410000,5.788409912109375,-31.439998626708984,0.05999999865889549,34.20000076293945
1775728166455632100,5.828632080078125,-35.459999084472656,2.3399999141693115,31.920000076293945
1775728166465703000,5.838702880859375,-34.86000061035156,3.7799999713897705,31.31999969482422
1775728166475773700,5.848773681640625,-35.21999740600586,3.5399999618530273,31.079999923706055
1775728166485783300,5.858783203125,-36.05999755859375,3.419999837875366,29.939998626708984
1775728166495884800,5.868884765625,-37.619998931884766,2.759999990463257,30
1775728166505924900,5.8789248046875,-38.34000015258789,2.5199999809265137,29.69999885559082
1775728166515965200,5.888965087890625,-38.57999801635742,2.0399999618530273,28.079999923706055
1775728166525944600,5.898944580078125,-38.099998474121094,2.2200000286102295,28.139999389648438
1775728166546086100,5.919086181640625,-37.13999938964844,3.059999942779541,26.8799991607666
1775728166586338800,5.9593388671875,-37.55999755859375,4.799999713897705,28.619998931884766
1775728166596409600,5.96940966796875,-37.619998931884766,3.7799999713897705,27
1775728166606419500,5.97941943359375,-37.31999969482422,3.9599997997283936,26.639999389648438
1775728166616520700,5.989520751953125,-36.41999816894531,3.6599998474121094,25.739999771118164
1775728166626591500,5.999591552734375,-34.79999923706055,4.139999866485596,26.51999855041504
1775728166666874600,6.03987451171875,-34.5,3.6599998474121094,31.619998931884766
1775728166687047000,6.060046875,-35.21999740600586,2.5799999237060547,33.41999816894531
1775728166697117700,6.07011767578125,-35.040000915527344,1.559999942779541,34.13999938964844
1775728166707188500,6.0801884765625,-33.84000015258789,0.7199999690055847,34.97999954223633
1775728166727360500,6.100360595703125,-31.31999969482422,-0.5999999642372131,36.119998931884766
1775728166747471600,6.1204716796875,-27.18000030517578,-1.5,37.97999954223633
1775728166757572900,6.13057275390625,-25.559999465942383,-2.0999999046325684,39.41999816894531
1775728166807865900,6.180865966796875,-21.420000076293945,-6.539999961853027,41.279998779296875
1775728166817936600,6.1909365234375,-19.979999542236328,-6.960000038146973,42
1775728166827946500,6.200946533203125,-18.899999618530273,-7.679999828338623,42.599998474121094
1775728166908512800,6.2815126953125,-11.34000015258789,-13.199999809265137,42.29999923706055
1775728166918522600,6.291522705078125,-10.800000190734863,-13.380000114440918,42.119998931884766
1775728167009160000,6.382159912109375,-11.75999927520752,-14.460000038146973,40.91999816894531
1775728167029179400,6.402179443359375,-11.399999618530273,-12.479999542236328,42.47999954223633
1775728167099522300,6.472522216796875,-10.559999465942383,-11.75999927520752,42.47999954223633
1775728167119694600,6.492694580078125,-10.859999656677246,-11.75999927520752,42.05999755859375
1775728167129704200,6.5027041015625,-11.880000114440918,-12.420000076293945,41.52000045776367
1775728167139775000,6.51277490234375,-12.359999656677246,-11.9399995803833,41.939998626708984
1775728167149815300,6.522815185546875,-12.539999961853027,-11.519999504089355,42.41999816894531
1775728167159825200,6.5328251953125,-12.84000015258789,-11.699999809265137,42.41999816894531
1775728167169896000,6.54289599609375,-12.899999618530273,-11.75999927520752,41.87999725341797
1775728167220127700,6.593127685546875,-11.09999942779541,-10.979999542236328,42.47999954223633
1775728167230229200,6.603229248046875,-11.880000114440918,-11.519999504089355,42
1775728167240300000,6.613300048828125,-12.179999351501465,-10.979999542236328,42.23999786376953
1775728167250370800,6.623370849609375,-13.019999504089355,-11.039999961853027,42.599998474121094
1775728167270451500,6.643451416015625,-13.4399995803833,-11.639999389648438,40.97999954223633
1775728167310734600,6.683734619140625,-14.9399995803833,-10.859999656677246,41.21999740600586
1775728167320805400,6.693805419921875,-14.880000114440918,-10.5,41.34000015258789
1775728167330845700,6.703845703125,-16.020000457763672,-10.559999465942383,40.91999816894531
1775728167340916500,6.71391650390625,-16.440000534057617,-10.319999694824219,40.55999755859375
1775728167350987300,6.7239873046875,-16.619998931884766,-9.359999656677246,41.459999084472656
1775728167361058000,6.73405810546875,-16.440000534057617,-8.760000228881836,41.39999771118164
1775728167371128800,6.74412890625,-15.65999984741211,-9.300000190734863,40.79999923706055
1775728167381199600,6.75419970703125,-15.779999732971191,-9.899999618530273,40.5
1775728167421513500,6.794513427734375,-19.139999389648438,-8.699999809265137,37.86000061035156
1775728167431584300,6.804584228515625,-18.35999870300293,-7.37999963760376,38.7599983215332
1775728167441655000,6.814655029296875,-18.899999618530273,-7.079999923706055,38.57999801635742
1775728167451695400,6.8246953125,-18.899999618530273,-6.899999618530273,38.39999771118164
1775728167461766100,6.83476611328125,-20.219999313354492,-7.139999866485596,38.279998779296875
1775728167471867400,6.844867431640625,-21.119998931884766,-7.319999694824219,37.02000045776367
1775728167481968600,6.85496875,-22.31999969482422,-7.079999923706055,36.540000915527344
1775728167492039400,6.865039306640625,-23.100000381469727,-6.899999618530273,35.459999084472656
1775728167532383700,6.9053837890625,-24.899999618530273,-4.980000019073486,33.84000015258789
1775728167542454500,6.91545458984375,-25.85999870300293,-4.920000076293945,33.89999771118164
1775728167552525300,6.925525390625,-25.920000076293945,-4.079999923706055,34.20000076293945
1775728167562596000,6.93559619140625,-28.439998626708984,-0.9599999785423279,36.36000061035156
1775728167572667000,6.9456669921875,-29.639999389648438,-0.35999998450279236,36.599998474121094
1775728167582768000,6.95576806640625,-29.81999969482422,0.23999999463558197,35.939998626708984
1775728167592839200,6.965839111328125,-30.84000015258789,1.1399999856948853,36
1775728167643101400,7.016101318359375,-30.899999618530273,5.339999675750732,36.71999740600586
1775728167653111300,7.026111328125,-31.079999923706055,5.759999752044678,36.18000030517578
1775728167663151600,7.036151611328125,-31.439998626708984,5.940000057220459,35.57999801635742
1775728167673192000,7.04619189453125,-31.979999542236328,5.460000038146973,34.79999923706055
1775728167683232000,7.05623193359375,-32.7599983215332,5.759999752044678,34.31999969482422
1775728167693303000,7.066302978515625,-32.81999969482422,6.179999828338623,34.07999801635742
1775728167723576300,7.096576416015625,-36.05999755859375,7.440000057220459,33.47999954223633
1775728167743626500,7.11662646484375,-35.279998779296875,7.5,33.18000030517578
1775728167753636000,7.126635986328125,-33.119998931884766,8.220000267028809,33.959999084472656
1775728167763676400,7.136676513671875,-31.439998626708984,8.519999504089355,33.89999771118164
1775728167773777700,7.146777587890625,-31.5,8.460000038146973,33.71999740600586
1775728167783848400,7.156848388671875,-31.739999771118164,8.639999389648438,33.959999084472656
1775728167793919500,7.16691943359375,-32.70000076293945,7.619999885559082,33.65999984741211
1775728167803929000,7.17692919921875,-32.81999969482422,7.5,34.2599983215332
1775728167814030300,7.1870302734375,-32.57999801635742,7.679999828338623,34.380001068115234
1775728167854313700,7.227313720703125,-32.39999771118164,7.679999828338623,35.880001068115234
1775728167864415000,7.2374150390625,-31.439998626708984,6.71999979019165,35.57999801635742
1775728167874485800,7.24748583984375,-31.619998931884766,6.659999847412109,36.540000915527344
1775728167884556500,7.257556640625,-32.040000915527344,6.839999675750732,37.86000061035156
1775728167894657800,7.26765771484375,-31.3799991607666,5.87999963760376,38.39999771118164
1775728167904759300,7.27775927734375,-31.619998931884766,5.159999847412109,38.63999938964844
1775728167924839700,7.297839599609375,-29.099998474121094,2.6399998664855957,38.57999801635742
1775728167944981500,7.3179814453125,-26.279998779296875,2.4600000381469727,41.15999984741211
1775728167955082800,7.328082763671875,-24.239999771118164,2.0399999618530273,42
1775728167965123000,7.338123046875,-22.979999542236328,1.1399999856948853,42.84000015258789
1775728167975224300,7.348224365234375,-21.65999984741211,-0.05999999865889549,42.84000015258789
1775728167985295000,7.358295166015625,-20.399999618530273,-1.0799999237060547,42.540000915527344
1775728167995335400,7.36833544921875,-20.399999618530273,-1.9199999570846558,42.41999816894531
1775728168005375700,7.378375732421875,-19.139999389648438,-2.3399999141693115,42
1775728168015477000,7.38847705078125,-17.8799991607666,-2.879999876022339,41.459999084472656
1775728168035588000,7.408588134765625,-17.15999984741211,-3.7200000286102295,41.52000045776367
1775728168045659000,7.418658935546875,-17.399999618530273,-5.21999979019165,41.70000076293945
1775728168055729700,7.428729736328125,-18,-5.099999904632568,42.540000915527344
1775728168065831000,7.438830810546875,-17.639999389648438,-5.21999979019165,42.47999954223633
1775728168075932400,7.448932373046875,-16.920000076293945,-4.799999713897705,43.02000045776367
1775728168086003200,7.459003173828125,-17.279998779296875,-4.799999713897705,43.2599983215332
1775728168096074000,7.469073974609375,-17.69999885559082,-6.420000076293945,42.540000915527344
1775728168106144800,7.479144775390625,-17.81999969482422,-7.019999980926514,42.119998931884766
1775728168116185000,7.48918505859375,-18.18000030517578,-7.679999828338623,41.70000076293945
1775728168146458400,7.519458251953125,-17.520000457763672,-6.899999618530273,41.7599983215332
1775728168156529200,7.529529052734375,-16.739999771118164,-6.359999656677246,41.87999725341797
1775728168166569500,7.539569580078125,-17.940000534057617,-6.899999618530273,42.65999984741211
1775728168176579300,7.549579345703125,-18.779998779296875,-6.779999732971191,42.36000061035156
1775728168186680600,7.5596806640625,-18.959999084472656,-6.359999656677246,42.119998931884766
1775728168196781800,7.56978173828125,-20.219999313354492,-7.139999866485596,42.05999755859375
1775728168206852600,7.5798525390625,-19.85999870300293,-6.359999656677246,41.87999725341797
1775728168216923600,7.589923583984375,-19.5,-6.659999847412109,41.21999740600586
1775728168267338500,7.64033837890625,-15.839999198913574,-5.460000038146973,43.2599983215332
1775728168277378800,7.65037890625,-15.59999942779541,-5.400000095367432,43.55999755859375
1775728168287419100,7.660419189453125,-14.639999389648438,-4.920000076293945,43.73999786376953
1775728168297429000,7.670428955078125,-14.699999809265137,-4.739999771118164,43.37999725341797
1775728168307530200,7.6805302734375,-14.579999923706055,-4.5,43.439998626708984
1775728168317601000,7.69060107421875,-14.579999923706055,-3.9599997997283936,43.31999969482422
1775728168337712000,7.710712158203125,-15.059999465942383,-4.019999980926514,43.55999755859375
1775728168377873200,7.750873046875,-14.75999927520752,-4.739999771118164,42.89999771118164
1775728168387974700,7.760974609375,-15.359999656677246,-4.739999771118164,42.779998779296875
1775728168397984300,7.770984375,-16.68000030517578,-4.5,43.07999801635742
1775728168408055000,7.781054931640625,-18.479999542236328,-4.440000057220459,43.68000030517578
1775728168418125800,7.791125732421875,-18.779998779296875,-3.7799999713897705,44.63999938964844
1775728168448246800,7.821246826171875,-14.9399995803833,-3.359999895095825,43.55999755859375
1775728168458287000,7.831287109375,-14.399999618530273,-3.8999998569488525,42.119998931884766
1775728168468358000,7.84135791015625,-14.09999942779541,-4.019999980926514,41.63999938964844
1775728168478428700,7.8514287109375,-14.15999984741211,-4.559999942779541,41.34000015258789
1775728168488499500,7.86149951171875,-13.679999351501465,-4.559999942779541,41.87999725341797
1775728168498600700,7.8716005859375,-12.960000038146973,-4.079999923706055,41.939998626708984
1775728168508702200,7.8817021484375,-12.65999984741211,-4.079999923706055,42.05999755859375
1775728168518711800,7.8917119140625,-13.139999389648438,-3.179999828338623,42.71999740600586
1775728168528813000,7.90181298828125,-13.739999771118164,-3.7200000286102295,41.81999969482422
1775728168538884000,7.911884033203125,-14.519999504089355,-3.240000009536743,41.939998626708984
1775728168569096400,7.942096435546875,-16.979999542236328,-2.1599998474121094,42
1775728168579167200,7.952167236328125,-18.059999465942383,-2.2200000286102295,42.779998779296875
1775728168589176800,7.9621767578125,-17.520000457763672,-2.1599998474121094,42.71999740600586
1775728168599186700,7.972186767578125,-17.459999084472656,-1.7400000095367432,43.31999969482422
1775728168609257500,7.982257568359375,-17.579999923706055,-1.6799999475479126,43.37999725341797
1775728168619358700,7.992358642578125,-17.100000381469727,-1.8600000143051147,43.07999801635742
1775728168629429500,8.002429443359375,-17.15999984741211,-1.3199999332427979,43.31999969482422
1775728168649510100,8.02251025390625,-18.35999870300293,-0.41999998688697815,41.87999725341797
1775728168669682400,8.042682373046874,-20.760000228881836,1.0199999809265137,41.939998626708984
1775728168679753200,8.052753173828124,-21.779998779296875,0.8999999761581421,41.939998626708984
1775728168689824000,8.062823974609374,-21.719999313354492,1.3199999332427979,42.29999923706055
1775728168699894800,8.072894775390624,-20.520000457763672,2.1599998474121094,42.41999816894531
1775728168709904400,8.082904296875,-20.03999900817871,2.879999876022339,42.41999816894531
1775728168719914200,8.092914306640624,-19.85999870300293,3.5999999046325684,42.65999984741211
1775728168730015500,8.103015380859375,-20.03999900817871,3.7799999713897705,42.29999923706055
1775728168770268200,8.14326806640625,-23.279998779296875,5.339999675750732,42.29999923706055
1775728168780308500,8.15330859375,-24.18000030517578,5.639999866485596,42.18000030517578
1775728168790409700,8.16340966796875,-24.119998931884766,5.87999963760376,41.63999938964844
1775728168800480800,8.173480712890624,-24.779998779296875,6.299999713897705,41.70000076293945
1775728168810551600,8.183551513671874,-25.439998626708984,6.239999771118164,41.040000915527344
1775728168820622300,8.193622314453124,-25.85999870300293,6.119999885559082,40.86000061035156
1775728168830632000,8.2036318359375,-26.15999984741211,6.420000076293945,40.91999816894531
1775728168860844500,8.233844482421874,-27.53999900817871,7.37999963760376,39.18000030517578
1775728168870884600,8.243884521484375,-28.260000228881836,7.440000057220459,39.119998931884766
1775728168880894500,8.25389453125,-28.619998931884766,7.619999885559082,39.23999786376953
1775728168901036000,8.2740361328125,-30.479999542236328,8.579999923706055,39.23999786376953
1775728168911106800,8.28410693359375,-30.959999084472656,9.239999771118164,38.459999084472656
1775728168921208000,8.2942080078125,-31.799999237060547,8.880000114440918,37.07999801635742
1775728168931279000,8.304279052734374,-31.920000076293945,9.300000190734863,36.71999740600586
1775728168961430300,8.33443017578125,-30.959999084472656,11.15999984741211,36.599998474121094
1775728168981541400,8.354541259765625,-30.53999900817871,12.239999771118164,37.02000045776367
1775728168991643000,8.364642822265624,-30.059999465942383,12.059999465942383,36.119998931884766
1775728169001713700,8.374713623046874,-30.35999870300293,11.639999389648438,36.71999740600586
1775728169011784400,8.384784423828124,-30.959999084472656,12.300000190734863,37.20000076293945
1775728169021855200,8.394855224609374,-30.059999465942383,12.239999771118164,36.18000030517578
1775728169031926000,8.404926025390624,-30.84000015258789,12.719999313354492,36.41999816894531
1775728169041996800,8.414996826171874,-30.299999237060547,12.719999313354492,35.7599983215332
1775728169052067600,8.425067626953124,-29.69999885559082,12.239999771118164,35.57999801635742
1775728169082249500,8.45524951171875,-29.639999389648438,11.34000015258789,36.959999084472656
1775728169092350700,8.465350830078124,-29.760000228881836,10.559999465942383,37.380001068115234
1775728169102421500,8.47542138671875,-29.69999885559082,10.079999923706055,37.31999969482422
1775728169112523000,8.48552294921875,-30.119998931884766,9.479999542236328,37.79999923706055
1775728169122532600,8.49553271484375,-29.279998779296875,9.59999942779541,38.040000915527344
1775728169132633900,8.5056337890625,-28.799999237060547,9.539999961853027,38.63999938964844
1775728169142705000,8.515704833984374,-27.719999313354492,10.019999504089355,40.07999801635742
1775728169152775700,8.525775634765624,-27.84000015258789,9.59999942779541,40.619998931884766
1775728169182926800,8.5559267578125,-26.81999969482422,6.779999732971191,42.23999786376953
1775728169192967200,8.56596728515625,-25.260000228881836,5.940000057220459,43.68000030517578
1775728169202946600,8.575946533203124,-24.299999237060547,4.799999713897705,42.959999084472656
1775728169213047800,8.5860478515625,-23.219999313354492,4.559999942779541,43.37999725341797
1775728169223118600,8.59611865234375,-22.619998931884766,4.380000114440918,44.099998474121094
1775728169233159000,8.606158935546874,-21.899999618530273,3.5399999618530273,44.099998474121094
1775728169243168500,8.61616845703125,-20.459999084472656,2.4600000381469727,44.39999771118164
1775728169253239600,8.626239501953124,-20.459999084472656,0.8999999761581421,44.70000076293945
1775728169273350400,8.646350341796875,-19.5,-1.0199999809265137,45.599998474121094
1775728169283421400,8.65642138671875,-19.5,-2.2200000286102295,45.779998779296875
1775728169293522700,8.666522705078124,-18.899999618530273,-2.0399999618530273,45.71999740600586
1775728169303532300,8.6765322265625,-18.18000030517578,-2.5799999237060547,45.599998474121094
1775728169313603300,8.686603271484374,-16.739999771118164,-3.119999885559082,45.53999710083008
1775728169323643400,8.696643310546875,-15.779999732971191,-3.299999952316284,44.7599983215332
1775728169333714200,8.706714111328125,-14.75999927520752,-4.019999980926514,44.70000076293945
1775728169343754500,8.71675439453125,-13.920000076293945,-4.079999923706055,44.63999938964844
1775728169353825300,8.7268251953125,-13.739999771118164,-4.440000057220459,44.81999969482422
1775728169394047500,8.767047607421874,-14.519999504089355,-4.380000114440918,45.36000061035156
1775728169404118300,8.7771181640625,-14.699999809265137,-4.259999752044678,46.31999969482422
1775728169414219800,8.7872197265625,-14.460000038146973,-4.199999809265137,46.5
1775728169424259800,8.797259765625,-14.519999504089355,-3.8999998569488525,46.73999786376953
1775728169434361300,8.807361328125,-14.9399995803833,-4.199999809265137,46.20000076293945
1775728169444371000,8.817370849609375,-15.119999885559082,-4.319999694824219,45.959999084472656
1775728169454472400,8.827472412109374,-15.719999313354492,-4.139999866485596,46.86000061035156
1775728169464543200,8.837543212890624,-16.559999465942383,-4.5,46.73999786376953
1775728169484654300,8.857654296875,-16.31999969482422,-3.179999828338623,47.52000045776367
1775728169494694400,8.8676943359375,-15.719999313354492,-3,47.459999084472656
1775728169504765400,8.877765380859374,-15.119999885559082,-3.059999942779541,47.34000015258789
1775728169514836200,8.887836181640624,-15.059999465942383,-3.5999999046325684,46.02000045776367
1775728169524876300,8.897876220703125,-15.119999885559082,-3.6599998474121094,45.779998779296875
1775728169534916600,8.90791650390625,-15.839999198913574,-3.5399999618530273,45.53999710083008
1775728169544987400,8.9179873046875,-16.079999923706055,-3.059999942779541,45.959999084472656
1775728169555058200,8.92805810546875,-16.31999969482422,-2.4600000381469727,46.55999755859375
1775728169565129000,8.93812890625,-16.739999771118164,-1.559999942779541,46.73999786376953
1775728169585209600,8.958209716796874,-16.139999389648438,-1.6200000047683716,46.37999725341797
1775728169595280400,8.9682802734375,-16.260000228881836,-1.3199999332427979,46.619998931884766
1775728169605320700,8.97832080078125,-15.65999984741211,-2.2799999713897705,46.07999801635742
1775728169625462300,8.998462158203125,-16.440000534057617,-2.3999998569488525,46.20000076293945
1775728169635472100,9.00847216796875,-16.920000076293945,-2.819999933242798,46.55999755859375
1775728169645573400,9.018573486328124,-18.059999465942383,-2.6399998664855957,46.37999725341797
1775728169655583200,9.028583251953124,-18,-2.759999990463257,45.959999084472656
1775728169665592800,9.0385927734375,-18.35999870300293,-2.700000047683716,46.13999938964844
1775728169685643000,9.05864306640625,-18.84000015258789,-2.819999933242798,45.47999954223633
1775728169695744300,9.068744140625,-18.959999084472656,-1.9199999570846558,46.07999801635742
1775728169705845800,9.078845703125,-18.959999084472656,-1.6799999475479126,45.53999710083008
1775728169715885800,9.0888857421875,-18.899999618530273,-1.4399999380111694,46.02000045776367
1775728169725926100,9.098926025390625,-19.079999923706055,-1.559999942779541,45.89999771118164
1775728169735997000,9.108996826171875,-20.459999084472656,-1.3199999332427979,45.779998779296875
1775728169746067700,9.119067626953125,-21.299999237060547,-0.7799999713897705,46.02000045776367
1775728169756138500,9.129138427734375,-21.059999465942383,-0.23999999463558197,45.89999771118164
1775728169766178800,9.1391787109375,-19.920000076293945,0.7199999690055847,47.03999710083008
1775728169806462200,9.179462158203124,-17.579999923706055,-0.05999999865889549,45.29999923706055
1775728169816563500,9.1895634765625,-17.459999084472656,-0.29999998211860657,45.53999710083008
1775728169826634200,9.19963427734375,-17.940000534057617,-0.47999998927116394,44.7599983215332
1775728169836735500,9.209735595703124,-18.53999900817871,-0.35999998450279236,45.18000030517578
1775728169846806300,9.21980615234375,-19.079999923706055,0,45.41999816894531
1775728169856877000,9.229876953125,-19.559999465942383,0.35999998450279236,45.05999755859375
1775728169866917400,9.23991748046875,-19.85999870300293,0.7199999690055847,45.119998931884766
1775728169876988200,9.24998828125,-20.03999900817871,1.3799999952316284,45.41999816894531
1775728169887059000,9.260058837890625,-21.239999771118164,1.7400000095367432,44.63999938964844
1775728169917271300,9.290271240234375,-21.35999870300293,2.700000047683716,42.959999084472656
1775728169927311600,9.3003115234375,-20.579999923706055,2.759999990463257,42.540000915527344
1775728169937382400,9.31038232421875,-21.119998931884766,2.879999876022339,42.779998779296875
1775728169947484000,9.32048388671875,-21.719999313354492,3,42.65999984741211
1775728169957554700,9.3305546875,-21.719999313354492,2.6399998664855957,41.939998626708984
1775728169967625500,9.34062548828125,-23.03999900817871,2.5799999237060547,41.70000076293945
1775728169977635000,9.350635009765625,-24,2.5799999237060547,41.459999084472656
1775728169987675400,9.36067529296875,-24.479999542236328,3.240000009536743,41.57999801635742
1775728170007847700,9.38084765625,-25.559999465942383,5.039999961853027,40.97999954223633
1775728170017918500,9.39091845703125,-25.3799991607666,5.759999752044678,40.5
1775728170027989200,9.4009892578125,-25.799999237060547,5.339999675750732,39.65999984741211
1775728170037998800,9.410998779296875,-26.51999855041504,5.159999847412109,40.2599983215332
1775728170048039200,9.4210390625,-27.299999237060547,5.099999904632568,40.07999801635742
1775728170058049000,9.431049072265624,-28.260000228881836,4.619999885559082,39.779998779296875
1775728170068150300,9.441150390625,-29.219999313354492,4.679999828338623,39.65999984741211
1775728170078221000,9.451220947265625,-30.059999465942383,5.699999809265137,38.939998626708984
1775728170088291800,9.461291748046875,-30,6.480000019073486,38.63999938964844
1775728170118535000,9.491534912109374,-29.34000015258789,8.399999618530273,39.18000030517578
1775728170128605700,9.501605712890624,-29.81999969482422,8.579999923706055,39.119998931884766
1775728170138646000,9.51164599609375,-30.35999870300293,8.220000267028809,38.459999084472656
1775728170148686300,9.521686279296874,-31.85999870300293,8.09999942779541,37.20000076293945
1775728170158757000,9.531757080078124,-32.7599983215332,8.039999961853027,36.599998474121094
1775728170168797200,9.541797119140625,-32.7599983215332,7.559999942779541,35.880001068115234
1775728170178868200,9.5518681640625,-32.880001068115234,8.15999984741211,36.05999755859375
1775728170188939000,9.56193896484375,-32.15999984741211,8.460000038146973,36.599998474121094
1775728170219090200,9.592090087890625,-31.079999923706055,9.119999885559082,35.70000076293945
1775728170229161000,9.602160888671875,-30.65999984741211,9.359999656677246,35.040000915527344
1775728170239262500,9.612262451171874,-30.420000076293945,9.719999313354492,35.939998626708984
1775728170249272000,9.62227197265625,-29.459999084472656,11.09999942779541,36.41999816894531
1775728170259373600,9.63237353515625,-29.459999084472656,10.979999542236328,36.29999923706055
1775728170269383200,9.642383056640625,-29.51999855041504,11.279999732971191,37.380001068115234
1775728170279484700,9.652484619140624,-29.760000228881836,10.979999542236328,37.5
1775728170289524700,9.662524658203125,-31.139999389648438,10.139999389648438,36.89999771118164
1775728170299595500,9.672595458984375,-31.619998931884766,10.319999694824219,37.68000030517578
1775728170329808100,9.70280810546875,-29.399999618530273,9.65999984741211,37.02000045776367
1775728170339879000,9.71287890625,-28.920000076293945,9.239999771118164,37.5
1775728170349949700,9.72294970703125,-28.079999923706055,8.519999504089355,38.040000915527344
1775728170360020500,9.7330205078125,-28.260000228881836,7.799999713897705,38.15999984741211
1775728170370060800,9.743060791015624,-29.34000015258789,6.71999979019165,39.119998931884766
1775728170380101000,9.75310107421875,-28.920000076293945,5.759999752044678,39.41999816894531
1775728170390172000,9.763171875,-29.03999900817871,4.259999752044678,38.939998626708984
1775728170400242700,9.77324267578125,-29.099998474121094,2.879999876022339,39.47999954223633
1775728170450657500,9.823657470703125,-26.51999855041504,-2.2799999713897705,40.86000061035156
1775728170460697900,9.83369775390625,-25.799999237060547,-3.059999942779541,41.57999801635742
1775728170470738200,9.84373828125,-25.3799991607666,-3.5399999618530273,43.02000045776367
1775728170480809000,9.85380908203125,-25.3799991607666,-4.199999809265137,43.68000030517578
1775728170490879700,9.863879638671875,-25.19999885559082,-4.619999885559082,44.39999771118164
1775728170500920000,9.873920166015624,-24.959999084472656,-5.460000038146973,44.15999984741211
1775728170510990800,9.883990966796874,-24.420000076293945,-5.940000057220459,43.55999755859375
1775728170551274000,9.92427392578125,-20.81999969482422,-6.179999828338623,41.34000015258789
1775728170561314300,9.934314208984375,-20.520000457763672,-6,41.70000076293945
1775728170571385000,9.944385009765625,-20.639999389648438,-5.339999675750732,42.05999755859375
1775728170581425400,9.95442529296875,-20.34000015258789,-4.319999694824219,42.36000061035156
1775728170591465700,9.9644658203125,-20.15999984741211,-3.119999885559082,43.619998931884766
1775728170601536500,9.97453662109375,-19.85999870300293,-3,42.84000015258789
1775728170611637800,9.9846376953125,-19.439998626708984,-2.4600000381469727,42.84000015258789
1775728170661930800,10.0349306640625,-21.600000381469727,-1.2599999904632568,44.34000015258789
1775728170672001500,10.04500146484375,-20.939998626708984,-0.9599999785423279,44.279998779296875
1775728170682011400,10.055011474609374,-20.760000228881836,-0.47999998927116394,44.34000015258789
1775728170692082200,10.065082275390624,-19.85999870300293,-1.0799999237060547,44.15999984741211
1775728170702183400,10.075183349609375,-20.279998779296875,-1.6799999475479126,43.55999755859375
1775728170712223700,10.0852236328125,-20.459999084472656,-1.6200000047683716,43.13999938964844
1775728170722264000,10.09526416015625,-20.34000015258789,-2.3399999141693115,42.71999740600586
1775728170752507100,10.125507080078124,-19.85999870300293,-2.0999999046325684,42.540000915527344
1775728170772648700,10.145648681640624,-19.920000076293945,-1.8600000143051147,43.02000045776367
1775728170782719500,10.155719482421874,-19.979999542236328,-1.9799998998641968,43.20000076293945
1775728170792759800,10.165759765625,-19.559999465942383,-2.1599998474121094,42.71999740600586
1775728170802799900,10.1757998046875,-19.619998931884766,-2.2200000286102295,42.23999786376953
1775728170812871000,10.185870849609374,-19.559999465942383,-2.2200000286102295,42.23999786376953
1775728170822941700,10.195941650390624,-19.619998931884766,-2.5199999809265137,42.119998931884766
1775728170843083300,10.216083251953124,-18.899999618530273,-2.3999998569488525,42
1775728170873326000,10.246326171875,-16.85999870300293,-1.6799999475479126,41.459999084472656
1775728170883396900,10.25639697265625,-16.799999237060547,-1.3199999332427979,41.34000015258789
1775728170893406700,10.26640673828125,-15.779999732971191,-1.5,41.70000076293945
1775728170903508000,10.276508056640624,-16.559999465942383,-2.759999990463257,41.15999984741211
1775728170913609200,10.286609130859375,-17.940000534057617,-3.179999828338623,40.2599983215332
1775728170923680000,10.296679931640625,-18,-3.359999895095825,40.91999816894531
1775728170933751000,10.3067509765625,-18.600000381469727,-3.4800000190734863,40.439998626708984
1775728170963871700,10.336871826171874,-18.059999465942383,-1.9799998998641968,41.279998779296875
1775728170973881600,10.346881591796874,-19.19999885559082,-1.5,41.459999084472656
1775728170983922000,10.356921875,-19.439998626708984,-0.8399999737739563,41.34000015258789
1775728170993931500,10.366931640625,-20.69999885559082,-0.7799999713897705,42.119998931884766
1775728171004033000,10.377032958984374,-20.399999618530273,-1.1399999856948853,42.119998931884766
1775728171024144000,10.397143798828125,-19.439998626708984,-1.5,41.939998626708984
1775728171034214700,10.407214599609375,-19.020000457763672,-1.6799999475479126,40.86000061035156
1775728171064427300,10.43742724609375,-20.100000381469727,-1.9199999570846558,39.89999771118164
1775728171074467600,10.447467529296874,-20.34000015258789,-1.5,39.779998779296875
1775728171084538400,10.457538330078124,-20.81999969482422,-0.29999998211860657,40.02000045776367
1775728171094609200,10.467609130859374,-20.760000228881836,0.11999999731779099,40.07999801635742
1775728171104680000,10.477679931640624,-21.059999465942383,0.9599999785423279,40.07999801635742
1775728171114689500,10.487689453125,-21.420000076293945,1.6799999475479126,39.65999984741211
1775728171124791000,10.497791015625,-22.079999923706055,1.2599999904632568,39
1775728171134861800,10.50786181640625,-22.439998626708984,1.7999999523162842,38.459999084472656
1775728171175114500,10.548114501953124,-25.979999542236328,5.159999847412109,37.439998626708984
1775728171185185300,10.558185302734374,-25.68000030517578,5.759999752044678,36.540000915527344
1775728171195225600,10.5682255859375,-26.51999855041504,6.480000019073486,36
1775728171205296400,10.57829638671875,-26.15999984741211,6.899999618530273,34.79999923706055
1775728171215397600,10.588397705078124,-26.219999313354492,7.139999866485596,34.380001068115234
1775728171225468400,10.598468505859374,-27.119998931884766,8.220000267028809,34.619998931884766
1775728171235478300,10.608478271484374,-27.65999984741211,8.460000038146973,34.31999969482422
1775728171255650300,10.628650390625,-28.3799991607666,10.019999504089355,33.41999816894531
1775728171265690600,10.638690673828124,-28.31999969482422,10.260000228881836,32.7599983215332
1775728171275792000,10.6487919921875,-28.139999389648438,10.4399995803833,31.559999465942383
1775728171285893000,10.65889306640625,-28.3799991607666,10.380000114440918,31.920000076293945
1775728171295964200,10.668964111328124,-28.799999237060547,10.679999351501465,31.920000076293945
1775728171306035000,10.679034912109374,-29.15999984741211,10.679999351501465,31.799999237060547
1775728171316105700,10.689105712890624,-29.34000015258789,10.5,31.19999885559082
1775728171326146000,10.69914599609375,-29.939998626708984,10.199999809265137,29.81999969482422
1775728171336186000,10.70918603515625,-29.8799991607666,10.139999389648438,28.920000076293945
1775728171366337500,10.739337646484374,-30.779998779296875,11.279999732971191,28.31999969482422
1775728171376408300,10.749408203125,-31.559999465942383,11.460000038146973,28.260000228881836
1775728171386448600,10.75944873046875,-31.619998931884766,11.880000114440918,29.15999984741211
1775728171396519400,10.76951953125,-32.21999740600586,11.639999389648438,28.85999870300293
1775728171406620700,10.77962060546875,-31.979999542236328,11.639999389648438,28.619998931884766
1775728171416630500,10.789630615234374,-32.57999801635742,11.75999927520752,28.799999237060547
1775728171426701300,10.799701416015624,-33.959999084472656,12.899999618530273,28.19999885559082
1775728171436802600,10.809802490234375,-34.86000061035156,13.559999465942383,29.219999313354492
1775728171446904000,10.819904052734374,-36.36000061035156,13.5,29.279998779296875
1775728171467076000,10.840076171875,-35.34000015258789,14.279999732971191,29.579999923706055
1775728171477147000,10.85014697265625,-34.55999755859375,14.399999618530273,29.15999984741211
1775728171487187200,10.860187255859374,-34.20000076293945,14.519999504089355,29.15999984741211
1775728171497258000,10.870258056640624,-33.41999816894531,14.399999618530273,29.279998779296875
1775728171517430000,10.890429931640625,-31.5,13.5,30.479999542236328
1775728171527531500,10.900531494140624,-29.81999969482422,13.25999927520752,30.599998474121094
1775728171537571800,10.91057177734375,-29.34000015258789,12.899999618530273,30.53999900817871
1775728171547581400,10.92058154296875,-29.399999618530273,12.899999618530273,31.260000228881836
1775728171577732900,10.95073291015625,-28.19999885559082,13.4399995803833,34.5
1775728171587803600,10.9608037109375,-27.65999984741211,13.5,34.73999786376953
1775728171597874400,10.97087451171875,-26.279998779296875,13.380000114440918,35.15999984741211
1775728171607975700,10.9809755859375,-25.260000228881836,12.719999313354492,35.52000045776367
1775728171618046500,10.99104638671875,-25.3799991607666,11.34000015258789,35.459999084472656
1775728171628148000,11.00114794921875,-24.239999771118164,9.84000015258789,35.7599983215332
1775728171638249200,11.011249267578124,-23.8799991607666,8.039999961853027,35.81999969482422
1775728171648320000,11.021320068359374,-25.19999885559082,6.71999979019165,36
1775728171658390800,11.031390869140624,-24.899999618530273,6.480000019073486,36.05999755859375
1775728171688633600,11.061633544921875,-20.279998779296875,6.059999942779541,38.81999969482422
1775728171698704600,11.07170458984375,-19.559999465942383,4.920000076293945,39.779998779296875
1775728171708775400,11.081775390625,-19.559999465942383,4.139999866485596,39.779998779296875
1775728171718815500,11.0918154296875,-18.899999618530273,3.059999942779541,39.779998779296875
1775728171728917000,11.1019169921875,-18.779998779296875,2.700000047683716,40.2599983215332
1775728171738957300,11.111957275390624,-17.579999923706055,2.0399999618530273,39.84000015258789
1775728171749058600,11.12205859375,-16.85999870300293,1.4399999380111694,39.36000061035156
1775728171759129300,11.13212939453125,-16.020000457763672,1.3199999332427979,39.89999771118164
1775728171779301400,11.15230126953125,-16.079999923706055,-0.11999999731779099,40.439998626708984
1775728171789372200,11.1623720703125,-15,-0.05999999865889549,40.68000030517578
1775728171799443000,11.17244287109375,-15,-1.1399999856948853,39.84000015258789
1775728171809513700,11.182513671875,-14.639999389648438,-1.3799999952316284,39.36000061035156
1775728171819615200,11.192615234375,-13.859999656677246,-1.9799998998641968,38.459999084472656
1775728171829686000,11.20268603515625,-14.579999923706055,-2.3399999141693115,37.97999954223633
1775728171839695600,11.212695556640625,-14.699999809265137,-1.8600000143051147,37.97999954223633
1775728171849736000,11.22273583984375,-14.15999984741211,-1.7999999523162842,38.21999740600586
1775728171859776300,11.2327763671875,-13.5,-1.7999999523162842,38.63999938964844
1775728171879857000,11.25285693359375,-12.359999656677246,-1.0199999809265137,40.97999954223633
1775728171910099700,11.283099609375,-12.300000190734863,-0.11999999731779099,41.939998626708984
1775728171920170500,11.29317041015625,-12,-0.7199999690055847,40.5
1775728171930272000,11.30327197265625,-12.539999961853027,-0.5999999642372131,41.21999740600586
1775728171940342800,11.3133427734375,-13.019999504089355,-0.7799999713897705,41.57999801635742
1775728171950413600,11.32341357421875,-13.5,-0.8999999761581421,41.52000045776367
1775728171960423200,11.333423095703125,-13.739999771118164,-0.35999998450279236,42.119998931884766
1775728171970524700,11.343524658203124,-13.019999504089355,0,41.70000076293945
1775728172010777300,11.38377734375,-12.960000038146973,0.5999999642372131,41.57999801635742
1775728172020848000,11.39384814453125,-12.539999961853027,0.5399999618530273,41.939998626708984
1775728172030919000,11.4039189453125,-11.219999313354492,0.5999999642372131,40.91999816894531
1775728172040928800,11.4139287109375,-11.039999961853027,0.29999998211860657,39.959999084472656
1775728172050968800,11.42396875,-10.380000114440918,0.5399999618530273,40.31999969482422
1775728172061070300,11.4340703125,-10.019999504089355,0.29999998211860657,39.540000915527344
1775728172071141000,11.44414111328125,-11.039999961853027,0.41999998688697815,39.89999771118164
1775728172081181400,11.454181396484374,-11.34000015258789,0.8999999761581421,40.13999938964844
1775728172131535400,11.504535400390624,-10.199999809265137,3.179999828338623,40.20000076293945
1775728172141575700,11.51457568359375,-11.279999732971191,2.6399998664855957,39.540000915527344
1775728172151677000,11.524677001953124,-12.359999656677246,2.93999981880188,39.18000030517578
1775728172161717200,11.53471728515625,-14.09999942779541,2.759999990463257,38.7599983215332
1775728172171818500,11.544818603515624,-15.359999656677246,2.759999990463257,38.57999801635742
1775728172181828400,11.554828369140624,-16.079999923706055,2.819999933242798,38.099998474121094
1775728172191929600,11.5649296875,-16.31999969482422,2.700000047683716,38.34000015258789
1775728172232151800,11.60515185546875,-18,3.6599998474121094,37.2599983215332
1775728172242192100,11.615192138671874,-19.799999237060547,3.5399999618530273,35.70000076293945
1775728172252263000,11.625262939453124,-21.18000030517578,4.139999866485596,35.21999740600586
1775728172262333700,11.635333740234374,-22.5,4.739999771118164,35.880001068115234
1775728172272404500,11.645404541015624,-23.03999900817871,5.460000038146973,36.41999816894531
1775728172282475300,11.655475341796874,-22.619998931884766,5.940000057220459,36.89999771118164
1775728172292546000,11.665546142578124,-22.139999389648438,6.179999828338623,37.07999801635742
1775728172332737800,11.70573779296875,-20.69999885559082,7.199999809265137,34.79999923706055
1775728172342778000,11.715778076171874,-20.34000015258789,7.199999809265137,34.07999801635742
1775728172352849000,11.725848876953124,-21.239999771118164,8.639999389648438,35.15999984741211
1775728172362919700,11.735919677734374,-22.19999885559082,8.819999694824219,34.55999755859375
1775728172372990500,11.745990478515624,-23.100000381469727,8.460000038146973,33.18000030517578
1775728172383000000,11.756,-24.239999771118164,8.399999618530273,32.57999801635742
1775728172393040400,11.766040283203125,-25.19999885559082,8.819999694824219,32.57999801635742
1775728172403111200,11.776111083984375,-25.619998931884766,8.34000015258789,31.439998626708984
1775728172453404200,11.826404052734375,-26.760000228881836,9.779999732971191,31.260000228881836
1775728172463444500,11.836444580078124,-28.139999389648438,9.479999542236328,30.53999900817871
1775728172473515300,11.846515380859374,-28.920000076293945,9.359999656677246,30.84000015258789
1775728172483555600,11.8565556640625,-30.119998931884766,9.359999656677246,30.65999984741211
1775728172493596000,11.866595947265624,-31.19999885559082,9.84000015258789,30.599998474121094
1775728172503636200,11.87663623046875,-30.899999618530273,10.4399995803833,30.899999618530273
1775728172523777800,11.89677783203125,-30.239999771118164,11.639999389648438,29.099998474121094
1775728172543919400,11.91691943359375,-30.35999870300293,11.699999809265137,27.18000030517578
1775728172554020600,11.9270205078125,-30.53999900817871,11.639999389648438,27.239999771118164
1775728172564061000,11.93706103515625,-30.959999084472656,11.579999923706055,27.35999870300293
1775728172574131700,11.947131591796875,-30.299999237060547,12,27.420000076293945
1775728172584202500,11.957202392578125,-30.17999839782715,11.75999927520752,27.779998779296875
1775728172594273300,11.967273193359375,-30.35999870300293,11.699999809265137,27.599998474121094
1775728172624516400,11.997516357421874,-29.03999900817871,12.84000015258789,27
1775728172634526000,12.00752587890625,-28.619998931884766,13.019999504089355,26.69999885559082
1775728172644566300,12.017566162109375,-28.559999465942383,13.139999389648438,26.639999389648438
1775728172654576000,12.027576171875,-30.299999237060547,12.65999984741211,26.459999084472656
1775728172664677400,12.037677490234374,-32.459999084472656,12.059999465942383,25.619998931884766
1775728172674748200,12.047748046875,-33.119998931884766,11.819999694824219,25.920000076293945
1775728172684788500,12.05778857421875,-33.599998474121094,11.399999618530273,26.15999984741211
1775728172694798300,12.06779833984375,-31.920000076293945,11.34000015258789,25.920000076293945
1775728172735020500,12.1080205078125,-30.779998779296875,11.34000015258789,25.979999542236328
1775728172745091300,12.11809130859375,-31.139999389648438,11.460000038146973,26.69999885559082
1775728172755162000,12.128162109375,-31.079999923706055,11.9399995803833,27.53999900817871
1775728172765202400,12.138202392578124,-30.84000015258789,11.519999504089355,27.959999084472656
1775728172785344000,12.158343994140624,-30.17999839782715,11.09999942779541,29.03999900817871
1775728172795445200,12.1684453125,-30,10.319999694824219,29.219999313354492
1775728172805516000,12.17851611328125,-29.760000228881836,9.960000038146973,30
1775728172845738200,12.21873828125,-29.099998474121094,7.799999713897705,32.34000015258789
1775728172855748000,12.228748046875,-27.18000030517578,7.799999713897705,32.7599983215332
1775728172865757700,12.2387578125,-24.35999870300293,7.739999771118164,32.81999969482422
1775728172875859000,12.24885888671875,-22.979999542236328,8.15999984741211,33.959999084472656
1775728172885868800,12.258868896484374,-20.760000228881836,8.34000015258789,34.380001068115234
1775728172896000800,12.269000732421874,-19.68000030517578,8.039999961853027,35.39999771118164
1775728172906071600,12.279071533203124,-19.979999542236328,7.37999963760376,35.880001068115234
1775728172946293800,12.319293701171874,-17.15999984741211,5.21999979019165,34.68000030517578
1775728172956395000,12.32939501953125,-16.079999923706055,5.819999694824219,35.15999984741211
1775728172966435300,12.339435302734374,-15.420000076293945,5.759999752044678,35.279998779296875
1775728172976506000,12.349506103515624,-14.460000038146973,6.239999771118164,35.52000045776367
1775728172986515700,12.359515625,-14.09999942779541,6.299999713897705,35.63999938964844
1775728172996617200,12.3696171875,-14.09999942779541,6.119999885559082,35.57999801635742
1775728173006688000,12.37968798828125,-14.09999942779541,6.179999828338623,36.05999755859375
1775728173016758800,12.3897587890625,-13.920000076293945,5.279999732971191,36.29999923706055
1775728173036900400,12.409900390625,-13.139999389648438,5.339999675750732,36.05999755859375
1775728173046971100,12.41997119140625,-12.239999771118164,4.920000076293945,35.279998779296875
1775728173057042000,12.4300419921875,-12.420000076293945,5.460000038146973,36
1775728173067112700,12.44011279296875,-12.479999542236328,5.759999752044678,36.36000061035156
1775728173077122600,12.45012255859375,-12.179999351501465,5.639999866485596,36.959999084472656
1775728173087163000,12.460162841796874,-12.300000190734863,5.579999923706055,37.439998626708984
1775728173097264000,12.47026416015625,-11.279999732971191,6.179999828338623,37.13999938964844
1775728173107304400,12.480304443359374,-10.4399995803833,6.179999828338623,36.599998474121094
1775728173117405700,12.49040576171875,-9.84000015258789,5.940000057220459,35.63999938964844
1775728173137547300,12.51054736328125,-9.359999656677246,7.440000057220459,35.70000076293945
1775728173147557000,12.52055712890625,-9.420000076293945,7.980000019073486,36.41999816894531
1775728173157658400,12.530658447265624,-9.359999656677246,8.880000114440918,37.5
1775728173167668200,12.540668212890624,-9,8.9399995803833,37.86000061035156
1775728173177708500,12.55070849609375,-9.359999656677246,8.639999389648438,37.97999954223633
1775728173187748600,12.56074853515625,-9.239999771118164,9.179999351501465,38.099998474121094
1775728173197850000,12.57085009765625,-9.539999961853027,8.760000228881836,37.55999755859375
1775728173207859700,12.580859619140625,-10.800000190734863,9.239999771118164,37.97999954223633
1775728173217930500,12.590930419921875,-10.4399995803833,9.65999984741211,38.15999984741211
1775728173248112400,12.6211123046875,-7.859999656677246,10.800000190734863,37.73999786376953
1775728173258183200,12.63118310546875,-7.5,11.34000015258789,37.619998931884766
1775728173268193000,12.641193115234374,-7.139999866485596,10.920000076293945,37.55999755859375
1775728173278294300,12.651294189453125,-7.139999866485596,11.219999313354492,37.73999786376953
1775728173288365000,12.661364990234375,-8.279999732971191,11.219999313354492,38.15999984741211
1775728173298405400,12.6714052734375,-8.460000038146973,10.859999656677246,37.55999755859375
1775728173308476200,12.68147607421875,-9.179999351501465,10.859999656677246,37.13999938964844
1775728173318547000,12.691546875,-9.899999618530273,10.5,37.13999938964844
1775728173348668000,12.72166796875,-8.09999942779541,11.699999809265137,37.13999938964844
1775728173358769200,12.73176904296875,-7.679999828338623,12.179999351501465,36.65999984741211
1775728173368840000,12.74183984375,-8.819999694824219,12.179999351501465,36.29999923706055
1775728173378880300,12.75188037109375,-9.059999465942383,12.65999984741211,36
1775728173399021800,12.772021728515625,-10.019999504089355,12.779999732971191,35.040000915527344
1775728173409123300,12.782123291015624,-9.960000038146973,13.619999885559082,35.459999084472656
1775728173419224600,12.792224609375,-9.779999732971191,13.079999923706055,34.91999816894531
1775728173429265000,12.802264892578124,-9.059999465942383,12.899999618530273,34.13999938964844
1775728173469548000,12.842548095703124,-9.65999984741211,13.739999771118164,32.39999771118164
1775728173479588400,12.85258837890625,-10.319999694824219,13.619999885559082,32.459999084472656
1775728173489689600,12.862689697265624,-10.619999885559082,13.739999771118164,32.099998474121094
1775728173499760400,12.872760498046874,-11.279999732971191,14.279999732971191,32.279998779296875
1775728173509861600,12.882861572265625,-12.059999465942383,14.15999984741211,32.21999740600586
1775728173519932700,12.8929326171875,-13.380000114440918,13.859999656677246,31.439998626708984
1775728173530003500,12.90300341796875,-15.719999313354492,13.920000076293945,31.079999923706055
1775728173540074200,12.91307421875,-15.779999732971191,13.559999465942383,30.899999618530273
1775728173560185300,12.933185302734374,-14.9399995803833,15.239999771118164,31.979999542236328
1775728173570286600,12.94328662109375,-13.199999809265137,15.65999984741211,32.34000015258789
1775728173580357400,12.953357421875,-13.5,15.899999618530273,31.739999771118164
1775728173590397700,12.963397705078124,-14.219999313354492,15.420000076293945,31.979999542236328
1775728173600468500,12.973468505859374,-13.920000076293945,14.880000114440918,31.260000228881836
1775728173610539300,12.983539306640624,-14.819999694824219,14.519999504089355,31.31999969482422
1775728173620640500,12.993640625,-14.75999927520752,14.579999923706055,31.31999969482422
1775728173630741800,13.00374169921875,-15,14.699999809265137,31.079999923706055
1775728173640751600,13.013751708984374,-15.960000038146973,14.880000114440918,31.439998626708984
1775728173650852900,13.023852783203125,-17.100000381469727,15,31.559999465942383
1775728173660923600,13.033923583984375,-17.81999969482422,14.9399995803833,31.619998931884766
1775728173691075000,13.064074951171875,-16.5,15.539999961853027,31.01999855041504
1775728173701176600,13.074176513671874,-16.139999389648438,16.139999389648438,31.31999969482422
1775728173711247400,13.084247314453124,-17.03999900817871,15.839999198913574,31.439998626708984
1775728173721348600,13.0943486328125,-17.69999885559082,15.839999198913574,31.31999969482422
1775728173731419400,13.10441943359375,-17.279998779296875,16.139999389648438,31.67999839782715
1775728173741490200,13.114490234375,-18,15.839999198913574,31.01999855041504
1775728173751500000,13.1245,-18.059999465942383,16.19999885559082,30.719999313354492
1775728173771580400,13.144580322265625,-18.65999984741211,16.920000076293945,30
1775728173781620700,13.154620849609374,-18.959999084472656,17.100000381469727,30.959999084472656
1775728173791630600,13.164630615234374,-19.139999389648438,17.760000228881836,31.31999969482422
1775728173801701400,13.174701416015624,-19.559999465942383,17.100000381469727,31.19999885559082
1775728173811711200,13.184711181640624,-20.03999900817871,17.15999984741211,31.31999969482422
1775728173821812500,13.1948125,-20.760000228881836,17.03999900817871,30.899999618530273
1775728173831883300,13.20488330078125,-20.760000228881836,16.440000534057617,29.760000228881836
1775728173841954000,13.2149541015625,-21.239999771118164,16.920000076293945,29.639999389648438
1775728173852024800,13.22502490234375,-21.600000381469727,16.85999870300293,29.219999313354492
1775728173882237200,13.2552373046875,-24.18000030517578,18.65999984741211,30.119998931884766
1775728173892247000,13.2652470703125,-23.8799991607666,19.020000457763672,29.579999923706055
1775728173902378800,13.275378662109375,-23.219999313354492,18.84000015258789,30
1775728173922520300,13.295520263671875,-23.100000381469727,19.739999771118164,31.01999855041504
1775728173932591400,13.30559130859375,-23.279998779296875,19.85999870300293,31.559999465942383
1775728173942692600,13.315692626953124,-23.639999389648438,20.520000457763672,31.3799991607666
1775728173952763400,13.325763427734374,-23.69999885559082,20.03999900817871,31.079999923706055
1775728173972905000,13.345905029296874,-24.239999771118164,19.68000030517578,30.84000015258789
1775728173982945300,13.3559453125,-23.760000228881836,19.3799991607666,30.53999900817871
1775728173993046500,13.366046630859374,-23.8799991607666,19.260000228881836,30.17999839782715
1775728174003117300,13.376117431640624,-24.479999542236328,19.139999389648438,30.299999237060547
1775728174013096700,13.3860966796875,-24.959999084472656,18.719999313354492,30.17999839782715
1775728174023167500,13.39616748046875,-25.799999237060547,18.600000381469727,30.959999084472656
1775728174033177000,13.406177001953125,-25.68000030517578,18.779998779296875,31.5
1775728174043278600,13.416278564453124,-24.899999618530273,18.84000015258789,31.3799991607666
1775728174053379800,13.4263798828125,-23.81999969482422,19.31999969482422,31.85999870300293
1775728174093632500,13.466632568359374,-22.020000457763672,20.100000381469727,32.459999084472656
1775728174103703300,13.476703369140624,-21.600000381469727,18.899999618530273,32.099998474121094
1775728174113804500,13.486804443359375,-22.3799991607666,18.65999984741211,33.29999923706055
1775728174123875300,13.496875244140625,-22.619998931884766,17.100000381469727,33.18000030517578
1775728174133946000,13.506946044921875,-22.439998626708984,16.260000228881836,32.459999084472656
1775728174144017200,13.51701708984375,-23.219999313354492,16.020000457763672,33.119998931884766
1775728174154088000,13.527087890625,-22.68000030517578,16.3799991607666,33.29999923706055
1775728174164128000,13.5371279296875,-22.619998931884766,15.719999313354492,33.119998931884766
1775728174194371000,13.56737109375,-23.51999855041504,15.479999542236328,34.79999923706055
1775728174204411400,13.577411376953124,-22.85999870300293,15.179999351501465,35.459999084472656
1775728174214451700,13.58745166015625,-21.479999542236328,14.460000038146973,36
1775728174234562600,13.6075625,-20.81999969482422,13.920000076293945,37.2599983215332
1775728174244664000,13.6176640625,-20.760000228881836,14.279999732971191,37.91999816894531
1775728174254673700,13.627673583984375,-20.639999389648438,13.380000114440918,37.02000045776367
1775728174264744400,13.637744384765625,-20.639999389648438,12.119999885559082,36.84000015258789
1775728174304997400,13.677997314453124,-18.719999313354492,11.15999984741211,38.39999771118164
1775728174315068200,13.688068115234374,-18.779998779296875,10.199999809265137,38.099998474121094
1775728174325139000,13.698138916015624,-18.899999618530273,10.199999809265137,38.459999084472656
1775728174335179300,13.70817919921875,-19.68000030517578,10.319999694824219,39.05999755859375
1775728174345219300,13.71821923828125,-20.15999984741211,10.380000114440918,39.47999954223633
1775728174355259600,13.728259765625,-19.920000076293945,10.019999504089355,39.599998474121094
1775728174365330400,13.738330322265625,-20.399999618530273,9.719999313354492,40.13999938964844
1775728174385472000,13.758471923828125,-20.34000015258789,8.9399995803833,39.47999954223633
1775728174395542800,13.768542724609375,-20.279998779296875,8.880000114440918,40.02000045776367
1775728174405613800,13.77861376953125,-19.439998626708984,9.779999732971191,40.02000045776367
1775728174415715000,13.788715087890624,-19.799999237060547,9.779999732971191,40.439998626708984
1775728174425785900,13.798785888671874,-19.85999870300293,10.679999351501465,40.5
1775728174435856600,13.808856689453124,-20.639999389648438,11.219999313354492,40.5
1775728174445958000,13.8189580078125,-21.479999542236328,11.039999961853027,40.439998626708984
1775728174456028700,13.829028564453125,-21.35999870300293,10.619999885559082,40.13999938964844
1775728174496312000,13.86931201171875,-22.079999923706055,10.139999389648438,39.71999740600586
1775728174506382800,13.8793828125,-21.959999084472656,10.619999885559082,39.779998779296875
1775728174516453600,13.88945361328125,-22.19999885559082,10.260000228881836,39.29999923706055
1775728174536625700,13.909625732421874,-23.760000228881836,10.319999694824219,40.2599983215332
1775728174546696400,13.919696533203124,-24.299999237060547,9.960000038146973,39.959999084472656
1775728174556767200,13.929767333984374,-24.239999771118164,10.199999809265137,39.71999740600586
1775728174566807600,13.9398076171875,-24,10.619999885559082,39.89999771118164
1775728174576878300,13.94987841796875,-23.760000228881836,10.199999809265137,39.23999786376953
1775728174607090700,13.980090576171875,-23.939998626708984,10.859999656677246,40.02000045776367
1775728174617161500,13.990161376953125,-23.8799991607666,10.800000190734863,39.84000015258789
1775728174627201800,14.000201904296874,-22.439998626708984,9.479999542236328,38.81999969482422
1775728174637242000,14.0102421875,-22.079999923706055,9.420000076293945,39.23999786376953
1775728174647252000,14.020251953125,-22.559999465942383,9.119999885559082,39.23999786376953
1775728174657353200,14.030353271484374,-23.279998779296875,9.719999313354492,39.65999984741211
1775728174667424000,14.040424072265624,-22.619998931884766,9.719999313354492,39.71999740600586
1775728174677494800,14.050494873046874,-22.079999923706055,9.179999351501465,38.81999969482422
