time,seconds_elapsed,z,y,x
1775728160719188500,0.0921884765625,6.335057735443115,-3.066972494125366,-6.878541469573975
1775728160729059000,0.10205908203125,6.361393928527832,-2.964021682739258,-6.809109687805176
1775728160738999600,0.11199951171875,6.325480937957764,-3.138798475265503,-6.823474884033203
1775728160748839700,0.121839599609375,6.390124320983887,-3.1675288677215576,-6.900089263916016
1775728160758710500,0.13171044921875,6.430825710296631,-3.1268274784088135,-6.955155849456787
1775728160768650800,0.141650634765625,6.3973069190979,-3.1747114658355713,-7.003039836883545
1775728160778752300,0.151752197265625,6.366182327270508,-3.268085241317749,-6.938396453857422
1775728160788823000,0.161822998046875,6.4164605140686035,-3.308786630630493,-7.0126166343688965
1775728160798893800,0.171893798828125,6.440402507781982,-3.359065055847168,-7.115567684173584
1775728160808903400,0.1819033203125,6.356605529785156,-3.3470940589904785,-7.050923824310303
1775728160819035400,0.192035400390625,6.406883716583252,-3.44765043258667,-6.957550048828125
1775728160829075700,0.20207568359375,6.426037311553955,-3.380612850189209,-6.876147270202637
1775728160859288000,0.2322880859375,6.521805286407471,-3.0166940689086914,-6.852205276489258
1775728160879429600,0.2524296875,6.555324077606201,-3.2992098331451416,-6.878541469573975
1775728160909611500,0.282611572265625,6.447585105895996,-3.354276657104492,-6.878541469573975
1775728160919682300,0.292682373046875,6.3733649253845215,-3.270479440689087,-6.852205276489258
1775728160929722600,0.30272265625,6.337451934814453,-3.1100680828094482,-6.730101108551025
1775728160959965400,0.33296533203125,6.31829833984375,-3.1459810733795166,-6.943184852600098
1775728160980046000,0.353046142578125,6.323086738586426,-3.1292216777801514,-7.007828235626221
1775728160990116900,0.363116943359375,6.251260757446289,-3.1268274784088135,-6.914454460144043
1775728161000187600,0.373187744140625,6.260837554931641,-3.2130186557769775,-7.015010833740234
1775728161010228000,0.38322802734375,6.315904140472412,-3.1699230670928955,-6.983886241912842
1775728161020329200,0.3933291015625,6.382941722869873,-3.224989652633667,-6.931213855743408
1775728161030400000,0.40339990234375,6.36378812789917,-3.3016040325164795,-6.995857238769531
1775728161090702800,0.463702880859375,6.418854713439941,-3.1268274784088135,-6.847416877746582
1775728161110875000,0.483875,6.473921298980713,-3.531447410583496,-6.797138690948486
1775728161120915200,0.493915283203125,6.531382083892822,-3.469198226928711,-6.866570472717285
1775728161130986000,0.503986083984375,6.536170482635498,-3.220201253890991,-6.821080684661865
1775728161141087200,0.514087158203125,6.44279670715332,-3.203441858291626,-6.847416877746582
1775728161161229000,0.53422900390625,6.40927791595459,-3.1220390796661377,-6.852205276489258
1775728161171299800,0.5442998046875,6.337451934814453,-3.2585084438323975,-6.854599475860596
1775728161181370600,0.55437060546875,6.485892295837402,-3.4093432426452637,-6.864176273345947
1775728161191471900,0.564471923828125,6.596025466918945,-3.332728862762451,-6.914454460144043
1775728161201542700,0.574542724609375,6.689399719238281,-3.272873640060425,-6.938396453857422
1775728161211613400,0.584613525390625,6.636727333068848,-3.222595453262329,-6.94079065322876
1775728161231694000,0.604694091796875,6.296750545501709,-3.138798475265503,-6.9024834632873535
1775728161241764900,0.614764892578125,6.347028732299805,-3.3877954483032227,-6.852205276489258
1775728161272007700,0.645007568359375,6.385335922241211,-3.201047658920288,-6.9455790519714355
1775728161302159000,0.6751591796875,6.169857978820801,-3.4404678344726562,-6.959944248199463
1775728161312260400,0.68526025390625,6.150704383850098,-3.5649664402008057,-6.936002254486084
1775728161322331100,0.6953310546875,6.138733386993408,-3.670311212539673,-6.856993675231934
1775728161332402000,0.70540185546875,6.222530364990234,-3.7158010005950928,-6.904877662658691
1775728161342503400,0.71550341796875,6.260837554931641,-3.5218706130981445,-6.907271862030029
1775728161352574200,0.72557421875,6.229712963104248,-3.466804027557373,-6.876147270202637
1775728161382817000,0.755817138671875,6.229712963104248,-3.5434184074401855,-6.9240312576293945
1775728161392857300,0.765857421875,6.258443355560303,-3.5697548389434814,-6.952761650085449
1775728161402928000,0.77592822265625,6.428431510925293,-3.361459255218506,-6.957550048828125
1775728161412968400,0.785968505859375,6.428431510925293,-3.3877954483032227,-6.952761650085449
1775728161423008800,0.7960087890625,6.481103897094727,-3.4404678344726562,-6.888118267059326
1775728161433079600,0.80607958984375,6.428431510925293,-3.406949043273926,-6.909666061401367
1775728161443180800,0.816180908203125,6.327875137329102,-3.3877954483032227,-6.890512466430664
1775728161453221000,0.82622119140625,6.296750545501709,-3.404554843902588,-6.88332986831665
1775728161513615400,0.886615478515625,6.234501361846924,-3.4955344200134277,-7.026981830596924
1775728161523686100,0.89668603515625,6.208165168762207,-3.31118106842041,-6.964732646942139
1775728161533696000,0.906696044921875,6.119579315185547,-3.4548330307006836,-6.809109687805176
1775728161543797200,0.91679736328125,6.1052141189575195,-3.445256233215332,-6.921637058258057
1775728161553837600,0.926837646484375,6.244078159332275,-3.464409828186035,-7.070077419281006
1775728161573979100,0.946979248046875,6.36378812789917,-3.600879430770874,-7.089231014251709
1775728161604161000,0.9771611328125,6.1267619132995605,-3.4835634231567383,-6.921637058258057
1775728161614231800,0.987231689453125,6.01423454284668,-3.4404678344726562,-6.854599475860596
1775728161624302600,0.997302490234375,5.987898349761963,-3.294421434402466,-6.828263282775879
1775728161634373400,1.007373291015625,6.14831018447876,-3.3877954483032227,-6.789956092834473
1775728161644444200,1.017444091796875,6.2201361656188965,-3.646369218826294,-6.897695064544678
1775728161654515200,1.02751513671875,6.27280855178833,-3.6343982219696045,-7.0317702293396
1775728161664616400,1.037616455078125,6.3063273429870605,-3.620033025741577,-7.003039836883545
1775728161684788500,1.05778857421875,6.246472358703613,-3.6176388263702393,-6.979097843170166
1775728161694859300,1.067859375,6.222530364990234,-3.6296098232269287,-6.8043212890625
1775728161715000800,1.088000732421875,6.229712963104248,-3.5003228187561035,-6.763619899749756
1775728161725071600,1.098071533203125,6.1985883712768555,-3.5865142345428467,-6.785167694091797
1775728161735081500,1.10808154296875,6.229712963104248,-3.6846764087677,-6.8378400802612305
1775728161745182700,1.1181826171875,6.081272125244141,-3.641580820083618,-6.897695064544678
1775728161755253500,1.12825341796875,6.042964935302734,-3.6559460163116455,-6.861782073974609
1775728161775364600,1.148364501953125,6.323086738586426,-3.6990416049957275,-7.024587631225586
1775728161785466000,1.158466064453125,6.337451934814453,-3.598485231399536,-7.022193431854248
1775728161795567400,1.1685673828125,6.36378812789917,-3.4332852363586426,-6.938396453857422
1775728161805638100,1.17863818359375,6.447585105895996,-3.1316158771514893,-6.98628044128418
1775728161815709000,1.188708984375,6.53377628326416,-3.28963303565979,-7.053318023681641
1775728161825810200,1.19881005859375,6.538564682006836,-3.4763808250427246,-6.998251438140869
1775728161835850500,1.2088505859375,6.473921298980713,-3.5170822143554688,-6.907271862030029
1775728161845951700,1.21895166015625,6.368576526641846,-3.667917013168335,-6.933608055114746
1775728161856022500,1.2290224609375,6.332663536071777,-3.9456443786621094,-6.847416877746582
1775728161866124000,1.2391240234375,6.279991149902344,-3.799597978591919,-6.7277069091796875
1775728161926610000,1.29960986328125,6.057330131530762,-3.3063924312591553,-6.3302693367004395
1775728161936619500,1.30961962890625,6.011840343475342,-3.4739866256713867,-6.550535678863525
1775728161946720800,1.319720703125,6.086060523986816,-3.201047658920288,-6.658275127410889
1775728161956791800,1.329791748046875,5.980715751647949,-3.361459255218506,-6.720524311065674
1775728161966801400,1.339801513671875,5.916072368621826,-3.5458126068115234,-6.777985095977783
1775728161987004200,1.360004150390625,5.851428985595703,-3.0837318897247314,-6.998251438140869
1775728161997075000,1.370074951171875,5.803544998168945,-3.1531636714935303,-7.096413612365723
1775728162007176200,1.38017626953125,5.564124584197998,-3.778050184249878,-7.266402244567871
1775728162017247000,1.3902470703125,5.559336185455322,-4.3622355461120605,-7.194576263427734
1775728162027317800,1.40031787109375,5.671864032745361,-4.54419469833374,-7.105990409851074
1775728162037419000,1.4104189453125,5.884947776794434,-3.713406801223755,-7.1251444816589355
1775728162047490000,1.420489990234375,5.889736175537109,-3.643975019454956,-6.952761650085449
1775728162057560800,1.430560791015625,5.834669589996338,-4.034229755401611,-6.9240312576293945
1775728162067631600,1.440631591796875,5.784391403198242,-4.359841346740723,-6.885724067687988
1775728162087742700,1.46074267578125,5.767632007598877,-3.840299606323242,-6.801927089691162
1775728162097844000,1.470843994140625,5.762843608856201,-3.8714241981506348,-6.615179061889648
1775728162107914800,1.480914794921875,5.568912982940674,-3.646369218826294,-6.502651691436768
1775728162117985500,1.490985595703125,5.492298603057861,-3.7229835987091064,-6.495469093322754
1775728162128056300,1.501056396484375,5.549759387969971,-3.514688014984131,-6.567295074462891
1775728162138127000,1.511127197265625,5.659893035888672,-4.050989151000977,-6.514622688293457
1775728162148198000,1.521197998046875,5.861005783081055,-4.446032524108887,-6.799532890319824
1775728162158238200,1.53123828125,6.13633918762207,-5.262455463409424,-7.01979923248291
1775728162188450600,1.561450439453125,5.935225963592529,-5.293580055236816,-7.007828235626221
1775728162208500700,1.581500732421875,5.063736438751221,-4.989516258239746,-7.048529624938965
1775728162218602000,1.59160205078125,4.821922302246094,-4.879383087158203,-6.701370716094971
1775728162228672800,1.6016728515625,4.853046894073486,-4.853046894073486,-6.718130111694336
1775728162238743600,1.61174365234375,4.831499099731445,-3.8355112075805664,-7.048529624938965
1775728162248784000,1.621783935546875,4.917690277099609,-4.331110954284668,-6.9910688400268555
1775728162258854700,1.631854736328125,5.128379821777344,-4.4532151222229,-7.074865818023682
1775728162268925400,1.641925537109375,5.116408824920654,-4.6040496826171875,-7.316680431365967
1775728162278996200,1.651996337890625,5.363011837005615,-4.520252704620361,-7.352593421936035
1775728162289036500,1.66203662109375,5.552153587341309,-4.800374507904053,-7.51779317855835
1775728162319249000,1.692248779296875,4.659116744995117,-4.0749311447143555,-7.117961883544922
1775728162329319700,1.702319580078125,4.469974517822266,-5.1595048904418945,-6.828263282775879
1775728162339421200,1.712421142578125,4.474762916564941,-4.395754337310791,-6.947973251342773
1775728162349461200,1.722461181640625,4.649539470672607,-4.400542736053467,-6.919242858886719
1775728162359501600,1.73250146484375,4.462791919708252,-4.8482584953308105,-6.703764915466309
1775728162369511400,1.742511474609375,4.594472885131836,-4.637568473815918,-6.806715488433838
1775728162379582200,1.752582275390625,4.656722068786621,-4.707000732421875,-6.833051681518555
1775728162389653000,1.762653076171875,4.534617900848389,-5.149928092956543,-7.01979923248291
1775728162409794600,1.782794677734375,5.018246650695801,-5.418078422546387,-6.744466304779053
1775728162429966800,1.802966796875,5.128379821777344,-6.102819919586182,-6.763619899749756
1775728162440037600,1.81303759765625,4.809951305389404,-5.995080947875977,-6.746860504150391
1775728162450139000,1.823138916015625,4.900930881500244,-6.033388137817383,-6.641515731811523
1775728162460179200,1.83317919921875,5.023035049438477,-5.827486991882324,-6.739677906036377
1775728162470250000,1.84325,4.934449672698975,-6.339846134185791,-7.015010833740234
1775728162480320800,1.85332080078125,4.656722068786621,-5.746084213256836,-6.938396453857422
1775728162490361000,1.863361083984375,4.733336925506592,-5.348646640777588,-6.900089263916016
1775728162510472200,1.88347216796875,4.125209331512451,-5.987898349761963,-6.835445880889893
1775728162520543000,1.89354296875,3.9671921730041504,-5.485116004943848,-6.782773494720459
1775728162530583300,1.903583251953125,3.869029998779297,-5.2480902671813965,-7.01979923248291
1775728162540654000,1.913654052734375,3.8546648025512695,-5.468356609344482,-7.062894821166992
1775728162550724900,1.923724853515625,3.667917013168335,-5.3582234382629395,-6.947973251342773
1775728162560734500,1.933734375,3.667917013168335,-5.3582234382629395,-6.947973251342773
1775728162570805200,1.94380517578125,3.8498764038085938,-5.298368453979492,-7.094019412994385
1775728162580845600,1.953845458984375,3.847482204437256,-5.3797712326049805,-7.534552574157715
1775728162590916400,1.963916259765625,4.055777549743652,-5.698200225830078,-8.022970199584961
1775728162600926200,1.97392626953125,4.412513732910156,-6.1530985832214355,-7.843404769897461
1775728162611027500,1.98402734375,4.54419469833374,-5.626373767852783,-7.65186882019043
1775728162641239800,2.01423974609375,3.9217023849487305,-5.410895824432373,-7.539340972900391
1775728162651341300,2.02434130859375,3.1028854846954346,-5.901707172393799,-7.060500621795654
1775728162661412000,2.034412109375,2.6168625354766846,-6.378153324127197,-6.701370716094971
1775728162671513300,2.044513427734375,2.5091233253479004,-6.552929878234863,-6.926425457000732
1775728162681553700,2.0545537109375,2.650381326675415,-7.627926826477051,-7.01979923248291
1775728162691655000,2.064655029296875,2.920926094055176,-7.91283655166626,-7.314286231994629
1775728162701725700,2.0747255859375,2.940079689025879,-6.777985095977783,-7.266402244567871
1775728162711827200,2.0848271484375,2.6791117191314697,-5.724536418914795,-6.957550048828125
1775728162731968800,2.10496875,3.1507694721221924,-5.137956619262695,-6.624756336212158
1775728162742039600,2.11503955078125,3.3039982318878174,-5.461174011230469,-6.868964672088623
1775728162752140800,2.125140869140625,2.851494312286377,-6.246472358703613,-7.173028469085693
1775728162762211600,2.135211669921875,2.4588451385498047,-7.048529624938965,-6.854599475860596
1775728162772282400,2.145282470703125,1.9153614044189453,-7.340622425079346,-6.555324077606201
1775728162782322700,2.15532275390625,1.479616641998291,-7.2783732414245605,-6.387730121612549
1775728162792363000,2.165363037109375,0.9576807022094727,-7.06528902053833,-6.308721542358398
1775728162802342100,2.175342041015625,0.4908113479614258,-6.732495307922363,-6.3973069190979
1775728162812443600,2.185443603515625,1.4437036514282227,-7.168240070343018,-6.782773494720459
1775728162832615700,2.20561572265625,4.077325344085693,-7.29034423828125,-8.099584579467773
1775728162842686500,2.2156865234375,3.9217023849487305,-7.2352776527404785,-7.915230751037598
1775728162852757200,2.22575732421875,3.4308910369873047,-6.773196697235107,-7.187393665313721
1775728162862797600,2.235797607421875,3.2609026432037354,-6.289567947387695,-6.655880928039551
1775728162872898800,2.24589892578125,2.9544448852539062,-7.309497833251953,-6.936002254486084
1775728162882969600,2.255969482421875,3.1651346683502197,-7.723694801330566,-7.283161640167236
1775728162893040400,2.266040283203125,3.047818660736084,-7.908048152923584,-7.307103633880615
1775728162903111200,2.276111083984375,2.7269957065582275,-8.068459510803223,-7.026981830596924
1775728162923222300,2.29622216796875,2.410961151123047,-7.675810813903809,-6.744466304779053
1775728162943425000,2.316425048828125,2.0853497982025146,-8.130708694458008,-6.904877662658691
1775728162953495800,2.326495849609375,2.0590133666992188,-8.559270858764648,-6.603208065032959
1775728162963566600,2.336566650390625,1.7166426181793213,-7.972691535949707,-6.121973514556885
1775728162973637400,2.346637451171875,1.4101848602294922,-7.649474620819092,-6.088454723358154
1775728162983708200,2.356708251953125,1.1875240802764893,-8.001421928405762,-6.3973069190979
1775728162993779000,2.366779052734375,1.0438719987869263,-8.243236541748047,-6.600813865661621
1775728163003849700,2.376849609375,1.1516109704971313,-8.022970199584961,-6.598419666290283
1775728163013890000,2.38689013671875,1.1899182796478271,-7.6111674308776855,-6.411672115325928
1775728163034001200,2.407001220703125,1.091755986213684,-6.871358871459961,-6.6391215324401855
1775728163044072000,2.417072021484375,1.577778935432434,-7.201758861541748,-6.912060260772705
1775728163054173200,2.427173095703125,1.6615760326385498,-7.309497833251953,-6.967126846313477
1775728163064183000,2.43718310546875,1.5442601442337036,-7.16584587097168,-6.914454460144043
1775728163074284300,2.4472841796875,1.3982137441635132,-7.036558628082275,-7.084442615509033
1775728163084355000,2.45735498046875,1.4844050407409668,-7.259219646453857,-7.168240070343018
1775728163094425900,2.46742578125,1.4963760375976562,-7.4555439949035645,-7.419631004333496
1775728163104435700,2.477435791015625,1.4484920501708984,-7.5968017578125,-7.55131196975708
1775728163114476000,2.48747607421875,1.53707754611969,-7.797914981842041,-7.544129371643066
1775728163124577300,2.497577392578125,1.4652514457702637,-7.711723804473877,-7.4316020011901855
1775728163144688400,2.5176884765625,1.216254472732544,-7.2783732414245605,-6.995857238769531
1775728163154728700,2.527728759765625,1.2713210582733154,-7.141903877258301,-7.144298076629639
1775728163164738600,2.537738525390625,1.3072341680526733,-7.003039836883545,-7.201758861541748
1775728163174809300,2.547809326171875,1.3096283674240112,-6.971915245056152,-7.2137298583984375
1775728163184880000,2.557880126953125,1.2425906658172607,-6.916848659515381,-7.299921035766602
1775728163194981400,2.5679814453125,1.4437036514282227,-6.907271862030029,-7.175422668457031
1775728163204991200,2.5779912109375,1.3455413579940796,-6.806715488433838,-7.180211067199707
1775728163215092500,2.588092529296875,1.2521674633026123,-6.854599475860596,-7.110779285430908
1775728163225132800,2.5981328125,1.4101848602294922,-6.7277069091796875,-7.000645637512207
1775728163235203600,2.60820361328125,1.3982137441635132,-6.624756336212158,-6.864176273345947
1775728163265355000,2.63835498046875,1.53707754611969,-6.555324077606201,-7.204153060913086
1775728163275395000,2.64839501953125,1.5610195398330688,-6.864176273345947,-7.271190643310547
1775728163285435400,2.658435302734375,1.7286136150360107,-7.129932880401611,-7.3238630294799805
1775728163295506200,2.668506103515625,1.5969325304031372,-7.137115478515625,-7.146692276000977
1775728163305546500,2.67854638671875,1.5179238319396973,-7.115567684173584,-7.062894821166992
1775728163315617300,2.6886171875,1.4460978507995605,-7.060500621795654,-7.003039836883545
1775728163325688000,2.69868798828125,1.338358759880066,-7.086836814880371,-6.981492042541504
1775728163345830000,2.718829833984375,1.3335703611373901,-7.110779285430908,-7.206547260284424
1775728163355900700,2.728900634765625,1.2689268589019775,-7.0317702293396,-7.180211067199707
1775728163386113000,2.759113037109375,1.357512354850769,-6.710947513580322,-6.98628044128418
1775728163396183800,2.769183837890625,1.3479355573654175,-6.943184852600098,-7.003039836883545
1775728163406254600,2.779254638671875,1.4413094520568848,-7.156269073486328,-7.201758861541748
1775728163416295000,2.789294921875,1.5131354331970215,-7.038952827453613,-7.220912456512451
1775728163426396200,2.799396240234375,1.5155296325683594,-6.919242858886719,-7.333439826965332
1775728163436467000,2.809467041015625,1.50355863571167,-6.981492042541504,-7.287950038909912
1775728163456639000,2.829638916015625,1.3694833517074585,-6.845022678375244,-7.156269073486328
1775728163466710000,2.8397099609375,1.414973258972168,-6.868964672088623,-7.060500621795654
1775728163476811300,2.849811279296875,1.4867992401123047,-6.797138690948486,-7.046135425567627
1775728163486820900,2.85982080078125,1.556231141090393,-6.998251438140869,-7.072471618652344
1775728163496922400,2.86992236328125,1.577778935432434,-7.110779285430908,-7.146692276000977
1775728163506993200,2.8799931640625,1.623268723487854,-7.129932880401611,-7.151480674743652
1775728163517064000,2.89006396484375,1.6352397203445435,-7.220912456512451,-7.184999465942383
1775728163527104300,2.900104248046875,1.4293384552001953,-7.122750282287598,-7.026981830596924
1775728163537175000,2.910175048828125,1.359906554222107,-6.847416877746582,-6.964732646942139
1775728163567357000,2.94035693359375,1.723825216293335,-7.046135425567627,-7.264008045196533
1775728163577458200,2.950458251953125,1.8052281141281128,-7.096413612365723,-7.132327079772949
1775728163587529000,2.960529052734375,1.599326729774475,-7.206547260284424,-7.189787864685059
1775728163597569300,2.9705693359375,1.5442601442337036,-7.0772600173950195,-7.1490864753723145
1775728163607579100,2.9805791015625,1.4987702369689941,-6.912060260772705,-7.1706342697143555
1775728163617619200,2.990619140625,1.3623007535934448,-6.761225700378418,-7.089231014251709
1775728163627690200,3.000690185546875,1.3096283674240112,-6.900089263916016,-7.024587631225586
1775728163637761000,3.010760986328125,1.2737152576446533,-7.424419403076172,-6.892906665802002
1775728163657872100,3.0308720703125,1.4053963422775269,-6.648698329925537,-7.230489253997803
1775728163667912200,3.040912109375,1.4963760375976562,-6.698976516723633,-7.204153060913086
1775728163678013700,3.051013671875,1.6112977266311646,-6.718130111694336,-7.163451671600342
1775728163688054000,3.061053955078125,1.7381904125213623,-6.538564682006836,-7.161057472229004
1775728163698155300,3.0711552734375,1.699883222579956,-6.607996463775635,-7.146692276000977
1775728163708226000,3.08122607421875,1.6376339197158813,-6.698976516723633,-7.144298076629639
1775728163718296800,3.091296875,1.644816517829895,-6.768408298492432,-7.177816867828369
1775728163728337200,3.101337158203125,1.6543933153152466,-6.861782073974609,-7.134721279144287
1775728163738438400,3.1114384765625,1.647210717201233,-7.16584587097168,-7.141903877258301
1775728163748448300,3.1214482421875,1.5658079385757446,-7.1921820640563965,-7.101202011108398
1775728163788731400,3.1617314453125,1.8387469053268433,-7.2352776527404785,-7.2352776527404785
1775728163798802200,3.17180224609375,1.8411411046981812,-7.070077419281006,-7.127538681030273
1775728163808842500,3.181842529296875,1.843535304069519,-6.993463039398193,-6.983886241912842
1775728163818913300,3.191913330078125,1.86508309841156,-7.194576263427734,-7.005434036254883
1775728163828984000,3.201984130859375,1.8698714971542358,-7.003039836883545,-7.175422668457031
1775728163839054800,3.212054931640625,1.824381709098816,-7.048529624938965,-7.094019412994385
1775728163849125600,3.222125732421875,1.7717092037200928,-6.979097843170166,-7.0341644287109375
1775728163879307500,3.2523076171875,2.0470423698425293,-6.916848659515381,-7.280767440795898
1775728163889287000,3.262286865234375,1.946485996246338,-6.892906665802002,-7.275979042053223
1775728163899388200,3.27238818359375,1.7860745191574097,-6.763619899749756,-7.268796443939209
1775728163909459000,3.282458984375,1.6112977266311646,-6.785167694091797,-7.177816867828369
1775728163919529700,3.29252978515625,1.5849615335464478,-6.888118267059326,-7.139509677886963
1775728163929508900,3.3025087890625,1.4460978507995605,-6.835445880889893,-7.2352776527404785
1775728163939610400,3.3126103515625,1.434126853942871,-6.866570472717285,-7.19936466217041
1775728163949681200,3.32268115234375,1.434126853942871,-6.931213855743408,-7.400477409362793
1775728163979924000,3.352924072265625,1.7190368175506592,-6.926425457000732,-7.812280178070068
1775728164000004600,3.373004638671875,1.9776105880737305,-6.861782073974609,-8.008605003356934
1775728164010075400,3.383075439453125,2.31758713722229,-6.904877662658691,-8.090007781982422
1775728164020115700,3.39311572265625,2.434903144836426,-6.6127848625183105,-8.236053466796875
1775728164030217000,3.403217041015625,2.5258827209472656,-6.361393928527832,-8.564059257507324
1775728164040287700,3.413287841796875,2.691082715988159,-5.971138954162598,-8.93037223815918
1775728164050358500,3.423358642578125,3.1459810733795166,-5.659893035888672,-9.265560150146484
1775728164070500000,3.4435,2.851494312286377,-5.571307182312012,-9.708487510681152
1775728164080540400,3.45354052734375,2.5905263423919678,-5.327098846435547,-9.466673851013184
1775728164090611200,3.463611083984375,2.2697031497955322,-5.0685248374938965,-9.196128845214844
1775728164100651500,3.473651611328125,2.030282974243164,-5.542576789855957,-8.939949035644531
1775728164110631000,3.483630859375,2.008735179901123,-6.744466304779053,-8.815450668334961
1775728164120732200,3.493732177734375,2.0470423698425293,-6.768408298492432,-8.918401718139648
1775728164130772500,3.5037724609375,1.9393033981323242,-5.406107425689697,-9.155426979064941
1775728164140873700,3.513873779296875,1.8722656965255737,-4.041412353515625,-9.241618156433105
1775728164150975000,3.52397509765625,1.8171991109848022,-3.332728862762451,-9.042900085449219
1775728164191227600,3.5642275390625,1.5514427423477173,-2.8850131034851074,-9.186552047729492
1775728164201298400,3.57429833984375,1.5418659448623657,-2.365471363067627,-9.188945770263672
1775728164211369200,3.584369140625,1.501164436340332,-2.22660756111145,-9.131484985351562
1775728164221440000,3.59443994140625,1.6543933153152466,-2.4444799423217773,-9.210494041442871
1775728164231511000,3.604510986328125,1.802833914756775,-2.499546527862549,-9.440337181091309
1775728164241612300,3.6146123046875,1.8602946996688843,-2.5019407272338867,-9.861717224121094
1775728164251652600,3.624652587890625,1.8602946996688843,-2.3558945655822754,-10.113107681274414
1775728164281865000,3.654864990234375,1.0438719987869263,-4.235342979431152,-10.077195167541504
1775728164291874800,3.664874755859375,1.115697979927063,-3.912125587463379,-10.192116737365723
1775728164301976000,3.67497607421875,1.216254472732544,-3.552995204925537,-10.316615104675293
1775728164312046800,3.685046875,1.4077905416488647,-3.35667085647583,-10.383652687072754
1775728164322148000,3.695148193359375,1.6639702320098877,-3.5003228187561035,-10.314221382141113
1775728164332188400,3.7051884765625,1.7836803197860718,-3.8762125968933105,-10.187328338623047
1775728164342228700,3.715228759765625,1.8579005002975464,-4.4939165115356445,-10.156203269958496
1775728164352269000,3.72526904296875,1.8507179021835327,-4.680664539337158,-10.204087257385254
1775728164362339800,3.73533984375,1.764526605606079,-4.311957359313965,-10.287884712219238
1775728164402653400,3.7756533203125,1.8171991109848022,-3.821146011352539,-10.431536674499512
1775728164412724200,3.78572412109375,1.9800047874450684,-3.6080620288848877,-10.409989356994629
1775728164422795000,3.795794921875,1.843535304069519,-4.07014274597168,-10.402806282043457
1775728164432865800,3.80586572265625,1.7046716213226318,-4.4077253341674805,-10.223240852355957
1775728164442936800,3.815936767578125,1.3694833517074585,-4.244919776916504,-9.938331604003906
1775728164453007600,3.826007568359375,1.2401964664459229,-4.144362926483154,-9.583989143371582
1775728164463108900,3.83610888671875,1.2186486721038818,-4.1156325340271,-9.313444137573242
1775728164483281000,3.856281005859375,1.3503297567367554,-3.4979286193847656,-9.258378028869629
1775728164513432300,3.886432373046875,1.8818424940109253,-3.5242648124694824,-9.097966194152832
1775728164533574000,3.906573974609375,2.2170307636260986,-3.8570590019226074,-9.244012832641602
1775728164543614200,3.9166142578125,2.456450939178467,-4.1611223220825195,-9.030928611755371
1775728164553624000,3.9266240234375,2.5306711196899414,-4.3622355461120605,-8.880094528198242
1775728164563725300,3.936725341796875,2.5043349266052246,-4.436455726623535,-8.62391471862793
1775728164583836400,3.95683642578125,2.4205379486083984,-4.51067590713501,-8.286332130432129
1775728164593907200,3.9669072265625,2.5546131134033203,-4.534617900848389,-8.233659744262695
1775728164603978000,3.97697802734375,2.5953147411346436,-4.546588897705078,-8.367734909057617
1775728164614048800,3.987048828125,2.7317841053009033,-4.759673118591309,-8.362946510314941
1775728164624119600,3.99711962890625,2.8634653091430664,-4.78122091293335,-8.288725852966309
1775728164634190300,4.0071904296875,3.117250680923462,-4.5825018882751465,-8.068459510803223
1775728164644261000,4.01726123046875,3.2752678394317627,-4.572925090789795,-7.7643961906433105
1775728164654332000,4.027331787109375,3.536235809326172,-4.611232280731201,-7.829039573669434
1775728164664402700,4.037402587890625,3.8307228088378906,-4.299986362457275,-7.955932140350342
1775728164694615300,4.067615234375,4.153939723968506,-3.9624037742614746,-7.692570209503174
1775728164704655400,4.0776552734375,4.355052947998047,-4.055777549743652,-7.795520782470703
1775728164714695700,4.08769580078125,4.548983097076416,-3.778050184249878,-7.862558364868164
1775728164724797000,4.097796875,4.766855716705322,-3.533841609954834,-7.967903137207031
1775728164734837200,4.107837158203125,5.123591423034668,-3.531447410583496,-8.054094314575195
1775728164744938800,4.117938720703125,5.614402770996094,-3.7900211811065674,-8.276755332946777
1775728164755009500,4.128009521484375,5.829881191253662,-3.5003228187561035,-8.604761123657227
1775728164765110800,4.13811083984375,5.817910194396973,-3.2561142444610596,-8.901641845703125
1775728164815342600,4.188342529296875,5.475539207458496,-2.8347349166870117,-8.829815864562988
1775728164825444000,4.198444091796875,5.750872611999512,-2.9257144927978516,-9.131484985351562
1775728164835515000,4.208514892578125,6.052541732788086,-2.827552318572998,-9.29189682006836
1775728164845616000,4.2186162109375,5.935225963592529,-3.066972494125366,-9.366117477416992
1775728164855687000,4.22868701171875,5.686229228973389,-3.090914487838745,-9.334992408752441
1775728164865757700,4.2387578125,5.374982833862305,-3.0095114707946777,-9.308655738830566
1775728164875828500,4.248828369140625,5.3127336502075195,-3.1483752727508545,-9.404424667358398
1775728164885868800,4.258868896484375,5.080495834350586,-3.3423056602478027,-9.78989028930664
1775728164916112000,4.28911181640625,5.853823184967041,-4.730942726135254,-12.495338439941406
1775728164926121500,4.29912158203125,6.186617374420166,-5.054159641265869,-13.290213584899902
1775728164936192300,4.309192138671875,6.090848922729492,-5.341464042663574,-13.646949768066406
1775728164946263000,4.319262939453125,5.762843608856201,-5.451597213745117,-13.493721008300781
1775728164956333800,4.329333740234375,5.303156852722168,-5.571307182312012,-12.9741792678833
1775728164966404600,4.339404541015625,4.771644115447998,-5.5545477867126465,-12.246341705322266
1775728164976475600,4.3494755859375,4.110844135284424,-5.2265424728393555,-11.707646369934082
1775728164996647700,4.369647705078125,3.1220390796661377,-4.4723687171936035,-10.802638053894043
1775728165016789200,4.389789306640625,3.40216064453125,-4.819528102874756,-10.819397926330566
1775728165026829600,4.39982958984375,4.034229755401611,-5.0254292488098145,-11.499350547790527
1775728165036870000,4.409869873046875,4.551377296447754,-5.137956619262695,-12.322956085205078
1775728165046940700,4.419940673828125,4.503493309020996,-5.197812080383301,-12.801796913146973
1775728165057011500,4.430011474609375,4.350264549255371,-5.193023681640625,-12.806585311889648
1775728165067112700,4.44011279296875,3.9863457679748535,-5.22175407409668,-12.492944717407227
1775728165077183500,4.45018359375,3.598485231399536,-5.202600479125977,-12.231976509094238
1775728165087223800,4.460223876953125,3.1962592601776123,-4.903325080871582,-11.930307388305664
1775728165097325000,4.470324951171875,2.741360902786255,-4.553771495819092,-11.403582572937012
1775728165107426600,4.480426513671875,2.557007312774658,-4.228160381317139,-10.910377502441406
1775728165117466600,4.490466552734375,2.4444799423217773,-3.7636849880218506,-10.565611839294434
1775728165127537400,4.500537353515625,2.4588451385498047,-3.428496837615967,-10.390835762023926
1775728165137639000,4.510638916015625,2.2577321529388428,-3.066972494125366,-10.536881446838379
1775728165147709700,4.520709716796875,2.011129379272461,-2.853888511657715,-10.230423927307129
1775728165157780500,4.530780517578125,1.8100165128707886,-2.8227639198303223,-9.531316757202148
1775728165167881700,4.5408818359375,1.6879122257232666,-2.7964274883270264,-8.860940933227539
1775728165177922000,4.550922119140625,1.5634137392044067,-2.8610711097717285,-8.279149055480957
1775728165187962400,4.56096240234375,1.558625340461731,-2.674323320388794,-7.714118003845215
1775728165208073500,4.581073486328125,1.4173674583435059,-2.9448680877685547,-7.022193431854248
1775728165228215000,4.601215087890625,1.644816517829895,-3.6559460163116455,-6.562506675720215
1775728165238255400,4.61125537109375,1.843535304069519,-3.7253777980804443,-6.445190906524658
1775728165248295700,4.621295654296875,1.9967641830444336,-3.5721490383148193,-6.447585105895996
1775728165258336000,4.6313359375,2.1308395862579346,-3.4332852363586426,-6.44279670715332
1775728165268406800,4.64140673828125,2.1475989818573,-3.3207578659057617,-6.44279670715332
1775728165278477600,4.6514775390625,2.4013843536376953,-3.117250680923462,-6.311115741729736
1775728165288578800,4.661578857421875,2.099714994430542,-3.5913026332855225,-6.289567947387695
1775728165298649600,4.671649658203125,2.097320795059204,-3.023876667022705,-6.301538944244385
1775728165318730200,4.691730224609375,1.9704279899597168,-1.2689268589019775,-6.150704383850098
1775728165359043800,4.7320439453125,2.1308395862579346,-1.1444283723831177,-6.658275127410889
1775728165369114600,4.742114501953125,2.229001760482788,-0.9744400978088379,-6.746860504150391
1775728165379155000,4.752155029296875,2.3271639347076416,-0.8786720037460327,-6.914454460144043
1775728165389225700,4.762225830078125,2.494758129119873,-0.8475474119186401,-7.24485445022583
1775728165399296500,4.772296630859375,2.540247917175293,-0.6943184733390808,-7.778761386871338
1775728165409397800,4.782397705078125,2.518700122833252,-0.5841852426528931,-8.432378768920898
1775728165419438000,4.79243798828125,2.3965959548950195,-0.524330198764801,-9.23682975769043
1775728165429478400,4.802478515625,2.03507137298584,-0.7613561153411865,-10.110713958740234
1775728165439549200,4.812549072265625,1.6879122257232666,-1.0462661981582642,-11.094730377197266
1775728165449620000,4.822619873046875,1.3000515699386597,-1.460463047027588,-12.035652160644531
1775728165459690800,4.832690673828125,1.3000515699386597,-1.460463047027588,-12.035652160644531
1775728165469792300,4.842792236328125,0.5746083855628967,-1.5849615335464478,-12.859257698059082
1775728165479893500,4.8528935546875,0.5746083855628967,-1.5849615335464478,-13.48414421081543
1775728165489964300,4.86296435546875,0.27054479718208313,-1.5442601442337036,-13.855245590209961
1775728165520115700,4.89311572265625,-0.395043283700943,-1.4173674583435059,-15.251065254211426
1775728165530217000,4.903217041015625,-0.4118026793003082,-1.9488801956176758,-15.662867546081543
1775728165540257300,4.91325732421875,-0.26096799969673157,-2.5043349266052246,-15.775395393371582
1775728165550328000,4.923328125,-0.1867477297782898,-3.2752678394317627,-15.660472869873047
1775728165560398800,4.93339892578125,-0.21308395266532898,-3.7852327823638916,-15.344438552856445
1775728165570469600,4.9434697265625,-0.2513911724090576,-3.9887399673461914,-15.004462242126465
1775728165580510000,4.953510009765625,-0.395043283700943,-4.228160381317139,-14.662091255187988
1775728165590580700,4.963580810546875,-0.5386953949928284,-4.565742492675781,-14.427459716796875
1775728165610691800,4.98369189453125,-0.4572925269603729,-4.072536945343018,-14.259865760803223
1775728165620732200,4.993732177734375,-0.28969839215278625,-3.912125587463379,-14.113819122314453
1775728165630833400,5.00383349609375,-0.06224924325942993,-3.9839515686035156,-13.927071571350098
1775728165640904200,5.013904296875,0.24181437492370605,-4.05817174911499,-13.718775749206543
1775728165650975000,5.02397509765625,0.7326257228851318,-4.431667327880859,-13.5870943069458
1775728165661076500,5.034076416015625,1.1276689767837524,-5.406107425689697,-13.275848388671875
1775728165671116500,5.044116455078125,1.2497732639312744,-5.559336185455322,-12.861651420593262
1775728165681156900,5.054156982421875,1.3263877630233765,-5.020640850067139,-12.246341705322266
1775728165691227600,5.0642275390625,1.3287819623947144,-4.754884719848633,-11.765107154846191
1775728165701298400,5.07429833984375,1.3335703611373901,-4.527435302734375,-11.216835021972656
1775728165761723400,5.134723388671875,2.0829553604125977,-4.24970817565918,-9.32541561126709
1775728165791905300,5.1649052734375,2.47560453414917,-4.879383087158203,-8.17141056060791
1775728165801945600,5.174945556640625,2.5953147411346436,-5.0254292488098145,-7.898471355438232
1775728165812016400,5.185016357421875,2.7293899059295654,-5.142745018005371,-7.654263019561768
1775728165822087200,5.195087158203125,2.956839084625244,-5.097255229949951,-7.60637903213501
1775728165832158000,5.205157958984375,2.9975404739379883,-4.948814868927002,-7.615955829620361
1775728165842198300,5.2151982421875,2.959233283996582,-4.862623691558838,-7.489062786102295
1775728165852299500,5.225299560546875,2.999934673309326,-4.716577529907227,-7.201758861541748
1775728165862370300,5.235370361328125,3.222595453262329,-4.666299343109131,-6.983886241912842
1775728165872471600,5.245471435546875,3.442862033843994,-4.654327869415283,-6.983886241912842
1775728165882542300,5.255542236328125,3.627215623855591,-4.568136692047119,-7.117961883544922
1775728165892582700,5.265582763671875,3.801992416381836,-4.920084476470947,-7.1921820640563965
1775728165902653400,5.2756533203125,3.909731388092041,-4.98472785949707,-7.376535415649414
1775728165932865800,5.30586572265625,4.321534156799316,-4.350264549255371,-7.862558364868164
1775728165942906000,5.315906005859375,4.422090530395508,-4.335899353027344,-7.9846625328063965
1775728165953007600,5.326007568359375,4.537012100219727,-4.41969633102417,-8.111555099487305
1775728165963078400,5.336078369140625,4.812345504760742,-4.742913722991943,-8.336610794067383
1775728165973118500,5.346118408203125,5.027823448181152,-4.836287498474121,-8.789113998413086
1775728165983158800,5.35615869140625,5.286397457122803,-4.917690277099609,-9.334992408752441
1775728165993199000,5.36619921875,5.293580055236816,-4.910507678985596,-9.715670585632324
1775728166003239400,5.376239501953125,5.2696380615234375,-4.644751071929932,-9.971850395202637
1775728166033390800,5.406390869140625,5.125985622406006,-4.132391929626465,-10.409989356994629
1775728166043400400,5.416400390625,5.16429328918457,-4.307168960571289,-10.819397926330566
1775728166053471500,5.426471435546875,5.070919036865234,-4.836287498474121,-11.475408554077148
1775728166063481000,5.436481201171875,4.8722004890441895,-5.128379821777344,-12.255918502807617
1775728166073552000,5.4465517578125,4.4292731285095215,-4.948814868927002,-13.134590148925781
1775728166083622700,5.45662255859375,4.077325344085693,-4.793191909790039,-14.183250427246094
1775728166093724200,5.46672412109375,3.818751811981201,-4.714183330535889,-15.03319263458252
1775728166103764200,5.47676416015625,3.603273630142212,-4.881777286529541,-15.76581859588623
1775728166133824300,5.50682421875,3.9600095748901367,-5.504269599914551,-16.311697006225586
1775728166164067000,5.537067138671875,3.971980571746826,-6.1052141189575195,-15.349226951599121
1775728166184208600,5.557208740234375,2.7676970958709717,-5.638344764709473,-14.453795433044434
1775728166194279400,5.567279541015625,1.9297266006469727,-5.188235282897949,-13.998897552490234
1775728166204380700,5.577380615234375,1.280897855758667,-4.754884719848633,-13.5870943069458
1775728166214421000,5.5874208984375,0.8619126081466675,-4.467580318450928,-13.074735641479492
1775728166224461300,5.59746142578125,0.5386953949928284,-4.266467571258545,-12.806585311889648
1775728166234501600,5.607501708984375,0.3663128614425659,-4.141968727111816,-12.325350761413574
1775728166244542000,5.6175419921875,0.3926490843296051,-4.027047157287598,-11.860875129699707
1775728166254612700,5.62761279296875,0.5171475410461426,-3.9169139862060547,-11.4849853515625
1775728166264653000,5.637653076171875,0.667982280254364,-3.9480385780334473,-11.21444034576416
1775728166274723800,5.647723876953125,0.8834604024887085,-3.928884983062744,-11.200075149536133
1775728166284703000,5.657702880859375,1.015141487121582,-3.8163576126098633,-11.204863548278809
1775728166294804500,5.667804443359375,0.9145850539207458,-3.8498764038085938,-11.183316230773926
1775728166304875300,5.677875244140625,0.7589619159698486,-3.603273630142212,-10.685321807861328
1775728166314915600,5.68791552734375,0.5434837937355042,-3.4189200401306152,-10.072406768798828
1775728166324955600,5.69795556640625,0.33997663855552673,-3.28963303565979,-9.406818389892578
1775728166345066800,5.718066650390625,0.07900865375995636,-3.045424461364746,-8.257601737976074
1775728166355107000,5.728107177734375,-0.009576806798577309,-3.1100680828094482,-7.759607791900635
1775728166375218200,5.74821826171875,0.06703764945268631,-3.292027235031128,-6.957550048828125
1775728166385289000,5.7582890625,0.1628057211637497,-3.1675288677215576,-6.7061591148376465
1775728166395359700,5.76835986328125,0.4572925269603729,-3.0358476638793945,-6.596025466918945
1775728166405339100,5.778339111328125,0.6320692300796509,-2.918531894683838,-6.4380083084106445
1775728166415410000,5.788409912109375,0.5985504388809204,-2.717418909072876,-6.399701118469238
1775728166425450200,5.7984501953125,0.5267243981361389,-2.734178304672241,-6.141127586364746
1775728166455632100,5.828632080078125,0.4620809257030487,-2.403778553009033,-5.552153587341309
1775728166465703000,5.838702880859375,0.4692635238170624,-2.2002713680267334,-5.614402770996094
1775728166475773700,5.848773681640625,0.47644615173339844,-2.0254945755004883,-5.398924827575684
1775728166485783300,5.858783203125,0.35673606395721436,-1.7597382068634033,-5.178658485412598
1775728166495884800,5.868884765625,0.31124621629714966,-1.4269442558288574,-4.934449672698975
1775728166505924900,5.8789248046875,0.4165911078453064,-1.278503656387329,-4.733336925506592
1775728166515965200,5.888965087890625,0.44771572947502136,-1.1324573755264282,-4.6471452713012695
1775728166525944600,5.898944580078125,0.5674257874488831,-1.0079588890075684,-4.5825018882751465
1775728166536045800,5.9090458984375,0.6536170840263367,-1.1013327836990356,-4.67827033996582
1775728166556187400,5.9291875,0.7182605266571045,-1.115697979927063,-5.054159641265869
1775728166586338800,5.9593388671875,1.0582371950149536,-1.338358759880066,-5.5760955810546875
1775728166596409600,5.96940966796875,1.2210428714752197,-1.3263877630233765,-6.057330131530762
1775728166606419500,5.97941943359375,1.556231141090393,-1.3934253454208374,-6.658275127410889
1775728166616520700,5.989520751953125,1.7573440074920654,-1.5083470344543457,-7.493851184844971
1775728166626591500,5.999591552734375,1.889025092124939,-1.50355863571167,-8.446743965148926
1775728166636692700,6.009692626953125,1.9393033981323242,-1.6280571222305298,-9.318233489990234
1775728166676945400,6.0499453125,0.9265560507774353,-1.824381709098816,-13.503297805786133
1775728166687047000,6.060046875,0.608127236366272,-1.9345149993896484,-14.350845336914062
1775728166697117700,6.07011767578125,0.17477671802043915,-1.6639702320098877,-15.023615837097168
1775728166707188500,6.0801884765625,-0.1628057211637497,-1.678335428237915,-15.473725318908691
1775728166727360500,6.100360595703125,-0.14365209639072418,-2.0015525817871094,-16.500837326049805
1775728166737431300,6.110431396484375,0.08140286058187485,-2.5498247146606445,-16.812084197998047
1775728166747471600,6.1204716796875,0.5937620401382446,-3.1651346683502197,-16.76659393310547
1775728166757572900,6.13057275390625,1.1324573755264282,-3.734954595565796,-16.3883113861084
1775728166767613200,6.14061328125,1.7717092037200928,-4.079719543457031,-15.954959869384766
1775728166817936600,6.1909365234375,2.846705913543701,-5.003881454467773,-15.761030197143555
1775728166838047700,6.2110478515625,2.956839084625244,-5.224148273468018,-15.940594673156738
1775728166918522600,6.291522705078125,1.6208745241165161,-4.750096321105957,-11.640608787536621
1775728166928623900,6.301623779296875,1.7310078144073486,-4.474762916564941,-10.94150161743164
1775728167019169500,6.39216943359375,2.8203697204589844,-6.339846134185791,-6.665457725524902
1775728167039280600,6.41228076171875,2.5522189140319824,-6.320692539215088,-5.940014362335205
1775728167099522300,6.472522216796875,4.220977783203125,-6.0597243309021,-5.195417881011963
1775728167119694600,6.492694580078125,5.006275653839111,-5.011064052581787,-5.750872611999512
1775728167129704200,6.5027041015625,5.22175407409668,-4.338293552398682,-6.27280855178833
1775728167139775000,6.51277490234375,5.16429328918457,-3.928884983062744,-6.828263282775879
1775728167149815300,6.522815185546875,5.12119722366333,-3.845088005065918,-7.378929615020752
1775728167159825200,6.5328251953125,4.999093055725098,-3.5218706130981445,-7.951143741607666
1775728167169896000,6.54289599609375,4.716577529907227,-3.337517261505127,-8.38449478149414
1775728167179905800,6.55290576171875,4.469974517822266,-3.450044631958008,-8.829815864562988
1775728167220127700,6.593127685546875,4.508281707763672,-3.2393548488616943,-11.520898818969727
1775728167230229200,6.603229248046875,4.546588897705078,-3.3207578659057617,-12.085929870605469
1775728167240300000,6.613300048828125,4.477157115936279,-3.509899616241455,-12.430695533752441
1775728167250370800,6.623370849609375,4.46518611907959,-3.488351821899414,-12.646173477172852
1775728167270451500,6.643451416015625,3.8570590019226074,-3.1076738834381104,-12.945448875427246
1775728167280491500,6.653491455078125,3.2776620388031006,-3.064578056335449,-13.103466033935547
1775728167310734600,6.683734619140625,1.5658079385757446,-3.912125587463379,-14.863204002380371
1775728167320805400,6.693805419921875,1.3551181554794312,-4.462791919708252,-15.682021141052246
1775728167330845700,6.703845703125,1.4508862495422363,-4.95120906829834,-16.634912490844727
1775728167340916500,6.71391650390625,1.800439715385437,-5.643133640289307,-17.403451919555664
1775728167350987300,6.7239873046875,1.965639591217041,-6.052541732788086,-17.87032127380371
1775728167361058000,6.73405810546875,1.9393033981323242,-5.899312973022461,-17.410634994506836
1775728167371128800,6.74412890625,1.8171991109848022,-5.75326681137085,-16.29014778137207
1775728167381199600,6.75419970703125,1.4053963422775269,-5.48272180557251,-14.958971977233887
1775728167391240000,6.764239990234375,0.9409212470054626,-5.0254292488098145,-13.967772483825684
1775728167421513500,6.794513427734375,-0.569819986820221,-3.6990416049957275,-12.27507209777832
1775728167431584300,6.804584228515625,-0.6991068720817566,-3.375824451446533,-12.090718269348145
1775728167441655000,6.814655029296875,-0.6153098344802856,-3.471592426300049,-12.100295066833496
1775728167451695400,6.8246953125,-0.4668693244457245,-3.2824504375457764,-12.251130104064941
1775728167461766100,6.83476611328125,-0.12210428714752197,-3.19865345954895,-12.313379287719727
1775728167471867400,6.844867431640625,0.12689268589019775,-3.1268274784088135,-12.279860496520996
1775728167481968600,6.85496875,0.24181437492370605,-3.1316158771514893,-12.018892288208008
1775728167492039400,6.865039306640625,0.3734954595565796,-2.978386878967285,-11.669339179992676
1775728167502141000,6.875140869140625,0.42616790533065796,-2.9065608978271484,-11.197681427001953
1775728167532383700,6.9053837890625,0.0071826050989329815,-2.889801502227783,-9.488221168518066
1775728167542454500,6.91545458984375,-0.10295066982507706,-2.8419175148010254,-8.877699851989746
1775728167552525300,6.925525390625,-0.2585737705230713,-2.6886885166168213,-8.343792915344238
1775728167562596000,6.93559619140625,-0.2298433631658554,-2.537853717803955,-7.807491779327393
1775728167572667000,6.9456669921875,-0.31603461503982544,-2.367865562438965,-7.309497833251953
1775728167582768000,6.95576806640625,-0.3495534360408783,-2.293645143508911,-6.892906665802002
1775728167592839200,6.965839111328125,-0.27054479718208313,-2.169146776199341,-6.5912370681762695
1775728167602940400,6.9759404296875,-0.20111294090747833,-2.123656988143921,-6.256049156188965
1775728167643101400,7.016101318359375,0.047884032130241394,-2.145204782485962,-5.236119270324707
1775728167653111300,7.026111328125,0.14844051003456116,-2.145204782485962,-5.0685248374938965
1775728167663151600,7.036151611328125,0.38307225704193115,-1.9967641830444336,-4.972756862640381
1775728167673192000,7.04619189453125,0.45489832758903503,-1.8722656965255737,-4.932055473327637
1775728167683232000,7.05623193359375,0.5171475410461426,-1.7860745191574097,-4.829104900360107
1775728167693303000,7.066302978515625,0.5602431893348694,-1.7094600200653076,-4.620809078216553
1775728167723576300,7.096576416015625,0.586579442024231,-1.8794482946395874,-4.462791919708252
1775728167743626500,7.11662646484375,0.8092401623725891,-1.8531121015548706,-4.630385875701904
1775728167753636000,7.126635986328125,1.0295066833496094,-1.9560627937316895,-4.759673118591309
1775728167763676400,7.136676513671875,1.1755530834197998,-2.2864625453948975,-5.032611846923828
1775728167773777700,7.146777587890625,1.3263877630233765,-2.470816135406494,-5.616796970367432
1775728167783848400,7.156848388671875,1.4221558570861816,-2.47560453414917,-6.088454723358154
1775728167793919500,7.16691943359375,1.534683346748352,-2.403778553009033,-6.4380083084106445
1775728167803929000,7.17692919921875,1.6855180263519287,-2.4157495498657227,-6.8593878746032715
1775728167824101400,7.197101318359375,2.343923568725586,-2.609679937362671,-8.152256965637207
1775728167854313700,7.227313720703125,2.717418909072876,-2.7940332889556885,-10.307038307189941
1775728167864415000,7.2374150390625,2.7485435009002686,-2.585737943649292,-11.08754825592041
1775728167874485800,7.24748583984375,2.473210334777832,-2.5522189140319824,-11.841721534729004
1775728167884556500,7.257556640625,2.38462495803833,-2.559401512145996,-12.682085990905762
1775728167894657800,7.26765771484375,1.9297266006469727,-1.9584569931030273,-13.761871337890625
1775728167904759300,7.27775927734375,1.3311761617660522,-1.5849615335464478,-14.800954818725586
1775728167934880000,7.3078798828125,-0.40222588181495667,-1.4628572463989258,-17.0203800201416
1775728167955082800,7.328082763671875,-0.1843535304069519,-2.559401512145996,-17.504009246826172
1775728167965123000,7.338123046875,0.2992752194404602,-3.1004912853240967,-17.43697166442871
1775728167975224300,7.348224365234375,0.9888052940368652,-3.825934410095215,-17.12811851501465
1775728167985295000,7.358295166015625,1.7860745191574097,-4.288015365600586,-16.373945236206055
1775728167995335400,7.36833544921875,2.346317768096924,-4.819528102874756,-15.476119995117188
1775728168005375700,7.378375732421875,2.7102363109588623,-5.272032260894775,-14.678850173950195
1775728168015477000,7.38847705078125,2.832340717315674,-5.578489780426025,-14.111424446105957
1775728168025517300,7.398517333984375,2.7700912952423096,-5.521028995513916,-13.646949768066406
1775728168035588000,7.408588134765625,2.5546131134033203,-5.2049946784973145,-13.239935874938965
1775728168045659000,7.418658935546875,2.4181437492370605,-4.865017890930176,-12.856863021850586
1775728168055729700,7.428729736328125,2.2577321529388428,-4.6471452713012695,-12.536040306091309
1775728168065831000,7.438830810546875,2.121262788772583,-4.467580318450928,-12.380416870117188
1775728168075932400,7.448932373046875,1.944091796875,-4.256890773773193,-12.162544250488281
1775728168086003200,7.459003173828125,1.8411411046981812,-4.003105163574219,-11.91354751586914
1775728168096074000,7.469073974609375,1.5514427423477173,-3.950432777404785,-11.389217376708984
1775728168106144800,7.479144775390625,1.2449848651885986,-3.955221176147461,-11.037269592285156
1775728168116185000,7.48918505859375,1.0031704902648926,-3.952826976776123,-10.697293281555176
1775728168146458400,7.519458251953125,0.9624691009521484,-4.151545524597168,-9.248801231384277
1775728168156529200,7.529529052734375,1.0869675874710083,-4.49870491027832,-8.719682693481445
1775728168166569500,7.539569580078125,1.0797849893569946,-4.7620673179626465,-8.250418663024902
1775728168176579300,7.549579345703125,1.357512354850769,-4.81473970413208,-7.747636795043945
1775728168186680600,7.5596806640625,1.3934253454208374,-4.862623691558838,-7.364564418792725
1775728168196781800,7.56978173828125,1.460463047027588,-4.941632270812988,-7.036558628082275
1775728168206852600,7.5798525390625,1.5275006294250488,-4.967968463897705,-6.660669326782227
1775728168216923600,7.589923583984375,1.5466543436050415,-5.082890033721924,-6.313509941101074
1775728168267338500,7.64033837890625,2.1715409755706787,-5.2911858558654785,-5.473145008087158
1775728168277378800,7.65037890625,2.6216509342193604,-5.657498836517334,-5.485116004943848
1775728168287419100,7.660419189453125,3.043030261993408,-5.564124584197998,-5.509057998657227
1775728168297429000,7.670428955078125,2.9448680877685547,-5.30076265335083,-5.48272180557251
1775728168307530200,7.6805302734375,2.894589900970459,-5.327098846435547,-5.633556365966797
1775728168317601000,7.69060107421875,2.650381326675415,-5.152322292327881,-5.70777702331543
1775728168327671800,7.700671875,2.38462495803833,-5.061342239379883,-5.884947776794434
1775728168337712000,7.710712158203125,2.5091233253479004,-5.070919036865234,-6.009446144104004
1775728168347752400,7.72075244140625,2.7964274883270264,-5.1595048904418945,-6.327875137329102
1775728168377873200,7.750873046875,3.8546648025512695,-4.98472785949707,-7.575253963470459
1775728168387974700,7.760974609375,3.869029998779297,-4.754884719848633,-7.953537940979004
1775728168397984300,7.770984375,3.643975019454956,-4.426878929138184,-8.504204750061035
1775728168408055000,7.781054931640625,3.4165258407592773,-4.141968727111816,-8.951920509338379
1775728168418125800,7.791125732421875,3.3854012489318848,-3.8091750144958496,-9.528923034667969
1775728168428196600,7.801196533203125,3.2393548488616943,-3.8283286094665527,-10.079588890075684
1775728168448246800,7.821246826171875,3.0621838569641113,-3.5410242080688477,-11.204863548278809
1775728168458287000,7.831287109375,2.827552318572998,-3.663128614425659,-11.556811332702637
1775728168468358000,7.84135791015625,2.762908697128296,-3.77565598487854,-11.896788597106934
1775728168478428700,7.8514287109375,2.540247917175293,-4.1611223220825195,-12.136208534240723
1775728168488499500,7.86149951171875,2.470816135406494,-4.4532151222229,-12.562376022338867
1775728168498600700,7.8716005859375,2.274491548538208,-4.800374507904053,-13.062764167785645
1775728168508702200,7.8817021484375,2.0614075660705566,-5.020640850067139,-13.67807388305664
1775728168518711800,7.8917119140625,1.867477297782898,-4.8267107009887695,-14.326903343200684
1775728168528813000,7.90181298828125,1.6927006244659424,-4.541800498962402,-14.9182710647583
1775728168538884000,7.911884033203125,1.6424223184585571,-4.378994941711426,-15.270218849182129
1775728168548955000,7.921954833984375,1.9369091987609863,-4.311957359313965,-15.380352020263672
1775728168569096400,7.942096435546875,2.3295583724975586,-4.627991676330566,-15.219940185546875
1775728168579167200,7.952167236328125,2.4660277366638184,-4.9368438720703125,-14.681244850158691
1775728168589176800,7.9621767578125,2.3942017555236816,-5.12119722366333,-13.64455509185791
1775728168599186700,7.972186767578125,2.123656988143921,-5.169081687927246,-12.629413604736328
1775728168609257500,7.982257568359375,1.7166426181793213,-5.125985622406006,-12.035652160644531
1775728168619358700,7.992358642578125,1.3239935636520386,-5.080495834350586,-11.827356338500977
1775728168629429500,8.002429443359375,0.8978256583213806,-4.932055473327637,-11.645397186279297
1775728168639409000,8.012408935546874,0.6847416758537292,-4.69024133682251,-11.547234535217285
1775728168649510100,8.02251025390625,0.5123591423034668,-4.422090530395508,-11.616666793823242
1775728168659581000,8.032580810546875,0.3495534360408783,-4.242525577545166,-11.63103199005127
1775728168669682400,8.042682373046874,0.2849099934101105,-4.077325344085693,-11.425130844116211
1775728168679753200,8.052753173828124,0.2585737705230713,-3.8810009956359863,-11.080365180969238
1775728168689824000,8.062823974609374,0.507570743560791,-3.801992416381836,-10.759542465209961
1775728168699894800,8.072894775390624,0.6631938815116882,-3.8163576126098633,-10.611102104187012
1775728168709904400,8.082904296875,0.730231523513794,-3.7708675861358643,-10.558429718017578
1775728168719914200,8.092914306640624,0.646434485912323,-3.6727054119110107,-10.417171478271484
1775728168730015500,8.103015380859375,0.646434485912323,-3.584120035171509,-10.165780067443848
1775728168740086300,8.113086181640625,0.5315127968788147,-3.4596214294433594,-9.782708168029785
1775728168770268200,8.14326806640625,0.12689268589019775,-3.246537446975708,-8.62391471862793
1775728168780308500,8.15330859375,0.17956513166427612,-3.201047658920288,-8.121131896972656
1775728168790409700,8.16340966796875,0.31603461503982544,-3.1435868740081787,-7.82185697555542
1775728168800480800,8.173480712890624,0.507570743560791,-3.050212860107422,-7.489062786102295
1775728168810551600,8.183551513671874,0.507570743560791,-2.9712042808532715,-7.33583402633667
1775728168820622300,8.193622314453124,0.5171475410461426,-3.0310592651367188,-7.091625213623047
1775728168830632000,8.2036318359375,0.5051765441894531,-3.1076738834381104,-6.868964672088623
1775728168840641800,8.213641845703124,0.4213795065879822,-3.0550012588500977,-6.619967937469482
1775728168860844500,8.233844482421874,0.38307225704193115,-2.9903578758239746,-6.677428722381592
1775728168870884600,8.243884521484375,0.24181437492370605,-2.9041666984558105,-6.629544734954834
1775728168880894500,8.25389453125,0.15562310814857483,-2.8802247047424316,-6.4834980964660645
1775728168890995700,8.26399560546875,0.1388636976480484,-2.7892448902130127,-6.13633918762207
1775728168901036000,8.2740361328125,0.05746084079146385,-2.557007312774658,-5.901707172393799
1775728168911106800,8.28410693359375,0.24660277366638184,-2.4396915435791016,-5.789179801940918
1775728168921208000,8.2942080078125,0.4165911078453064,-2.276885747909546,-5.789179801940918
1775728168931279000,8.304279052734374,0.5746083855628967,-2.255337953567505,-5.8442463874816895
1775728168941258200,8.31425830078125,0.6991068720817566,-2.169146776199341,-6.09324312210083
1775728168971501000,8.3445009765625,0.689530074596405,-2.1571757793426514,-6.162675380706787
1775728168981541400,8.354541259765625,0.5650315880775452,-2.1356279850006104,-6.174646377563477
1775728168991643000,8.364642822265624,0.6177040338516235,-2.1332337856292725,-6.282385349273682
1775728169001713700,8.374713623046874,0.6129156351089478,-2.1595699787139893,-6.514622688293457
1775728169011784400,8.384784423828124,0.8044517636299133,-2.145204782485962,-6.864176273345947
1775728169021855200,8.394855224609374,0.950498104095459,-2.1739351749420166,-7.249642848968506
1775728169031926000,8.404926025390624,1.1540051698684692,-2.2026655673980713,-7.869740962982178
1775728169041996800,8.414996826171874,1.1755530834197998,-2.049436569213867,-8.461109161376953
1775728169052067600,8.425067626953124,1.2066776752471924,-1.9297266006469727,-9.002198219299316
1775728169062138400,8.435138427734374,1.1348515748977661,-1.9321208000183105,-9.404424667358398
1775728169082249500,8.45524951171875,1.0893617868423462,-1.9177556037902832,-10.505757331848145
1775728169092350700,8.465350830078124,1.01753568649292,-1.9560627937316895,-11.532869338989258
1775728169102421500,8.47542138671875,0.7326257228851318,-1.8746598958969116,-12.607866287231445
1775728169112523000,8.48552294921875,0.4189853072166443,-2.10210919380188,-13.771448135375977
1775728169122532600,8.49553271484375,0.1173158809542656,-1.9608511924743652,-14.686033248901367
1775728169132633900,8.5056337890625,-0.11971008777618408,-2.0398597717285156,-15.047557830810547
1775728169142705000,8.515704833984374,0.004788403399288654,-2.207453966140747,-15.188815116882324
1775728169152775700,8.525775634765624,0.24181437492370605,-2.540247917175293,-15.444994926452637
1775728169162815700,8.535815673828125,0.5339069962501526,-3.1004912853240967,-15.579070091247559
1775728169182926800,8.5559267578125,1.4173674583435059,-4.0294413566589355,-15.258247375488281
1775728169192967200,8.56596728515625,1.9273324012756348,-4.479551315307617,-14.810531616210938
1775728169202946600,8.575946533203124,2.367865562438965,-4.759673118591309,-14.341268539428711
1775728169213047800,8.5860478515625,2.7006595134735107,-4.941632270812988,-13.922283172607422
1775728169223118600,8.59611865234375,2.920926094055176,-5.008669853210449,-13.405135154724121
1775728169233159000,8.606158935546874,3.064578056335449,-4.982333660125732,-13.086706161499023
1775728169243168500,8.61616845703125,3.117250680923462,-4.774038314819336,-12.820950508117676
1775728169253239600,8.626239501953124,3.002328872680664,-4.505887508392334,-12.804190635681152
1775728169263279600,8.636279541015625,2.937685489654541,-4.335899353027344,-12.684480667114258
1775728169273350400,8.646350341796875,2.762908697128296,-4.015076160430908,-12.650961875915527
1775728169283421400,8.65642138671875,2.518700122833252,-3.8091750144958496,-12.622231483459473
1775728169293522700,8.666522705078124,2.190694570541382,-3.758896589279175,-12.200851440429688
1775728169303532300,8.6765322265625,1.9057846069335938,-3.713406801223755,-11.745953559875488
1775728169313603300,8.686603271484374,1.479616641998291,-3.603273630142212,-11.133037567138672
1775728169323643400,8.696643310546875,1.1300631761550903,-3.6583402156829834,-10.522516250610352
1775728169333714200,8.706714111328125,0.8667010068893433,-3.7612907886505127,-9.976638793945312
1775728169343754500,8.71675439453125,0.7613561153411865,-3.6583402156829834,-9.497797966003418
1775728169353825300,8.7268251953125,0.8595184087753296,-3.60566782951355,-9.246406555175781
1775728169363835100,8.736835205078124,0.8762778043746948,-3.6750996112823486,-8.944737434387207
1775728169394047500,8.767047607421874,1.2689268589019775,-4.2951979637146,-8.178592681884766
1775728169404118300,8.7771181640625,1.2832920551300049,-4.584896087646484,-7.747636795043945
1775728169414219800,8.7872197265625,1.41257905960083,-4.8602294921875,-7.331045627593994
1775728169424259800,8.797259765625,1.41257905960083,-5.303156852722168,-6.931213855743408
1775728169434361300,8.807361328125,1.525106430053711,-5.698200225830078,-6.538564682006836
1775728169444371000,8.817370849609375,1.5610195398330688,-5.901707172393799,-6.179434776306152
1775728169454472400,8.827472412109374,1.5897499322891235,-6.04775333404541,-5.863399982452393
1775728169464543200,8.837543212890624,1.7693150043487549,-6.184223175048828,-5.60722017288208
1775728169474614000,8.847614013671874,2.1475989818573,-6.294356346130371,-5.571307182312012
1775728169494694400,8.8676943359375,2.365471363067627,-6.078877925872803,-5.894524574279785
1775728169504765400,8.877765380859374,2.3535003662109375,-5.963956356048584,-6.09324312210083
1775728169514836200,8.887836181640624,2.3127987384796143,-5.815515995025635,-6.052541732788086
1775728169524876300,8.897876220703125,2.564189910888672,-5.829881191253662,-6.196194171905518
1775728169534916600,8.90791650390625,2.8395233154296875,-5.647922039031982,-6.452373504638672
1775728169544987400,8.9179873046875,2.892195701599121,-5.566518783569336,-6.811503887176514
1775728169555058200,8.92805810546875,3.0358476638793945,-5.595249176025391,-7.086836814880371
1775728169565129000,8.93812890625,3.098097085952759,-5.473145008087158,-7.41484260559082
1775728169575200000,8.948199951171874,3.0142998695373535,-5.276820659637451,-7.716512203216553
1775728169585209600,8.958209716796874,2.892195701599121,-5.20978307723999,-7.922413349151611
1775728169595280400,8.9682802734375,2.892195701599121,-5.20978307723999,-7.922413349151611
1775728169605320700,8.97832080078125,2.7676970958709717,-4.9799394607543945,-8.243236541748047
1775728169615391500,8.9883916015625,2.6216509342193604,-4.721365928649902,-8.580819129943848
1775728169625462300,8.998462158203125,2.7988216876983643,-4.726154327392578,-8.959102630615234
1775728169635472100,9.00847216796875,2.9975404739379883,-4.534617900848389,-9.531316757202148
1775728169645573400,9.018573486328124,3.0142998695373535,-4.441244125366211,-10.15141487121582
1775728169655583200,9.028583251953124,3.095702886581421,-4.331110954284668,-10.625467300415039
1775728169665592800,9.0385927734375,3.0310592651367188,-4.1874589920043945,-10.917559623718262
1775728169675633200,9.048633056640625,3.1076738834381104,-4.050989151000977,-10.982203483581543
1775728169685643000,9.05864306640625,3.0861260890960693,-4.07014274597168,-11.190498352050781
1775728169695744300,9.068744140625,3.021482467651367,-3.976768970489502,-11.554417610168457
1775728169705845800,9.078845703125,3.0334534645080566,-3.8355112075805664,-12.102689743041992
1775728169715885800,9.0888857421875,2.8586769104003906,-3.7205893993377686,-12.945448875427246
1775728169725926100,9.098926025390625,2.47560453414917,-3.6080620288848877,-13.924676895141602
1775728169735997000,9.108996826171875,2.2170307636260986,-3.600879430770874,-14.800954818725586
1775728169746067700,9.119067626953125,2.0901381969451904,-3.6966474056243896,-15.49527359008789
1775728169756138500,9.129138427734375,2.070984363555908,-3.6750996112823486,-16.002843856811523
1775728169766178800,9.1391787109375,2.3127987384796143,-3.9480385780334473,-16.10579490661621
1775728169806462200,9.179462158203124,2.8347349166870117,-4.757278919219971,-14.144943237304688
1775728169816563500,9.1895634765625,2.58813214302063,-4.809951305389404,-13.184868812561035
1775728169826634200,9.19963427734375,2.2457611560821533,-4.599261283874512,-12.20803451538086
1775728169836735500,9.209735595703124,1.742978811264038,-4.4077253341674805,-11.319786071777344
1775728169846806300,9.21980615234375,1.0319008827209473,-4.094084739685059,-10.627861022949219
1775728169856877000,9.229876953125,0.47165772318840027,-3.780444383621216,-10.230423927307129
1775728169866917400,9.23991748046875,-0.07900865375995636,-3.469198226928711,-10.005369186401367
1775728169876988200,9.24998828125,-0.2825157940387726,-3.3877954483032227,-10.122684478759766
1775728169887059000,9.260058837890625,-0.4165911078453064,-3.2609026432037354,-10.199298858642578
1775728169897129700,9.270129638671875,-0.33518823981285095,-3.162740468978882,-10.433931350708008
1775728169917271300,9.290271240234375,0.33997663855552673,-3.1747114658355713,-10.611102104187012
1775728169927311600,9.3003115234375,0.5434837937355042,-3.359065055847168,-10.60391902923584
1775728169937382400,9.31038232421875,0.7445967197418213,-3.399766445159912,-10.345345497131348
1775728169947484000,9.32048388671875,0.8236053586006165,-3.56017804145813,-9.928754806518555
1775728169957554700,9.3305546875,0.7805097699165344,-3.6343982219696045,-9.349357604980469
1775728169967625500,9.34062548828125,0.706289529800415,-3.7014358043670654,-8.932766914367676
1775728169977635000,9.350635009765625,0.6248866319656372,-3.5170822143554688,-8.547300338745117
1775728169987675400,9.36067529296875,0.4118026793003082,-3.4572272300720215,-8.152256965637207
1775728169997777000,9.37077685546875,0.23702596127986908,-3.2992098331451416,-7.802703380584717
1775728170017918500,9.39091845703125,-0.07422025501728058,-3.24414324760437,-7.268796443939209
1775728170027989200,9.4009892578125,-0.08379705995321274,-3.2082302570343018,-7.0317702293396
1775728170037998800,9.410998779296875,-0.1149216815829277,-3.2632968425750732,-6.854599475860596
1775728170048039200,9.4210390625,-0.1149216815829277,-3.361459255218506,-6.627150535583496
1775728170058049000,9.431049072265624,-0.033518824726343155,-3.428496837615967,-6.517016887664795
1775728170068150300,9.441150390625,0.07422025501728058,-3.5194764137268066,-6.3302693367004395
1775728170078221000,9.451220947265625,0.07422025501728058,-3.6774938106536865,-6.251260757446289
1775728170088291800,9.461291748046875,0.2513911724090576,-3.627215623855591,-6.1052141189575195
1775728170118535000,9.491534912109374,0.6631938815116882,-3.2632968425750732,-5.9304375648498535
1775728170128605700,9.501605712890624,0.5171475410461426,-3.0119056701660156,-5.8442463874816895
1775728170138646000,9.51164599609375,0.45489832758903503,-2.8826189041137695,-5.774814605712891
1775728170148686300,9.521686279296874,0.3974374830722809,-2.8131868839263916,-5.822698593139648
1775728170158757000,9.531757080078124,0.33997663855552673,-2.7485435009002686,-5.841852188110352
1775728170168797200,9.541797119140625,0.395043283700943,-2.7269957065582275,-5.846640586853027
1775728170178868200,9.5518681640625,0.48602294921875,-2.7892448902130127,-5.825092792510986
1775728170188939000,9.56193896484375,0.629675030708313,-2.698265314102173,-5.995080947875977
1775728170198979000,9.57197900390625,0.7709329724311829,-2.5282769203186035,-6.390124320983887
1775728170229161000,9.602160888671875,0.7637503147125244,-2.2433669567108154,-7.328651428222656
1775728170239262500,9.612262451171874,0.6177040338516235,-2.3319525718688965,-7.711723804473877
1775728170249272000,9.62227197265625,0.7110779285430908,-2.296039342880249,-8.166622161865234
1775728170259373600,9.63237353515625,0.8475474119186401,-2.6192567348480225,-8.78193187713623
1775728170269383200,9.642383056640625,0.8762778043746948,-2.8419175148010254,-9.390059471130371
1775728170279484700,9.652484619140624,1.0199298858642578,-2.8107926845550537,-10.034099578857422
1775728170289524700,9.662524658203125,1.170764684677124,-2.8347349166870117,-10.309432983398438
1775728170299595500,9.672595458984375,1.4700398445129395,-2.8227639198303223,-10.78587818145752
1775728170309697000,9.682697021484374,1.7310078144073486,-2.6599581241607666,-11.173739433288574
1775728170329808100,9.70280810546875,1.5921441316604614,-2.8371291160583496,-12.016498565673828
1775728170339879000,9.71287890625,1.479616641998291,-3.0573954582214355,-12.677297592163086
1775728170349949700,9.72294970703125,1.2258312702178955,-3.2632968425750732,-13.488932609558105
1775728170360020500,9.7330205078125,0.9864110946655273,-3.6583402156829834,-14.369998931884766
1775728170370060800,9.743060791015624,0.7852981686592102,-3.579331636428833,-15.04516315460205
1775728170380101000,9.75310107421875,0.6488286852836609,-3.6320040225982666,-15.251065254211426
1775728170390172000,9.763171875,0.7852981686592102,-3.421314239501953,-15.545551300048828
1775728170400242700,9.77324267578125,1.280897855758667,-2.674323320388794,-15.674838066101074
1775728170460697900,9.83369775390625,4.3861775398254395,-1.194706678390503,-11.554417610168457
1775728170470738200,9.84373828125,3.9815573692321777,-0.5195417404174805,-11.042057991027832
1775728170480809000,9.85380908203125,3.4572272300720215,-0.09576806426048279,-10.752359390258789
1775728170490879700,9.863879638671875,2.935291290283203,0.3064578175544739,-10.675745010375977
1775728170500920000,9.873920166015624,2.542642116546631,0.608127236366272,-10.680533409118652
1775728170510990800,9.883990966796874,2.2840683460235596,0.8906430602073669,-10.747570991516113
1775728170551274000,9.92427392578125,1.7477672100067139,-0.31124621629714966,-9.832986831665039
1775728170561314300,9.934314208984375,1.7070658206939697,-0.9911994934082031,-9.543288230895996
1775728170571385000,9.944385009765625,1.6711528301239014,-1.764526605606079,-9.320627212524414
1775728170581425400,9.95442529296875,1.5729905366897583,-3.464409828186035,-9.138668060302734
1775728170591465700,9.9644658203125,1.6136919260025024,-5.044582843780518,-8.813055992126465
1775728170601536500,9.97453662109375,1.525106430053711,-5.389348030090332,-8.422801971435547
1775728170611637800,9.9846376953125,1.4939818382263184,-5.276820659637451,-8.034940719604492
1775728170661930800,10.0349306640625,1.5538369417190552,-5.592854976654053,-6.399701118469238
1775728170682011400,10.055011474609374,1.8698714971542358,-4.721365928649902,-5.906495571136475
1775728170692082200,10.065082275390624,2.1380221843719482,-4.350264549255371,-5.805939197540283
1775728170702183400,10.075183349609375,2.3319525718688965,-4.1180267333984375,-5.770026206970215
1775728170712223700,10.0852236328125,2.650381326675415,-3.8953661918640137,-5.8442463874816895
1775728170722264000,10.09526416015625,2.9065608978271484,-3.7684733867645264,-5.9088897705078125
1775728170732365300,10.105365234375,3.066972494125366,-3.890577793121338,-5.918466567993164
1775728170762547200,10.135547119140625,3.4093432426452637,-4.46518611907959,-6.440402507781982
1775728170772648700,10.145648681640624,3.399766445159912,-5.003881454467773,-6.777985095977783
1775728170782719500,10.155719482421874,3.3710360527038574,-4.920084476470947,-7.072471618652344
1775728170792759800,10.165759765625,3.5482068061828613,-4.754884719848633,-7.433996200561523
1775728170802799900,10.1757998046875,3.7277719974517822,-4.5609540939331055,-7.757213592529297
1775728170812871000,10.185870849609374,3.8810009956359863,-4.522646903991699,-8.250418663024902
1775728170822941700,10.195941650390624,3.9863457679748535,-4.501099109649658,-8.683769226074219
1775728170833012500,10.206012451171874,3.8115692138671875,-4.230554580688477,-9.133879661560059
1775728170853154000,10.226154052734374,3.5913026332855225,-4.101267337799072,-9.672574996948242
1775728170873326000,10.246326171875,3.7229835987091064,-4.422090530395508,-10.450690269470215
1775728170883396900,10.25639697265625,3.737348794937134,-4.6040496826171875,-10.594342231750488
1775728170893406700,10.26640673828125,3.73016619682312,-4.7189717292785645,-10.735600471496582
1775728170903508000,10.276508056640624,3.670311212539673,-4.927267074584961,-10.766724586486816
1775728170913609200,10.286609130859375,3.5673606395721436,-5.037400245666504,-10.924742698669434
1775728170923680000,10.296679931640625,3.5960910320281982,-5.114014625549316,-10.99656867980957
1775728170933751000,10.3067509765625,3.529053211212158,-5.2480902671813965,-11.401188850402832
1775728170963871700,10.336871826171874,3.045424461364746,-4.836287498474121,-13.888764381408691
1775728170973881600,10.346881591796874,2.75812029838562,-4.7836151123046875,-15.12417221069336
1775728170983922000,10.356921875,2.75812029838562,-4.7836151123046875,-15.12417221069336
1775728170993931500,10.366931640625,2.513911724090576,-5.049371242523193,-16.237476348876953
1775728171004033000,10.377032958984374,2.477998733520508,-5.442020416259766,-16.869544982910156
1775728171024144000,10.397143798828125,2.786850690841675,-6.909666061401367,-17.18797492980957
1775728171034214700,10.407214599609375,2.8850131034851074,-7.709329605102539,-16.879121780395508
1775728171064427300,10.43742724609375,2.300827741622925,-8.398859977722168,-14.465766906738281
1775728171074467600,10.447467529296874,1.6735470294952393,-7.144298076629639,-13.802573204040527
1775728171084538400,10.457538330078124,1.072602391242981,-5.872976779937744,-13.4290771484375
1775728171094609200,10.467609130859374,0.524330198764801,-4.8602294921875,-13.06755256652832
1775728171104680000,10.477679931640624,0.07182604819536209,-4.098873138427734,-12.612654685974121
1775728171114689500,10.487689453125,-0.24660277366638184,-3.4979286193847656,-12.172121047973633
1775728171124791000,10.497791015625,-0.33997663855552673,-3.0358476638793945,-11.717223167419434
1775728171134861800,10.50786181640625,-0.3495534360408783,-2.779668092727661,-11.224017143249512
1775728171175114500,10.548114501953124,0.5386953949928284,-2.6431987285614014,-9.157821655273438
1775728171185185300,10.558185302734374,0.7445967197418213,-2.896984100341797,-8.631096839904785
1775728171195225600,10.5682255859375,0.9864110946655273,-3.0095114707946777,-8.161833763122559
1775728171205296400,10.57829638671875,1.015141487121582,-3.093308687210083,-7.682993412017822
1775728171215397600,10.588397705078124,1.0127472877502441,-3.0837318897247314,-7.264008045196533
1775728171225468400,10.598468505859374,0.9193734526634216,-2.9520506858825684,-6.84981107711792
1775728171235478300,10.608478271484374,0.8259995579719543,-2.9688100814819336,-6.40927791595459
1775728171245579500,10.61857958984375,0.6248866319656372,-3.0166940689086914,-6.0597243309021
1775728171255650300,10.628650390625,0.44771572947502136,-2.920926094055176,-5.74129581451416
1775728171265690600,10.638690673828124,0.40701428055763245,-2.851494312286377,-5.6191911697387695
1775728171275792000,10.6487919921875,0.19871874153614044,-2.8395233154296875,-5.513846397399902
1775728171285893000,10.65889306640625,0.035913024097681046,-2.7916390895843506,-5.413290023803711
1775728171295964200,10.668964111328124,-0.14844051003456116,-2.6431987285614014,-5.315127849578857
1775728171306035000,10.679034912109374,-0.36152446269989014,-2.5953147411346436,-5.202600479125977
1775728171316105700,10.689105712890624,-0.5051765441894531,-2.4468741416931152,-5.147533416748047
1775728171326146000,10.69914599609375,-0.5722141861915588,-2.343923568725586,-5.173870086669922
1775728171336186000,10.70918603515625,-0.5841852426528931,-2.387019157409668,-5.293580055236816
1775728171346287600,10.71928759765625,-0.5434837937355042,-2.2433669567108154,-5.494692802429199
1775728171366337500,10.739337646484374,-0.49799394607543945,-2.233790159225464,-6.157886981964111
1775728171376408300,10.749408203125,-0.4596867263317108,-2.209848165512085,-6.270414352416992
1775728171386448600,10.75944873046875,-0.6344634294509888,-2.1763293743133545,-6.184223175048828
1775728171396519400,10.76951953125,-0.7086837291717529,-2.2385785579681396,-6.011840343475342
1775728171406620700,10.77962060546875,-0.7805097699165344,-2.145204782485962,-5.942408561706543
1775728171416630500,10.789630615234374,-0.811634361743927,-2.1499931812286377,-5.995080947875977
1775728171426701300,10.799701416015624,-0.6799532771110535,-2.1284453868865967,-6.215347766876221
1775728171436802600,10.809802490234375,-0.47165772318840027,-2.0470423698425293,-6.610390663146973
1775728171446904000,10.819904052734374,-0.31842881441116333,-2.0374655723571777,-6.909666061401367
1775728171457005300,10.83000537109375,-0.16998831927776337,-1.9728221893310547,-7.096413612365723
1775728171467076000,10.840076171875,0.07661445438861847,-1.9847931861877441,-7.333439826965332
1775728171477147000,10.85014697265625,0.2753331959247589,-2.056619167327881,-7.615955829620361
1775728171487187200,10.860187255859374,0.42377370595932007,-2.099714994430542,-7.915230751037598
1775728171497258000,10.870258056640624,0.7158663272857666,-2.1068975925445557,-8.465897560119629
1775728171517430000,10.890429931640625,1.1420341730117798,-2.0853497982025146,-9.667786598205566
1775728171527531500,10.900531494140624,1.3263877630233765,-2.056619167327881,-10.338163375854492
1775728171537571800,10.91057177734375,1.6160861253738403,-2.1332337856292725,-10.790667533874512
1775728171547581400,10.92058154296875,1.5610195398330688,-2.097320795059204,-11.317391395568848
1775728171557591300,10.93059130859375,1.525106430053711,-2.008735179901123,-11.93509578704834
1775728171577732900,10.95073291015625,0.8882488012313843,-1.7262194156646729,-13.570335388183594
1775728171587803600,10.9608037109375,0.38307225704193115,-1.6903064250946045,-14.417882919311523
1775728171597874400,10.97087451171875,-0.14365209639072418,-1.623268723487854,-15.186421394348145
1775728171607975700,10.9809755859375,-0.6560112833976746,-1.7334020137786865,-15.782577514648438
1775728171618046500,10.99104638671875,-0.6272808313369751,-2.1164743900299072,-16.16086196899414
1775728171628148000,11.00114794921875,-0.3447650372982025,-2.7269957065582275,-16.802507400512695
1775728171638249200,11.011249267578124,0.15322890877723694,-3.380612850189209,-17.197551727294922
1775728171648320000,11.021320068359374,0.8403648138046265,-3.976768970489502,-17.185579299926758
1775728171658390800,11.031390869140624,1.6543933153152466,-4.508281707763672,-17.01319694519043
1775728171688633600,11.061633544921875,2.964021682739258,-5.705382823944092,-15.792154312133789
1775728171698704600,11.07170458984375,2.980781078338623,-5.74129581451416,-15.76821231842041
1775728171708775400,11.081775390625,2.7940332889556885,-5.7341132164001465,-15.385140419006348
1775728171718815500,11.0918154296875,2.5306711196899414,-5.4444146156311035,-14.841656684875488
1775728171728917000,11.1019169921875,2.121262788772583,-5.214571475982666,-14.288596153259277
1775728171738957300,11.111957275390624,1.7980455160140991,-4.999093055725098,-13.651738166809082
1775728171749058600,11.12205859375,1.45806884765625,-4.891354084014893,-13.060370445251465
1775728171759129300,11.13212939453125,1.2066776752471924,-4.627991676330566,-12.4785795211792
1775728171779301400,11.15230126953125,0.569819986820221,-4.1874589920043945,-11.154585838317871
1775728171789372200,11.1623720703125,0.4381389021873474,-4.106055736541748,-10.611102104187012
1775728171799443000,11.17244287109375,0.4213795065879822,-4.046200752258301,-10.278307914733887
1775728171809513700,11.182513671875,0.7182605266571045,-4.141968727111816,-9.861717224121094
1775728171819615200,11.192615234375,0.8858546018600464,-4.3622355461120605,-9.634267807006836
1775728171829686000,11.20268603515625,1.0773907899856567,-4.572925090789795,-9.26795482635498
1775728171839695600,11.212695556640625,1.3120225667953491,-4.802768707275391,-8.990227699279785
1775728171849736000,11.22273583984375,1.290474772453308,-5.147533416748047,-8.513781547546387
1775728171859776300,11.2327763671875,1.3287819623947144,-5.523423194885254,-8.099584579467773
1775728171889958100,11.262958251953124,1.3527239561080933,-5.731719017028809,-6.603208065032959
1775728171910099700,11.283099609375,2.006340980529785,-5.789179801940918,-6.016628742218018
1775728171920170500,11.29317041015625,2.205059766769409,-5.669469833374023,-5.904101371765137
1775728171930272000,11.30327197265625,2.3367409706115723,-5.537788391113281,-5.839457988739014
1775728171940342800,11.3133427734375,2.3295583724975586,-5.552153587341309,-5.6670756340026855
1775728171950413600,11.32341357421875,2.3726539611816406,-5.56173038482666,-5.432443618774414
1775728171960423200,11.333423095703125,2.82515811920166,-5.676652431488037,-5.2049946784973145
1775728171970524700,11.343524658203124,2.8610711097717285,-5.784391403198242,-5.363011837005615
1775728171980595500,11.353595458984374,2.9712042808532715,-5.904101371765137,-5.566518783569336
1775728172010777300,11.38377734375,3.689464807510376,-6.011840343475342,-6.5481414794921875
1775728172020848000,11.39384814453125,3.957615375518799,-6.1052141189575195,-7.036558628082275
1775728172030919000,11.4039189453125,4.165910720825195,-6.071695327758789,-7.6111674308776855
1775728172040928800,11.4139287109375,4.170699596405029,-5.9088897705078125,-8.044517517089844
1775728172050968800,11.42396875,4.144362926483154,-5.702988624572754,-8.513781547546387
1775728172061070300,11.4340703125,3.9240965843200684,-5.396530628204346,-8.920795440673828
1775728172071141000,11.44414111328125,3.6798880100250244,-5.054159641265869,-9.366117477416992
1775728172081181400,11.454181396484374,3.308786630630493,-4.845864295959473,-9.813833236694336
1775728172091282700,11.46428271484375,3.0861260890960693,-4.513070106506348,-10.342951774597168
1775728172131535400,11.504535400390624,2.626439332962036,-3.952826976776123,-11.552022933959961
1775728172141575700,11.51457568359375,2.626439332962036,-4.015076160430908,-11.889605522155762
1775728172151677000,11.524677001953124,2.7940332889556885,-4.2544965744018555,-12.440272331237793
1775728172161717200,11.53471728515625,2.8371291160583496,-4.398148536682129,-13.117831230163574
1775728172171818500,11.544818603515624,2.609679937362671,-4.72376012802124,-13.836091995239258
1775728172181828400,11.554828369140624,2.3080103397369385,-4.608838081359863,-14.590265274047852
1775728172191929600,11.5649296875,1.8124107122421265,-4.2951979637146,-15.198391914367676
1775728172232151800,11.60515185546875,0.3687070608139038,-3.4739866256713867,-16.002843856811523
1775728172242192100,11.615192138671874,0.9911994934082031,-3.885789394378662,-16.429012298583984
1775728172252263000,11.625262939453124,1.6328455209732056,-4.173093795776367,-17.003620147705078
1775728172262333700,11.635333740234374,2.1571757793426514,-4.4508209228515625,-16.850391387939453
1775728172272404500,11.645404541015624,2.3511061668395996,-4.716577529907227,-15.770606994628906
1775728172282475300,11.655475341796874,2.2361843585968018,-4.934449672698975,-14.044386863708496
1775728172292546000,11.665546142578124,1.7956513166427612,-4.965574264526367,-12.586318016052246
1775728172302616800,11.675616943359374,1.1779472827911377,-4.99669885635376,-11.566388130187988
1775728172332737800,11.70573779296875,-0.5003881454467773,-3.801992416381836,-10.1753568649292
1775728172342778000,11.715778076171874,-0.6224924325942993,-3.4596214294433594,-10.031704902648926
1775728172352849000,11.725848876953124,-0.6153098344802856,-3.0334534645080566,-9.986215591430664
1775728172362919700,11.735919677734374,-0.5147533416748047,-2.892195701599121,-10.211270332336426
1775728172372990500,11.745990478515624,-0.3256114423274994,-3.050212860107422,-10.093954086303711
1775728172383000000,11.756,-0.14604631066322327,-3.5170822143554688,-9.861717224121094
1775728172393040400,11.766040283203125,0.11252748221158981,-3.5218706130981445,-9.610325813293457
1775728172403111200,11.776111083984375,0.2801215946674347,-3.3446998596191406,-9.370905876159668
1775728172413182000,11.786181884765625,0.2801215946674347,-3.3446998596191406,-9.370905876159668
1775728172453404200,11.826404052734375,0.545877993106842,-2.9975404739379883,-8.039729118347168
1775728172463444500,11.836444580078124,0.4908113479614258,-2.7246015071868896,-7.826645374298096
1775728172473515300,11.846515380859374,0.30885201692581177,-2.38462495803833,-7.479485988616943
1775728172483555600,11.8565556640625,0.12449848651885986,-2.1499931812286377,-7.254431247711182
1775728172493596000,11.866595947265624,-0.090979665517807,-2.2194249629974365,-7.094019412994385
1775728172503636200,11.87663623046875,-0.24420857429504395,-2.2912509441375732,-6.777985095977783
1775728172523777800,11.89677783203125,-0.4405331015586853,-2.4899697303771973,-6.466738700866699
1775728172543919400,11.91691943359375,-0.33279404044151306,-3.1459810733795166,-6.078877925872803
1775728172554020600,11.9270205078125,-0.14365209639072418,-3.2369606494903564,-5.975927352905273
1775728172564061000,11.93706103515625,0.12210428714752197,-3.1268274784088135,-5.870582580566406
1775728172574131700,11.947131591796875,0.21787235140800476,-3.002328872680664,-5.688623428344727
1775728172584202500,11.957202392578125,0.2825157940387726,-3.0597896575927734,-5.521028995513916
1775728172594273300,11.967273193359375,0.14365209639072418,-3.043030261993408,-5.504269599914551
1775728172604344000,11.977343994140625,-0.05746084079146385,-2.741360902786255,-5.449203014373779
1775728172624516400,11.997516357421874,-0.12210428714752197,-2.145204782485962,-5.432443618774414
1775728172634526000,12.00752587890625,-0.026336219161748886,-2.0159177780151367,-5.461174011230469
1775728172644566300,12.017566162109375,0.07661445438861847,-2.231395959854126,-5.439626216888428
1775728172654576000,12.027576171875,0.2298433631658554,-2.161964178085327,-5.556941986083984
1775728172664677400,12.037677490234374,0.44532153010368347,-1.9153614044189453,-5.638344764709473
1775728172674748200,12.047748046875,0.6368576288223267,-1.8794482946395874,-5.535394191741943
1775728172684788500,12.05778857421875,0.7469909191131592,-1.8076223134994507,-5.51624059677124
1775728172694798300,12.06779833984375,0.8355764150619507,-1.7884687185287476,-5.679046630859375
1775728172704808000,12.077807861328125,0.9816226959228516,-1.845929503440857,-5.901707172393799
1775728172735020500,12.1080205078125,1.8124107122421265,-2.3104045391082764,-7.079654216766357
1775728172745091300,12.11809130859375,1.9752163887023926,-2.535459518432617,-7.204153060913086
1775728172755162000,12.128162109375,2.1068975925445557,-2.3343467712402344,-7.556100368499756
1775728172765202400,12.138202392578124,2.4588451385498047,-2.1308395862579346,-7.91283655166626
1775728172775273200,12.148273193359374,2.647987127304077,-2.0015525817871094,-8.686163902282715
1775728172785344000,12.158343994140624,2.7748796939849854,-1.802833914756775,-9.600749015808105
1775728172795445200,12.1684453125,2.937685489654541,-1.9033904075622559,-10.623072624206543
1775728172805516000,12.17851611328125,2.9735984802246094,-2.0829553604125977,-11.525687217712402
1775728172845738200,12.21873828125,2.1164743900299072,-1.403002142906189,-14.85123348236084
1775728172855748000,12.228748046875,1.5753847360610962,-1.2761094570159912,-15.557522773742676
1775728172865757700,12.2387578125,0.8978256583213806,-1.0654197931289673,-16.292543411254883
1775728172875859000,12.24885888671875,0.42616790533065796,-0.9552865028381348,-16.859968185424805
1775728172885868800,12.258868896484374,0.031124621629714966,-1.0247182846069336,-17.504009246826172
1775728172896000800,12.269000732421874,-0.040701430290937424,-1.2306196689605713,-18.294095993041992
1775728172906071600,12.279071533203124,0.21787235140800476,-1.7717092037200928,-19.007566452026367
1775728172916172800,12.2891728515625,0.7326257228851318,-2.47560453414917,-19.26374626159668
1775728172946293800,12.319293701171874,2.6647465229034424,-5.066130638122559,-16.53435707092285
1775728172956395000,12.32939501953125,2.875436305999756,-5.5545477867126465,-15.061923027038574
1775728172966435300,12.339435302734374,2.6815059185028076,-5.932831764221191,-13.680468559265137
1775728172976506000,12.349506103515624,2.367865562438965,-6.107608318328857,-12.497733116149902
1775728172986515700,12.359515625,2.1045033931732178,-5.8657941818237305,-11.48259162902832
1775728172996617200,12.3696171875,1.8626888990402222,-5.489904403686523,-10.833763122558594
1775728173006688000,12.37968798828125,1.845929503440857,-5.011064052581787,-10.611102104187012
1775728173016758800,12.3897587890625,1.8626888990402222,-4.314351558685303,-10.644620895385742
1775728173026829600,12.39982958984375,1.9991583824157715,-3.845088005065918,-10.833763122558594
1775728173036900400,12.409900390625,2.3032219409942627,-3.667917013168335,-10.8505220413208
1775728173057042000,12.4300419921875,2.3295583724975586,-3.7828385829925537,-10.065223693847656
1775728173067112700,12.44011279296875,2.0614075660705566,-3.7493197917938232,-9.737217903137207
1775728173077122600,12.45012255859375,1.8267759084701538,-3.6727054119110107,-9.299078941345215
1775728173087163000,12.460162841796874,1.6089035272598267,-3.646369218826294,-8.793902397155762
1775728173097264000,12.47026416015625,1.5634137392044067,-3.4739866256713867,-8.216899871826172
1775728173107304400,12.480304443359374,1.5394717454910278,-3.4955344200134277,-7.881711959838867
1775728173117405700,12.49040576171875,1.45806884765625,-3.469198226928711,-7.508216381072998
1775728173127476500,12.5004765625,1.5969325304031372,-3.6990416049957275,-7.2113356590271
1775728173137547300,12.51054736328125,1.7501614093780518,-3.9217023849487305,-6.933608055114746
1775728173147557000,12.52055712890625,1.7717092037200928,-4.182670593261719,-6.768408298492432
1775728173157658400,12.530658447265624,1.8531121015548706,-4.426878929138184,-6.586448669433594
1775728173167668200,12.540668212890624,1.9177556037902832,-4.757278919219971,-6.404489517211914
1775728173177708500,12.55070849609375,1.968033790588379,-5.207388877868652,-6.258443355560303
1775728173187748600,12.56074853515625,1.9153614044189453,-5.384559631347656,-6.174646377563477
1775728173197850000,12.57085009765625,1.9177556037902832,-5.535394191741943,-6.026205539703369
1775728173207859700,12.580859619140625,1.7741034030914307,-5.647922039031982,-5.853823184967041
1775728173217930500,12.590930419921875,2.073378562927246,-5.336675643920898,-5.805939197540283
1775728173227970800,12.600970703125,2.1715409755706787,-4.994304656982422,-5.868188381195068
1775728173248112400,12.6211123046875,2.889801502227783,-4.553771495819092,-6.528987884521484
1775728173258183200,12.63118310546875,2.8850131034851074,-4.220977783203125,-6.926425457000732
1775728173268193000,12.641193115234374,2.8610711097717285,-3.976768970489502,-7.208941459655762
1775728173278294300,12.651294189453125,2.6384103298187256,-3.7158010005950928,-7.275979042053223
1775728173288365000,12.661364990234375,2.583343744277954,-3.555389642715454,-7.240066051483154
1775728173298405400,12.6714052734375,2.5953147411346436,-3.6750996112823486,-7.177816867828369
1775728173308476200,12.68147607421875,2.5761611461639404,-3.7014358043670654,-7.321468830108643
1775728173318547000,12.691546875,2.63362193107605,-3.754108190536499,-7.649474620819092
1775728173328618000,12.701617919921874,2.6671407222747803,-3.7181951999664307,-8.154650688171387
1775728173348668000,12.72166796875,2.6599581241607666,-3.8163576126098633,-8.707711219787598
1775728173358769200,12.73176904296875,2.607285737991333,-3.8570590019226074,-8.884882926940918
1775728173368840000,12.74183984375,2.6886885166168213,-3.8570590019226074,-9.090784072875977
1775728173378880300,12.75188037109375,2.655169725418091,-3.866635799407959,-9.35893440246582
1775728173399021800,12.772021728515625,2.5306711196899414,-3.7038300037384033,-9.6989107131958
1775728173409123300,12.782123291015624,2.492363929748535,-3.6320040225982666,-9.725247383117676
1775728173419224600,12.792224609375,2.492363929748535,-3.620033025741577,-9.823410034179688
1775728173429265000,12.802264892578124,2.4444799423217773,-3.576937437057495,-9.99100399017334
1775728173439305200,12.81230517578125,2.434903144836426,-3.7636849880218506,-10.491392135620117
1775728173469548000,12.842548095703124,2.094926595687866,-4.048594951629639,-11.403582572937012
1775728173479588400,12.85258837890625,1.7046716213226318,-3.928884983062744,-11.947066307067871
1775728173489689600,12.862689697265624,1.3718775510787964,-3.825934410095215,-12.42351245880127
1775728173499760400,12.872760498046874,1.2018892765045166,-3.7636849880218506,-13.048398971557617
1775728173509861600,12.882861572265625,1.2066776752471924,-3.84269380569458,-13.498509407043457
1775728173519932700,12.8929326171875,1.314416766166687,-3.9624037742614746,-13.630189895629883
1775728173530003500,12.90300341796875,1.6112977266311646,-3.9600095748901367,-13.716381072998047
1775728173540074200,12.91307421875,1.941697597503662,-4.10366153717041,-13.804966926574707
1775728173550145000,12.92314501953125,2.248155355453491,-4.501099109649658,-13.680468559265137
1775728173560185300,12.933185302734374,2.516305923461914,-4.977545261383057,-13.225569725036621
1775728173570286600,12.94328662109375,2.6384103298187256,-5.303156852722168,-12.674903869628906
1775728173580357400,12.953357421875,2.4444799423217773,-5.537788391113281,-11.99255657196045
1775728173590397700,12.963397705078124,2.2218191623687744,-5.504269599914551,-11.279084205627441
1775728173600468500,12.973468505859374,1.8938134908676147,-5.305551052093506,-10.563218116760254
1775728173610539300,12.983539306640624,1.4173674583435059,-5.17626428604126,-9.873687744140625
1775728173620640500,12.993640625,1.036689281463623,-4.898536682128906,-9.478644371032715
1775728173630741800,13.00374169921875,0.646434485912323,-4.525041103363037,-9.320627212524414
1775728173640751600,13.013751708984374,0.36152446269989014,-4.304774761199951,-9.473855972290039
1775728173650852900,13.023852783203125,0.24660277366638184,-4.046200752258301,-9.928754806518555
1775728173660923600,13.033923583984375,0.2753331959247589,-3.995922565460205,-10.45547866821289
1775728173670994700,13.04399462890625,0.31842881441116333,-3.7900211811065674,-10.716446876525879
1775728173691075000,13.064074951171875,0.7326257228851318,-3.892971992492676,-10.596736907958984
1775728173701176600,13.074176513671874,0.8403648138046265,-3.7828385829925537,-10.223240852355957
1775728173711247400,13.084247314453124,0.9528923034667969,-3.7445313930511475,-9.837775230407715
1775728173721348600,13.0943486328125,0.9361328482627869,-3.646369218826294,-9.387664794921875
1775728173731419400,13.10441943359375,0.8092401623725891,-3.5051112174987793,-8.916007041931152
1775728173741490200,13.114490234375,0.5746083855628967,-3.3854012489318848,-8.556877136230469
1775728173751500000,13.1245,0.3495534360408783,-3.268085241317749,-8.051700592041016
1775728173761570800,13.13457080078125,0.1604115068912506,-3.1268274784088135,-7.702147006988525
1775728173781620700,13.154620849609374,-0.22266076505184174,-2.940079689025879,-7.01979923248291
1775728173791630600,13.164630615234374,-0.22266076505184174,-2.940079689025879,-7.01979923248291
1775728173801701400,13.174701416015624,-0.1604115068912506,-3.1316158771514893,-6.821080684661865
1775728173811711200,13.184711181640624,-0.16519992053508759,-3.2417490482330322,-6.624756336212158
1775728173821812500,13.1948125,-0.0933738648891449,-3.308786630630493,-6.469132900238037
1775728173831883300,13.20488330078125,-0.07661445438861847,-3.332728862762451,-6.342240333557129
1775728173841954000,13.2149541015625,-0.019153613597154617,-3.4308910369873047,-6.2632317543029785
1775728173852024800,13.22502490234375,0.05985504388809204,-3.507505416870117,-6.253654956817627
1775728173862095600,13.235095703125,0.0933738648891449,-3.485957622528076,-6.246472358703613
1775728173882237200,13.2552373046875,0.15562310814857483,-3.272873640060425,-6.387730121612549
1775728173892247000,13.2652470703125,0.15083470940589905,-3.1699230670928955,-6.382941722869873
1775728173902378800,13.275378662109375,0.21787235140800476,-3.0885202884674072,-6.452373504638672
1775728173912449500,13.285449462890625,0.17238251864910126,-3.0573954582214355,-6.361393928527832
1775728173922520300,13.295520263671875,0.2825157940387726,-2.9951462745666504,-6.299144744873047
1775728173932591400,13.30559130859375,0.33997663855552673,-3.0861260890960693,-6.268020153045654
1775728173942692600,13.315692626953124,0.3064578175544739,-3.1459810733795166,-6.3302693367004395
1775728173952763400,13.325763427734374,0.2513911724090576,-3.246537446975708,-6.344634532928467
1775728173962834200,13.335834228515624,0.1628057211637497,-3.2393548488616943,-6.531382083892822
1775728173972905000,13.345905029296874,0.07422025501728058,-3.162740468978882,-6.53377628326416
1775728173982945300,13.3559453125,0,-3.1890766620635986,-6.600813865661621
1775728173993046500,13.366046630859374,0.2106897532939911,-3.3231520652770996,-6.665457725524902
1775728174003117300,13.376117431640624,0.4836287498474121,-3.533841609954834,-6.868964672088623
1775728174013096700,13.3860966796875,0.6967126727104187,-3.7708675861358643,-7.113173484802246
1775728174023167500,13.39616748046875,1.0271124839782715,-4.0749311447143555,-7.42681360244751
1775728174033177000,13.406177001953125,1.2617442607879639,-4.446032524108887,-7.692570209503174
1775728174043278600,13.416278564453124,1.359906554222107,-4.776432514190674,-8.08043098449707
1775728174053379800,13.4263798828125,1.5059528350830078,-4.857835292816162,-8.29590892791748
1775728174063450600,13.43645068359375,1.8602946996688843,-4.8602294921875,-8.374917984008789
1775728174093632500,13.466632568359374,2.58813214302063,-4.458003520965576,-8.382100105285645
1775728174103703300,13.476703369140624,2.784456491470337,-4.503493309020996,-8.614337921142578
1775728174113804500,13.486804443359375,3.1747114658355713,-4.563348293304443,-8.829815864562988
1775728174123875300,13.496875244140625,3.3303346633911133,-5.066130638122559,-9.27034854888916
1775728174133946000,13.506946044921875,3.450044631958008,-5.145139217376709,-9.708487510681152
1775728174144017200,13.51701708984375,3.512293815612793,-4.934449672698975,-10.120290756225586
1775728174154088000,13.527087890625,3.4596214294433594,-4.960785865783691,-10.5344877243042
1775728174164128000,13.5371279296875,3.3877954483032227,-4.867412090301514,-11.018115997314453
1775728174194371000,13.56737109375,2.734178304672241,-4.58968448638916,-12.825738906860352
1775728174204411400,13.577411376953124,2.4827871322631836,-4.316745758056641,-13.323732376098633
1775728174214451700,13.58745166015625,2.252943754196167,-4.125209331512451,-13.843274116516113
1775728174224491800,13.59749169921875,2.166752576828003,-3.9695863723754883,-14.463372230529785
1775728174234562600,13.6075625,2.255337953567505,-3.9456443786621094,-14.915876388549805
1775728174244664000,13.6176640625,2.434903144836426,-4.0749311447143555,-15.176844596862793
1775728174254673700,13.627673583984375,3.050212860107422,-4.4723687171936035,-15.30373764038086
1775728174264744400,13.637744384765625,3.6128504276275635,-4.752490520477295,-15.222334861755371
1775728174274815500,13.6478154296875,4.113238334655762,-5.082890033721924,-14.798561096191406
1775728174304997400,13.677997314453124,4.967968463897705,-5.6670756340026855,-11.973402976989746
1775728174315068200,13.688068115234374,4.8267107009887695,-5.621585369110107,-11.010933876037598
1775728174325139000,13.698138916015624,4.534617900848389,-5.494692802429199,-10.053253173828125
1775728174335179300,13.70817919921875,4.065354347229004,-5.169081687927246,-9.208099365234375
1775728174345219300,13.71821923828125,3.5889084339141846,-4.752490520477295,-8.664615631103516
1775728174355259600,13.728259765625,3.160346269607544,-4.180276393890381,-8.166622161865234
1775728174365330400,13.738330322265625,2.846705913543701,-3.6942532062530518,-7.898471355438232
1775728174375401200,13.748401123046875,2.58813214302063,-3.3303346633911133,-7.819462776184082
1775728174385472000,13.758471923828125,2.473210334777832,-3.141192674636841,-7.805097579956055
1775728174395542800,13.768542724609375,2.427720546722412,-3.0813376903533936,-7.848193168640137
1775728174405613800,13.77861376953125,2.3032219409942627,-2.9951462745666504,-7.783549785614014
1775728174415715000,13.788715087890624,2.1715409755706787,-2.9233202934265137,-7.69735860824585
1775728174425785900,13.798785888671874,1.845929503440857,-2.911349296569824,-7.65186882019043
1775728174435856600,13.808856689453124,1.678335428237915,-2.8371291160583496,-7.575253963470459
1775728174445958000,13.8189580078125,1.41257905960083,-2.8395233154296875,-7.364564418792725
1775728174456028700,13.829028564453125,1.335964560508728,-2.8610711097717285,-7.441178798675537
1775728174466130200,13.839130126953124,1.316810965538025,-2.9305028915405273,-7.266402244567871
1775728174496312000,13.86931201171875,1.400607943534851,-3.737348794937134,-7.058106422424316
1775728174506382800,13.8793828125,1.53707754611969,-3.9408559799194336,-6.8378400802612305
1775728174516453600,13.88945361328125,1.5921441316604614,-4.084507942199707,-6.737283706665039
1775728174536625700,13.909625732421874,1.5945383310317993,-4.37420654296875,-6.423643112182617
1775728174546696400,13.919696533203124,1.7070658206939697,-4.355052947998047,-6.2392897605896
1775728174556767200,13.929767333984374,1.9057846069335938,-4.448426723480225,-6.124367713928223
1775728174566807600,13.9398076171875,1.9728221893310547,-4.323928356170654,-6.224924564361572
1775728174576878300,13.94987841796875,1.7932571172714233,-4.352658748626709,-6.3733649253845215
1775728174586949000,13.95994921875,1.6041151285171509,-4.376600742340088,-6.473921298980713
1775728174607090700,13.980090576171875,1.2066776752471924,-4.390965938568115,-6.524199485778809
1775728174617161500,13.990161376953125,1.2018892765045166,-4.6471452713012695,-6.720524311065674
1775728174627201800,14.000201904296874,1.2018892765045166,-4.982333660125732,-6.926425457000732
1775728174637242000,14.0102421875,1.2689268589019775,-5.212177276611328,-7.15387487411499
1775728174647252000,14.020251953125,1.4077905416488647,-5.5329999923706055,-7.405265808105469
1775728174657353200,14.030353271484374,1.4532804489135742,-5.872976779937744,-7.51779317855835
1775728174667424000,14.040424072265624,1.5658079385757446,-5.935225963592529,-7.632715225219727
1775728174677494800,14.050494873046874,1.5298948287963867,-5.92325496673584,-7.7643961906433105
1775728174687565600,14.060565673828124,1.50355863571167,-5.9304375648498535,-7.903259754180908
