time,seconds_elapsed,z,y,x
1775728160719188500,0.0921884765625,0.09407325088977814,0.3481931984424591,0.49724429845809937
1775728160729059000,0.10205908203125,-0.1869247704744339,0.38117989897727966,0.3188716471195221
1775728160738999600,0.11199951171875,-0.3640756905078888,0.6548475623130798,0.7171558141708374
1775728160748839700,0.121839599609375,0.11362093687057495,-0.28466320037841797,-0.646295428276062
1775728160758710500,0.13171044921875,0.09529497474431992,-0.19914206862449646,-0.4190535545349121
1775728160768650800,0.141650634765625,0.0024434609804302454,-0.00366519158706069,-0.0403171069920063
1775728160778752300,0.151752197265625,-0.00733038317412138,-0.006108652334660292,-0.03176499158143997
1775728160788823000,0.161822998046875,-0.012217304669320583,-0.0024434609804302454,-0.02932153269648552
1775728160798893800,0.171893798828125,-0.009773843921720982,0.0012217304902151227,-0.013439035043120384
1775728160808903400,0.1819033203125,-0.009773843921720982,-0.00366519158706069,0.00366519158706069
1775728160819035400,0.192035400390625,-0.00733038317412138,-0.010995574295520782,0.024434609338641167
1775728160849186800,0.222186767578125,0.0024434609804302454,0.006108652334660292,0.015882495790719986
1775728160879429600,0.2524296875,0.010995574295520782,0.015882495790719986,-0.004886921960860491
1775728160909611500,0.282611572265625,0.004886921960860491,0.00366519158706069,0.05497787147760391
1775728160919682300,0.292682373046875,-0.0024434609804302454,-0.0024434609804302454,0.07208210229873657
1775728160959965400,0.33296533203125,-0.01466076634824276,0.02687807008624077,0.004886921960860491
1775728160980046000,0.353046142578125,-0.019547687843441963,0.010995574295520782,0
1775728160990116900,0.363116943359375,-0.021991148591041565,-0.00366519158706069,-0.006108652334660292
1775728161000187600,0.373187744140625,-0.02321287989616394,-0.0024434609804302454,-0.018325956538319588
1775728161010228000,0.38322802734375,-0.02321287989616394,-0.00366519158706069,-0.028099801391363144
1775728161020329200,0.3933291015625,-0.02076941914856434,-0.0024434609804302454,-0.0354301854968071
1775728161070683400,0.443683349609375,-0.02687807008624077,0.012217304669320583,-0.042760565876960754
1775728161110875000,0.483875,0.0012217304902151227,0.019547687843441963,-0.04642575979232788
1775728161120915200,0.493915283203125,0.0024434609804302454,0.021991148591041565,-0.028099801391363144
1775728161130986000,0.503986083984375,-0.004886921960860491,0.004886921960860491,-0.0024434609804302454
1775728161151158000,0.524157958984375,-0.018325956538319588,0.00733038317412138,-0.028099801391363144
1775728161161229000,0.53422900390625,-0.021991148591041565,0.0024434609804302454,-0.05742133408784866
1775728161171299800,0.5442998046875,-0.02321287989616394,0.00366519158706069,-0.0757472887635231
1775728161181370600,0.55437060546875,-0.02687807008624077,0.006108652334660292,-0.06352998316287994
1775728161191471900,0.564471923828125,-0.02932153269648552,0.0012217304902151227,-0.04153883829712868
1775728161201542700,0.574542724609375,-0.024434609338641167,-0.004886921960860491,-0.02076941914856434
1775728161211613400,0.584613525390625,-0.02687807008624077,-0.006108652334660292,-0.00733038317412138
1775728161231694000,0.604694091796875,-0.042760565876960754,-0.009773843921720982,-0.04886921867728233
1775728161241764900,0.614764892578125,-0.051312681287527084,-0.0012217304902151227,-0.08185594528913498
1775728161272007700,0.645007568359375,-0.05497787147760391,0,-0.05864306539297104
1775728161302159000,0.6751591796875,-0.06475171446800232,-0.00733038317412138,-0.07696902006864548
1775728161312260400,0.68526025390625,-0.06352998316287994,-0.01466076634824276,-0.08307767659425735
1775728161322331100,0.6953310546875,-0.0708603709936142,-0.012217304669320583,-0.09162978827953339
1775728161332402000,0.70540185546875,-0.06719517707824707,0.0012217304902151227,-0.08307767659425735
1775728161342503400,0.71550341796875,-0.06230825558304787,0.00733038317412138,-0.039095375686883926
1775728161352574200,0.72557421875,-0.05742133408784866,0.00855211354792118,0.006108652334660292
1775728161382817000,0.755817138671875,-0.07452555745840073,0.018325956538319588,-0.04153883829712868
1775728161392857300,0.765857421875,-0.0806342139840126,0.02076941914856434,-0.03298672288656235
1775728161402928000,0.77592822265625,-0.07208210229873657,0.01466076634824276,-0.012217304669320583
1775728161412968400,0.785968505859375,-0.06230825558304787,0.009773843921720982,0.0024434609804302454
1775728161423008800,0.7960087890625,-0.06352998316287994,0.00366519158706069,-0.0012217304902151227
1775728161433079600,0.80607958984375,-0.051312681287527084,0.00366519158706069,-0.009773843921720982
1775728161443180800,0.816180908203125,-0.042760565876960754,0.004886921960860491,-0.013439035043120384
1775728161453221000,0.82622119140625,-0.03420845419168472,0.006108652334660292,-0.021991148591041565
1775728161513615400,0.886615478515625,-0.02076941914856434,0.024434609338641167,-0.010995574295520782
1775728161523686100,0.89668603515625,-0.02321287989616394,0.01466076634824276,-0.01710422709584236
1775728161533696000,0.906696044921875,-0.024434609338641167,0.010995574295520782,-0.01466076634824276
1775728161543797200,0.91679736328125,-0.019547687843441963,0.019547687843441963,-0.012217304669320583
1775728161573979100,0.946979248046875,-0.028099801391363144,0.04398229718208313,0.013439035043120384
1775728161604161000,0.9771611328125,-0.04153883829712868,0.01466076634824276,0.03176499158143997
1775728161614231800,0.987231689453125,-0.0403171069920063,0.00733038317412138,0.02076941914856434
1775728161624302600,0.997302490234375,-0.04153883829712868,0.006108652334660292,0.004886921960860491
1775728161634373400,1.007373291015625,-0.04153883829712868,0.013439035043120384,-0.025656340643763542
1775728161644444200,1.017444091796875,-0.039095375686883926,0.03176499158143997,-0.05619960278272629
1775728161654515200,1.02751513671875,-0.03787364438176155,0.042760565876960754,-0.05619960278272629
1775728161684788500,1.05778857421875,-0.04886921867728233,0.006108652334660292,-0.021991148591041565
1775728161694859300,1.067859375,-0.051312681287527084,-0.006108652334660292,-0.018325956538319588
1775728161715000800,1.088000732421875,-0.04398229718208313,-0.009773843921720982,0.00855211354792118
1775728161725071600,1.098071533203125,-0.045204028487205505,-0.004886921960860491,0.00733038317412138
1775728161735081500,1.10808154296875,-0.0403171069920063,-0.0012217304902151227,-0.006108652334660292
1775728161745182700,1.1181826171875,-0.042760565876960754,0.00855211354792118,-0.009773843921720982
1775728161755253500,1.12825341796875,-0.039095375686883926,0.004886921960860491,-0.006108652334660292
1775728161775364600,1.148364501953125,-0.04153883829712868,-0.0012217304902151227,0.01466076634824276
1775728161785466000,1.158466064453125,-0.045204028487205505,-0.0024434609804302454,0.025656340643763542
1775728161795567400,1.1685673828125,-0.03420845419168472,-0.018325956538319588,0.030543262138962746
1775728161805638100,1.17863818359375,-0.028099801391363144,-0.025656340643763542,0.012217304669320583
1775728161815709000,1.188708984375,-0.01710422709584236,-0.024434609338641167,-0.0403171069920063
1775728161825810200,1.19881005859375,-0.00366519158706069,-0.024434609338641167,-0.08796459436416626
1775728161835850500,1.2088505859375,0.01466076634824276,-0.036651913076639175,-0.08429940044879913
1775728161845951700,1.21895166015625,0.028099801391363144,-0.045204028487205505,-0.06475171446800232
1775728161856022500,1.2290224609375,0.009773843921720982,-0.04153883829712868,-0.05009094998240471
1775728161926610000,1.29960986328125,-0.00366519158706069,-0.01466076634824276,-0.13805554807186127
1775728161936619500,1.30961962890625,0,0.028099801391363144,-0.15271630883216858
1775728161946720800,1.319720703125,0.0024434609804302454,0.05253441259264946,-0.18448130786418915
1775728161956791800,1.329791748046875,0.051312681287527084,0.059864792972803116,-0.17104226350784302
1775728161966801400,1.339801513671875,0.01466076634824276,0.06719517707824707,-0.20036379992961884
1775728161987004200,1.360004150390625,-0.01466076634824276,0.06230825558304787,-0.3323107063770294
1775728161997075000,1.370074951171875,-0.03420845419168472,0.05619960278272629,-0.46670106053352356
1775728162007176200,1.38017626953125,-0.042760565876960754,0.06108652427792549,-0.6096435189247131
1775728162017247000,1.3902470703125,-0.051312681287527084,0.06230825558304787,-0.6743952035903931
1775728162027317800,1.40031787109375,-0.04398229718208313,0.04886921867728233,-0.6450737118721008
1775728162037419000,1.4104189453125,-0.03420845419168472,0.03176499158143997,-0.5827654600143433
1775728162047490000,1.420489990234375,-0.05253441259264946,0.00366519158706069,-0.6243042945861816
1775728162057560800,1.430560791015625,-0.0806342139840126,0.012217304669320583,-0.7012733221054077
1775728162087742700,1.46074267578125,-0.06475171446800232,0.013439035043120384,-0.6951646208763123
1775728162097844000,1.470843994140625,-0.03787364438176155,0.00855211354792118,-0.7110471725463867
1775728162107914800,1.480914794921875,-0.015882495790719986,0.010995574295520782,-0.6988298296928406
1775728162117985500,1.490985595703125,0.01710422709584236,0.00855211354792118,-0.6414085030555725
1775728162128056300,1.501056396484375,0.012217304669320583,0,-0.6511823534965515
1775728162138127000,1.511127197265625,0.036651913076639175,0.00855211354792118,-0.7171558141708374
1775728162148198000,1.521197998046875,0.05375614017248154,0.036651913076639175,-0.7586946487426758
1775728162188450600,1.561450439453125,0.03298672288656235,-0.024434609338641167,-0.6414085030555725
1775728162208500700,1.581500732421875,0.019547687843441963,-0.05253441259264946,-0.5338962078094482
1775728162218602000,1.59160205078125,0.02321287989616394,-0.06963863968849182,-0.5082398653030396
1775728162228672800,1.6016728515625,0.024434609338641167,-0.04764748737215996,-0.4899139404296875
1775728162238743600,1.61174365234375,0.05253441259264946,-0.018325956538319588,-0.4447098970413208
1775728162248784000,1.621783935546875,0.05864306539297104,-0.019547687843441963,-0.4544837474822998
1775728162258854700,1.631854736328125,0.028099801391363144,-0.0012217304902151227,-0.4593706727027893
1775728162268925400,1.641925537109375,0.0757472887635231,0.019547687843441963,-0.3933972120285034
1775728162289036500,1.66203662109375,0.07819075137376785,-0.0012217304902151227,-0.37140607833862305
1775728162319249000,1.692248779296875,0.05375614017248154,-0.09407325088977814,-0.5913175344467163
1775728162329319700,1.702319580078125,0.01710422709584236,-0.09529497474431992,-0.6731734871864319
1775728162339421200,1.712421142578125,-0.045204028487205505,-0.0757472887635231,-0.7586946487426758
1775728162349461200,1.722461181640625,0.01466076634824276,-0.06475171446800232,-0.8356636762619019
1775728162359501600,1.73250146484375,0.030543262138962746,-0.021991148591041565,-0.8710938692092896
1775728162369511400,1.742511474609375,0.028099801391363144,0,-0.8588765263557434
1775728162379582200,1.752582275390625,0.036651913076639175,0.0024434609804302454,-0.9236282706260681
1775728162389653000,1.762653076171875,0.03420845419168472,0.021991148591041565,-1.0140362977981567
1775728162409794600,1.782794677734375,0.04886921867728233,-0.02076941914856434,-1.1129964590072632
1775728162429966800,1.802966796875,0.07208210229873657,0.02321287989616394,-0.9150761365890503
1775728162440037600,1.81303759765625,0.08429940044879913,0.02076941914856434,-0.7745771408081055
1775728162450139000,1.823138916015625,0.059864792972803116,0.00366519158706069,-0.6963863968849182
1775728162460179200,1.83317919921875,0.03787364438176155,-0.02076941914856434,-0.7024950385093689
1775728162470250000,1.84325,0.03176499158143997,-0.00855211354792118,-0.7672467231750488
1775728162480320800,1.85332080078125,0.02076941914856434,-0.013439035043120384,-0.7855727076530457
1775728162510472200,1.88347216796875,0.06963863968849182,-0.04886921867728233,-0.836885392665863
1775728162520543000,1.89354296875,0.04764748737215996,-0.04398229718208313,-0.8295549750328064
1775728162530583300,1.903583251953125,0.06108652427792549,-0.02932153269648552,-0.8246681094169617
1775728162540654000,1.913654052734375,0.06963863968849182,-0.024434609338641167,-0.8784242272377014
1775728162550724900,1.923724853515625,0.0354301854968071,-0.0354301854968071,-0.978606104850769
1775728162560734500,1.933734375,0.024434609338641167,-0.042760565876960754,-1.0555751323699951
1775728162570805200,1.94380517578125,0.024434609338641167,-0.042760565876960754,-1.0555751323699951
1775728162580845600,1.953845458984375,0.010995574295520782,-0.05742133408784866,-1.1459832191467285
1775728162590916400,1.963916259765625,0.0024434609804302454,-0.09896016865968704,-1.2388347387313843
1775728162611027500,1.98402734375,0.021991148591041565,-0.33475416898727417,-1.253495454788208
1775728162641239800,2.01423974609375,0.13439035415649414,-0.5253441333770752,-1.5332717895507812
1775728162651341300,2.02434130859375,0.13439035415649414,-0.5253441333770752,-1.5332717895507812
1775728162661412000,2.034412109375,0.16982053220272064,-0.5277875661849976,-1.5638149976730347
1775728162671513300,2.044513427734375,0.2028072625398636,-0.47280970215797424,-1.5369369983673096
1775728162681553700,2.0545537109375,0.24923302233219147,-0.40194934606552124,-1.4758504629135132
1775728162691655000,2.064655029296875,0.27611109614372253,-0.32620203495025635,-1.2424999475479126
1775728162711827200,2.0848271484375,0.42149701714515686,-0.3225368559360504,-0.6536257863044739
1775728162731968800,2.10496875,0.41661009192466736,-0.21135938167572021,-0.8723155856132507
1775728162742039600,2.11503955078125,0.5253441333770752,-0.15271630883216858,-1.0714576244354248
1775728162752140800,2.125140869140625,0.5180137157440186,-0.14294247329235077,-1.264491081237793
1775728162762211600,2.135211669921875,0.4043927788734436,-0.12828169763088226,-1.4330898523330688
1775728162772282400,2.145282470703125,0.40683624148368835,-0.10995574295520782,-1.540602207183838
1775728162782322700,2.15532275390625,0.42149701714515686,-0.05375614017248154,-1.5076154470443726
1775728162792363000,2.165363037109375,0.3579670190811157,0.0024434609804302454,-1.4086552858352661
1775728162812443600,2.185443603515625,0.24923302233219147,0.06719517707824707,-1.1704177856445312
1775728162842686500,2.2156865234375,0.23090706765651703,-0.12950342893600464,-1.340238332748413
1775728162852757200,2.22575732421875,0.11484266817569733,-0.24678955972194672,-1.3671164512634277
1775728162862797600,2.235797607421875,0.004886921960860491,-0.2932153046131134,-1.4672982692718506
1775728162872898800,2.24589892578125,0.07330382615327835,-0.28588494658470154,-1.5699236392974854
1775728162882969600,2.255969482421875,0.04153883829712868,-0.2370157092809677,-1.5650367736816406
1775728162893040400,2.266040283203125,0.024434609338641167,-0.25534167885780334,-1.4746286869049072
1775728162903111200,2.276111083984375,0.0659734457731247,-0.28588494658470154,-1.3866641521453857
1775728162923222300,2.29622216796875,-0.02321287989616394,-0.24923302233219147,-1.1557570695877075
1775728162943425000,2.316425048828125,-0.06230825558304787,-0.23335053026676178,-1.0494664907455444
1775728162953495800,2.326495849609375,-0.06352998316287994,-0.31031954288482666,-1.0641272068023682
1775728162963566600,2.336566650390625,-0.00366519158706069,-0.32986724376678467,-0.9443976879119873
1775728162973637400,2.346637451171875,0.08307767659425735,-0.24068090319633484,-0.7929030656814575
1775728162983708200,2.356708251953125,0.11972958594560623,-0.10018189996480942,-0.6902777552604675
1775728162993779000,2.366779052734375,0.10018189996480942,-0.01710422709584236,-0.608421802520752
1775728163003849700,2.376849609375,0.04642575979232788,0,-0.49357911944389343
1775728163034001200,2.407001220703125,0.03298672288656235,0.13805554807186127,-0.0403171069920063
1775728163044072000,2.417072021484375,0.02321287989616394,0.18081611394882202,-0.00855211354792118
1775728163054173200,2.427173095703125,0.02076941914856434,0.18081611394882202,0.024434609338641167
1775728163064183000,2.43718310546875,0.042760565876960754,0.17959438264369965,0.09407325088977814
1775728163074284300,2.4472841796875,0.05619960278272629,0.18325957655906677,0.14416420459747314
1775728163084355000,2.45735498046875,0.05375614017248154,0.17959438264369965,0.15393804013729095
1775728163094425900,2.46742578125,0.039095375686883926,0.16004669666290283,0.14782938361167908
1775728163104435700,2.477435791015625,0.00855211354792118,0.13805554807186127,0.13072516024112701
1775728163114476000,2.48747607421875,-0.02932153269648552,0.10751228034496307,0.10873401165008545
1775728163124577300,2.497577392578125,-0.0659734457731247,0.06719517707824707,0.1062905490398407
1775728163144688400,2.5176884765625,-0.07452555745840073,0.06108652427792549,0.18081611394882202
1775728163154728700,2.527728759765625,-0.07330382615327835,0.09651670604944229,0.22479841113090515
1775728163164738600,2.537738525390625,-0.05619960278272629,0.11239920556545258,0.2773328125476837
1775728163174809300,2.547809326171875,-0.04153883829712868,0.10995574295520782,0.294437050819397
1775728163184880000,2.557880126953125,-0.04398229718208313,0.09162978827953339,0.28099802136421204
1775728163194981400,2.5679814453125,-0.05009094998240471,0.06841690838336945,0.2577851414680481
1775728163204991200,2.5779912109375,-0.0354301854968071,0.06108652427792549,0.25045475363731384
1775728163215092500,2.588092529296875,-0.03420845419168472,0.059864792972803116,0.24434609711170197
1775728163235203600,2.60820361328125,-0.05375614017248154,0.030543262138962746,0.2724458873271942
1775728163265355000,2.63835498046875,-0.0354301854968071,0.05619960278272629,0.22479841113090515
1775728163275395000,2.64839501953125,-0.0354301854968071,0.05619960278272629,0.14416420459747314
1775728163285435400,2.658435302734375,-0.04398229718208313,0.05375614017248154,0.07452555745840073
1775728163295506200,2.668506103515625,-0.018325956538319588,0.0403171069920063,0.045204028487205505
1775728163305546500,2.67854638671875,0.00366519158706069,0.01466076634824276,0.059864792972803116
1775728163315617300,2.6886171875,0.00855211354792118,0.013439035043120384,0.09285151958465576
1775728163325688000,2.69868798828125,0.01466076634824276,0.024434609338641167,0.12217304855585098
1775728163345830000,2.718829833984375,0.0012217304902151227,0.05009094998240471,0.11972958594560623
1775728163355900700,2.728900634765625,-0.015882495790719986,0.04153883829712868,0.08674286305904388
1775728163386113000,2.759113037109375,-0.025656340643763542,-0.01466076634824276,0.10262536257505417
1775728163396183800,2.769183837890625,-0.013439035043120384,0.012217304669320583,0.08429940044879913
1775728163406254600,2.779254638671875,-0.0012217304902151227,0.04642575979232788,0.06963863968849182
1775728163416295000,2.789294921875,0.004886921960860491,0.05864306539297104,0.0757472887635231
1775728163426396200,2.799396240234375,0.00733038317412138,0.05619960278272629,0.08796459436416626
1775728163436467000,2.809467041015625,0,0.03787364438176155,0.09040805697441101
1775728163456639000,2.829638916015625,-0.051312681287527084,0.0012217304902151227,0.08674286305904388
1775728163466710000,2.8397099609375,-0.03787364438176155,-0.0024434609804302454,0.06841690838336945
1775728163476811300,2.849811279296875,-0.04153883829712868,0.004886921960860491,0.042760565876960754
1775728163486820900,2.85982080078125,-0.036651913076639175,0.02687807008624077,0.019547687843441963
1775728163496922400,2.86992236328125,-0.01710422709584236,0.04398229718208313,0.013439035043120384
1775728163506993200,2.8799931640625,-0.00366519158706069,0.04642575979232788,0.02321287989616394
1775728163517064000,2.89006396484375,0.0024434609804302454,0.04153883829712868,0.0403171069920063
1775728163527104300,2.900104248046875,-0.0012217304902151227,0.02321287989616394,0.07330382615327835
1775728163557347000,2.93034716796875,-0.010995574295520782,0.05375614017248154,0.06841690838336945
1775728163567357000,2.94035693359375,-0.013439035043120384,0.051312681287527084,0.07819075137376785
1775728163577458200,2.950458251953125,-0.00855211354792118,0.0354301854968071,0.09651670604944229
1775728163587529000,2.960529052734375,-0.00855211354792118,0.03420845419168472,0.1014036312699318
1775728163597569300,2.9705693359375,-0.006108652334660292,0.02321287989616394,0.11850785464048386
1775728163607579100,2.9805791015625,-0.0012217304902151227,0.012217304669320583,0.12217304855585098
1775728163617619200,2.990619140625,-0.012217304669320583,0.00855211354792118,0.09407325088977814
1775728163627690200,3.000690185546875,-0.02932153269648552,0.01466076634824276,0.07696902006864548
1775728163637761000,3.010760986328125,-0.039095375686883926,0.0354301854968071,0.07819075137376785
1775728163657872100,3.0308720703125,-0.010995574295520782,0.08674286305904388,0.1722639948129654
1775728163667912200,3.040912109375,0.018325956538319588,0.08552113175392151,0.1771509200334549
1775728163678013700,3.051013671875,-0.015882495790719986,0.06475171446800232,0.1270599663257599
1775728163688054000,3.061053955078125,-0.012217304669320583,0.019547687843441963,0.10751228034496307
1775728163698155300,3.0711552734375,-0.010995574295520782,-0.00733038317412138,0.06352998316287994
1775728163708226000,3.08122607421875,-0.02076941914856434,-0.010995574295520782,0.015882495790719986
1775728163718296800,3.091296875,-0.009773843921720982,-0.00366519158706069,-0.018325956538319588
1775728163728337200,3.101337158203125,-0.0024434609804302454,0.006108652334660292,-0.04642575979232788
1775728163738438400,3.1114384765625,-0.018325956538319588,0.013439035043120384,-0.0659734457731247
1775728163758549500,3.131549560546875,-0.02932153269648552,0.01466076634824276,0.02932153269648552
1775728163788731400,3.1617314453125,-0.04642575979232788,0.036651913076639175,-0.04642575979232788
1775728163798802200,3.17180224609375,-0.042760565876960754,0.015882495790719986,-0.0659734457731247
1775728163808842500,3.181842529296875,-0.02687807008624077,-0.004886921960860491,-0.06108652427792549
1775728163818913300,3.191913330078125,-0.018325956538319588,0.004886921960860491,-0.036651913076639175
1775728163828984000,3.201984130859375,-0.01710422709584236,0.02076941914856434,0.00366519158706069
1775728163839054800,3.212054931640625,-0.0024434609804302454,0.019547687843441963,0.04764748737215996
1775728163849125600,3.222125732421875,0.00366519158706069,0.018325956538319588,0.07330382615327835
1775728163879307500,3.2523076171875,0.00855211354792118,0.028099801391363144,0.042760565876960754
1775728163889287000,3.262286865234375,0.018325956538319588,0.012217304669320583,0.05009094998240471
1775728163899388200,3.27238818359375,0.02076941914856434,0.00366519158706069,0.0403171069920063
1775728163909459000,3.282458984375,0.01710422709584236,-0.00855211354792118,0.01710422709584236
1775728163919529700,3.29252978515625,0.01466076634824276,-0.013439035043120384,-0.0024434609804302454
1775728163929508900,3.3025087890625,0.02076941914856434,-0.0012217304902151227,-0.00855211354792118
1775728163939610400,3.3126103515625,0.03420845419168472,0.010995574295520782,-0.006108652334660292
1775728163979924000,3.352924072265625,0.0757472887635231,0.0659734457731247,-0.05742133408784866
1775728164000004600,3.373004638671875,0.08429940044879913,0.04153883829712868,-0.1563815027475357
1775728164010075400,3.383075439453125,0.08429940044879913,0.04153883829712868,-0.1563815027475357
1775728164020115700,3.39311572265625,0.09285151958465576,0.012217304669320583,-0.1771509200334549
1775728164030217000,3.403217041015625,0.10873401165008545,-0.01466076634824276,-0.22846360504627228
1775728164040287700,3.413287841796875,0.11484266817569733,-0.05864306539297104,-0.31520646810531616
1775728164070500000,3.4435,0.07819075137376785,-0.30543261766433716,-0.9224064946174622
1775728164080540400,3.45354052734375,0.11239920556545258,-0.43737950921058655,-1.0396926403045654
1775728164090611200,3.463611083984375,0.15027284622192383,-0.608421802520752,-1.0323622226715088
1775728164100651500,3.473651611328125,0.15515977144241333,-0.7257078886032104,-0.9480628371238708
1775728164110631000,3.483630859375,0.22846360504627228,-0.7660250067710876,-0.6585127115249634
1775728164120732200,3.493732177734375,0.4190535545349121,-0.8087855577468872,-0.07452555745840073
1775728164130772500,3.5037724609375,0.6548475623130798,-0.8906415104866028,0.607200026512146
1775728164140873700,3.513873779296875,0.8735373020172119,-0.9822713136672974,1.0971139669418335
1775728164191227600,3.5642275390625,1.5711454153060913,-0.9566149711608887,1.588249683380127
1775728164201298400,3.57429833984375,1.7079792022705078,-0.970054030418396,1.6688838005065918
1775728164211369200,3.584369140625,1.8081611394882202,-0.9443976879119873,1.63467538356781
1775728164221440000,3.59443994140625,1.8655824661254883,-0.8319984674453735,1.5430456399917603
1775728164231511000,3.604510986328125,1.9254472255706787,-0.6914994716644287,1.4428637027740479
1775728164241612300,3.6146123046875,2.0146336555480957,-0.5607742667198181,1.3573426008224487
1775728164251652600,3.624652587890625,2.0842721462249756,-0.47769662737846375,1.205847978591919
1775728164281865000,3.654864990234375,2.1905627250671387,-0.09773843735456467,0.7684684991836548
1775728164291874800,3.664874755859375,2.2479841709136963,-0.03787364438176155,0.8491026759147644
1775728164301976000,3.67497607421875,2.2760839462280273,0.0354301854968071,0.8820894360542297
1775728164312046800,3.685046875,2.2687535285949707,0.13072516024112701,0.7806857824325562
1775728164322148000,3.695148193359375,2.2015583515167236,0.22113321721553802,0.5583308339118958
1775728164332188400,3.7051884765625,2.1062633991241455,0.3127630054950714,0.3139847218990326
1775728164342228700,3.715228759765625,2.0476202964782715,0.4129449129104614,0.1466076523065567
1775728164352269000,3.72526904296875,2.032959461212158,0.485027015209198,0.08307767659425735
1775728164402653400,3.7756533203125,1.968207836151123,0.6597344875335693,-0.7061602473258972
1775728164412724200,3.78572412109375,1.9511035680770874,0.6829473376274109,-1.0751228332519531
1775728164422795000,3.795794921875,1.9352210760116577,0.7428121566772461,-1.3854423761367798
1775728164432865800,3.80586572265625,1.949881911277771,0.7635815739631653,-1.519832730293274
1775728164442936800,3.815936767578125,1.9339994192123413,0.6914994716644287,-1.588249683380127
1775728164453007600,3.826007568359375,1.8936822414398193,0.5925393104553223,-1.6701055765151978
1775728164463108900,3.83610888671875,1.8484781980514526,0.5106833577156067,-1.8301522731781006
1775728164483281000,3.856281005859375,1.7006487846374512,0.4178318381309509,-2.3860397338867188
1775728164513432300,3.886432373046875,1.3915510177612305,0.3933972120285034,-3.349985122680664
1775728164533574000,3.906573974609375,1.2278391122817993,0.3933972120285034,-3.637091636657715
1775728164543614200,3.9166142578125,1.1594222784042358,0.3787364661693573,-3.7079520225524902
1775728164553624000,3.9266240234375,1.0836749076843262,0.36529740691185,-3.7507126331329346
1775728164563725300,3.936725341796875,1.0054842233657837,0.3494149148464203,-3.7922513484954834
1775728164573765600,3.946765625,0.9260717034339905,0.3323107063770294,-3.827681541442871
1775728164593907200,3.9669072265625,0.7806857824325562,0.3433062732219696,-3.7446038722991943
1775728164603978000,3.97697802734375,0.7098253965377808,0.37140607833862305,-3.5882225036621094
1775728164614048800,3.987048828125,0.6279694437980652,0.37629300355911255,-3.363424062728882
1775728164624119600,3.99711962890625,0.5363397002220154,0.3494149148464203,-3.1227431297302246
1775728164634190300,4.0071904296875,0.45204028487205505,0.3176499307155609,-2.8857274055480957
1775728164644261000,4.01726123046875,0.38240164518356323,0.31520646810531616,-2.6340508460998535
1775728164654332000,4.027331787109375,0.3188716471195221,0.3530801236629486,-2.3579399585723877
1775728164694615300,4.067615234375,0.012217304669320583,0.4141666293144226,-1.585806131362915
1775728164704655400,4.0776552734375,-0.04398229718208313,0.42760565876960754,-1.3915510177612305
1775728164714695700,4.08769580078125,-0.08674286305904388,0.4386012554168701,-1.1899654865264893
1775728164724797000,4.097796875,-0.1258382350206375,0.45326200127601624,-0.9969320893287659
1775728164734837200,4.107837158203125,-0.16493362188339233,0.455705463886261,-0.8258898258209229
1775728164744938800,4.117938720703125,-0.20525072515010834,0.4447098970413208,-0.6682865619659424
1775728164755009500,4.128009521484375,-0.2382374405860901,0.4300491213798523,-0.4911356568336487
1775728164765110800,4.13811083984375,-0.27122417092323303,0.3982841372489929,-0.32009339332580566
1775728164815342600,4.188342529296875,-0.5766568183898926,-0.06841690838336945,-0.21991148591041565
1775728164825444000,4.198444091796875,-0.616973876953125,-0.1514945775270462,-0.28955012559890747
1775728164835515000,4.208514892578125,-0.6829473376274109,-0.25045475363731384,-0.384845107793808
1775728164845616000,4.2186162109375,-0.7538077235221863,-0.36163222789764404,-0.4764748811721802
1775728164855687000,4.22868701171875,-0.817337691783905,-0.46670106053352356,-0.5448917746543884
1775728164865757700,4.2387578125,-0.8857545852661133,-0.5693264007568359,-0.608421802520752
1775728164875828500,4.248828369140625,-0.9468411207199097,-0.6499606370925903,-0.6719517707824707
1775728164885868800,4.258868896484375,-0.9847147464752197,-0.6805039048194885,-0.7342600226402283
1775728164916112000,4.28911181640625,-0.9321803450584412,-0.608421802520752,-0.5400048494338989
1775728164926121500,4.29912158203125,-0.8833111524581909,-0.616973876953125,-0.3530801236629486
1775728164936192300,4.309192138671875,-0.8588765263557434,-0.6829473376274109,-0.1563815027475357
1775728164946263000,4.319262939453125,-0.8747590184211731,-0.7965682744979858,0.018325956538319588
1775728164956333800,4.329333740234375,-0.9187413454055786,-0.9199630618095398,0.16249015927314758
1775728164966404600,4.339404541015625,-0.9920451641082764,-1.0384708642959595,0.2773328125476837
1775728164976475600,4.3494755859375,-1.0897835493087769,-1.1362093687057495,0.3494149148464203
1775728164996647700,4.369647705078125,-1.350012183189392,-1.2852604389190674,0.37629300355911255
1775728165016789200,4.389789306640625,-1.6481144428253174,-1.292590856552124,0.2687807083129883
1775728165026829600,4.39982958984375,-1.7519614696502686,-1.2290608882904053,0.2565633952617645
1775728165036870000,4.409869873046875,-1.7983872890472412,-1.1398745775222778,0.3139847218990326
1775728165046940700,4.419940673828125,-1.8008307218551636,-1.0836749076843262,0.44226643443107605
1775728165057011500,4.430011474609375,-1.794722080230713,-1.0910053253173828,0.6194173693656921
1775728165067112700,4.44011279296875,-1.7715091705322266,-1.1313223838806152,0.8344419002532959
1775728165087223800,4.460223876953125,-1.6811012029647827,-1.2229522466659546,1.2327260971069336
1775728165097325000,4.470324951171875,-1.635897159576416,-1.2791517972946167,1.3439035415649414
1775728165107426600,4.480426513671875,-1.6004669666290283,-1.3487904071807861,1.3927727937698364
1775728165117466600,4.490466552734375,-1.5638149976730347,-1.4086552858352661,1.3732250928878784
1775728165127537400,4.500537353515625,-1.5125023126602173,-1.4306464195251465,1.2779301404953003
1775728165137639000,4.510638916015625,-1.470963478088379,-1.4282029867172241,1.1166616678237915
1775728165147709700,4.520709716796875,-1.4611896276474,-1.4538593292236328,0.901637077331543
1775728165157780500,4.530780517578125,-1.4721852540969849,-1.518610954284668,0.6524040699005127
1775728165167881700,4.5408818359375,-1.4782938957214355,-1.5735888481140137,0.4105014503002167
1775728165177922000,4.550922119140625,-1.4685200452804565,-1.595579981803894,0.19792033731937408
1775728165208073500,4.581073486328125,-1.3842206001281738,-1.4929546117782593,-0.19425514340400696
1775728165228215000,4.601215087890625,-1.2192870378494263,-1.3683381080627441,0.04764748737215996
1775728165238255400,4.61125537109375,-1.1154398918151855,-1.2950342893600464,0.31154128909111023
1775728165248295700,4.621295654296875,-1.0115928649902344,-1.2278391122817993,0.5949827432632446
1775728165258336000,4.6313359375,-0.8991936445236206,-1.156978726387024,0.8918632864952087
1775728165268406800,4.64140673828125,-0.7709119319915771,-1.0848966836929321,1.186300277709961
1775728165278477600,4.6514775390625,-0.6548475623130798,-1.0152580738067627,1.4758504629135132
1775728165288578800,4.661578857421875,-0.5204572081565857,-0.9077457785606384,1.8887953758239746
1775728165298649600,4.671649658203125,-0.34208452701568604,-0.8283332586288452,2.433687210083008
1775728165318730200,4.691730224609375,-0.13439035415649414,-0.7709119319915771,2.8466320037841797
1775728165359043800,4.7320439453125,0.042760565876960754,-0.10262536257505417,1.703092336654663
1775728165369114600,4.742114501953125,0.10995574295520782,0.03787364438176155,1.4306464195251465
1775728165379155000,4.752155029296875,0.17837265133857727,0.21135938167572021,1.1545352935791016
1775728165399296500,4.772296630859375,0.35063666105270386,0.6230825781822205,0.646295428276062
1775728165409397800,4.782397705078125,0.4593706727027893,0.836885392665863,0.44715335965156555
1775728165419438000,4.79243798828125,0.5974262356758118,1.0641272068023682,0.28466320037841797
1775728165429478400,4.802478515625,0.7574729323387146,1.291369080543518,0.15882496535778046
1775728165439549200,4.812549072265625,0.940732479095459,1.4868459701538086,0.0708603709936142
1775728165449620000,4.822619873046875,1.1313223838806152,1.6371188163757324,-0.059864792972803116
1775728165459690800,4.832690673828125,1.3194689750671387,1.7629570960998535,-0.2724458873271942
1775728165469792300,4.842792236328125,1.5210545063018799,1.852143406867981,-0.5265658497810364
1775728165479893500,4.8528935546875,1.5210545063018799,1.852143406867981,-0.5265658497810364
1775728165489964300,4.86296435546875,1.7238616943359375,1.9156733751296997,-0.7855727076530457
1775728165520115700,4.89311572265625,2.269975185394287,2.2259929180145264,-1.9999728202819824
1775728165530217000,4.903217041015625,2.394591808319092,2.3017401695251465,-2.5387558937072754
1775728165540257300,4.91325732421875,2.478891134262085,2.3432791233062744,-3.045774221420288
1775728165550328000,4.923328125,2.546086311340332,2.3322834968566895,-3.4513885974884033
1775728165560398800,4.93339892578125,2.618168354034424,2.205223560333252,-4.018271446228027
1775728165570469600,4.9434697265625,2.618168354034424,2.205223560333252,-4.018271446228027
1775728165580510000,4.953510009765625,2.6193902492523193,2.140471935272217,-4.223522186279297
1775728165610691800,4.98369189453125,2.5925121307373047,1.9022343158721924,-4.006054401397705
1775728165620732200,4.993732177734375,2.5082128047943115,1.8191566467285156,-3.7873644828796387
1775728165630833400,5.00383349609375,2.415361166000366,1.7507398128509521,-3.5332446098327637
1775728165640904200,5.013904296875,2.3102922439575195,1.6859880685806274,-3.2510247230529785
1775728165650975000,5.02397509765625,2.216219186782837,1.635897159576416,-2.92848801612854
1775728165661076500,5.034076416015625,2.1868975162506104,1.6041321754455566,-2.450791358947754
1775728165671116500,5.044116455078125,2.1868975162506104,1.5369369983673096,-1.8753563165664673
1775728165681156900,5.054156982421875,2.1233675479888916,1.4477506875991821,-1.4098769426345825
1775728165691227600,5.0642275390625,2.0256290435791016,1.370781660079956,-1.1520918607711792
1775728165761723400,5.134723388671875,1.274264931678772,0.9395107626914978,-2.0952677726745605
1775728165791905300,5.1649052734375,0.96883225440979,0.6866125464439392,-2.1697933673858643
1775728165801945600,5.174945556640625,0.8674286603927612,0.6389650702476501,-2.138028383255005
1775728165812016400,5.185016357421875,0.7709119319915771,0.607200026512146,-2.0842721462249756
1775728165822087200,5.195087158203125,0.6682865619659424,0.5754350423812866,-2.007303237915039
1775728165832158000,5.205157958984375,0.5595525503158569,0.5412266254425049,-1.9254472255706787
1775728165842198300,5.2151982421875,0.4447098970413208,0.4960225820541382,-1.8570303916931152
1775728165852299500,5.225299560546875,0.3188716471195221,0.43127086758613586,-1.8277088403701782
1775728165862370300,5.235370361328125,0.18936823308467865,0.3677408695220947,-1.8252654075622559
1775728165872471600,5.245471435546875,0.0708603709936142,0.3396410644054413,-1.8118263483047485
1775728165882542300,5.255542236328125,-0.0354301854968071,0.33475416898727417,-1.7654005289077759
1775728165892582700,5.265582763671875,-0.13561208546161652,0.32986724376678467,-1.655444860458374
1775728165902653400,5.2756533203125,-0.21135938167572021,0.3090978264808655,-1.4428637027740479
1775728165932865800,5.30586572265625,-0.3799581825733185,0.22479841113090515,-0.6878342628479004
1775728165942906000,5.315906005859375,-0.4398229718208313,0.1966986060142517,-0.5216789245605469
1775728165953007600,5.326007568359375,-0.4948008358478546,0.14049901068210602,-0.3677408695220947
1775728165963078400,5.336078369140625,-0.5412266254425049,0.10018189996480942,-0.18325957655906677
1775728165973118500,5.346118408203125,-0.5803219676017761,0.08796459436416626,0.019547687843441963
1775728165983158800,5.35615869140625,-0.608421802520752,0.0708603709936142,0.20525072515010834
1775728165993199000,5.36619921875,-0.6352998614311218,0.010995574295520782,0.3677408695220947
1775728166003239400,5.376239501953125,-0.6695083379745483,-0.08796459436416626,0.5192354321479797
1775728166033390800,5.406390869140625,-0.8344419002532959,-0.4043927788734436,0.9187413454055786
1775728166043400400,5.416400390625,-0.9028588533401489,-0.4251621961593628,0.9639453291893005
1775728166053471500,5.426471435546875,-0.978606104850769,-0.4447098970413208,0.9969320893287659
1775728166063481000,5.436481201171875,-1.0421360731124878,-0.46547931432724,1.0604621171951294
1775728166073552000,5.4465517578125,-1.086118459701538,-0.47769662737846375,1.1484266519546509
1775728166083622700,5.45662255859375,-1.1178834438323975,-0.50335294008255,1.2388347387313843
1775728166093724200,5.46672412109375,-1.1496484279632568,-0.5546656250953674,1.2791517972946167
1775728166103764200,5.47676416015625,-1.1899654865264893,-0.6279694437980652,1.2767083644866943
1775728166123784000,5.496783935546875,-1.2877039909362793,-0.8637634515762329,1.2864822149276733
1775728166164067000,5.537067138671875,-1.398881435394287,-1.207069754600525,1.5931365489959717
1775728166184208600,5.557208740234375,-1.5137240886688232,-1.4062118530273438,1.7507398128509521
1775728166194279400,5.567279541015625,-1.5943583250045776,-1.5125023126602173,1.7959438562393188
1775728166204380700,5.577380615234375,-1.6896532773971558,-1.6102408170700073,1.7959438562393188
1775728166214421000,5.5874208984375,-1.7849482297897339,-1.7067575454711914,1.7617353200912476
1775728166234501600,5.607501708984375,-1.9266690015792847,-1.8863518238067627,1.6859880685806274
1775728166244542000,5.6175419921875,-1.9694294929504395,-1.9633208513259888,1.6676621437072754
1775728166254612700,5.62761279296875,-1.9816468954086304,-2.02929425239563,1.6591099500656128
1775728166264653000,5.637653076171875,-1.9547687768936157,-2.0586159229278564,1.6505578756332397
1775728166274723800,5.647723876953125,-1.8973474502563477,-2.0586159229278564,1.635897159576416
1775728166284703000,5.657702880859375,-1.8387043476104736,-2.0537290573120117,1.5968017578125
1775728166294804500,5.667804443359375,-1.8008307218551636,-2.070833206176758,1.5149458646774292
1775728166304875300,5.677875244140625,-1.794722080230713,-2.13314151763916,1.3927727937698364
1775728166314915600,5.68791552734375,-1.803274154663086,-2.2064452171325684,1.23394775390625
1775728166345066800,5.718066650390625,-1.7983872890472412,-2.22477126121521,0.6243042945861816
1775728166355107000,5.728107177734375,-1.7922786474227905,-2.185675859451294,0.44593164324760437
1775728166375218200,5.74821826171875,-1.7776178121566772,-2.0476202964782715,0.21868975460529327
1775728166385289000,5.7582890625,-1.7556266784667969,-1.9535470008850098,0.17470745742321014
1775728166395359700,5.76835986328125,-1.7348573207855225,-1.8545868396759033,0.1612684279680252
1775728166405339100,5.778339111328125,-1.7189748287200928,-1.7678439617156982,0.16004669666290283
1775728166415410000,5.788409912109375,-1.7116444110870361,-1.6994271278381348,0.1466076523065567
1775728166455632100,5.828632080078125,-1.6200146675109863,-1.3866641521453857,0.14905111491680145
1775728166465703000,5.838702880859375,-1.5564846992492676,-1.2779301404953003,0.17959438264369965
1775728166475773700,5.848773681640625,-1.4685200452804565,-1.1679743528366089,0.2272418737411499
1775728166485783300,5.858783203125,-1.3976596593856812,-1.0946705341339111,0.2968805134296417
1775728166495884800,5.868884765625,-1.330464482307434,-1.0152580738067627,0.3543018400669098
1775728166505924900,5.8789248046875,-1.2376129627227783,-0.9150761365890503,0.3689626157283783
1775728166515965200,5.888965087890625,-1.1301007270812988,-0.7929030656814575,0.3384193480014801
1775728166525944600,5.898944580078125,-1.018923282623291,-0.6524040699005127,0.2834414839744568
1775728166546086100,5.919086181640625,-0.7476990818977356,-0.3225368559360504,0.18936823308467865
1775728166576329000,5.949328857421875,-0.25045475363731384,0.2028072625398636,0.10751228034496307
1775728166586338800,5.9593388671875,-0.08185594528913498,0.38240164518356323,0.051312681287527084
1775728166596409600,5.96940966796875,0.10751228034496307,0.5852088928222656,-0.00366519158706069
1775728166606419500,5.97941943359375,0.33719760179519653,0.8295549750328064,-0.051312681287527084
1775728166616520700,5.989520751953125,0.5815436840057373,1.0800096988677979,-0.0708603709936142
1775728166626591500,5.999591552734375,0.8222246170043945,1.3170254230499268,-0.05864306539297104
1775728166636692700,6.009692626953125,1.0726794004440308,1.5344934463500977,-0.025656340643763542
1775728166666874600,6.03987451171875,1.9083430767059326,2.1954495906829834,0.06108652427792549
1775728166687047000,6.060046875,2.5143213272094727,2.4837779998779297,-0.10506882518529892
1775728166697117700,6.07011767578125,2.7146852016448975,2.6120598316192627,-0.26022860407829285
1775728166707188500,6.0801884765625,2.917492389678955,2.6975808143615723,-0.475253164768219
1775728166727360500,6.100360595703125,3.3597588539123535,2.8710665702819824,-1.1826350688934326
1775728166747471600,6.1204716796875,3.654195785522461,2.9407052993774414,-1.949881911277771
1775728166757572900,6.13057275390625,3.7336084842681885,2.917492389678955,-2.2675318717956543
1775728166767613200,6.14061328125,3.7788124084472656,2.880840539932251,-2.5143213272094727
1775728166817936600,6.1909365234375,3.732386589050293,2.7476718425750732,-2.700024366378784
1775728166827946500,6.200946533203125,3.6505308151245117,2.6670377254486084,-2.4666738510131836
1775728166918522600,6.291522705078125,1.5308283567428589,0.8014551997184753,-1.7360789775848389
1775728166928623900,6.301623779296875,1.2620476484298706,0.6499606370925903,-1.9694294929504395
1775728167009160000,6.382159912109375,-0.1966986060142517,0.09285151958465576,-2.7366762161254883
1775728167029179400,6.402179443359375,-0.2431243658065796,0.05864306539297104,-2.087937355041504
1775728167039280600,6.41228076171875,-0.24190263450145721,-0.0024434609804302454,-1.7531832456588745
1775728167099522300,6.472522216796875,-0.0806342139840126,0.028099801391363144,0.3176499307155609
1775728167119694600,6.492694580078125,-0.0806342139840126,0.12339477986097336,0.9822713136672974
1775728167129704200,6.5027041015625,-0.10751228034496307,0.1771509200334549,1.166752576828003
1775728167139775000,6.51277490234375,-0.15027284622192383,0.22357667982578278,1.2498302459716797
1775728167149815300,6.522815185546875,-0.19914206862449646,0.24190263450145721,1.29381263256073
1775728167159825200,6.5328251953125,-0.24923302233219147,0.21624629199504852,1.3145819902420044
1775728167169896000,6.54289599609375,-0.28955012559890747,0.16982053220272064,1.3377948999404907
1775728167220127700,6.593127685546875,-0.3335324227809906,-0.1319468915462494,1.3426817655563354
1775728167230229200,6.603229248046875,-0.3384193480014801,-0.21380282938480377,1.2327260971069336
1775728167240300000,6.613300048828125,-0.37751471996307373,-0.33108896017074585,1.1716395616531372
1775728167250370800,6.623370849609375,-0.4349360466003418,-0.46303585171699524,1.1630873680114746
1775728167270451500,6.643451416015625,-0.5839871764183044,-0.6890559792518616,1.076344609260559
1775728167310734600,6.683734619140625,-0.9285151958465576,-0.7171558141708374,0.4740314185619354
1775728167320805400,6.693805419921875,-0.960280179977417,-0.6902777552604675,0.4251621961593628
1775728167330845700,6.703845703125,-0.9566149711608887,-0.675616979598999,0.49357911944389343
1775728167340916500,6.71391650390625,-0.9126327037811279,-0.6805039048194885,0.6890559792518616
1775728167350987300,6.7239873046875,-0.8747590184211731,-0.7440338730812073,0.96883225440979
1775728167361058000,6.73405810546875,-0.911410927772522,-0.8979719281196594,1.2107349634170532
1775728167371128800,6.74412890625,-1.0152580738067627,-1.0897835493087769,1.3622294664382935
1775728167381199600,6.75419970703125,-1.147204875946045,-1.2510520219802856,1.4269812107086182
1775728167421513500,6.794513427734375,-1.8020524978637695,-1.4269812107086182,1.4245377779006958
1775728167431584300,6.804584228515625,-1.9792033433914185,-1.3939944505691528,1.4379768371582031
1775728167441655000,6.814655029296875,-2.1282544136047363,-1.3439035415649414,1.4611896276474
1775728167451695400,6.8246953125,-2.2479841709136963,-1.301142930984497,1.480737328529358
1775728167461766100,6.83476611328125,-2.333505153656006,-1.273043155670166,1.4819591045379639
1775728167471867400,6.844867431640625,-2.378709316253662,-1.273043155670166,1.49906325340271
1775728167481968600,6.85496875,-2.4080307483673096,-1.312138557434082,1.5063936710357666
1775728167492039400,6.865039306640625,-2.4275784492492676,-1.351233959197998,1.4831807613372803
1775728167532383700,6.9053837890625,-2.4055874347686768,-1.4660766124725342,1.017701506614685
1775728167542454500,6.91545458984375,-2.370157241821289,-1.4660766124725342,0.8698720932006836
1775728167552525300,6.925525390625,-2.3322834968566895,-1.4575244188308716,0.7232644557952881
1775728167562596000,6.93559619140625,-2.2931880950927734,-1.4306464195251465,0.5791002511978149
1775728167572667000,6.9456669921875,-2.2540926933288574,-1.3829989433288574,0.43737950921058655
1775728167582768000,6.95576806640625,-2.213775634765625,-1.3182471990585327,0.3090978264808655
1775728167592839200,6.965839111328125,-2.177123785018921,-1.2473868131637573,0.20891591906547546
1775728167643101400,7.016101318359375,-1.8594738245010376,-0.8515461683273315,0.21502456068992615
1775728167653111300,7.026111328125,-1.7690657377243042,-0.7672467231750488,0.24190263450145721
1775728167663151600,7.036151611328125,-1.6725490093231201,-0.6768386960029602,0.2590068578720093
1775728167673192000,7.04619189453125,-1.5699236392974854,-0.5839871764183044,0.26145032048225403
1775728167683232000,7.05623193359375,-1.4624114036560059,-0.49235737323760986,0.24678955972194672
1775728167693303000,7.066302978515625,-1.3536773920059204,-0.40683624148368835,0.21013765037059784
1775728167723576300,7.096576416015625,-0.9957103729248047,-0.12217304855585098,0.018325956538319588
1775728167743626500,7.11662646484375,-0.7305948138237,0.1258382350206375,-0.0403171069920063
1775728167753636000,7.126635986328125,-0.5852088928222656,0.2431243658065796,-0.012217304669320583
1775728167763676400,7.136676513671875,-0.42271876335144043,0.3701843321323395,0.04886921867728233
1775728167773777700,7.146777587890625,-0.2590068578720093,0.5106833577156067,0.1160643994808197
1775728167783848400,7.156848388671875,-0.09040805697441101,0.6450737118721008,0.18814650177955627
1775728167793919500,7.16691943359375,0.08429940044879913,0.7513642311096191,0.2565633952617645
1775728167803929000,7.17692919921875,0.25534167885780334,0.8491026759147644,0.3017674386501312
1775728167824101400,7.197101318359375,0.6340781450271606,1.1301007270812988,0.3628539443016052
1775728167854313700,7.227313720703125,1.2608258724212646,1.5503759384155273,0.4434881806373596
1775728167864415000,7.2374150390625,1.4563027620315552,1.6725490093231201,0.4288274049758911
1775728167874485800,7.24748583984375,1.683544635772705,1.7739527225494385,0.384845107793808
1775728167884556500,7.257556640625,1.9181169271469116,1.8741345405578613,0.34697145223617554
1775728167894657800,7.26765771484375,2.094046115875244,1.9999728202819824,0.23945917189121246
1775728167904759300,7.27775927734375,2.2736403942108154,2.1062633991241455,0.08307767659425735
1775728167924839700,7.297839599609375,2.6279423236846924,2.146580457687378,-0.5180137157440186
1775728167955082800,7.328082763671875,2.9639182090759277,1.8594738245010376,-1.6774359941482544
1775728167965123000,7.338123046875,3.0579915046691895,1.7311921119689941,-1.9901989698410034
1775728167975224300,7.348224365234375,3.11785626411438,1.607797384262085,-2.2492058277130127
1775728167985295000,7.358295166015625,3.141069173812866,1.4917329549789429,-2.450791358947754
1775728167995335400,7.36833544921875,3.1166343688964844,1.350012183189392,-2.593733787536621
1775728168005375700,7.378375732421875,3.0494391918182373,1.2278391122817993,-2.649933338165283
1775728168015477000,7.38847705078125,2.9663615226745605,1.1533136367797852,-2.5815165042877197
1775728168035588000,7.408588134765625,2.744006633758545,1.0348057746887207,-2.1306979656219482
1775728168045659000,7.418658935546875,2.5888469219207764,0.9724974632263184,-1.82404363155365
1775728168055729700,7.428729736328125,2.4043655395507812,0.9162978529930115,-1.519832730293274
1775728168065831000,7.438830810546875,2.2040019035339355,0.8686503767967224,-1.226617455482483
1775728168075932400,7.448932373046875,1.9926424026489258,0.8087855577468872,-0.96883225440979
1775728168086003200,7.459003173828125,1.7776178121566772,0.7159340381622314,-0.817337691783905
1775728168096074000,7.469073974609375,1.5723671913146973,0.607200026512146,-0.7929030656814575
1775728168106144800,7.479144775390625,1.3854423761367798,0.5057964324951172,-0.8747590184211731
1775728168116185000,7.48918505859375,1.216843605041504,0.4031710624694824,-1.036027431488037
1775728168146458400,7.519458251953125,0.8429940342903137,0.02932153269648552,-1.7250834703445435
1775728168156529200,7.529529052734375,0.7538077235221863,-0.06719517707824707,-1.8741345405578613
1775728168166569500,7.539569580078125,0.6780604124069214,-0.14416420459747314,-1.9352210760116577
1775728168176579300,7.549579345703125,0.6096435189247131,-0.19303341209888458,-1.9437731504440308
1775728168186680600,7.5596806640625,0.5522221922874451,-0.21135938167572021,-1.929112434387207
1775728168196781800,7.56978173828125,0.4899139404296875,-0.21380282938480377,-1.9254472255706787
1775728168206852600,7.5798525390625,0.4202753007411957,-0.21380282938480377,-1.9230037927627563
1775728168216923600,7.589923583984375,0.3481931984424591,-0.21013765037059784,-1.9083430767059326
1775728168267338500,7.64033837890625,0.09529497474431992,-0.0403171069920063,-1.7922786474227905
1775728168277378800,7.65037890625,0.0012217304902151227,0.07330382615327835,-1.4453071355819702
1775728168287419100,7.660419189453125,0.0012217304902151227,0.07330382615327835,-1.4453071355819702
1775728168297429000,7.670428955078125,-0.04153883829712868,0.11362093687057495,-1.2192870378494263
1775728168307530200,7.6805302734375,-0.08552113175392151,0.17348572611808777,-0.9920451641082764
1775728168317601000,7.69060107421875,-0.14905111491680145,0.21013765037059784,-0.7941248416900635
1775728168327671800,7.700671875,-0.21380282938480377,0.22846360504627228,-0.6133087277412415
1775728168337712000,7.710712158203125,-0.2638937830924988,0.2541199326515198,-0.41172316670417786
1775728168347752400,7.72075244140625,-0.31154128909111023,0.2919935882091522,-0.1918116807937622
1775728168377873200,7.750873046875,-0.4105014503002167,0.4031710624694824,0.5485569834709167
1775728168387974700,7.760974609375,-0.4434881806373596,0.40072759985923767,0.7867944240570068
1775728168397984300,7.770984375,-0.4691445231437683,0.40194934606552124,0.9932668805122375
1775728168408055000,7.781054931640625,-0.48380526900291443,0.4190535545349121,1.1606439352035522
1775728168418125800,7.791125732421875,-0.4899139404296875,0.42760565876960754,1.2767083644866943
1775728168448246800,7.821246826171875,-0.513126790523529,0.3433062732219696,1.291369080543518
1775728168458287000,7.831287109375,-0.5375614166259766,0.2382374405860901,1.2302825450897217
1775728168468358000,7.84135791015625,-0.5998696684837341,0.12828169763088226,1.1410962343215942
1775728168478428700,7.8514287109375,-0.6524040699005127,0.030543262138962746,1.0506882667541504
1775728168488499500,7.86149951171875,-0.6829473376274109,-0.04642575979232788,0.9871582388877869
1775728168498600700,7.8716005859375,-0.720820963382721,-0.10262536257505417,0.970054030418396
1775728168508702200,7.8817021484375,-0.7562511563301086,-0.1258382350206375,1.0152580738067627
1775728168518711800,7.8917119140625,-0.7916813492774963,-0.14294247329235077,1.0971139669418335
1775728168528813000,7.90181298828125,-0.8246681094169617,-0.1918116807937622,1.1924089193344116
1775728168548955000,7.921954833984375,-0.9395107626914978,-0.3885102868080139,1.2657127380371094
1775728168569096400,7.942096435546875,-1.0629055500030518,-0.5424483418464661,1.2205088138580322
1775728168579167200,7.952167236328125,-1.1288789510726929,-0.6218608021736145,1.1911872625350952
1775728168589176800,7.9621767578125,-1.2107349634170532,-0.740368664264679,1.1630873680114746
1775728168599186700,7.972186767578125,-1.2877039909362793,-0.8381071090698242,1.1533136367797852
1775728168609257500,7.982257568359375,-1.3548991680145264,-0.8649851679801941,1.1643091440200806
1775728168619358700,7.992358642578125,-1.4098769426345825,-0.846659243106842,1.1948524713516235
1775728168629429500,8.002429443359375,-1.4746286869049072,-0.8344419002532959,1.2510520219802856
1775728168649510100,8.02251025390625,-1.6395623683929443,-0.8539896011352539,1.4110987186431885
1775728168659581000,8.032580810546875,-1.7055357694625854,-0.8686503767967224,1.5015068054199219
1775728168669682400,8.042682373046874,-1.7617353200912476,-0.9150761365890503,1.5833626985549927
1775728168679753200,8.052753173828124,-1.7983872890472412,-0.9810495972633362,1.644449234008789
1775728168689824000,8.062823974609374,-1.8020524978637695,-1.0323622226715088,1.6774359941482544
1775728168699894800,8.072894775390624,-1.7739527225494385,-1.047023057937622,1.6982053518295288
1775728168709904400,8.082904296875,-1.7287486791610718,-1.0384708642959595,1.693318486213684
1775728168719914200,8.092914306640624,-1.6872098445892334,-1.047023057937622,1.6481144428253174
1775728168730015500,8.103015380859375,-1.6627751588821411,-1.0946705341339111,1.5601497888565063
1775728168770268200,8.14326806640625,-1.576032280921936,-1.197295904159546,0.9810495972633362
1775728168780308500,8.15330859375,-1.5540411472320557,-1.1936306953430176,0.8124507665634155
1775728168790409700,8.16340966796875,-1.538158655166626,-1.177748203277588,0.6572909951210022
1775728168800480800,8.173480712890624,-1.5247195959091187,-1.1447614431381226,0.5277875661849976
1775728168810551600,8.183551513671874,-1.508837103843689,-1.0958921909332275,0.4190535545349121
1775728168820622300,8.193622314453124,-1.4953981637954712,-1.0445796251296997,0.3286454975605011
1775728168830632000,8.2036318359375,-1.4856243133544922,-1.007927656173706,0.2565633952617645
1775728168840641800,8.213641845703124,-1.470963478088379,-0.9737191796302795,0.2015855312347412
1775728168860844500,8.233844482421874,-1.4025466442108154,-0.8429940342903137,0.1319468915462494
1775728168870884600,8.243884521484375,-1.3658946752548218,-0.7770205736160278,0.11484266817569733
1775728168880894500,8.25389453125,-1.3377948999404907,-0.7525860071182251,0.09407325088977814
1775728168901036000,8.2740361328125,-1.2754865884780884,-0.7195992469787598,0.042760565876960754
1775728168911106800,8.28410693359375,-1.2376129627227783,-0.6609562039375305,0.01466076634824276
1775728168921208000,8.2942080078125,-1.1924089193344116,-0.5864306092262268,-0.009773843921720982
1775728168931279000,8.304279052734374,-1.1325441598892212,-0.5070181488990784,-0.02932153269648552
1775728168971501000,8.3445009765625,-0.817337691783905,-0.26511552929878235,-0.07452555745840073
1775728168981541400,8.354541259765625,-0.7012733221054077,-0.21380282938480377,-0.08796459436416626
1775728168991643000,8.364642822265624,-0.5619960427284241,-0.12950342893600464,-0.10873401165008545
1775728169001713700,8.374713623046874,-0.4092797040939331,-0.0354301854968071,-0.12828169763088226
1775728169011784400,8.384784423828124,-0.24923302233219147,0.05375614017248154,-0.13805554807186127
1775728169021855200,8.394855224609374,-0.08429940044879913,0.1563815027475357,-0.13439035415649414
1775728169031926000,8.404926025390624,0.08429940044879913,0.27611109614372253,-0.12217304855585098
1775728169041996800,8.414996826171874,0.2638937830924988,0.40194934606552124,-0.1111774742603302
1775728169052067600,8.425067626953124,0.45204028487205505,0.5119050741195679,-0.1062905490398407
1775728169082249500,8.45524951171875,1.017701506614685,0.807563841342926,-0.09407325088977814
1775728169092350700,8.465350830078124,1.254717230796814,0.9382890462875366,-0.12461651116609573
1775728169102421500,8.47542138671875,1.518610954284668,1.086118459701538,-0.16249015927314758
1775728169112523000,8.48552294921875,1.7727309465408325,1.207069754600525,-0.22479841113090515
1775728169122532600,8.49553271484375,2.0146336555480957,1.2901474237442017,-0.3445279896259308
1775728169132633900,8.5056337890625,2.2259929180145264,1.3048081398010254,-0.4996877610683441
1775728169142705000,8.515704833984374,2.415361166000366,1.2950342893600464,-0.7110471725463867
1775728169152775700,8.525775634765624,2.615725040435791,1.3267992734909058,-0.9456194043159485
1775728169182926800,8.5559267578125,3.1386256217956543,1.4721852540969849,-1.3952162265777588
1775728169192967200,8.56596728515625,3.219259738922119,1.5015068054199219,-1.4575244188308716
1775728169202946600,8.575946533203124,3.258355140686035,1.538158655166626,-1.4819591045379639
1775728169213047800,8.5860478515625,3.2510247230529785,1.5552629232406616,-1.4563027620315552
1775728169223118600,8.59611865234375,3.1948251724243164,1.5552629232406616,-1.3732250928878784
1775728169233159000,8.606158935546874,3.104417085647583,1.5430456399917603,-1.2327260971069336
1775728169243168500,8.61616845703125,2.9834659099578857,1.5308283567428589,-1.0433578491210938
1775728169253239600,8.626239501953124,2.8356363773345947,1.5210545063018799,-0.8295549750328064
1775728169273350400,8.646350341796875,2.4434609413146973,1.431868076324463,-0.475253164768219
1775728169283421400,8.65642138671875,2.22477126121521,1.3451253175735474,-0.39584067463874817
1775728169293522700,8.666522705078124,2.0036380290985107,1.197295904159546,-0.39095374941825867
1775728169303532300,8.6765322265625,1.7825047969818115,1.0018190145492554,-0.4703662395477295
1775728169313603300,8.686603271484374,1.577254056930542,0.7941248416900635,-0.618195652961731
1775728169323643400,8.696643310546875,1.3927727937698364,0.5962044596672058,-0.8148942589759827
1775728169333714200,8.706714111328125,1.235169529914856,0.4129449129104614,-1.047023057937622
1775728169343754500,8.71675439453125,1.1032226085662842,0.2577851414680481,-1.303586483001709
1775728169353825300,8.7268251953125,0.979827880859375,0.13439035415649414,-1.576032280921936
1775728169363835100,8.736835205078124,0.8588765263557434,0.03298672288656235,-1.860695481300354
1775728169394047500,8.767047607421874,0.5057964324951172,-0.20525072515010834,-2.5705208778381348
1775728169404118300,8.7771181640625,0.40683624148368835,-0.26145032048225403,-2.7317893505096436
1775728169414219800,8.7872197265625,0.31520646810531616,-0.31031954288482666,-2.858849287033081
1775728169424259800,8.797259765625,0.24556782841682434,-0.3433062732219696,-2.9492573738098145
1775728169434361300,8.807361328125,0.18448130786418915,-0.3628539443016052,-2.9773571491241455
1775728169444371000,8.817370849609375,0.12950342893600464,-0.36651915311813354,-2.9358184337615967
1775728169454472400,8.827472412109374,0.08674286305904388,-0.3433062732219696,-2.8270843029022217
1775728169464543200,8.837543212890624,0.05742133408784866,-0.3066543638706207,-2.660928964614868
1775728169484654300,8.857654296875,0.015882495790719986,-0.17959438264369965,-2.1697933673858643
1775728169494694400,8.8676943359375,0.00366519158706069,-0.08307767659425735,-1.8558086156845093
1775728169504765400,8.877765380859374,-0.010995574295520782,-0.013439035043120384,-1.5149458646774292
1775728169514836200,8.887836181640624,-0.0354301854968071,0.01710422709584236,-1.1850786209106445
1775728169524876300,8.897876220703125,-0.06108652427792549,0.04764748737215996,-0.8759807348251343
1775728169534916600,8.90791650390625,-0.09407325088977814,0.1014036312699318,-0.6108652353286743
1775728169544987400,8.9179873046875,-0.13439035415649414,0.16737708449363708,-0.3933972120285034
1775728169555058200,8.92805810546875,-0.17837265133857727,0.21013765037059784,-0.1918116807937622
1775728169565129000,8.93812890625,-0.22479841113090515,0.2174680233001709,0.0012217304902151227
1775728169585209600,8.958209716796874,-0.3139847218990326,0.2431243658065796,0.3677408695220947
1775728169595280400,8.9682802734375,-0.35552358627319336,0.23579397797584534,0.5387831330299377
1775728169605320700,8.97832080078125,-0.35552358627319336,0.23579397797584534,0.5387831330299377
1775728169615391500,8.9883916015625,-0.38240164518356323,0.23457226157188416,0.6927211880683899
1775728169625462300,8.998462158203125,-0.4031710624694824,0.251676470041275,0.8393288254737854
1775728169635472100,9.00847216796875,-0.42760565876960754,0.2687807083129883,0.96883225440979
1775728169645573400,9.018573486328124,-0.44226643443107605,0.2883284091949463,1.0775662660598755
1775728169655583200,9.028583251953124,-0.45814892649650574,0.2968805134296417,1.156978726387024
1775728169665592800,9.0385927734375,-0.485027015209198,0.24068090319633484,1.19607412815094
1775728169685643000,9.05864306640625,-0.5412266254425049,0.07819075137376785,1.236391305923462
1775728169695744300,9.068744140625,-0.5693264007568359,0.06108652427792549,1.2522737979888916
1775728169705845800,9.078845703125,-0.588874101638794,0.08429940044879913,1.2669345140457153
1775728169715885800,9.0888857421875,-0.5998696684837341,0.12828169763088226,1.2657127380371094
1775728169725926100,9.098926025390625,-0.607200026512146,0.16493362188339233,1.2424999475479126
1775728169735997000,9.108996826171875,-0.6096435189247131,0.17470745742321014,1.2095131874084473
1775728169746067700,9.119067626953125,-0.6108652353286743,0.15027284622192383,1.1716395616531372
1775728169756138500,9.129138427734375,-0.6157521605491638,0.09040805697441101,1.1362093687057495
1775728169766178800,9.1391787109375,-0.6230825781822205,0.0024434609804302454,1.1105530261993408
1775728169806462200,9.179462158203124,-0.7000515460968018,-0.3078760802745819,1.1142182350158691
1775728169816563500,9.1895634765625,-0.7586946487426758,-0.384845107793808,1.1435397863388062
1775728169826634200,9.19963427734375,-0.8478809595108032,-0.485027015209198,1.1911872625350952
1775728169836735500,9.209735595703124,-0.9553932547569275,-0.5815436840057373,1.2376129627227783
1775728169846806300,9.21980615234375,-1.0690141916275024,-0.6475171446800232,1.284038782119751
1775728169856877000,9.229876953125,-1.1814134120941162,-0.6792821288108826,1.341460108757019
1775728169866917400,9.23991748046875,-1.2791517972946167,-0.685390830039978,1.3952162265777588
1775728169876988200,9.24998828125,-1.3548991680145264,-0.685390830039978,1.4367550611495972
1775728169897129700,9.270129638671875,-1.4330898523330688,-0.7110471725463867,1.470963478088379
1775728169917271300,9.290271240234375,-1.3561208248138428,-0.7953465580940247,1.557706356048584
1775728169927311600,9.3003115234375,-1.284038782119751,-0.8478809595108032,1.5821410417556763
1775728169937382400,9.31038232421875,-1.2229522466659546,-0.9297369122505188,1.5650367736816406
1775728169947484000,9.32048388671875,-1.166752576828003,-1.0152580738067627,1.5063936710357666
1775728169957554700,9.3305546875,-1.1154398918151855,-1.0751228332519531,1.4196507930755615
1775728169967625500,9.34062548828125,-1.06657075881958,-1.1020009517669678,1.2974777221679688
1775728169977635000,9.350635009765625,-1.027475357055664,-1.1068878173828125,1.1423180103302002
1775728169987675400,9.36067529296875,-1.0018190145492554,-1.0971139669418335,0.9566149711608887
1775728170007847700,9.38084765625,-0.9993755221366882,-1.0458012819290161,0.5473352670669556
1775728170017918500,9.39091845703125,-1.0225883722305298,-1.007927656173706,0.3689626157283783
1775728170027989200,9.4009892578125,-1.0580185651779175,-0.9627236127853394,0.2321287989616394
1775728170037998800,9.410998779296875,-1.0910053253173828,-0.911410927772522,0.13805554807186127
1775728170048039200,9.4210390625,-1.1227703094482422,-0.856433093547821,0.07330382615327835
1775728170058049000,9.431049072265624,-1.147204875946045,-0.8002334833145142,0.03787364438176155
1775728170068150300,9.441150390625,-1.1630873680114746,-0.7415903806686401,0.03176499158143997
1775728170078221000,9.451220947265625,-1.166752576828003,-0.6719517707824707,0.051312681287527084
1775728170088291800,9.461291748046875,-1.1704177856445312,-0.6145304441452026,0.09773843735456467
1775728170118535000,9.491534912109374,-1.1899654865264893,-0.46792277693748474,0.2626720666885376
1775728170128605700,9.501605712890624,-1.2034045457839966,-0.43127086758613586,0.2993239760398865
1775728170138646000,9.51164599609375,-1.2107349634170532,-0.3995058834552765,0.31642818450927734
1775728170148686300,9.521686279296874,-1.2095131874084473,-0.36651915311813354,0.3139847218990326
1775728170158757000,9.531757080078124,-1.2034045457839966,-0.3286454975605011,0.294437050819397
1775728170168797200,9.541797119140625,-1.1911872625350952,-0.2883284091949463,0.26633724570274353
1775728170178868200,9.5518681640625,-1.1691961288452148,-0.25045475363731384,0.24190263450145721
1775728170188939000,9.56193896484375,-1.1325441598892212,-0.19425514340400696,0.23457226157188416
1775728170229161000,9.602160888671875,-0.8429940342903137,0.051312681287527084,0.3481931984424591
1775728170239262500,9.612262451171874,-0.7257078886032104,0.12828169763088226,0.36651915311813354
1775728170259373600,9.63237353515625,-0.44226643443107605,0.3127630054950714,0.38240164518356323
1775728170269383200,9.642383056640625,-0.27122417092323303,0.41172316670417786,0.4031710624694824
1775728170279484700,9.652484619140624,-0.07819075137376785,0.5241223573684692,0.4337143301963806
1775728170289524700,9.662524658203125,0.11972958594560623,0.5998696684837341,0.4740314185619354
1775728170299595500,9.672595458984375,0.3188716471195221,0.6866125464439392,0.5229006409645081
1775728170329808100,9.70280810546875,0.9236282706260681,1.0067058801651,0.5009095072746277
1775728170339879000,9.71287890625,1.0995573997497559,1.1398745775222778,0.5644394755363464
1775728170349949700,9.72294970703125,1.3341296911239624,1.2705997228622437,0.7195992469787598
1775728170360020500,9.7330205078125,1.6139060258865356,1.4037683010101318,0.9651671051979065
1775728170370060800,9.743060791015624,1.882686734199524,1.4880677461624146,1.2999212741851807
1775728170380101000,9.75310107421875,2.109928607940674,1.5125023126602173,1.6481144428253174
1775728170390172000,9.763171875,2.3432791233062744,1.5454890727996826,1.996307611465454
1775728170400242700,9.77324267578125,2.5082128047943115,1.6090190410614014,2.163684606552124
1775728170440586800,9.813586669921875,2.5705208778381348,1.7250834703445435,1.95965576171875
1775728170460697900,9.83369775390625,2.241875410079956,1.655444860458374,1.4172073602676392
1775728170470738200,9.84373828125,2.018298864364624,1.6493362188339233,0.8283332586288452
1775728170480809000,9.85380908203125,1.7849482297897339,1.6407840251922607,0.1771509200334549
1775728170490879700,9.863879638671875,1.566258430480957,1.6126842498779297,-0.42149701714515686
1775728170500920000,9.873920166015624,1.3768903017044067,1.55892813205719,-0.9382890462875366
1775728170510990800,9.883990966796874,1.1850786209106445,1.4746286869049072,-1.4343116283416748
1775728170561314300,9.934314208984375,0.2871066629886627,0.6902777552604675,-4.142888069152832
1775728170571385000,9.944385009765625,0.18081611394882202,0.513126790523529,-4.609589099884033
1775728170581425400,9.95442529296875,0.13439035415649414,0.35185837745666504,-4.846604824066162
1775728170591465700,9.9644658203125,0.16859880089759827,0.20402899384498596,-4.667010307312012
1775728170601536500,9.97453662109375,0.21991148591041565,0.0403171069920063,-4.218635559082031
1775728170611637800,9.9846376953125,0.26022860407829285,-0.11850785464048386,-3.7250561714172363
1775728170661930800,10.0349306640625,0.4593706727027893,-0.5155702829360962,-1.6200146675109863
1775728170672001500,10.04500146484375,0.4948008358478546,-0.5229006409645081,-1.2082914113998413
1775728170682011400,10.055011474609374,0.49846604466438293,-0.48747047781944275,-0.9040805697441101
1775728170692082200,10.065082275390624,0.46181413531303406,-0.43127086758613586,-0.7195992469787598
1775728170702183400,10.075183349609375,0.41172316670417786,-0.3543018400669098,-0.6340781450271606
1775728170712223700,10.0852236328125,0.3591887652873993,-0.2565633952617645,-0.6328563690185547
1775728170722264000,10.09526416015625,0.2981022298336029,-0.15515977144241333,-0.6817256212234497
1775728170762547200,10.135547119140625,0.021991148591041565,0.27000242471694946,-0.8112290501594543
1775728170772648700,10.145648681640624,-0.0012217304902151227,0.3799581825733185,-0.6426302194595337
1775728170782719500,10.155719482421874,0.0012217304902151227,0.45204028487205505,-0.36163222789764404
1775728170792759800,10.165759765625,0.00733038317412138,0.5057964324951172,-0.045204028487205505
1775728170802799900,10.1757998046875,0.009773843921720982,0.5497786998748779,0.23335053026676178
1775728170812871000,10.185870849609374,0.013439035043120384,0.5937610268592834,0.43249258399009705
1775728170822941700,10.195941650390624,0.030543262138962746,0.6304129362106323,0.5900958180427551
1775728170853154000,10.226154052734374,0.05497787147760391,0.5717698931694031,0.8051204085350037
1775728170873326000,10.246326171875,0.051312681287527084,0.46181413531303406,0.6829473376274109
1775728170883396900,10.25639697265625,0.04886921867728233,0.38117989897727966,0.6230825781822205
1775728170893406700,10.26640673828125,0.00855211354792118,0.28466320037841797,0.5900958180427551
1775728170903508000,10.276508056640624,-0.03787364438176155,0.19425514340400696,0.598647952079773
1775728170913609200,10.286609130859375,-0.08429940044879913,0.1258382350206375,0.6304129362106323
1775728170923680000,10.296679931640625,-0.15027284622192383,0.07696902006864548,0.6914994716644287
1775728170933751000,10.3067509765625,-0.2272418737411499,0.04886921867728233,0.7806857824325562
1775728170963871700,10.336871826171874,-0.4141666293144226,0.11239920556545258,1.1117748022079468
1775728170973881600,10.346881591796874,-0.45692721009254456,0.14294247329235077,1.1643091440200806
1775728170983922000,10.356921875,-0.45692721009254456,0.14294247329235077,1.1643091440200806
1775728170993931500,10.366931640625,-0.6096435189247131,-0.03298672288656235,0.9480628371238708
1775728171004033000,10.377032958984374,-0.6096435189247131,-0.03298672288656235,0.9480628371238708
1775728171024144000,10.397143798828125,-0.8197811841964722,-0.39095374941825867,0.5241223573684692
1775728171034214700,10.407214599609375,-0.9615018963813782,-0.5290092825889587,0.3176499307155609
1775728171064427300,10.43742724609375,-1.3524556159973145,-0.950506329536438,0.8478809595108032
1775728171074467600,10.447467529296874,-1.5015068054199219,-1.0409144163131714,1.3475687503814697
1775728171084538400,10.457538330078124,-1.6884315013885498,-1.1142182350158691,1.7592918872833252
1775728171094609200,10.467609130859374,-1.892460584640503,-1.1789699792861938,2.0366246700286865
1775728171104680000,10.477679931640624,-2.1111502647399902,-1.2522737979888916,2.172236919403076
1775728171114689500,10.487689453125,-2.3164010047912598,-1.3365731239318848,2.2088887691497803
1775728171124791000,10.497791015625,-2.470339059829712,-1.4294246435165405,2.1649065017700195
1775728171134861800,10.50786181640625,-2.5411994457244873,-1.4941763877868652,2.079385280609131
1775728171175114500,10.548114501953124,-2.422691583633423,-1.7238616943359375,1.4599679708480835
1775728171185185300,10.558185302734374,-2.3542747497558594,-1.722640037536621,1.2046263217926025
1775728171195225600,10.5682255859375,-2.3151793479919434,-1.7189748287200928,0.9627236127853394
1775728171205296400,10.57829638671875,-2.27852725982666,-1.693318486213684,0.7635815739631653
1775728171215397600,10.588397705078124,-2.2259929180145264,-1.653001308441162,0.6108652353286743
1775728171225468400,10.598468505859374,-2.163684606552124,-1.607797384262085,0.49724429845809937
1775728171235478300,10.608478271484374,-2.0867156982421875,-1.5515977144241333,0.4190535545349121
1775728171255650300,10.628650390625,-1.872912883758545,-1.3939944505691528,0.38728857040405273
1775728171265690600,10.638690673828124,-1.7482963800430298,-1.292590856552124,0.4251621961593628
1775728171275792000,10.6487919921875,-1.6224581003189087,-1.1911872625350952,0.4764748811721802
1775728171285893000,10.65889306640625,-1.500285029411316,-1.0873401165008545,0.5204572081565857
1775728171295964200,10.668964111328124,-1.3952162265777588,-1.0042624473571777,0.5448917746543884
1775728171306035000,10.679034912109374,-1.3048081398010254,-0.93095862865448,0.5571091175079346
1775728171316105700,10.689105712890624,-1.216843605041504,-0.8552113175392151,0.5424483418464661
1775728171326146000,10.69914599609375,-1.1301007270812988,-0.7721336483955383,0.4948008358478546
1775728171336186000,10.70918603515625,-1.0494664907455444,-0.6890559792518616,0.43615779280662537
1775728171346287600,10.71928759765625,-0.9761626720428467,-0.5974262356758118,0.3701843321323395
1775728171366337500,10.739337646484374,-0.8417723178863525,-0.4288274049758911,0.21380282938480377
1775728171376408300,10.749408203125,-0.769690215587616,-0.3591887652873993,0.12828169763088226
1775728171386448600,10.75944873046875,-0.7073819637298584,-0.3225368559360504,0.05619960278272629
1775728171396519400,10.76951953125,-0.6316346526145935,-0.2871066629886627,-0.012217304669320583
1775728171406620700,10.77962060546875,-0.5351179838180542,-0.21868975460529327,-0.08552113175392151
1775728171416630500,10.789630615234374,-0.4337143301963806,-0.11728613078594208,-0.1563815027475357
1775728171426701300,10.799701416015624,-0.33108896017074585,-0.00366519158706069,-0.21013765037059784
1775728171436802600,10.809802490234375,-0.21013765037059784,0.13316862285137177,-0.25045475363731384
1775728171446904000,10.819904052734374,-0.09162978827953339,0.2736676335334778,-0.28099802136421204
1775728171467076000,10.840076171875,0.1466076523065567,0.5119050741195679,-0.3433062732219696
1775728171477147000,10.85014697265625,0.2834414839744568,0.656069278717041,-0.3933972120285034
1775728171487187200,10.860187255859374,0.42149701714515686,0.7855727076530457,-0.43249258399009705
1775728171497258000,10.870258056640624,0.5668829679489136,0.9248499870300293,-0.44837507605552673
1775728171517430000,10.890429931640625,0.9101892113685608,1.2180652618408203,-0.4105014503002167
1775728171527531500,10.900531494140624,1.0971139669418335,1.3341296911239624,-0.3995058834552765
1775728171537571800,10.91057177734375,1.301142930984497,1.4098769426345825,-0.38117989897727966
1775728171547581400,10.92058154296875,1.508837103843689,1.4770721197128296,-0.33719760179519653
1775728171577732900,10.95073291015625,2.1734585762023926,1.7201964855194092,-0.31520646810531616
1775728171587803600,10.9608037109375,2.4055874347686768,1.7910568714141846,-0.4288274049758911
1775728171597874400,10.97087451171875,2.613281488418579,1.82404363155365,-0.6218608021736145
1775728171607975700,10.9809755859375,2.7953193187713623,1.8081611394882202,-0.8784242272377014
1775728171618046500,10.99104638671875,2.972470283508301,1.7763961553573608,-1.1630873680114746
1775728171628148000,11.00114794921875,3.1593949794769287,1.7641788721084595,-1.4269812107086182
1775728171638249200,11.011249267578124,3.336545944213867,1.7592918872833252,-1.6371188163757324
1775728171648320000,11.021320068359374,3.4660494327545166,1.7397441864013672,-1.7959438562393188
1775728171658390800,11.031390869140624,3.536909818649292,1.7116444110870361,-1.9156733751296997
1775728171688633600,11.061633544921875,3.508810043334961,1.6701055765151978,-1.9743164777755737
1775728171698704600,11.07170458984375,3.422067165374756,1.683544635772705,-1.890017032623291
1775728171708775400,11.081775390625,3.2815680503845215,1.6420058012008667,-1.7495180368423462
1775728171718815500,11.0918154296875,3.0836477279663086,1.5357152223587036,-1.5650367736816406
1775728171728917000,11.1019169921875,2.8429667949676514,1.4049900770187378,-1.3744467496871948
1775728171738957300,11.111957275390624,2.5802948474884033,1.274264931678772,-1.19607412815094
1775728171749058600,11.12205859375,2.3066272735595703,1.1398745775222778,-1.036027431488037
1775728171759129300,11.13212939453125,2.031737804412842,0.9896016716957092,-0.9162978529930115
1775728171779301400,11.15230126953125,1.4941763877868652,0.7012733221054077,-0.9126327037811279
1775728171789372200,11.1623720703125,1.2596040964126587,0.5803219676017761,-1.0286970138549805
1775728171799443000,11.17244287109375,1.0506882667541504,0.4605923891067505,-1.2046263217926025
1775728171809513700,11.182513671875,0.8637634515762329,0.3335324227809906,-1.4233160018920898
1775728171819615200,11.192615234375,0.7061602473258972,0.22113321721553802,-1.6481144428253174
1775728171829686000,11.20268603515625,0.5803219676017761,0.12461651116609573,-1.8448129892349243
1775728171839695600,11.212695556640625,0.475253164768219,0.02321287989616394,-1.9950858354568481
1775728171849736000,11.22273583984375,0.39217549562454224,-0.07330382615327835,-2.074498414993286
1775728171859776300,11.2327763671875,0.3396410644054413,-0.16004669666290283,-2.0842721462249756
1775728171879857000,11.25285693359375,0.2480112910270691,-0.30054569244384766,-2.0305161476135254
1775728171910099700,11.283099609375,0.14538592100143433,-0.3127630054950714,-1.9156733751296997
1775728171920170500,11.29317041015625,0.1014036312699318,-0.2638937830924988,-1.8655824661254883
1775728171930272000,11.30327197265625,0.04886921867728233,-0.2028072625398636,-1.8069393634796143
1775728171940342800,11.3133427734375,-0.00733038317412138,-0.15271630883216858,-1.7287486791610718
1775728171950413600,11.32341357421875,-0.05742133408784866,-0.10506882518529892,-1.635897159576416
1775728171960423200,11.333423095703125,-0.1014036312699318,-0.04764748737215996,-1.5112806558609009
1775728171970524700,11.343524658203124,-0.14416420459747314,0.045204028487205505,-1.3658946752548218
1775728172010777300,11.38377734375,-0.2687807083129883,0.3982841372489929,-0.4092797040939331
1775728172020848000,11.39384814453125,-0.304210901260376,0.4544837474822998,-0.1160643994808197
1775728172030919000,11.4039189453125,-0.34697145223617554,0.504574716091156,0.1918116807937622
1775728172040928800,11.4139287109375,-0.38606682419776917,0.5241223573684692,0.50335294008255
1775728172050968800,11.42396875,-0.42760565876960754,0.5106833577156067,0.7941248416900635
1775728172061070300,11.4340703125,-0.4691445231437683,0.49235737323760986,1.0531316995620728
1775728172071141000,11.44414111328125,-0.5070181488990784,0.4691445231437683,1.273043155670166
1775728172081181400,11.454181396484374,-0.5436700582504272,0.4337143301963806,1.4453071355819702
1775728172091282700,11.46428271484375,-0.5827654600143433,0.37751471996307373,1.577254056930542
1775728172131535400,11.504535400390624,-0.8136724829673767,-0.10873401165008545,1.626123309135437
1775728172141575700,11.51457568359375,-0.8637634515762329,-0.22846360504627228,1.6139060258865356
1775728172151677000,11.524677001953124,-0.9053022861480713,-0.3188716471195221,1.605353832244873
1775728172161717200,11.53471728515625,-0.9480628371238708,-0.384845107793808,1.6114624738693237
1775728172171818500,11.544818603515624,-0.9810495972633362,-0.43249258399009705,1.6615535020828247
1775728172181828400,11.554828369140624,-1.0128145217895508,-0.4948008358478546,1.7397441864013672
1775728172191929600,11.5649296875,-1.0555751323699951,-0.608421802520752,1.803274154663086
1775728172232151800,11.60515185546875,-1.23394775390625,-1.0958921909332275,1.5149458646774292
1775728172242192100,11.615192138671874,-1.2376129627227783,-1.1142182350158691,1.3829989433288574
1775728172252263000,11.625262939453124,-1.224173903465271,-1.0836749076843262,1.2693779468536377
1775728172262333700,11.635333740234374,-1.2376129627227783,-1.0995573997497559,1.166752576828003
1775728172272404500,11.645404541015624,-1.310916781425476,-1.226617455482483,1.0739010572433472
1775728172282475300,11.655475341796874,-1.4257594347000122,-1.370781660079956,0.9761626720428467
1775728172292546000,11.665546142578124,-1.539380431175232,-1.4404202699661255,0.8955284357070923
1775728172302616800,11.675616943359374,-1.626123309135437,-1.4196507930755615,0.8698720932006836
1775728172332737800,11.70573779296875,-1.8008307218551636,-1.2424999475479126,1.292590856552124
1775728172342778000,11.715778076171874,-1.8570303916931152,-1.1887437105178833,1.490511178970337
1775728172352849000,11.725848876953124,-1.8887953758239746,-1.1410962343215942,1.6468926668167114
1775728172362919700,11.735919677734374,-1.872912883758545,-1.0983357429504395,1.7580702304840088
1775728172372990500,11.745990478515624,-1.822821855545044,-1.0787880420684814,1.8765780925750732
1775728172383000000,11.756,-1.7373007535934448,-1.0946705341339111,2.059837579727173
1775728172393040400,11.766040283203125,-1.5992451906204224,-1.1252137422561646,2.30051851272583
1775728172403111200,11.776111083984375,-1.4563027620315552,-1.1716395616531372,2.4691174030303955
1775728172413182000,11.786181884765625,-1.33168625831604,-1.2095131874084473,2.495995283126831
1775728172453404200,11.826404052734375,-1.0677924156188965,-1.215621829032898,1.9242255687713623
1775728172463444500,11.836444580078124,-1.0042624473571777,-1.1789699792861938,1.6566665172576904
1775728172473515300,11.846515380859374,-0.9578366875648499,-1.1374311447143555,1.3646728992462158
1775728172483555600,11.8565556640625,-0.9370672702789307,-1.0885618925094604,1.0482447147369385
1775728172493596000,11.866595947265624,-0.9334021210670471,-1.0335839986801147,0.7195992469787598
1775728172503636200,11.87663623046875,-0.9517280459403992,-0.9346238374710083,0.12095131725072861
1775728172523777800,11.89677783203125,-0.9627236127853394,-0.8772025108337402,-0.10506882518529892
1775728172543919400,11.91691943359375,-0.9553932547569275,-0.7538077235221863,-0.27122417092323303
1775728172554020600,11.9270205078125,-0.9272934198379517,-0.6963863968849182,-0.2015855312347412
1775728172564061000,11.93706103515625,-0.8955284357070923,-0.646295428276062,-0.09407325088977814
1775728172574131700,11.947131591796875,-0.8625417351722717,-0.5913175344467163,0.019547687843441963
1775728172584202500,11.957202392578125,-0.8234463334083557,-0.5241223573684692,0.16859880089759827
1775728172594273300,11.967273193359375,-0.779464066028595,-0.46181413531303406,0.3384193480014801
1775728172604344000,11.977343994140625,-0.7415903806686401,-0.4056145250797272,0.475253164768219
1775728172624516400,11.997516357421874,-0.6768386960029602,-0.2590068578720093,0.5106833577156067
1775728172634526000,12.00752587890625,-0.6475171446800232,-0.17104226350784302,0.4202753007411957
1775728172644566300,12.017566162109375,-0.6047565937042236,-0.059864792972803116,0.35552358627319336
1775728172654576000,12.027576171875,-0.5412266254425049,0.051312681287527084,0.35063666105270386
1775728172664677400,12.037677490234374,-0.4899139404296875,0.14294247329235077,0.3481931984424591
1775728172674748200,12.047748046875,-0.44226643443107605,0.23457226157188416,0.3078760802745819
1775728172684788500,12.05778857421875,-0.3897320330142975,0.34208452701568604,0.2125810980796814
1775728172694798300,12.06779833984375,-0.3274237811565399,0.4715879559516907,0.08307767659425735
1775728172704808000,12.077807861328125,-0.2528982162475586,0.6206390857696533,-0.045204028487205505
1775728172735020500,12.1080205078125,0.04398229718208313,1.0873401165008545,-0.26022860407829285
1775728172745091300,12.11809130859375,0.17837265133857727,1.2131783962249756,-0.15760323405265808
1775728172755162000,12.128162109375,0.32986724376678467,1.330464482307434,0.028099801391363144
1775728172765202400,12.138202392578124,0.48258355259895325,1.4636331796646118,0.23579397797584534
1775728172785344000,12.158343994140624,0.797789990901947,1.8106045722961426,0.5180137157440186
1775728172795445200,12.1684453125,0.9724974632263184,1.987755537033081,0.5827654600143433
1775728172805516000,12.17851611328125,1.1337659358978271,2.118480682373047,0.6218608021736145
1775728172845738200,12.21873828125,1.7592918872833252,2.395813465118408,0.0806342139840126
1775728172855748000,12.228748046875,1.8777997493743896,2.394591808319092,-0.19425514340400696
1775728172865757700,12.2387578125,2.0085248947143555,2.361604928970337,-0.5412266254425049
1775728172875859000,12.24885888671875,2.1062633991241455,2.298074960708618,-0.93095862865448
1775728172885868800,12.258868896484374,2.1954495906829834,2.213775634765625,-1.3231340646743774
1775728172896000800,12.269000732421874,2.2846360206604004,2.13314151763916,-1.7214182615280151
1775728172906071600,12.279071533203124,2.361604928970337,2.0451767444610596,-2.0891592502593994
1775728172916172800,12.2891728515625,2.4019222259521484,1.9132299423217773,-2.41413950920105
1775728172946293800,12.319293701171874,2.29440975189209,1.264491081237793,-2.8930578231811523
1775728172956395000,12.32939501953125,2.188119411468506,1.0396926403045654,-2.8796188831329346
1775728172966435300,12.339435302734374,2.057394027709961,0.8332201838493347,-2.7879889011383057
1775728172976506000,12.349506103515624,1.9120081663131714,0.6572909951210022,-2.5949554443359375
1775728172986515700,12.359515625,1.7605136632919312,0.5290092825889587,-2.302962064743042
1775728172996617200,12.3696171875,1.6102408170700073,0.4740314185619354,-1.9266690015792847
1775728173006688000,12.37968798828125,1.4721852540969849,0.49846604466438293,-1.4844025373458862
1775728173016758800,12.3897587890625,1.3158037662506104,0.5558874011039734,-1.0641272068023682
1775728173036900400,12.409900390625,0.8955284357070923,0.5583308339118958,-0.5815436840057373
1775728173046971100,12.41997119140625,0.6792821288108826,0.4508185386657715,-0.5534439086914062
1775728173057042000,12.4300419921875,0.48869219422340393,0.3286454975605011,-0.626747727394104
1775728173067112700,12.44011279296875,0.3384193480014801,0.2223549485206604,-0.7611380815505981
1775728173077122600,12.45012255859375,0.22968533635139465,0.09285151958465576,-0.940732479095459
1775728173087163000,12.460162841796874,0.14416420459747314,-0.05253441259264946,-1.1740829944610596
1775728173097264000,12.47026416015625,0.06475171446800232,-0.18814650177955627,-1.4599679708480835
1775728173107304400,12.480304443359374,-0.00855211354792118,-0.2932153046131134,-1.7739527225494385
1775728173117405700,12.49040576171875,-0.07208210229873657,-0.36529740691185,-2.0732767581939697
1775728173137547300,12.51054736328125,-0.2015855312347412,-0.4764748811721802,-2.498438835144043
1775728173147557000,12.52055712890625,-0.26145032048225403,-0.5167919993400574,-2.6108381748199463
1775728173157658400,12.530658447265624,-0.3176499307155609,-0.5277875661849976,-2.6584856510162354
1775728173167668200,12.540668212890624,-0.3677408695220947,-0.5338962078094482,-2.629163980484009
1775728173177708500,12.55070849609375,-0.3982841372489929,-0.5314527750015259,-2.4935519695281982
1775728173187748600,12.56074853515625,-0.4080579876899719,-0.5204572081565857,-2.269975185394287
1775728173197850000,12.57085009765625,-0.4105014503002167,-0.5119050741195679,-1.9620991945266724
1775728173207859700,12.580859619140625,-0.39706242084503174,-0.5106833577156067,-1.5748106241226196
1775728173217930500,12.590930419921875,-0.3738495409488678,-0.5009095072746277,-1.1716395616531372
1775728173248112400,12.6211123046875,-0.3579670190811157,-0.33108896017074585,-0.3689626157283783
1775728173258183200,12.63118310546875,-0.38240164518356323,-0.30054569244384766,-0.23335053026676178
1775728173268193000,12.641193115234374,-0.4105014503002167,-0.2687807083129883,-0.14294247329235077
1775728173278294300,12.651294189453125,-0.44715335965156555,-0.2687807083129883,-0.10384709388017654
1775728173288365000,12.661364990234375,-0.49235737323760986,-0.30543261766433716,-0.12950342893600464
1775728173298405400,12.6714052734375,-0.5326744914054871,-0.3225368559360504,-0.19425514340400696
1775728173308476200,12.68147607421875,-0.5754350423812866,-0.30054569244384766,-0.2626720666885376
1775728173318547000,12.691546875,-0.6133087277412415,-0.24556782841682434,-0.3078760802745819
1775728173328618000,12.701617919921874,-0.6401867866516113,-0.18936823308467865,-0.3127630054950714
1775728173348668000,12.72166796875,-0.6976081132888794,-0.18081611394882202,-0.2174680233001709
1775728173358769200,12.73176904296875,-0.7171558141708374,-0.1869247704744339,-0.13561208546161652
1775728173368840000,12.74183984375,-0.7269296646118164,-0.17837265133857727,-0.030543262138962746
1775728173378880300,12.75188037109375,-0.7232644557952881,-0.17104226350784302,0.09407325088977814
1775728173399021800,12.772021728515625,-0.7134906053543091,-0.16004669666290283,0.3481931984424591
1775728173409123300,12.782123291015624,-0.7122688889503479,-0.1771509200334549,0.46670106053352356
1775728173419224600,12.792224609375,-0.7037167549133301,-0.1771509200334549,0.5815436840057373
1775728173429265000,12.802264892578124,-0.6878342628479004,-0.13927727937698364,0.6902777552604675
1775728173469548000,12.842548095703124,-0.6426302194595337,-0.0024434609804302454,1.0409144163131714
1775728173479588400,12.85258837890625,-0.616973876953125,0.036651913076639175,1.1276572942733765
1775728173489689600,12.862689697265624,-0.5791002511978149,0.0806342139840126,1.1997393369674683
1775728173499760400,12.872760498046874,-0.5363397002220154,0.12095131725072861,1.23394775390625
1775728173509861600,12.882861572265625,-0.49724429845809937,0.14294247329235077,1.2278391122817993
1775728173519932700,12.8929326171875,-0.45204028487205505,0.14294247329235077,1.2082914113998413
1775728173530003500,12.90300341796875,-0.394618958234787,0.13316862285137177,1.1911872625350952
1775728173540074200,12.91307421875,-0.3286454975605011,0.14416420459747314,1.1838568449020386
1775728173560185300,12.933185302734374,-0.21013765037059784,0.17104226350784302,1.1679743528366089
1775728173570286600,12.94328662109375,-0.1771509200334549,0.15760323405265808,1.1691961288452148
1775728173580357400,12.953357421875,-0.16371189057826996,0.1417207419872284,1.1911872625350952
1775728173590397700,12.963397705078124,-0.17470745742321014,0.10995574295520782,1.244943380355835
1775728173600468500,12.973468505859374,-0.21380282938480377,0.06108652427792549,1.3060299158096313
1775728173610539300,12.983539306640624,-0.27611109614372253,0.019547687843441963,1.3817771673202515
1775728173620640500,12.993640625,-0.35674530267715454,-0.00855211354792118,1.4795156717300415
1775728173630741800,13.00374169921875,-0.43737950921058655,-0.012217304669320583,1.5906931161880493
1775728173640751600,13.013751708984374,-0.5057964324951172,0.009773843921720982,1.7067575454711914
1775728173650852900,13.023852783203125,-0.5619960427284241,0.042760565876960754,1.8057177066802979
1775728173660923600,13.033923583984375,-0.6120869517326355,0.045204028487205505,1.8643606901168823
1775728173681034800,13.05403466796875,-0.6792821288108826,-0.11972958594560623,1.832595705986023
1775728173691075000,13.064074951171875,-0.6841690540313721,-0.2321287989616394,1.7886134386062622
1775728173701176600,13.074176513671874,-0.6743952035903931,-0.33597588539123535,1.7165313959121704
1775728173711247400,13.084247314453124,-0.66584312915802,-0.4300491213798523,1.615127682685852
1775728173721348600,13.0943486328125,-0.6695083379745483,-0.5106833577156067,1.4746286869049072
1775728173731419400,13.10441943359375,-0.6780604124069214,-0.5693264007568359,1.2986994981765747
1775728173741490200,13.114490234375,-0.7110471725463867,-0.6145304441452026,1.0946705341339111
1775728173751500000,13.1245,-0.7586946487426758,-0.6524040699005127,0.8808676600456238
1775728173781620700,13.154620849609374,-0.9285151958465576,-0.6768386960029602,0.294437050819397
1775728173791630600,13.164630615234374,-0.9285151958465576,-0.6768386960029602,0.294437050819397
1775728173801701400,13.174701416015624,-0.9810495972633362,-0.6487388610839844,0.1417207419872284
1775728173811711200,13.184711181640624,-1.0250319242477417,-0.5693264007568359,0.04153883829712868
1775728173821812500,13.1948125,-1.0250319242477417,-0.5693264007568359,0.04153883829712868
1775728173831883300,13.20488330078125,-1.0335839986801147,-0.5302310585975647,0.05742133408784866
1775728173841954000,13.2149541015625,-1.0299187898635864,-0.48869219422340393,0.09651670604944229
1775728173852024800,13.22502490234375,-1.016479730606079,-0.4434881806373596,0.14905111491680145
1775728173882237200,13.2552373046875,-0.9370672702789307,-0.2919935882091522,0.32498031854629517
1775728173892247000,13.2652470703125,-0.8967501521110535,-0.24556782841682434,0.36163222789764404
1775728173902378800,13.275378662109375,-0.856433093547821,-0.2028072625398636,0.38117989897727966
1775728173922520300,13.295520263671875,-0.7672467231750488,-0.10384709388017654,0.37262779474258423
1775728173932591400,13.30559130859375,-0.7183775305747986,-0.0403171069920063,0.34697145223617554
1775728173942692600,13.315692626953124,-0.6695083379745483,0.024434609338641167,0.3090978264808655
1775728173952763400,13.325763427734374,-0.616973876953125,0.09407325088977814,0.2577851414680481
1775728173972905000,13.345905029296874,-0.50335294008255,0.23090706765651703,0.1514945775270462
1775728173982945300,13.3559453125,-0.4434881806373596,0.29565876722335815,0.10873401165008545
1775728173993046500,13.366046630859374,-0.38728857040405273,0.3591887652873993,0.0708603709936142
1775728174003117300,13.376117431640624,-0.3335324227809906,0.42638394236564636,0.0403171069920063
1775728174013096700,13.3860966796875,-0.27611109614372253,0.5009095072746277,0.02687807008624077
1775728174023167500,13.39616748046875,-0.21868975460529327,0.5742133259773254,0.03787364438176155
1775728174033177000,13.406177001953125,-0.1661553531885147,0.6414085030555725,0.06475171446800232
1775728174043278600,13.416278564453124,-0.1111774742603302,0.7086036801338196,0.1014036312699318
1775728174053379800,13.4263798828125,-0.05375614017248154,0.7672467231750488,0.1563815027475357
1775728174093632500,13.466632568359374,0.06108652427792549,0.9089674949645996,0.4288274049758911
1775728174103703300,13.476703369140624,0.0757472887635231,0.9676105380058289,0.4703662395477295
1775728174113804500,13.486804443359375,0.1062905490398407,1.0238101482391357,0.5082398653030396
1775728174123875300,13.496875244140625,0.15027284622192383,1.0775662660598755,0.5583308339118958
1775728174133946000,13.506946044921875,0.1966986060142517,1.1313223838806152,0.5998696684837341
1775728174144017200,13.51701708984375,0.24678955972194672,1.1557570695877075,0.6340781450271606
1775728174154088000,13.527087890625,0.3237585723400116,1.1594222784042358,0.66584312915802
1775728174164128000,13.5371279296875,0.4178318381309509,1.176526427268982,0.6731734871864319
1775728174194371000,13.56737109375,0.7574729323387146,1.177748203277588,0.7525860071182251
1775728174204411400,13.577411376953124,0.8552113175392151,1.1129964590072632,0.7428121566772461
1775728174214451700,13.58745166015625,0.9443976879119873,1.056796908378601,0.6719517707824707
1775728174224491800,13.59749169921875,1.0299187898635864,1.0152580738067627,0.5546656250953674
1775728174234562600,13.6075625,1.1093312501907349,0.96883225440979,0.41172316670417786
1775728174244664000,13.6176640625,1.1740829944610596,0.9065240025520325,0.25534167885780334
1775728174254673700,13.627673583984375,1.2180652618408203,0.8258898258209229,0.09651670604944229
1775728174264744400,13.637744384765625,1.236391305923462,0.7452555894851685,-0.05619960278272629
1775728174304997400,13.677997314453124,1.018923282623291,0.3384193480014801,-0.3078760802745819
1775728174315068200,13.688068115234374,0.8833111524581909,0.2125810980796814,-0.2724458873271942
1775728174325139000,13.698138916015624,0.7183775305747986,0.09529497474431992,-0.1966986060142517
1775728174335179300,13.70817919921875,0.5400048494338989,-0.00366519158706069,-0.07941248267889023
1775728174345219300,13.71821923828125,0.36651915311813354,-0.08185594528913498,0.07330382615327835
1775728174355259600,13.728259765625,0.20402899384498596,-0.1417207419872284,0.2382374405860901
1775728174365330400,13.738330322265625,0.04642575979232788,-0.17104226350784302,0.384845107793808
1775728174385472000,13.758471923828125,-0.26511552929878235,-0.22113321721553802,0.5167919993400574
1775728174395542800,13.768542724609375,-0.3897320330142975,-0.2785545587539673,0.5277875661849976
1775728174405613800,13.77861376953125,-0.4862487316131592,-0.3628539443016052,0.5180137157440186
1775728174415715000,13.788715087890624,-0.5546656250953674,-0.4593706727027893,0.49357911944389343
1775728174425785900,13.798785888671874,-0.5937610268592834,-0.5534439086914062,0.45814892649650574
1775728174435856600,13.808856689453124,-0.6023131608963013,-0.6426302194595337,0.4190535545349121
1775728174445958000,13.8189580078125,-0.5900958180427551,-0.7232644557952881,0.3689626157283783
1775728174456028700,13.829028564453125,-0.5644394755363464,-0.7929030656814575,0.3078760802745819
1775728174466130200,13.839130126953124,-0.5241223573684692,-0.8515461683273315,0.2272418737411499
1775728174496312000,13.86931201171875,-0.40072759985923767,-0.8894197940826416,-0.05375614017248154
1775728174506382800,13.8793828125,-0.37140607833862305,-0.8820894360542297,-0.11850785464048386
1775728174516453600,13.88945361328125,-0.34574973583221436,-0.8600982427597046,-0.16493362188339233
1775728174536625700,13.909625732421874,-0.31154128909111023,-0.7257078886032104,-0.2064724564552307
1775728174546696400,13.919696533203124,-0.30543261766433716,-0.6206390857696533,-0.20402899384498596
1775728174556767200,13.929767333984374,-0.3017674386501312,-0.48869219422340393,-0.18936823308467865
1775728174566807600,13.9398076171875,-0.3066543638706207,-0.3396410644054413,-0.16493362188339233
1775728174576878300,13.94987841796875,-0.3176499307155609,-0.18448130786418915,-0.12217304855585098
1775728174607090700,13.980090576171875,-0.3445279896259308,0.26633724570274353,-0.09285151958465576
1775728174617161500,13.990161376953125,-0.34208452701568604,0.42271876335144043,-0.1111774742603302
1775728174627201800,14.000201904296874,-0.33108896017074585,0.5876523852348328,-0.09529497474431992
1775728174637242000,14.0102421875,-0.3029891550540924,0.7354817390441895,-0.00855211354792118
1775728174647252000,14.020251953125,-0.2638937830924988,0.8527678847312927,0.16737708449363708
1775728174657353200,14.030353271484374,-0.22113321721553802,0.9480628371238708,0.44593164324760437
1775728174667424000,14.040424072265624,-0.17592918872833252,1.0384708642959595,0.799011766910553
1775728174677494800,14.050494873046874,-0.13316862285137177,1.1203268766403198,1.1716395616531372
