time,seconds_elapsed,z,y,x
1774789948640308700,0.104308837890625,0,0,0
1774789948677358300,0.1413583984375,0.43274831771850586,-0.0563507080078125,-0.05723795294761658
1774789948695883300,0.15988330078125,1.0922999382019043,-0.20715093612670898,0.07046563178300858
1774789948714408000,0.178407958984375,0.7663812637329102,0.026632308959960938,-0.06415051966905594
1774789948732932900,0.196932861328125,0.5486154556274414,0.06750202178955078,-0.24283340573310852
1774789948751457500,0.21545751953125,-0.03211498260498047,-0.10434579849243164,-0.5306601524353027
1774789948769982500,0.233982421875,0.1111917495727539,-0.20297908782958984,-0.7311704754829407
1774789948788507100,0.252507080078125,0.9241704940795898,-0.492431640625,-0.7846614122390747
1774789948807032000,0.271031982421875,1.1850309371948242,-0.27217769622802734,-0.5892884135246277
1774789948825557000,0.289556884765625,1.1613759994506836,-0.2095351219177246,-0.34999239444732666
1774789948844081700,0.30808154296875,0.8325738906860352,0.2196044921875,0.07828717678785324
1774789948862606600,0.326606689453125,0.8241395950317383,0.1260366439819336,0.011273130774497986
1774789948881131500,0.345131591796875,0.10486221313476562,-0.14082860946655273,-0.36376655101776123
1774789948899656200,0.36365625,-0.2774820327758789,-0.2261819839477539,-0.4187931418418884
1774789948918181000,0.38218115234375,-0.3128843307495117,0.032517433166503906,-0.3214925527572632
1774789948936705800,0.400705810546875,-0.3575296401977539,0.2631034851074219,0.039133064448833466
1774789948955230700,0.419230712890625,-0.1945486068725586,0.37451934814453125,0.37474682927131653
1774789948973755400,0.43775537109375,0.30240821838378906,0.32307910919189453,0.2862151563167572
1774789948992280300,0.4562802734375,0.04607391357421875,0.24030828475952148,0.15716859698295593
1774789949010805200,0.47480517578125,-0.3054647445678711,0.18402814865112305,-0.015281066298484802
1774789949029330000,0.493329833984375,-0.5009431838989258,0.19980525970458984,0.016908567398786545
1774789949047854800,0.511854736328125,-0.3553886413574219,0.2927098274230957,0.31227853894233704
1774789949066379500,0.530379638671875,-0.09905242919921875,0.33760738372802734,0.4394896626472473
1774789949084904400,0.548904541015625,-0.1868610382080078,0.24892282485961914,0.3570162057876587
1774789949103429000,0.56742919921875,-0.4797201156616211,0.24253177642822266,0.14044198393821716
1774789949121954000,0.5859541015625,-0.24452877044677734,0.08012151718139648,0.21270859241485596
1774789949140478700,0.604478759765625,0.29964160919189453,-0.05704689025878906,0.41009092330932617
1774789949159003600,0.623003662109375,0.0998830795288086,0.15635395050048828,0.4341002106666565
1774789949177528600,0.641528564453125,-0.5384960174560547,-0.021951675415039062,0.32853400707244873
1774789949196053200,0.66005322265625,-0.5502223968505859,-0.0006723403930664062,0.2922893166542053
1774789949214578200,0.678578125,-0.2507753372192383,0.004468441009521484,0.4747487008571625
1774789949233103000,0.69710302734375,-0.2533407211303711,-0.04665851593017578,0.2776535451412201
1774789949251627800,0.715627685546875,-0.2900381088256836,-0.103240966796875,0.16701069474220276
1774789949270152400,0.73415234375,-0.1718273162841797,0.026047706604003906,0.36263012886047363
1774789949288677400,0.752677490234375,-0.3798999786376953,0.32652997970581055,0.5866951942443848
1774789949307202300,0.771202392578125,-0.24428081512451172,0.27394866943359375,0.31175297498703003
1774789949325727000,0.78972705078125,-0.07592201232910156,0.030670166015625,0.018009066581726074
1774789949344252000,0.808251953125,0.012665748596191406,-0.09856271743774414,0.036859698593616486
1774789949362776600,0.826776611328125,-0.1481342315673828,-0.04912424087524414,0.07969404757022858
1774789949381301500,0.845301513671875,-0.3237476348876953,0.056731224060058594,0.12202770262956619
1774789949399826400,0.863826416015625,-0.17735576629638672,0.23165273666381836,0.2942747473716736
1774789949418351000,0.88235107421875,0.24891090393066406,0.21016502380371094,0.23936183750629425
1774789949436875800,0.900875732421875,-0.016821861267089844,-0.36891984939575195,-0.028978437185287476
1774789949455400700,0.919400634765625,0.5029478073120117,0.10094738006591797,-0.07670858502388
1774789949473925600,0.937925537109375,0.5260715484619141,0.006824970245361328,0.19290414452552795
1774789949492450300,0.9564501953125,0.11021041870117188,-0.06183671951293945,0.20450438559055328
1774789949510975200,0.974975341796875,-0.03911304473876953,0.030072689056396484,0.3275108337402344
1774789949529500200,0.993500244140625,-0.028204917907714844,0.3099093437194824,0.5183849334716797
1774789949548024800,1.01202490234375,-0.0011844635009765625,0.1275167465209961,0.1354447603225708
1774789949566549800,1.0305498046875,-0.17412471771240234,-0.24692702293395996,-0.25227034091949463
1774789949585074400,1.049074462890625,-0.1735687255859375,-0.3279128074645996,-0.4110405445098877
1774789949603599400,1.067599365234375,0.01974010467529297,-0.15065622329711914,-0.11538132280111313
1774789949622124000,1.0861240234375,0.23801898956298828,0.1042780876159668,0.5839696526527405
1774789949640649000,1.10464892578125,0.42151737213134766,0.16879844665527344,0.5373027920722961
1774789949659173600,1.123173583984375,-0.0739898681640625,-0.17820978164672852,0.39041268825531006
1774789949677698600,1.141698486328125,-0.5265684127807617,-0.18938636779785156,-0.12850341200828552
1774789949696223500,1.160223388671875,-0.5906600952148438,0.025938987731933594,-0.07384763658046722
1774789949714748200,1.178748046875,-0.2516345977783203,0.14867115020751953,-0.04809410870075226
1774789949733273000,1.197273193359375,-0.08352375030517578,-0.0007824897766113281,0.1435929238796234
1774789949751797800,1.2157978515625,0.11774444580078125,-0.09645676612854004,0.20120403170585632
1774789949770322700,1.23432275390625,0.10675048828125,0.06395816802978516,0.24118860065937042
1774789949788847400,1.252847412109375,-0.021532058715820312,0.11788082122802734,0.1115950345993042
1774789949807372300,1.271372314453125,-0.2267618179321289,0.15457534790039062,0.01178748905658722
1774789949825897000,1.28989697265625,-0.36338329315185547,0.03561592102050781,0.12906718254089355
1774789949844422000,1.308421875,0.030585289001464844,0.01859283447265625,0.06138312816619873
1774789949862946800,1.32694677734375,0.079681396484375,0.07416820526123047,-0.021169066429138184
1774789949881471500,1.345471435546875,-0.06109333038330078,-0.1510152816772461,0.12141884863376617
1774789949899996400,1.363996337890625,-0.11773967742919922,-0.14268112182617188,0.1019449383020401
1774789949918521000,1.38252099609375,-0.22675418853759766,0.09484624862670898,0.0841090977191925
1774789949937046000,1.4010458984375,-0.29244518280029297,0.11830472946166992,0.1817404180765152
1774789949955570700,1.41957080078125,0.0440826416015625,0.05204916000366211,0.16049250960350037
1774789949974095600,1.438095703125,0.2804412841796875,-0.08002972602844238,0.12249971926212311
1774789949992620500,1.45662060546875,0.06519031524658203,-0.05233430862426758,0.19760754704475403
1774789950011145200,1.475145263671875,-0.5770330429077148,0.1715688705444336,0.2953399419784546
1774789950029670100,1.493670166015625,-0.7728309631347656,0.29886293411254883,0.22962795197963715
1774789950048194800,1.51219482421875,-0.49462890625,0.34258413314819336,0.18899737298488617
1774789950066719700,1.5307197265625,-0.4903593063354492,0.37219762802124023,0.22490516304969788
1774789950085244400,1.549244384765625,-0.25823211669921875,0.49705934524536133,0.11022771149873734
1774789950103769300,1.567769287109375,0.2641010284423828,0.13342905044555664,-0.18298101425170898
1774789950122294000,1.5862939453125,0.29753589630126953,-0.13421058654785156,-0.27068594098091125
1774789950140819000,1.60481884765625,0.39093494415283203,0.14191436767578125,0.1369609385728836
1774789950159343900,1.62334375,0.3979063034057617,0.484555721282959,0.4901178181171417
1774789950177868500,1.64186865234375,0.17284488677978516,0.6329984664916992,0.3373461961746216
1774789950196393500,1.6603935546875,0.21905040740966797,0.5873160362243652,-0.22614175081253052
1774789950214918400,1.67891845703125,0.21408939361572266,-0.025571346282958984,0.04647369682788849
1774789950233443000,1.697443115234375,0.14146041870117188,-0.3477654457092285,-0.10934148728847504
1774789950251968000,1.715968017578125,0.09641170501708984,-0.10005760192871094,-0.18642958998680115
1774789950270492700,1.73449267578125,0.13663005828857422,-0.19393253326416016,0.1819923222064972
1774789950289017600,1.753017578125,0.5500030517578125,-0.7239651679992676,0.22227317094802856
1774789950307542300,1.771542236328125,0.4369211196899414,-0.6094045639038086,0.16281917691230774
1774789950326067200,1.790067138671875,-0.1008920669555664,-0.08080434799194336,-0.12304933369159698
1774789950344592100,1.808592041015625,-0.30937767028808594,0.16668939590454102,-0.4524248540401459
1774789950363116800,1.82711669921875,0.2519969940185547,0.08849573135375977,-0.1012285053730011
1774789950381641700,1.845641845703125,0.1362905502319336,-0.3307657241821289,0.40812450647354126
1774789950400166400,1.86416650390625,0.05347156524658203,-0.29657983779907227,0.08595439791679382
1774789950418691300,1.88269140625,-0.031233787536621094,0.18172216415405273,-0.11515051126480103
1774789950437216000,1.901216064453125,-0.22779560089111328,0.10065031051635742,0.07558894157409668
1774789950455741000,1.919740966796875,-0.35092830657958984,0.13541650772094727,0.1308073103427887
1774789950474265900,1.938265869140625,0.05988311767578125,0.16254901885986328,0.47762930393218994
1774789950492790500,1.95679052734375,0.33885955810546875,-0.05991172790527344,0.15959298610687256
1774789950511315500,1.9753154296875,0.05881023406982422,-0.4269838333129883,-0.17414474487304688
1774789950529840400,1.99384033203125,-0.27741527557373047,-0.31819677352905273,-0.01189500093460083
1774789950548365000,2.012364990234375,-0.22968482971191406,0.02552652359008789,0.3114032447338104
1774789950566890000,2.030889892578125,0.03379058837890625,0.0013241767883300781,0.12542521953582764
1774789950585414700,2.04941455078125,0.11683177947998047,-0.21710824966430664,-0.2064240574836731
1774789950603939600,2.067939697265625,-0.2454242706298828,-0.2233600616455078,-0.13486617803573608
1774789950622464500,2.086464599609375,-0.24503421783447266,-0.15878820419311523,-0.17412376403808594
1774789950640989200,2.1049892578125,0.10663986206054688,-0.28045082092285156,-0.4086490273475647
1774789950659514000,2.12351416015625,-0.2968864440917969,-0.06431293487548828,-0.41296809911727905
1774789950678039000,2.1420390625,-0.8854870796203613,0.07105064392089844,-0.40981125831604004
1774789950696563700,2.160563720703125,-1.0575523376464844,-0.06727457046508789,-0.05976998805999756
1774789950715088600,2.179088623046875,-0.37592506408691406,0.29954957962036133,0.44459450244903564
1774789950733613300,2.19761328125,0.5640382766723633,0.3346090316772461,-0.031103849411010742
1774789950752138200,2.21613818359375,0.4771709442138672,-0.20654058456420898,-0.43996477127075195
1774789950770663200,2.2346630859375,-0.3358621597290039,-0.08446025848388672,-0.5320801734924316
1774789950789187800,2.253187744140625,-0.0034437179565429688,-0.03756284713745117,-0.02988290786743164
1774789950807712800,2.271712646484375,0.5481691360473633,0.015095710754394531,0.2698049545288086
1774789950826237400,2.290237548828125,0.660304069519043,-0.07434511184692383,0.024219274520874023
1774789950844762400,2.308762451171875,0.821314811706543,-0.4540519714355469,-0.6810512542724609
1774789950863287300,2.327287353515625,1.327362060546875,-0.01929187774658203,-0.5997074842453003
1774789950881812000,2.34581201171875,-0.4364643096923828,-0.1426849365234375,0.22999775409698486
1774789950900337000,2.3643369140625,-3.1022748947143555,0.7029995918273926,0.6569805145263672
1774789950918861800,2.38286181640625,-1.7267861366271973,1.0116705894470215,0.15966081619262695
1774789950937386800,2.40138671875,0.10482120513916016,0.27454280853271484,0.05241215229034424
1774789950955911400,2.419911376953125,0.0413665771484375,0.23100662231445312,-0.3534367084503174
1774789950974436000,2.43843603515625,-0.2815389633178711,-0.2641911506652832,-0.4065701961517334
1774789950992961000,2.4569609375,0.048323631286621094,-0.37282705307006836,0.5276989936828613
1774789951011486000,2.47548583984375,0.07865333557128906,0.13656949996948242,0.4001309871673584
1774789951030011000,2.494010986328125,-0.010305404663085938,0.01198434829711914,-0.12061476707458496
1774789951048535600,2.51253564453125,0.23972034454345703,-0.3150467872619629,-0.8369157314300537
1774789951067060500,2.531060546875,0.4088726043701172,-0.3987908363342285,-0.5220298171043396
1774789951085585200,2.549585205078125,0.7774181365966797,0.33656835556030273,0.12647861242294312
1774789951104110000,2.568110107421875,0.5981359481811523,0.46221065521240234,0.7725691795349121
1774789951122635000,2.586635009765625,0.8526573181152344,0.3689274787902832,0.1753673553466797
1774789951141160000,2.605159912109375,0.42973804473876953,0.055501461029052734,-0.2955208420753479
1774789951159684600,2.6236845703125,-0.25026607513427734,-0.34902048110961914,-0.765270471572876
1774789951178209500,2.64220947265625,0.013102531433105469,-0.2571992874145508,-0.5210577249526978
1774789951196734200,2.660734130859375,0.1820850372314453,0.0012731552124023438,-0.03295391798019409
1774789951215259100,2.679259033203125,0.028206825256347656,0.26649904251098633,0.2330358922481537
1774789951233784000,2.6977841796875,-0.1619577407836914,0.4466090202331543,0.4951072633266449
1774789951252309000,2.71630908203125,-0.5623083114624023,0.33705759048461914,0.3187980055809021
1774789951270833700,2.734833740234375,-0.46990299224853516,0.08279657363891602,-0.1463281512260437
1774789951289358600,2.753358642578125,0.3633546829223633,-0.17376279830932617,-0.5070282220840454
1774789951307883500,2.771883544921875,0.5682621002197266,-0.28679752349853516,-0.09585389494895935
1774789951326408200,2.790408203125,0.28163909912109375,-0.0065822601318359375,0.35448092222213745
1774789951344933000,2.80893310546875,-0.22690296173095703,0.12711858749389648,0.39123356342315674
1774789951363458000,2.8274580078125,-0.3744955062866211,0.07547903060913086,0.05516999959945679
1774789951381983000,2.84598291015625,-0.1318826675415039,-0.09531736373901367,-0.24190682172775269
1774789951400507600,2.864507568359375,0.18034839630126953,-0.2027578353881836,0.04793936014175415
1774789951419032600,2.883032470703125,0.48806285858154297,-0.2512173652648926,0.14350450038909912
1774789951437557200,2.90155712890625,0.3679475784301758,-0.31952762603759766,0.13033835589885712
1774789951456082200,2.920082275390625,0.2420654296875,-0.11419296264648438,0.06687754392623901
1774789951474607000,2.938607177734375,-0.021757125854492188,-0.26647281646728516,-0.20101460814476013
1774789951493132000,2.957132080078125,-0.4964027404785156,-0.6434750556945801,-0.06982499361038208
1774789951511657000,2.975656982421875,-0.19023704528808594,-0.12153387069702148,0.05854484438896179
1774789951530181600,2.994181640625,-0.14020252227783203,0.5102148056030273,0.09370073676109314
1774789951548706600,3.01270654296875,-0.4849205017089844,0.5205397605895996,0.09046727418899536
1774789951567231500,3.0312314453125,-0.5658531188964844,0.48581743240356445,0.0548819899559021
1774789951585756200,3.049756103515625,-1.0477290153503418,0.5199341773986816,-0.11409968137741089
1774789951604281000,3.068281005859375,0.039368629455566406,0.17543745040893555,-0.37550967931747437
1774789951622806000,3.086805908203125,0.853302001953125,-0.06904935836791992,-0.1446460783481598
1774789951641330700,3.10533056640625,0.48488521575927734,-0.09934473037719727,0.1916099488735199
1774789951659855600,3.123855712890625,0.034442901611328125,0.20082855224609375,0.384668231010437
1774789951678380500,3.142380615234375,-0.05495738983154297,0.39828014373779297,0.15472477674484253
1774789951696905500,3.160905517578125,0.072662353515625,0.11687374114990234,-0.3541049361228943
1774789951715430400,3.179430419921875,0.5320606231689453,-0.15272903442382812,-0.40042752027511597
1774789951733955000,3.197955078125,0.2127676010131836,-0.1888270378112793,-0.03068414330482483
1774789951752480000,3.21647998046875,-0.33130836486816406,0.13173151016235352,0.42363518476486206
1774789951771005000,3.2350048828125,-0.04909229278564453,0.18643856048583984,0.4198980927467346
1774789951789529900,3.25352978515625,0.34282779693603516,0.11455202102661133,0.2624993324279785
1774789951808054500,3.272054443359375,1.0332365036010742,-0.22412776947021484,-0.31059205532073975
1774789951826579500,3.290579345703125,0.5882468223571777,-0.6493630409240723,-0.12485092878341675
1774789951845104400,3.3091044921875,-0.5256500244140625,0.19636249542236328,0.3355449140071869
1774789951863629300,3.32762939453125,-1.0531387329101562,0.7139525413513184,0.4525434076786041
1774789951882154000,3.346154052734375,-1.2722392082214355,-0.12496471405029297,0.3157041072845459
1774789951900679000,3.364678955078125,-1.524116039276123,-0.15638399124145508,0.5640181303024292
1774789951919203800,3.383203857421875,-0.9719433784484863,0.9826521873474121,0.7749707102775574
1774789951937728800,3.401728759765625,-0.6430039405822754,-0.2728242874145508,0.4991096258163452
1774789951956253400,3.42025341796875,-1.8898801803588867,-0.7697010040283203,-0.07018834352493286
1774789951974778400,3.4387783203125,-0.1964855194091797,0.6118254661560059,-0.816314160823822
1774789951993303300,3.45730322265625,1.542172908782959,0.19439268112182617,-0.2522760033607483
1774789952011828200,3.475828125,1.5562000274658203,-0.341768741607666,-0.30507683753967285
1774789952030353000,3.494352783203125,0.750272274017334,0.025298118591308594,-0.26081573963165283
1774789952048877800,3.5128779296875,0.34220361709594727,0.16975879669189453,-0.08026653528213501
1774789952067402800,3.53140283203125,0.20962142944335938,0.29651641845703125,-0.3264731168746948
1774789952085927700,3.549927734375,0.6882781982421875,0.3242645263671875,0.004913508892059326
1774789952104452600,3.56845263671875,0.7445483207702637,0.11921453475952148,0.20137786865234375
1774789952122977300,3.586977294921875,0.026414871215820312,-0.33133459091186523,-0.21723675727844238
1774789952141502200,3.605502197265625,-0.6522660255432129,0.35123109817504883,-0.20632719993591309
1774789952160027100,3.624027099609375,-0.3413233757019043,0.3839287757873535,0.21316903829574585
1774789952178552000,3.642552001953125,-0.03174543380737305,0.20510053634643555,0.5666729807853699
1774789952197077000,3.661076904296875,-0.7934513092041016,0.3024277687072754,0.5445004105567932
1774789952215602000,3.679601806640625,-1.256861686706543,0.12994909286499023,0.4074992537498474
1774789952234126600,3.698126708984375,-0.8206639289855957,0.27786874771118164,0.41299760341644287
1774789952252651500,3.716651611328125,-0.6495099067687988,0.6853971481323242,0.3754219114780426
1774789952271176400,3.735176513671875,-1.0871334075927734,0.15094470977783203,0.554837703704834
1774789952289701400,3.753701416015625,-1.7040948867797852,0.41720151901245117,0.3295237720012665
1774789952308226300,3.772226318359375,-1.339216709136963,0.7924585342407227,0.26808884739875793
1774789952326751200,3.790751220703125,-0.7975106239318848,0.8478994369506836,0.5834417343139648
1774789952345276000,3.80927587890625,-0.2244720458984375,0.4216480255126953,0.17710673809051514
1774789952363800800,3.82780078125,0.32945919036865234,0.36377811431884766,-0.3289652466773987
1774789952382325800,3.84632568359375,0.23152875900268555,0.9406719207763672,-0.19881945848464966
1774789952400850700,3.8648505859375,0.31620216369628906,0.5440273284912109,0.504585862159729
1774789952419375400,3.883375244140625,-0.3773384094238281,0.44731998443603516,0.2871359586715698
1774789952437900300,3.901900390625,-0.19424962997436523,1.0508084297180176,0.4551120102405548
1774789952456425200,3.92042529296875,0.0847768783569336,1.0253586769104004,0.7216418981552124
1774789952474950100,3.9389501953125,-0.5789175033569336,1.2977075576782227,0.479874849319458
1774789952493475000,3.95747509765625,-0.7708463668823242,0.5864453315734863,0.10306888818740845
1774789952512000000,3.976,-1.0293455123901367,0.2612028121948242,-0.7470084428787231
1774789952530525000,3.99452490234375,-1.0375428199768066,0.8261327743530273,-0.7909859418869019
1774789952549049900,4.0130498046875,-1.2080039978027344,1.2042255401611328,0.3920038640499115
1774789952567574500,4.031574462890625,-0.6424946784973145,1.0477633476257324,0.8723467588424683
1774789952586099500,4.050099365234375,0.14862489700317383,0.25585365295410156,0.19349311292171478
1774789952604624400,4.068624267578125,0.018913745880126953,0.07024288177490234,-0.4257696568965912
1774789952623149300,4.0871494140625,-0.390017032623291,0.8047537803649902,0.09083229303359985
1774789952641674200,4.10567431640625,-0.6202726364135742,1.1507105827331543,0.7932913303375244
1774789952660199200,4.12419921875,-0.5162086486816406,0.7410850524902344,0.5127190351486206
1774789952678724000,4.14272412109375,-1.1753158569335938,0.6160750389099121,0.2360849678516388
1774789952697249000,4.1612490234375,-0.6627817153930664,1.0776786804199219,0.3492761254310608
1774789952715773700,4.179773681640625,-0.2713632583618164,1.0235447883605957,1.045337438583374
1774789952734298600,4.198298583984375,0.18544530868530273,1.0752358436584473,1.1892231702804565
1774789952752823600,4.216823486328125,0.1578211784362793,0.8094663619995117,0.6409600377082825
1774789952771348500,4.235348388671875,0.8718791007995605,0.5804853439331055,0.37105217576026917
1774789952789873400,4.253873291015625,1.4499807357788086,0.9484591484069824,0.7996153831481934
1774789952808398300,4.2723984375,-1.8599023818969727,1.8506231307983398,0.6895911693572998
1774789952826923300,4.29092333984375,-8.100034713745117,1.3297834396362305,-0.8212901949882507
1774789952845448200,4.3094482421875,2.0422868728637695,2.6563596725463867,1.1322073936462402
1774789952863973000,4.32797314453125,5.375763416290283,0.9670891761779785,-0.02634453773498535
1774789952882498000,4.346498046875,5.391165733337402,0.4699125289916992,-0.34349948167800903
1774789952901023000,4.36502294921875,1.8932476043701172,-0.5192804336547852,-0.34273260831832886
1774789952919547600,4.383547607421875,-3.0862128734588623,-0.37184810638427734,-0.9373545050621033
1774789952938072600,4.402072509765625,-2.453002452850342,0.6465339660644531,-1.0731663703918457
1774789952956597800,4.42059765625,-1.5391368865966797,-0.1385054588317871,-0.13579750061035156
1774789952975122700,4.439122802734375,1.9049835205078125,-1.2580666542053223,0.1257343888282776
1774789952993647400,4.4576474609375,2.40519380569458,-1.6461443901062012,-0.46955549716949463
1774789953012172300,4.47617236328125,1.7605509757995605,-1.8056211471557617,-1.8514922857284546
1774789953030697200,4.494697265625,1.5601658821105957,-1.3708062171936035,-2.2294344902038574
1774789953049222100,4.51322216796875,-0.11034917831420898,-0.7065005302429199,-0.7941747903823853
1774789953067747000,4.5317470703125,-1.2518854141235352,-0.061037540435791016,0.8191642761230469
1774789953086272000,4.55027197265625,-0.6800332069396973,0.052704811096191406,0.6635896563529968
1774789953104797000,4.568796875,0.2265028953552246,-0.8199739456176758,-0.42585694789886475
1774789953123321900,4.58732177734375,0.15152597427368164,-1.2131915092468262,-1.2853678464889526
1774789953141846800,4.6058466796875,-0.3964071273803711,-1.2631478309631348,-1.3978071212768555
1774789953160371700,4.624371826171875,-0.742408275604248,-1.070263385772705,-0.9673731327056885
1774789953178896600,4.642896728515625,-1.4141030311584473,-0.6474094390869141,-0.13774603605270386
1774789953197421600,4.661421630859375,-1.8209648132324219,0.14028263092041016,0.3321828842163086
1774789953215946500,4.679946533203125,-1.9937334060668945,0.4711794853210449,0.14631259441375732
1774789953234471400,4.698471435546875,-1.984095573425293,0.1845684051513672,-0.651245653629303
1774789953252996400,4.716996337890625,-0.29937076568603516,-0.42696428298950195,-1.0535194873809814
1774789953271521300,4.735521240234375,0.38845252990722656,-0.532416820526123,-0.7878782749176025
1774789953290046200,4.754046142578125,0.32590436935424805,0.10911226272583008,-0.7812663912773132
1774789953308571100,4.772571044921875,-0.4886460304260254,0.5202655792236328,-0.5676226615905762
1774789953327096000,4.791095947265625,-1.0056109428405762,0.582033634185791,-0.3910544514656067
1774789953345621000,4.80962109375,-1.1554837226867676,0.19824457168579102,-0.5513075590133667
1774789953364146000,4.82814599609375,-1.2332935333251953,0.016874313354492188,-0.436125248670578
1774789953382670800,4.8466708984375,-0.6033768653869629,0.5739116668701172,-0.1761074662208557
1774789953401195800,4.86519580078125,0.19739246368408203,1.0623927116394043,0.42569422721862793
1774789953419720700,4.883720703125,-0.054317474365234375,0.792670726776123,0.10721608996391296
1774789953438245600,4.90224560546875,-0.5484380722045898,0.5230975151062012,-0.9191999435424805
1774789953456770600,4.9207705078125,-0.7248644828796387,0.4477729797363281,-1.210799217224121
1774789953475295500,4.93929541015625,-0.7088251113891602,0.6210894584655762,-0.7398480176925659
1774789953493820400,4.9578203125,-0.1314697265625,1.1835904121398926,0.12641429901123047
1774789953512345300,4.976345458984375,0.7586288452148438,1.6234130859375,0.9277812838554382
1774789953530870300,4.994870361328125,1.5749130249023438,1.329627513885498,0.757461667060852
1774789953549395200,5.013395263671875,1.4909820556640625,0.42129993438720703,-0.1099027693271637
1774789953567920000,5.031920166015625,1.348372459411621,0.787564754486084,-0.689419686794281
1774789953586445000,5.050445068359375,0.8047313690185547,1.2483348846435547,-0.2932842969894409
1774789953604970000,5.068969970703125,0.0701913833618164,1.506749153137207,0.4164758324623108
1774789953623495000,5.087494873046875,0.1184549331665039,1.4989962577819824,1.5220495462417603
1774789953642019800,5.106019775390625,1.150874137878418,0.7605743408203125,1.4326374530792236
1774789953660544800,5.124544677734375,2.0417470932006836,-0.5500106811523438,0.13037361204624176
1774789953679069700,5.143069580078125,2.015066146850586,-0.9588527679443359,-0.617184042930603
1774789953697594600,5.1615947265625,1.6970453262329102,-0.800877571105957,-0.061982810497283936
1774789953716119600,5.18011962890625,1.0381546020507812,-0.47022533416748047,0.7565308809280396
1774789953734644500,5.19864453125,-0.2716407775878906,-0.4310789108276367,0.7262002825737
1774789953753169400,5.21716943359375,-1.289088249206543,-0.30783843994140625,0.26699385046958923
1774789953771694300,5.2356943359375,-0.9457769393920898,-0.19625425338745117,0.4359073340892792
1774789953790219300,5.25421923828125,-0.5650806427001953,-0.19552898406982422,0.9290205240249634
1774789953808744200,5.272744140625,-0.23071527481079102,-0.061367034912109375,1.2408130168914795
1774789953827269000,5.29126904296875,-0.06385231018066406,-0.1144566535949707,1.3121001720428467
1774789953845794000,5.3097939453125,-0.11240959167480469,-0.6256985664367676,0.7393783330917358
1774789953864319200,5.3283193359375,-0.4334096908569336,-0.9550166130065918,0.19263194501399994
1774789953882844000,5.346843994140625,-1.0723342895507812,-0.9018630981445312,0.13922423124313354
1774789953901368800,5.365368896484375,-1.320657730102539,-0.635195255279541,0.04413706064224243
1774789953919894000,5.38389404296875,-1.4668550491333008,-0.3114743232727051,0.24221062660217285
1774789953938418700,5.402418701171875,-1.6071233749389648,-0.17245817184448242,0.5619869828224182
1774789953956944000,5.42094384765625,-1.7643437385559082,-0.11775779724121094,0.36804476380348206
1774789953975468800,5.43946875,-1.5325441360473633,0.053864479064941406,0.11872410774230957
1774789953993993700,5.45799365234375,-1.0766782760620117,0.05991840362548828,0.6051572561264038
1774789954012518700,5.4765185546875,-0.9362602233886719,0.05007600784301758,1.0231740474700928
1774789954031043600,5.495043701171875,-0.9408555030822754,0.2024698257446289,0.9998505115509033
1774789954049568500,5.513568603515625,-0.9585275650024414,0.21090269088745117,0.5746489763259888
1774789954068093400,5.532093505859375,-1.0847234725952148,-0.029773235321044922,0.12235161662101746
1774789954086618600,5.55061865234375,-0.9321250915527344,0.16271543502807617,0.03295636177062988
1774789954105143300,5.569143310546875,-0.5843582153320312,0.3546161651611328,0.3953341841697693
1774789954123668500,5.58766845703125,0.03831958770751953,0.5493369102478027,0.7155752182006836
1774789954142193400,5.606193359375,-0.1441335678100586,0.5703654289245605,0.24334630370140076
1774789954160718300,5.62471826171875,-0.039832115173339844,0.7881522178649902,-0.09462904930114746
1774789954179243300,5.6432431640625,0.42852210998535156,0.8774600028991699,0.14403760433197021
1774789954197768200,5.661768310546875,0.7387962341308594,0.9814982414245605,0.04360753297805786
1774789954216293000,5.680293212890625,0.7236757278442383,1.116626262664795,-0.32760941982269287
1774789954234818000,5.698818115234375,0.42254638671875,1.7743706703186035,-0.7298470139503479
1774789954253343000,5.717343017578125,-0.45768213272094727,2.022315502166748,-1.3435386419296265
1774789954271868000,5.735867919921875,-0.3075675964355469,1.7726435661315918,-1.5892300605773926
1774789954290393000,5.75439306640625,2.046102523803711,0.9506993293762207,-0.9406077861785889
1774789954308917800,5.772917724609375,4.93754768371582,0.042827606201171875,-0.09511122107505798
1774789954327443000,5.79144287109375,5.8697710037231445,-1.219003677368164,-0.5053659677505493
1774789954345967900,5.8099677734375,4.327303886413574,-1.7028918266296387,-1.3547577857971191
1774789954364492800,5.828492919921875,2.2536020278930664,-0.9131004810333252,-1.5078709125518799
1774789954383017700,5.847017822265625,0.3134307861328125,-0.3261227607727051,-1.1616233587265015
1774789954401542700,5.865542724609375,-0.7655496597290039,-0.7028002738952637,-1.0472006797790527
1774789954420067600,5.884067626953125,-0.7419939041137695,-0.6504983901977539,-0.8565778136253357
1774789954438592800,5.9025927734375,-0.3671150207519531,-0.5239429473876953,-0.48299968242645264
1774789954457117400,5.921117431640625,-0.2562236785888672,-0.8210434913635254,-0.32714569568634033
1774789954475642600,5.939642578125,-0.5059099197387695,-1.0572686195373535,-0.3244186043739319
1774789954494167600,5.95816748046875,-0.5735654830932617,-0.7743058204650879,0.1927524209022522
1774789954512692500,5.9766923828125,-0.1557760238647461,-0.762077808380127,0.6650164723396301
1774789954531217400,5.995217529296875,-0.19174766540527344,-1.1513233184814453,0.56947922706604
1774789954549742300,6.013742431640625,-0.1843433380126953,-1.266808032989502,0.43483465909957886
1774789954568267500,6.032267578125,-0.43972110748291016,-1.2893648147583008,0.3594740331172943
1774789954586792400,6.05079248046875,-1.3665637969970703,-1.1695914268493652,0.03131520748138428
1774789954605317400,6.0693173828125,-1.7755327224731445,-0.7614731788635254,-0.24314919114112854
1774789954623842300,6.08784228515625,-2.18257474899292,-0.6447815895080566,0.09143224358558655
1774789954642367200,6.1063671875,-2.3030967712402344,-0.5022745132446289,0.16413173079490662
1774789954660892200,6.12489208984375,-2.1110219955444336,-0.060823917388916016,-0.029968738555908203
1774789954679417300,6.143417236328125,-1.6898350715637207,0.06369400024414062,-0.17480415105819702
1774789954697942300,6.1619423828125,-1.5244340896606445,-0.08906030654907227,-0.15387943387031555
1774789954716467200,6.18046728515625,-0.7700567245483398,0.11966753005981445,-0.05271795392036438
1774789954734992100,6.1989921875,-0.466400146484375,0.30271339416503906,-0.11581924557685852
1774789954753517000,6.21751708984375,-0.5456027984619141,0.5336508750915527,-0.502246618270874
1774789954772042000,6.2360419921875,-0.6759023666381836,0.37630176544189453,-0.7092577219009399
1774789954790567200,6.254567138671875,-0.6067466735839844,0.7572135925292969,-0.5988751649856567
1774789954809092000,6.273092041015625,-0.015058517456054688,1.0856499671936035,-0.31577736139297485
1774789954827617000,6.291616943359375,0.8047876358032227,0.9104733467102051,-0.01808430254459381
1774789954846142000,6.310141845703125,1.1995124816894531,0.7386431694030762,-0.1408754140138626
1774789954864667000,6.3286669921875,1.9746427536010742,0.8620028495788574,-0.14518117904663086
1774789954883192000,6.347192138671875,2.5616273880004883,0.8971462249755859,-0.11623549461364746
1774789954901717000,6.365717041015625,2.1488094329833984,1.560722827911377,0.13331127166748047
1774789954920242000,6.384241943359375,1.1399364471435547,1.34205961227417,0.8985368609428406
1774789954938766800,6.402766845703125,1.1524381637573242,0.8737692832946777,1.7626539468765259
1774789954957291800,6.421291748046875,1.7566871643066406,0.028635025024414062,1.5119588375091553
1774789954975817000,6.43981689453125,1.9021263122558594,-0.6538300514221191,0.9627645015716553
1774789954994342000,6.458341796875,1.5533370971679688,-0.9148693084716797,0.42541491985321045
1774789955012866800,6.47686669921875,0.3363313674926758,-0.535731315612793,0.30084428191185
1774789955031391700,6.495391845703125,-1.0388221740722656,0.2946033477783203,0.663881242275238
1774789955049916700,6.513916748046875,-1.5339164733886719,0.125701904296875,0.4856526553630829
1774789955068441900,6.53244189453125,-0.900087833404541,-0.2591986656188965,0.6917874813079834
1774789955086966800,6.550966796875,0.6708402633666992,-0.27220726013183594,1.0644521713256836
1774789955105491700,6.56949169921875,1.2373123168945312,-0.5869474411010742,1.214240550994873
1774789955124016600,6.5880166015625,0.8521127700805664,-0.45240020751953125,0.9623399972915649
1774789955142541600,6.60654150390625,0.05384540557861328,-0.6669683456420898,0.4419545829296112
1774789955161066800,6.625066650390625,-0.4207115173339844,-1.1610307693481445,0.13941502571105957
1774789955179591700,6.643591796875,-0.5679550170898438,-1.2357463836669922,0.000545307993888855
1774789955198116600,6.66211669921875,-0.9327249526977539,-1.0986530780792236,-0.1789657473564148
1774789955216641500,6.6806416015625,-1.3766374588012695,-0.9844841957092285,-0.12579643726348877
1774789955235166700,6.699166748046875,-2.061950206756592,-0.6613926887512207,0.10148268938064575
1774789955253691600,6.717691650390625,-2.6174259185791016,-0.2024078369140625,0.29499369859695435
1774789955272216600,6.736216552734375,-2.1201562881469727,0.02551412582397461,0.45042410492897034
1774789955290741500,6.754741455078125,-2.1189165115356445,0.09733963012695312,0.5867042541503906
1774789955309266400,6.773266357421875,-1.4848098754882812,0.44344472885131836,0.592487633228302
1774789955327791600,6.79179150390625,-0.944796085357666,0.377744197845459,0.9517488479614258
1774789955346316500,6.810316650390625,-0.7291746139526367,0.14520835876464844,0.8106399774551392
1774789955364841500,6.828841552734375,-0.5649347305297852,0.26822948455810547,0.30262234807014465
1774789955383366400,6.847366455078125,-0.11702346801757812,0.6935830116271973,0.06489038467407227
1774789955401891300,6.865891357421875,0.1844635009765625,0.7865548133850098,-0.05907350778579712
1774789955420416500,6.88441650390625,0.657130241394043,0.9049267768859863,-0.17665749788284302
1774789955438941400,6.90294140625,1.2083864212036133,1.001427173614502,0.0030982494354248047
1774789955457466400,6.92146630859375,1.2599496841430664,0.7618932723999023,0.1732829213142395
1774789955475991300,6.9399912109375,1.2660694122314453,0.7489595413208008,0.04791608452796936
1774789955494516500,6.9585166015625,1.6766681671142578,0.8717122077941895,0.102813720703125
1774789955513041400,6.97704150390625,1.8308897018432617,1.0524678230285645,-0.41657382249832153
1774789955531566300,6.99556640625,0.6521244049072266,1.6983551979064941,-1.7519173622131348
1774789955550091500,7.014091552734375,-0.7413578033447266,2.2420711517333984,-2.1599080562591553
1774789955568616200,7.0326162109375,0.9392709732055664,1.2700004577636719,-0.9665517210960388
1774789955587141400,7.051141357421875,4.7188310623168945,-0.3924703598022461,-0.0023384690284729004
1774789955605666300,7.069666259765625,5.732291221618652,-1.951500415802002,-0.6486884355545044
1774789955624191200,7.088191162109375,4.2776594161987305,-2.5539231300354004,-1.9188530445098877
1774789955642716400,7.10671630859375,1.304509162902832,-1.3931856155395508,-1.8971667289733887
1774789955661241300,7.125241455078125,-1.0247230529785156,-0.3346872329711914,-1.1212605237960815
1774789955679766300,7.143766357421875,-1.6228466033935547,-0.5068511962890625,-0.7278756499290466
1774789955698291200,7.162291259765625,-0.8446464538574219,-0.8516135215759277,-0.4280758500099182
1774789955716816400,7.18081640625,-0.010525703430175781,-0.9661226272583008,-0.22765898704528809
1774789955735341300,7.19934130859375,0.27535152435302734,-1.109692096710205,0.20330388844013214
1774789955753866200,7.2178662109375,0.3857545852661133,-1.1085352897644043,0.7035377025604248
1774789955772391400,7.236391357421875,0.023703575134277344,-1.140218734741211,1.0790183544158936
1774789955790916400,7.254916259765625,-0.7618255615234375,-1.009511947631836,1.1637208461761475
1774789955809441300,7.273441162109375,-1.8648223876953125,-0.8396248817443848,0.7473917603492737
1774789955827966200,7.29196630859375,-2.6707940101623535,-1.1203508377075195,0.14843516051769257
1774789955846491400,7.310491455078125,-2.6309814453125,-1.3594388961791992,-0.32269302010536194
1774789955865016300,7.329016357421875,-2.480443000793457,-1.451627492904663,-0.4351564943790436
1774789955883541200,7.347541259765625,-1.897799015045166,-1.0441153049468994,-0.31723886728286743
1774789955902066400,7.36606640625,-1.996734619140625,-0.5282688140869141,0.09282845258712769
1774789955920591400,7.38459130859375,-2.029478073120117,0.0022592544555664062,0.3737521171569824
1774789955939116300,7.4031162109375,-2.533985137939453,0.18379545211791992,0.0640372484922409
1774789955957641200,7.42164111328125,-2.081613540649414,0.3479623794555664,-0.1302708238363266
1774789955976166100,7.440166259765625,-1.3110685348510742,0.23776817321777344,0.06795899569988251
1774789955994691300,7.45869140625,-0.6302824020385742,0.5150485038757324,-0.18515092134475708
1774789956013216300,7.47721630859375,-0.17056560516357422,0.5947022438049316,-0.5816068649291992
1774789956031741200,7.4957412109375,0.7096834182739258,0.6842951774597168,-0.7539492845535278
1774789956050266000,7.51426611328125,1.0449047088623047,1.0912842750549316,-0.34381017088890076
1774789956068791300,7.532791259765625,1.2447853088378906,1.285104751586914,-0.15677306056022644
1774789956087316200,7.551316162109375,0.9744768142700195,1.135939121246338,-0.19426293671131134
1774789956105841200,7.569841064453125,1.3039865493774414,0.989499568939209,-0.5985863208770752
1774789956124366300,7.588366455078125,2.159682273864746,0.5981359481811523,-0.45440226793289185
1774789956142891300,7.606891357421875,2.1199121475219727,0.6113829612731934,-0.4184545576572418
1774789956161416200,7.625416259765625,0.537470817565918,1.1345038414001465,-0.7663765549659729
1774789956179941000,7.643941162109375,-0.13993263244628906,0.583399772644043,0.07850030809640884
1774789956198466300,7.66246630859375,1.6692848205566406,-0.1889481544494629,1.385066270828247
1774789956216991200,7.6809912109375,3.869586944580078,-0.6682367324829102,1.9397727251052856
1774789956235516200,7.69951611328125,3.6654443740844727,-1.4425134658813477,1.078696370124817
1774789956254041000,7.718041015625,1.7065401077270508,-1.3226938247680664,-0.26436808705329895
1774789956272566300,7.736566162109375,-1.0487618446350098,-0.2370753288269043,-0.6204160451889038
1774789956291091200,7.75509130859375,-1.5473175048828125,0.3637537956237793,-0.05864515155553818
1774789956309616000,7.7736162109375,-0.13751983642578125,0.09517908096313477,1.155005931854248
1774789956328141300,7.792141357421875,1.3579378128051758,-0.3927774429321289,1.2515647411346436
1774789956346666200,7.810666259765625,1.7611160278320312,-1.0929584503173828,0.16341407597064972
1774789956365191400,7.82919140625,1.1703720092773438,-1.3471789360046387,-0.697026252746582
1774789956383716400,7.84771630859375,-0.09642314910888672,-0.814608097076416,-0.5232409834861755
1774789956402241300,7.8662412109375,-1.1517972946166992,-0.45235347747802734,-0.14024139940738678
1774789956420766200,7.88476611328125,-1.6386899948120117,-0.5237705707550049,-0.02471846714615822
1774789956439291400,7.90329150390625,-1.6688566207885742,-0.6831450462341309,-0.2013079822063446
1774789956457816300,7.92181640625,-1.791275978088379,-0.9308779239654541,-0.704386293888092
1774789956476341200,7.94034130859375,-1.9781761169433594,-0.7611548900604248,-0.8784990310668945
1774789956494866400,7.958866455078125,-2.1623458862304688,-0.35445117950439453,-0.5700157880783081
1774789956513391400,7.977391357421875,-2.1090993881225586,-0.06429719924926758,-0.15772753953933716
1774789956531916300,7.995916259765625,-1.912332534790039,0.3256397247314453,0.30172109603881836
1774789956550441200,8.014441162109375,-1.4998793601989746,0.5998597145080566,0.5803594589233398
1774789956568966400,8.03296630859375,-1.068960189819336,0.5506739616394043,0.6829994916915894
1774789956587491300,8.0514912109375,-0.8896217346191406,0.16062688827514648,0.3540726900100708
1774789956606016300,8.070016357421874,-0.7070980072021484,-0.19684410095214844,-0.0702921450138092
1774789956624541400,8.08854150390625,-0.6815605163574219,-0.17664670944213867,-0.38462233543395996
1774789956643066400,8.10706640625,-0.6932163238525391,0.45185422897338867,-0.2671164274215698
1774789956661591300,8.12559130859375,-0.6901044845581055,1.279757022857666,0.08255369961261749
1774789956680116200,8.1441162109375,-0.40963268280029297,1.4538030624389648,0.12808015942573547
1774789956698641400,8.162641357421874,0.1512746810913086,0.9826011657714844,-0.12844634056091309
1774789956717166300,8.181166259765625,0.9412155151367188,0.7130203247070312,0.07427750527858734
1774789956735691500,8.19969140625,1.5779218673706055,0.7055292129516602,0.19411851465702057
1774789956754216400,8.218216552734376,1.9375858306884766,1.000382423400879,-0.10063853859901428
1774789956772741400,8.236741455078125,1.6306829452514648,1.5603108406066895,-0.9512048959732056
1774789956791266300,8.255266357421876,0.7813901901245117,1.9557814598083496,-1.8915830850601196
1774789956809791500,8.27379150390625,1.0193119049072266,1.7753214836120605,-1.34855055809021
1774789956828316400,8.29231640625,2.9002809524536133,1.0403780937194824,0.10626053810119629
1774789956846841300,8.31084130859375,4.736118316650391,-0.2880592346191406,0.19232669472694397
1774789956865366500,8.329366455078125,4.294371604919434,-1.6853053569793701,-0.8565660119056702
1774789956883891500,8.347891357421876,3.076554298400879,-1.8617000579833984,-1.765608549118042
1774789956902416600,8.366416748046875,0.7529802322387695,-1.0799288749694824,-1.7266799211502075
1774789956920941600,8.384941650390624,-0.8484177589416504,-0.39801740646362305,-1.242739200592041
1774789956939466500,8.403466552734375,-0.9479475021362305,-0.31235742568969727,-0.596259593963623
1774789956957991400,8.421991455078125,-0.2557849884033203,-0.5777297019958496,-0.16240453720092773
1774789956976516600,8.4405166015625,0.23356056213378906,-0.9409599304199219,0.024043560028076172
1774789956995041500,8.45904150390625,0.18046092987060547,-1.3037207126617432,0.20265066623687744
1774789957013566500,8.47756640625,0.36900901794433594,-1.0167765617370605,0.7731532454490662
1774789957032091600,8.496091552734375,0.6547861099243164,-0.9160513877868652,1.3240573406219482
1774789957050616600,8.514616455078125,0.1416177749633789,-1.148909568786621,1.4586122035980225
1774789957069141500,8.5331416015625,-1.1869392395019531,-1.1896204948425293,1.1118199825286865
1774789957087666700,8.551666748046875,-2.166679859161377,-1.1362180709838867,0.6012381315231323
1774789957106191600,8.570191650390624,-2.81539249420166,-1.2232675552368164,0.17113742232322693
1774789957124716500,8.588716552734375,-2.6186418533325195,-1.3233046531677246,-0.22314772009849548
1774789957143241700,8.60724169921875,-2.6827688217163086,-1.0541000366210938,-0.2299225926399231
1774789957161766700,8.6257666015625,-2.7166385650634766,-0.3690495491027832,0.2163171023130417
1774789957180291800,8.644291748046875,-2.6546030044555664,0.20920848846435547,0.30639803409576416
1774789957198816800,8.662816650390624,-2.7626876831054688,0.3680000305175781,-0.020064353942871094
1774789957217341700,8.681341796875,-2.7083749771118164,0.5341839790344238,-0.33748987317085266
1774789957235866600,8.69986669921875,-1.9599909782409668,0.6455144882202148,-0.4840262532234192
1774789957254391800,8.718391845703126,-0.7190899848937988,0.7117748260498047,-0.3463159203529358
1774789957272916700,8.736916748046875,0.49436187744140625,0.6119418144226074,-0.17966103553771973
1774789957291442000,8.75544189453125,0.8222618103027344,0.7316603660583496,-0.13556724786758423
1774789957309966800,8.773966796875,0.9096240997314453,1.2276954650878906,-0.4442945122718811
1774789957328491800,8.79249169921875,1.3445472717285156,1.3514914512634277,-0.5442838668823242
1774789957347017000,8.811016845703126,1.5860300064086914,1.2083072662353516,-0.0777178406715393
1774789957365542000,8.8295419921875,2.447246551513672,1.1967449188232422,0.2986103892326355
1774789957384066800,8.84806689453125,2.838207244873047,1.4156122207641602,0.021044716238975525
1774789957402592000,8.866592041015625,1.869466781616211,1.1287169456481934,-0.3294065296649933
1774789957421117000,8.885116943359375,1.7759723663330078,0.44823455810546875,0.40302684903144836
1774789957439642000,8.90364208984375,3.1389970779418945,-0.09816741943359375,1.2798932790756226
1774789957458167000,8.9221669921875,3.3962650299072266,-0.9738936424255371,1.2045928239822388
1774789957476692000,8.94069189453125,2.125406265258789,-1.3109490871429443,-0.021028578281402588
1774789957495217200,8.959217041015625,0.9133729934692383,-0.6541695594787598,-0.6951996684074402
1774789957513742000,8.9777421875,0.1440277099609375,-0.18115520477294922,-0.008653491735458374
1774789957532267300,8.996267333984376,0.5223913192749023,-0.1419682502746582,0.8430095314979553
1774789957550792200,9.014792236328125,1.007345199584961,-0.053664207458496094,1.3299305438995361
1774789957569317400,9.0333173828125,1.0888404846191406,-0.11037778854370117,1.2863614559173584
1774789957587842300,9.05184228515625,0.28455543518066406,-0.5743789672851562,0.7854195833206177
1774789957606367200,9.0703671875,-0.6615562438964844,-0.5146853923797607,0.41265207529067993
1774789957624892400,9.088892333984376,-2.514394760131836,-0.4386558532714844,0.13783735036849976
1774789957643417300,9.107417236328125,-2.9153013229370117,-0.4141054153442383,0.40694960951805115
1774789957661942300,9.1259423828125,-2.2361793518066406,-0.8548057079315186,0.43096664547920227
1774789957680467500,9.144467529296875,-1.7727727890014648,-1.4884133338928223,0.254231333732605
1774789957698992400,9.162992431640625,-1.2178096771240234,-1.814206600189209,-0.2026161104440689
1774789957717517600,9.181517578125,-0.8815546035766602,-1.6531524658203125,-0.5099807381629944
1774789957736042500,9.20004248046875,-1.4413175582885742,-1.1395502090454102,-0.2768714129924774
1774789957754567700,9.218567626953124,-2.2615156173706055,-0.5981602668762207,0.17977991700172424
1774789957773092600,9.237092529296875,-2.4727020263671875,0.016920089721679688,0.6282603740692139
1774789957791617800,9.25561767578125,-2.2758636474609375,0.07295513153076172,1.0359673500061035
1774789957810142700,9.274142822265626,-1.580979824066162,0.2050795555114746,0.43369048833847046
1774789957828667600,9.292667724609375,-0.5842094421386719,0.3902773857116699,0.20147705078125
1774789957847192800,9.31119287109375,-0.6570959091186523,0.1306467056274414,0.05138377845287323
1774789957865717800,9.3297177734375,-0.8430972099304199,0.22468042373657227,-0.48271533846855164
1774789957884243000,9.348242919921875,-0.17641735076904297,0.6121115684509277,-0.9348939061164856
1774789957902767900,9.366767822265626,0.5689458847045898,1.0143842697143555,-0.6601359844207764
1774789957921292800,9.385292724609375,1.0646095275878906,1.0532608032226562,0.27311238646507263
1774789957939818000,9.40381787109375,1.9409065246582031,0.8607101440429688,0.4013322591781616
1774789957958343000,9.422343017578125,2.9156579971313477,0.9206743240356445,0.1741154044866562
1774789957976868000,9.4408681640625,2.6438302993774414,1.3363394737243652,-0.773331880569458
1774789957995393000,9.45939306640625,0.3045644760131836,1.7954158782958984,-1.7900854349136353
1774789958013918200,9.477918212890625,-0.4407320022583008,2.2624082565307617,-1.9943242073059082
1774789958032443100,9.496443115234374,1.5749340057373047,1.8224248886108398,-1.3373801708221436
1774789958050968000,9.514968017578125,5.140172004699707,-0.0852670669555664,0.5250793695449829
1774789958069493200,9.5334931640625,6.343587875366211,-1.2157282829284668,0.840557873249054
1774789958088018200,9.55201806640625,3.280101776123047,-1.2705953121185303,-0.6680914163589478
1774789958106543400,9.57054345703125,-0.24321365356445312,-0.9660601615905762,-1.8021793365478516
1774789958125068300,9.589068359375,-1.0972480773925781,-0.5694055557250977,-1.909008502960205
1774789958143593500,9.607593505859375,0.053786277770996094,-0.5740456581115723,-0.5802355408668518
1774789958162118400,9.626118408203125,1.0830316543579102,-0.9476833343505859,0.48180174827575684
1774789958180643600,9.6446435546875,0.9115104675292969,-1.5950124263763428,0.3664780855178833
1774789958199168500,9.66316845703125,-0.1465129852294922,-1.7380495071411133,0.17065221071243286
1774789958217693700,9.681693603515624,-0.2179698944091797,-1.4870166778564453,0.4851660430431366
1774789958236218600,9.700218505859375,-0.5688648223876953,-1.250046730041504,1.0373101234436035
1774789958254743800,9.718743896484375,-1.309739589691162,-1.1037383079528809,0.9492083191871643
1774789958273268700,9.737268798828126,-1.908207893371582,-1.122786521911621,0.6167774796485901
1774789958291794000,9.7557939453125,-2.603433609008789,-1.2050824165344238,0.35044634342193604
1774789958310319000,9.774319091796874,-2.8741111755371094,-1.2786922454833984,-0.27560219168663025
1774789958328844000,9.792843994140625,-2.636605739593506,-1.1003789901733398,-0.6283382177352905
1774789958347369200,9.811369140625,-1.8134689331054688,-0.6485028266906738,-0.5039964318275452
1774789958365894100,9.82989404296875,-1.5311884880065918,-0.2444133758544922,-0.17932680249214172
1774789958384419300,9.84841943359375,-1.836723804473877,0.1490015983581543,0.34708371758461
1774789958402944300,9.8669443359375,-1.8608155250549316,0.39130115509033203,0.3439600169658661
1774789958421469400,9.885469482421875,-1.5242862701416016,0.3511953353881836,-0.08334934711456299
1774789958439994600,9.90399462890625,-1.1339035034179688,0.6342802047729492,-0.31960371136665344
1774789958458519800,9.922519775390626,-0.522895336151123,0.9694228172302246,-0.5879331827163696
1774789958477044700,9.941044677734375,0.10942363739013672,1.2164344787597656,-0.7106063365936279
1774789958495570000,9.95956982421875,0.6483364105224609,1.2241339683532715,-0.7364460825920105
1774789958514094800,9.9780947265625,0.8835306167602539,1.243527889251709,-0.6100541949272156
1774789958532620000,9.9966201171875,1.256758689880371,1.177034854888916,-0.6470565795898438
1774789958551145200,10.015145263671876,1.671402931213379,0.7880449295043945,-1.050296425819397
1774789958569670100,10.033670166015625,1.8792943954467773,0.646334171295166,-1.2274017333984375
1774789958588195300,10.0521953125,2.6352672576904297,1.0243797302246094,-0.45195454359054565
1774789958606720300,10.07072021484375,2.404216766357422,1.7311310768127441,0.29698672890663147
1774789958625245400,10.089245361328125,0.6118221282958984,1.9693007469177246,0.07056841254234314
1774789958643770400,10.107770263671876,-0.004347801208496094,1.169504165649414,0.4454532265663147
1774789958662295600,10.126295654296875,2.194742202758789,-0.19270753860473633,1.2476532459259033
1774789958680820500,10.144820556640624,3.8800506591796875,-1.4146614074707031,1.2310909032821655
1774789958699345700,10.163345703125,2.879241943359375,-1.4828722476959229,0.47545579075813293
1774789958717870800,10.181870849609375,0.4337444305419922,-0.5881729125976562,-0.23710069060325623
1774789958736395800,10.200395751953126,-1.641312599182129,0.21300840377807617,0.08834490180015564
1774789958754921000,10.2189208984375,-2.1940927505493164,0.24199819564819336,0.7787384986877441
1774789958773446000,10.23744580078125,-1.2318415641784668,-0.3873291015625,0.8919579982757568
1774789958791971000,10.25597119140625,0.10638046264648438,-0.8142633438110352,0.4355913996696472
1774789958810496300,10.274496337890625,1.2747344970703125,-1.290435791015625,0.2595403492450714
1774789958829021200,10.293021240234374,1.0708999633789062,-1.255845546722412,0.26975125074386597
1774789958847546400,10.31154638671875,0.3883514404296875,-0.956061840057373,0.1884935051202774
1774789958866071300,10.3300712890625,-0.6828927993774414,-1.1199884414672852,0.126154825091362
1774789958884596500,10.348596435546876,-1.7404789924621582,-1.3312749862670898,-0.09151351451873779
1774789958903121700,10.36712158203125,-2.424417495727539,-1.2860193252563477,-0.46803489327430725
1774789958921646600,10.385646484375,-2.686279296875,-0.9116597175598145,-0.5551264882087708
1774789958940171800,10.404171875,-2.3309240341186523,-0.6293821334838867,-0.18795111775398254
1774789958958696700,10.42269677734375,-2.0395936965942383,-0.3879427909851074,0.20894810557365417
1774789958977222000,10.441221923828126,-1.5678653717041016,-0.10886526107788086,0.4410180151462555
1774789958995747000,10.4597470703125,-1.4646997451782227,0.21259117126464844,0.7312624454498291
1774789959014272000,10.47827197265625,-1.2420568466186523,0.16555261611938477,0.8361955881118774
1774789959032797200,10.496797119140625,-0.8282470703125,0.12004899978637695,0.5817940831184387
1774789959051322400,10.515322265625,-0.2711353302001953,0.14153480529785156,0.24271145462989807
1774789959069847300,10.533847412109376,-0.5276479721069336,0.17940425872802734,0.002971142530441284
1774789959088372200,10.552372314453125,-0.6937351226806641,0.4827537536621094,-0.1906386911869049
1774789959106897700,10.570897705078124,-0.5607166290283203,0.9893341064453125,-0.28375542163848877
1774789959125422600,10.589422607421875,-0.1727123260498047,1.2177152633666992,-0.5864149928092957
1774789959143947800,10.60794775390625,0.7985439300537109,1.08384370803833,-1.0744460821151733
1774789959162473000,10.626472900390626,2.1463117599487305,0.9190616607666016,-0.9689068794250488
1774789959180998000,10.644997802734375,3.3836259841918945,0.9985413551330566,-0.29887354373931885
1774789959199523000,10.663523193359374,2.583920478820801,2.0219950675964355,-0.5048032999038696
1774789959218048300,10.68204833984375,-0.3329648971557617,3.0631260871887207,-1.5766642093658447
1774789959236573200,10.7005732421875,-2.107736587524414,3.153045654296875,-2.582211971282959
1774789959255098400,10.719098388671876,1.1864051818847656,1.7350711822509766,-1.9724276065826416
1774789959273623600,10.73762353515625,7.317224502563477,-1.0570096969604492,0.3556360900402069
1774789959292148500,10.7561484375,8.55671215057373,-2.7249903678894043,0.49681687355041504
1774789959310673700,10.774673583984375,4.327751159667969,-2.2856059074401855,-1.0656508207321167
1774789959329198800,10.79319873046875,-0.34297847747802734,-1.1771864891052246,-1.909340262413025
1774789959347723800,10.811723876953126,-2.223438262939453,-0.3485898971557617,-1.591691255569458
1774789959366249000,10.8302490234375,-1.2726030349731445,-0.8509669303894043,-0.5285481214523315
1774789959384774100,10.848774169921874,0.16498088836669922,-1.649360179901123,0.49541735649108887
1774789959403299300,10.86729931640625,0.88262939453125,-1.5156669616699219,1.0445311069488525
1774789959421824300,10.88582421875,0.3793907165527344,-1.2023348808288574,1.487788438796997
1774789959440349400,10.904349365234374,-0.49938106536865234,-0.9804487228393555,1.764626145362854
1774789959458874600,10.92287451171875,-1.2543296813964844,-1.0429596900939941,1.622115135192871
1774789959477399800,10.94139990234375,-1.5444602966308594,-0.8832917213439941,1.4928064346313477
1774789959495924700,10.9599248046875,-1.9394497871398926,-1.0651845932006836,1.2984449863433838
1774789959514450000,10.978449951171875,-2.509477138519287,-1.5124626159667969,0.7837937474250793
1774789959532975000,10.99697509765625,-2.7028989791870117,-1.5548763275146484,0.20904001593589783
1774789959551500000,11.0155,-2.524785041809082,-1.4406609535217285,0.12855955958366394
1774789959570025200,11.034025146484375,-1.940718650817871,-1.0362915992736816,0.5660139322280884
1774789959588550400,11.05255029296875,-1.4418973922729492,-0.3957943916320801,0.7648807764053345
1774789959607075600,11.07107568359375,-1.484511375427246,-0.07416343688964844,0.6686025857925415
1774789959625600800,11.089600830078124,-1.4389076232910156,0.04492950439453125,0.3547745645046234
1774789959644125700,11.108125732421875,-1.030747413635254,0.09503936767578125,0.00011426210403442383
1774789959662651000,11.12665087890625,-0.6381306648254395,0.08636856079101562,-0.18842390179634094
1774789959681176000,11.145176025390626,-0.13315582275390625,0.19084882736206055,-0.32769858837127686
1774789959699701000,11.163700927734375,0.6879148483276367,0.3610858917236328,-0.38763102889060974
1774789959718226200,11.18222607421875,1.1721620559692383,0.34952402114868164,-0.5427069664001465
1774789959736751400,11.20075146484375,1.5997724533081055,0.5189471244812012,-0.46932509541511536
1774789959755276500,11.219276611328125,2.1861114501953125,0.46698999404907227,-0.257394939661026
1774789959773801700,11.2378017578125,3.0429811477661133,0.7100329399108887,0.01269039511680603
1774789959792326700,11.25632666015625,2.454425811767578,1.654904842376709,0.2280244678258896
1774789959810851800,11.274851806640624,1.0144319534301758,2.0147786140441895,0.4419173002243042
1774789959829377000,11.293376953125,1.6852893829345703,0.946225643157959,1.3717494010925293
1774789959847902200,11.311902099609375,3.332972526550293,0.08152627944946289,1.9131598472595215
1774789959866427100,11.33042724609375,3.6516246795654297,-0.723240852355957,1.271193265914917
1774789959884952300,11.348952392578125,2.4434661865234375,-0.9946155548095703,0.3257540166378021
1774789959903477500,11.3674775390625,0.07174968719482422,-0.5186252593994141,-0.20298045873641968
1774789959922002700,11.386002685546876,-1.759702205657959,0.02288675308227539,-0.3194540739059448
1774789959940527900,11.40452783203125,-1.8358182907104492,0.21440601348876953,0.24950356781482697
1774789959959053000,11.423052978515624,-0.6020793914794922,-0.12330150604248047,0.8524185419082642
1774789959977578000,11.441577880859375,0.4303407669067383,-0.38219547271728516,0.8653098344802856
1774789959996103200,11.460103271484375,0.8704566955566406,-0.6442489624023438,0.5375561714172363
1774789960014628400,11.47862841796875,0.8643531799316406,-0.7180981636047363,0.290066123008728
1774789960033153500,11.497153564453125,0.37313270568847656,-0.8239049911499023,0.10476016998291016
1774789960051678700,11.5156787109375,-0.4674701690673828,-0.9482898712158203,-0.12555009126663208
1774789960070204000,11.534203857421875,-1.168212890625,-0.7414250373840332,-0.12455043196678162
1774789960088729000,11.55272900390625,-1.737210750579834,-0.6491231918334961,-0.13970908522605896
1774789960107254000,11.57125390625,-2.1407032012939453,-0.5547966957092285,-0.18050462007522583
1774789960125779200,11.589779296875,-2.538440227508545,-0.341489315032959,-0.16493138670921326
1774789960144304400,11.608304443359375,-2.624056339263916,0.03193473815917969,0.01077359914779663
1774789960162829600,11.62682958984375,-2.530122756958008,0.1732945442199707,0.2970556914806366
1774789960181354800,11.645354736328125,-2.1110048294067383,0.16625118255615234,0.5942562818527222
1774789960199880000,11.6638798828125,-1.614903450012207,0.11536073684692383,0.6336888074874878
1774789960218404900,11.68240478515625,-1.5060243606567383,0.1768641471862793,0.31168699264526367
1774789960236930000,11.700929931640625,-1.3434662818908691,0.05476808547973633,-0.07511135935783386
1774789960255455200,11.719455322265626,-0.8789834976196289,0.031592369079589844,0.024859100580215454
1774789960273980400,11.73798046875,-0.2538337707519531,0.3633279800415039,0.07199421525001526
1774789960292505600,11.756505615234374,-0.09273719787597656,0.6263937950134277,-0.24303311109542847
1774789960311030800,11.77503076171875,0.06997203826904297,0.9815397262573242,-0.2193635106086731
1774789960329556000,11.793555908203125,0.2333202362060547,1.1913070678710938,0.07249182462692261
1774789960348081200,11.8120810546875,0.824488639831543,1.465752124786377,-0.06438976526260376
1774789960366606000,11.830606201171875,1.8907861709594727,1.4028964042663574,-0.5000810623168945
1774789960385131500,11.849131591796874,2.567401885986328,1.012434482574463,-0.8939025402069092
1774789960403656400,11.867656494140626,2.5462169647216797,1.8844265937805176,-1.4739556312561035
1774789960422181600,11.886181640625,1.4004926681518555,2.816408157348633,-2.629042863845825
1774789960440706800,11.904706787109374,1.8032846450805664,2.407257556915283,-2.0597081184387207
1774789960459232000,11.92323193359375,4.324645042419434,1.4503870010375977,0.02184399962425232
1774789960477757200,11.941757080078125,6.166690826416016,0.21504974365234375,1.0364561080932617
1774789960496282400,11.960282470703126,4.8106184005737305,-1.4584770202636719,-0.25822585821151733
1774789960514807600,11.9788076171875,1.8302173614501953,-2.041905164718628,-1.8949953317642212
1774789960533332700,11.997332763671874,-0.37180089950561523,-1.0738835334777832,-1.5680463314056396
1774789960551858000,12.01585791015625,-0.6423006057739258,-0.014919281005859375,-0.05245089530944824
1774789960570383000,12.034383056640625,0.015880584716796875,0.02642345428466797,1.270802617073059
1774789960588908300,12.052908203125,-0.17438507080078125,-0.5256423950195312,1.9226628541946411
1774789960607433500,12.07143359375,-0.7746334075927734,-1.1346039772033691,1.7253661155700684
1774789960625958400,12.08995849609375,-1.1434006690979004,-1.5536108016967773,1.411338448524475
1774789960644483600,12.108483642578125,-1.4880976676940918,-1.9147891998291016,0.8626968860626221
1774789960663008800,12.1270087890625,-1.914064884185791,-2.4172632694244385,0.3416683077812195
1774789960681534000,12.145533935546876,-1.948380947113037,-2.6551578044891357,0.19425338506698608
1774789960700059100,12.16405908203125,-1.9589390754699707,-2.1863644123077393,0.2562198340892792
1774789960718584300,12.182584228515625,-2.2100367546081543,-1.6845831871032715,0.606299877166748
1774789960737109500,12.201109619140626,-2.5541443824768066,-1.4657783508300781,0.8220796585083008
1774789960755634700,12.219634765625,-2.580448627471924,-1.2596707344055176,0.5910559892654419
1774789960774160000,12.238159912109374,-2.5944881439208984,-1.017453670501709,0.5199669599533081
1774789960792685000,12.25668505859375,-2.3246665000915527,-0.42206430435180664,0.4809670150279999
1774789960811210200,12.275210205078125,-1.8463163375854492,0.1939382553100586,0.5254592895507812
1774789960829735400,12.2937353515625,-1.0335702896118164,0.8572673797607422,0.9057040214538574
1774789960848260600,12.312260498046875,-0.32824134826660156,1.1659255027770996,1.0387122631072998
1774789960866785800,12.330785888671874,-0.542719841003418,1.200899600982666,0.5372680425643921
1774789960885311000,12.34931103515625,-0.6294245719909668,1.398186206817627,-0.20904722809791565
1774789960903836200,12.367836181640625,-0.2838859558105469,1.5716004371643066,-0.5313090085983276
1774789960922361300,12.386361328125,0.7811417579650879,1.6055021286010742,-0.39730605483055115
1774789960940886500,12.404886474609375,2.187382698059082,1.5285520553588867,-0.29322734475135803
1774789960959411700,12.42341162109375,2.76436710357666,0.7593870162963867,-0.18218892812728882
1774789960977937000,12.44193701171875,2.88999605178833,0.7078437805175781,0.13414445519447327
1774789960996462000,12.460462158203125,2.7101192474365234,0.7478933334350586,-0.12486273050308228
1774789961014987300,12.4789873046875,1.8544044494628906,0.7846183776855469,-0.7816914319992065
1774789961033512400,12.497512451171875,-0.22459983825683594,0.990633487701416,-0.7508037090301514
1774789961052037600,12.51603759765625,-0.9564180374145508,1.4885821342468262,0.9708526730537415
1774789961070562800,12.534562744140626,0.8770284652709961,1.2605600357055664,2.4828755855560303
1774789961089088000,12.553087890625,2.442448616027832,-0.023156166076660156,2.235642433166504
1774789961107613200,12.57161328125,2.626540184020996,-1.0313234329223633,0.8888762593269348
1774789961126138400,12.590138427734376,1.3536949157714844,-1.1572160720825195,0.057967349886894226
1774789961144663600,12.60866357421875,-0.4437074661254883,-0.6689090728759766,0.227324441075325
1774789961163188700,12.627188720703124,-0.908238410949707,0.23145151138305664,0.964002251625061
1774789961181714000,12.6457138671875,0.2123250961303711,-0.43232059478759766,1.1232011318206787
1774789961200239000,12.664239013671875,1.0646381378173828,-1.6334872245788574,0.3034164309501648
1774789961218764300,12.682764404296876,1.0838451385498047,-2.1862261295318604,-0.40933090448379517
1774789961237289700,12.701289794921875,0.565800666809082,-2.065664529800415,-0.7905853986740112
1774789961255815000,12.71981494140625,-0.5638222694396973,-1.5415306091308594,-0.37787240743637085
1774789961274340000,12.738340087890625,-1.5339813232421875,-0.9357366561889648,0.1427353471517563
1774789961292865300,12.756865234375,-2.5512752532958984,-0.5833544731140137,0.2154797911643982
1774789961311390500,12.775390380859376,-3.0734524726867676,-0.6349859237670898,-0.11545208096504211
1774789961329915600,12.79391552734375,-2.8609018325805664,-0.8802194595336914,-0.45304200053215027
1774789961348440800,12.81244091796875,-2.31892728805542,-1.071382999420166,-0.5458484888076782
1774789961366966000,12.830966064453126,-1.882906436920166,-0.7400574684143066,-0.35986319184303284
1774789961385491200,12.8494912109375,-1.411630630493164,0.15181350708007812,0.21857863664627075
1774789961404016400,12.868016357421874,-1.3906359672546387,0.8378806114196777,0.8828290104866028
1774789961422541600,12.88654150390625,-1.3568921089172363,0.7367691993713379,0.8970847129821777
1774789961441066800,12.905066650390625,-0.7522192001342773,0.34531259536743164,0.28561386466026306
1774789961459592000,12.923592041015626,0.12977123260498047,0.04521512985229492,-0.3589822053909302
1774789961478117000,12.9421171875,0.5138311386108398,0.11771488189697266,-0.6039071679115295
1774789961496642600,12.960642578125,0.5028276443481445,0.9226827621459961,-0.48009008169174194
1774789961515167700,12.979167724609376,0.19671249389648438,1.5835232734680176,-0.047220051288604736
1774789961533693000,12.99769287109375,0.05499887466430664,2.088501453399658,0.32948511838912964
1774789961552218000,13.016218017578124,0.08615779876708984,2.143373966217041,0.3827711045742035
1774789961570743300,13.034743408203125,1.0327444076538086,1.9260673522949219,-0.03813701868057251
1774789961589268500,13.0532685546875,2.010462760925293,1.9303860664367676,-1.024078130722046
1774789961607793700,13.071793701171876,1.079599380493164,2.1190919876098633,-2.176877975463867
1774789961626318800,13.09031884765625,-0.8224897384643555,2.9260435104370117,-2.071256399154663
1774789961644844000,13.108843994140624,0.6824746131896973,2.864596366882324,-0.7349695563316345
1774789961663369200,13.127369140625,4.277764320373535,0.5648584365844727,-0.060126543045043945
1774789961681894400,13.145894287109375,5.6545915603637695,-1.9284229278564453,-0.10573947429656982
1774789961700419800,13.164419921875,5.000522613525391,-2.37825608253479,-1.517700433731079
1774789961718945000,13.182945068359375,2.3686275482177734,-1.7453513145446777,-2.8399147987365723
1774789961737470200,13.20147021484375,0.4814620018005371,-0.5966997146606445,-2.4316482543945312
1774789961755995400,13.219995361328126,0.6357741355895996,-0.09557199478149414,-1.1051578521728516
1774789961774520600,13.2385205078125,0.8646259307861328,-0.18955564498901367,0.3653770983219147
1774789961793045800,13.257045654296874,1.2257356643676758,-0.35205698013305664,0.7877888679504395
1774789961811571200,13.2755712890625,1.037397861480713,-1.0520339012145996,0.7383908629417419
1774789961830096400,13.294096435546875,-0.02823352813720703,-1.5849027633666992,0.7796986103057861
1774789961848621600,13.31262158203125,-1.353090763092041,-1.701681137084961,0.5976864099502563
1774789961867146800,13.331146728515625,-2.252762794494629,-1.480255126953125,0.7236232757568359
1774789961885672000,13.349671875,-2.46340274810791,-1.5093364715576172,0.5965603590011597
1774789961904197000,13.368197021484375,-2.5123167037963867,-1.8697447776794434,0.19437193870544434
1774789961922722600,13.38672265625,-2.5603671073913574,-2.0583324432373047,-0.3119335174560547
1774789961941247700,13.405247802734374,-2.613504409790039,-2.130988597869873,-0.49149927496910095
1774789961959773000,13.42377294921875,-2.795405864715576,-1.629316806793213,-0.41662052273750305
1774789961978298000,13.442298095703125,-2.285731315612793,-0.8633322715759277,-0.41971439123153687
1774789961996823300,13.4608232421875,-2.438650131225586,-0.48956298828125,-0.20676186680793762
1774789962015348500,13.479348388671875,-2.2527008056640625,-0.0964207649230957,-0.2112281620502472
1774789962033873700,13.497873779296874,-1.6075425148010254,0.449188232421875,-0.18611526489257812
1774789962052398800,13.51639892578125,-0.8344416618347168,0.817634105682373,-0.05468177795410156
1774789962070924300,13.53492431640625,-0.2631354331970215,1.2345094680786133,-0.05642499029636383
1774789962089449500,13.553449462890624,0.524592399597168,1.422933578491211,-0.5522838830947876
1774789962107974700,13.571974609375,0.9320101737976074,1.1610326766967773,-0.7553303241729736
1774789962126499800,13.590499755859375,1.7029166221618652,0.9512834548950195,-0.9899066686630249
1774789962145025000,13.60902490234375,2.3879237174987793,0.9535646438598633,-0.5720588564872742
1774789962163550500,13.627550537109375,3.0429654121398926,1.0612034797668457,-0.1551806777715683
1774789962182075600,13.64607568359375,2.834585189819336,1.1892614364624023,-0.31536608934402466
1774789962200600800,13.664600830078125,1.8737521171569824,1.7077727317810059,-0.9393265843391418
1774789962219126000,13.6831259765625,-0.3177065849304199,1.8066210746765137,-0.7031712532043457
1774789962237651200,13.701651123046876,-0.9228596687316895,1.4095368385314941,0.19017526507377625
1774789962256176400,13.72017626953125,1.136505126953125,0.20183467864990234,0.4233320951461792
1774789962274701800,13.738701904296875,3.8139944076538086,-1.5191106796264648,0.2178022265434265
1774789962293227000,13.75722705078125,4.640159606933594,-2.770326614379883,0.25515317916870117
1774789962311752200,13.775752197265625,2.978238105773926,-2.1039586067199707,0.6170209646224976
1774789962330277400,13.79427734375,0.5924806594848633,-0.5210857391357422,1.3588886260986328
1774789962348802600,13.812802490234375,-1.1486883163452148,0.6388139724731445,2.143882989883423
1774789962367327700,13.83132763671875,-1.0138540267944336,1.0447616577148438,2.450885534286499
1774789962385853200,13.849853271484376,-0.045838356018066406,-0.0489954948425293,2.141757011413574
1774789962404378400,13.86837841796875,-0.018599510192871094,-0.8931388854980469,1.6216892004013062
1774789962422903600,13.886903564453124,-0.6225113868713379,-1.1572446823120117,1.0073649883270264
1774789962441428700,13.9054287109375,-1.7962331771850586,-0.9715838432312012,0.6843397617340088
1774789962459954000,13.923953857421875,-2.322402000427246,-0.7944998741149902,0.5920469760894775
1774789962478479400,13.942479248046874,-2.323763370513916,-1.042351245880127,0.3767126500606537
1774789962497004500,13.961004638671875,-1.9453973770141602,-1.05694580078125,0.2273288369178772
1774789962515529700,13.97952978515625,-1.8033361434936523,-1.148219108581543,0.020113885402679443
1774789962534055000,13.998054931640626,-2.0496368408203125,-1.1659860610961914,-0.30212438106536865
1774789962552580400,14.016580322265625,-2.454967498779297,-0.982243537902832,-0.5564314723014832
1774789962571105500,14.03510546875,-2.411536693572998,-0.6098461151123047,-0.3153223991394043
1774789962589630700,14.053630615234376,-1.7146048545837402,-0.20657682418823242,0.36619219183921814
1774789962608156000,14.072156005859375,-0.868229866027832,0.31882715225219727,1.0383343696594238
1774789962626681000,14.09068115234375,-0.47748231887817383,0.6491451263427734,1.005889892578125
1774789962645206300,14.109206298828125,-0.6390824317932129,0.371859073638916,0.4057822823524475
1774789962663731700,14.127731689453125,-0.8231782913208008,0.1637248992919922,-0.3471935987472534
1774789962682257000,14.1462568359375,-1.0433931350708008,0.5116057395935059,-0.7237079739570618
1774789962700782000,14.164781982421875,-0.9024062156677246,1.3705015182495117,-0.7242029905319214
1774789962719307500,14.1833076171875,0.44431161880493164,2.076791763305664,-0.16373640298843384
1774789962737832700,14.201832763671876,1.579348087310791,2.10435152053833,0.41488713026046753
1774789962756358000,14.22035791015625,2.8660340309143066,1.9824919700622559,0.2796667814254761
1774789962774883000,14.238883056640624,3.2199950218200684,1.9235420227050781,-0.8468931317329407
1774789962793408300,14.257408203125,2.000173568725586,2.4819588661193848,-2.0176260471343994
1774789962811933700,14.27593359375,-0.13644123077392578,3.5085887908935547,-2.141568660736084
1774789962830459000,14.294458984375,0.6448531150817871,3.913264751434326,-0.8014034032821655
1774789962848984000,14.312984130859375,4.555445671081543,2.3426127433776855,0.49612730741500854
1774789962867509200,14.33150927734375,7.687326431274414,-0.22291040420532227,0.8919147849082947
1774789962886034700,14.35003466796875,6.248844146728516,-2.360318183898926,-0.22965669631958008
1774789962904559900,14.368559814453125,1.513099193572998,-2.788045644760132,-1.9843659400939941
1774789962923085000,14.3870849609375,-1.8451628684997559,-1.879837989807129,-3.1618714332580566
1774789962941610200,14.4056103515625,-2.2462611198425293,-1.0709600448608398,-2.8734898567199707
1774789962960135700,14.4241357421875,-0.762049674987793,-1.020437240600586,-0.8346264362335205
1774789962978660900,14.442660888671876,0.47823619842529297,-1.348942756652832,0.6405184864997864
1774789962997186000,14.46118603515625,0.7216811180114746,-1.325721263885498,0.8786932229995728
1774789963015711200,14.479711181640624,0.45137548446655273,-1.3274145126342773,0.7205629944801331
1774789963034236700,14.498236572265625,0.11125469207763672,-1.5542573928833008,0.8828395009040833
1774789963052761900,14.516761962890625,-0.7906947135925293,-1.8082079887390137,1.0785353183746338
1774789963071287000,14.535287109375,-1.5791759490966797,-1.8971471786499023,0.7654350996017456
1774789963089812200,14.553812255859375,-2.3341245651245117,-2.114840507507324,0.1980840563774109
1774789963108337700,14.572337646484375,-2.9993796348571777,-2.2373743057250977,-0.16303884983062744
1774789963126862800,14.59086279296875,-2.909695625305176,-2.1390342712402344,-0.4335729479789734
1774789963145388000,14.609387939453125,-2.359128475189209,-1.7040553092956543,-0.2953803539276123
1774789963163913200,14.627913330078124,-2.376007080078125,-1.2119593620300293,-0.02023613452911377
1774789963182438400,14.6464384765625,-2.518345832824707,-0.5571799278259277,0.051830172538757324
1774789963200963800,14.6649638671875,-2.062379837036133,-0.17307472229003906,-0.036042094230651855
1774789963219489000,14.683489013671876,-2.2429423332214355,0.061476707458496094,-0.3298775553703308
1774789963238014200,14.70201416015625,-1.7614293098449707,0.4299006462097168,-0.6622297763824463
1774789963256539600,14.72053955078125,-0.5608339309692383,0.6801714897155762,-0.7265331745147705
1774789963275064800,14.73906494140625,0.1947803497314453,0.8577003479003906,-0.5273400545120239
1774789963293590000,14.757590087890625,0.8888506889343262,1.0778083801269531,-0.7350662350654602
1774789963312115500,14.776115478515624,1.1698522567749023,1.3991971015930176,-0.6990107893943787
1774789963330640600,14.794640625,1.352785587310791,1.752824306488037,-0.42912161350250244
1774789963349165800,14.813165771484375,1.2641911506652832,1.8572664260864258,-0.3493950068950653
1774789963367691000,14.83169091796875,1.5464763641357422,1.715552806854248,-0.3667674660682678
1774789963386216400,14.850216552734375,2.154627799987793,1.4454569816589355,-0.3856407701969147
1774789963404741600,14.86874169921875,1.5667853355407715,2.011425495147705,-0.35622546076774597
1774789963423266800,14.887266845703126,0.2828965187072754,2.081742763519287,-0.048998624086380005
1774789963441792000,14.9057919921875,0.2178044319152832,1.8191924095153809,0.7563025951385498
1774789963460317400,14.9243173828125,1.9465694427490234,0.9166445732116699,1.3140770196914673
1774789963478842600,14.942842529296875,3.8396430015563965,-0.5868854522705078,1.4850106239318848
1774789963497368000,14.9613681640625,3.9739303588867188,-1.9856152534484863,0.6851956248283386
1774789963515893200,14.979893310546874,2.1942195892333984,-2.1947240829467773,-0.41794151067733765
1774789963534418400,14.99841845703125,0.28320932388305664,-1.1510677337646484,-0.56527179479599
1774789963552943600,15.016943603515625,-1.104386806488037,-0.17786216735839844,0.3485439419746399
1774789963571468800,15.03546875,-1.1102876663208008,0.4120492935180664,1.306820273399353
1774789963589994200,15.053994140625,-0.3988022804260254,-0.1421518325805664,1.3962533473968506
1774789963608519400,15.07251953125,0.06361818313598633,-0.8875408172607422,0.917655885219574
1774789963627044600,15.091044677734375,-0.005336284637451172,-1.247635841369629,0.5775812268257141
1774789963645570000,15.109570068359375,-0.6671180725097656,-1.3013596534729004,0.41480982303619385
1774789963664095200,15.12809521484375,-1.4863052368164062,-1.2983040809631348,0.16909728944301605
1774789963682620700,15.14662060546875,-2.1200575828552246,-1.4265656471252441,-0.11652711033821106
1774789963701145900,15.165145751953125,-2.1723217964172363,-1.444305419921875,-0.20130878686904907
1774789963719671000,15.183671142578126,-1.980478286743164,-1.312427043914795,0.16865335404872894
1774789963738196200,15.2021962890625,-1.9992480278015137,-1.1242098808288574,0.12785497307777405
1774789963756721700,15.2207216796875,-2.483600616455078,-0.7172360420227051,-0.11649781465530396
1774789963775246800,15.239246826171875,-2.689155101776123,-0.004215717315673828,-0.12870565056800842
1774789963793772000,15.25777197265625,-2.708158016204834,0.37035417556762695,-0.01097443699836731
1774789963812297200,15.276297119140626,-2.1152029037475586,0.5365757942199707,0.4027445912361145
1774789963830822700,15.29482275390625,-1.1550278663635254,0.912595272064209,0.37058791518211365
1774789963849347800,15.313347900390625,-0.5821170806884766,1.1318135261535645,0.2487441599369049
1774789963867873000,15.331873046875,-0.09685230255126953,1.140829086303711,-0.18949010968208313
1774789963886398500,15.3503984375,0.34381675720214844,1.1957149505615234,-0.6903889179229736
1774789963904923600,15.368923583984374,0.9590778350830078,1.4043397903442383,-0.7435972690582275
1774789963923449000,15.387448974609375,1.572951316833496,1.4914774894714355,-0.41893118619918823
1774789963941974300,15.405974365234375,1.8637399673461914,1.4883089065551758,-0.13565337657928467
1774789963960499500,15.42449951171875,2.496429443359375,1.5860376358032227,-0.07500368356704712
1774789963979024600,15.443024658203125,2.943084716796875,1.5540423393249512,0.01526731252670288
1774789963997550000,15.461550048828125,2.1201372146606445,2.057541847229004,-0.6047066450119019
1774789964016075300,15.4800751953125,0.32779550552368164,2.5855259895324707,-1.492358922958374
1774789964034600400,15.498600341796875,-0.9909825325012207,3.1069769859313965,-1.2221332788467407
1774789964053126000,15.5171259765625,1.6807937622070312,2.2863264083862305,0.12636983394622803
1774789964071651000,15.535651123046875,5.394749641418457,0.20703411102294922,0.9784316420555115
1774789964090176500,15.554176513671875,6.352479934692383,-1.8931293487548828,0.32157817482948303
1774789964108701700,15.57270166015625,3.703524589538574,-2.7083699703216553,-1.0552561283111572
1774789964127227000,15.591226806640625,0.6952724456787109,-2.0182666778564453,-1.8407037258148193
1774789964145752300,15.60975244140625,-1.2509636878967285,-1.0318717956542969,-1.1757595539093018
1774789964164277500,15.628277587890626,-1.2931299209594727,-0.3577103614807129,0.16569101810455322
1774789964182802700,15.646802734375,-0.442842960357666,-0.7322874069213867,0.9197894930839539
1774789964201328000,15.665328125,0.22196006774902344,-1.2356605529785156,1.2501633167266846
1774789964219853300,15.683853271484375,0.4586496353149414,-1.3297781944274902,1.3774311542510986
1774789964238378500,15.70237841796875,-0.22842168807983398,-1.6560368537902832,1.151269793510437
1774789964256903700,15.720903564453126,-1.4750909805297852,-1.883697509765625,0.9129407405853271
1774789964275429000,15.73942919921875,-2.3795394897460938,-2.1279332637786865,0.38569876551628113
1774789964293954300,15.757954345703125,-2.7567391395568848,-1.935439109802246,-0.028121888637542725
1774789964312479700,15.776479736328126,-2.745511531829834,-1.898515224456787,-0.3733701705932617
1774789964331005000,15.7950048828125,-2.712970733642578,-1.7461447715759277,-0.47089600563049316
1774789964349530400,15.8135302734375,-2.9251914024353027,-1.4711694717407227,-0.3170689344406128
1774789964368055600,15.8320556640625,-2.937321662902832,-1.0027170181274414,-0.24746182560920715
1774789964386580700,15.850580810546875,-2.3086347579956055,-0.6406397819519043,-0.4168761670589447
1774789964405106200,15.869106201171874,-1.8043465614318848,-0.28394508361816406,-0.46896952390670776
1774789964423631400,15.88763134765625,-1.341446876525879,0.29640674591064453,-0.4117822051048279
1774789964442156500,15.906156494140625,-0.6980280876159668,0.5845770835876465,-0.4151320159435272
1774789964460682000,15.924681884765626,0.05009269714355469,0.8205299377441406,-0.47391727566719055
1774789964479207200,15.943207275390625,0.7197060585021973,1.1049237251281738,-0.7149854898452759
1774789964497732400,15.961732421875,1.3325438499450684,1.2856512069702148,-0.7110469341278076
1774789964516257800,15.9802578125,2.1007261276245117,1.4628477096557617,-0.4266321063041687
1774789964534783000,15.998782958984375,2.3261899948120117,1.5211577415466309,-0.23581519722938538
1774789964553308200,16.01730810546875,1.8755693435668945,1.4848566055297852,-0.30656298995018005
1774789964571833600,16.03583349609375,1.7323980331420898,1.505296230316162,-0.20691195130348206
1774789964590358800,16.05435888671875,1.9198923110961914,1.6590313911437988,0.01725625991821289
1774789964608884200,16.07288427734375,1.5199236869812012,2.4771299362182617,0.22365592420101166
1774789964627409400,16.091409423828125,0.2165985107421875,2.4924840927124023,0.9414029121398926
1774789964645934800,16.109934814453126,-0.655879020690918,2.045012950897217,2.0696465969085693
1774789964664460000,16.1284599609375,0.9121861457824707,0.9416050910949707,2.4255359172821045
1774789964692247800,16.156247802734374,3.971898078918457,-1.512369155883789,1.543059229850769
1774789964710773200,16.174773193359375,3.4215526580810547,-2.590994358062744,0.5138862729072571
1774789964729298400,16.19329833984375,0.8313875198364258,-2.380466938018799,-0.31159764528274536
1774789964747823900,16.211823974609374,-1.2668333053588867,-1.1108241081237793,-0.1049557775259018
1774789964766349000,16.23034912109375,-2.178717613220215,0.23676013946533203,0.9583635330200195
1774789964784874200,16.248874267578124,-1.6532306671142578,0.3748488426208496,1.3568743467330933
1774789964803399700,16.267399658203125,-0.5068497657775879,-0.771141529083252,0.8169289827346802
1774789964821924900,16.2859248046875,0.26216936111450195,-1.6582021713256836,0.09264110028743744
1774789964840450000,16.304449951171875,0.42784786224365234,-2.1987922191619873,-0.47511398792266846
1774789964858975500,16.3229755859375,-0.13130664825439453,-1.9331707954406738,-0.26668405532836914
1774789964877500700,16.341500732421874,-0.9088649749755859,-1.4134278297424316,0.11452800035476685
1774789964896026000,16.360026123046875,-1.5406341552734375,-1.2958731651306152,0.35571444034576416
1774789964914551300,16.37855126953125,-2.3202733993530273,-1.3990845680236816,0.18662233650684357
1774789964933076500,16.397076416015626,-2.9127955436706543,-1.3830676078796387,-0.009897172451019287
1774789964951602000,16.415601806640623,-3.672471046447754,-1.068476676940918,-0.007389366626739502
1774789964970127000,16.434127197265624,-3.8475422859191895,-0.2947812080383301,0.2899008095264435
1774789964988652500,16.452652587890626,-2.9015746116638184,0.3946566581726074,0.9929581880569458
1774789965007177700,16.471177734375,-1.9238877296447754,0.6696476936340332,1.5867940187454224
1774789965025703200,16.489703125,-1.1660823822021484,0.747349739074707,1.313737154006958
1774789965044228400,16.508228271484374,-0.6617336273193359,0.7249231338500977,0.521498441696167
1774789965062753800,16.52675390625,-0.13399934768676758,0.7584404945373535,-0.2684667110443115
1774789965081279000,16.545279052734376,0.8478431701660156,1.0425186157226562,-0.6140998601913452
1774789965099804200,16.56380419921875,1.7324228286743164,1.0414915084838867,-0.48200541734695435
1774789965118329600,16.58232958984375,2.3818817138671875,1.0087971687316895,-0.3871130049228668
1774789965136854800,16.600854736328124,2.600520133972168,1.082231044769287,-0.39601370692253113
1774789965155380200,16.619380126953125,2.729903221130371,1.1380844116210938,-0.46701863408088684
1774789965173905400,16.637905517578126,2.602776527404785,1.6128153800964355,-0.5294615030288696
1774789965192430600,16.6564306640625,1.6499533653259277,2.6358933448791504,-0.952101469039917
1774789965210956000,16.6749560546875,-0.3630509376525879,3.2968955039978027,-1.201744556427002
1774789965229481200,16.693481201171874,-0.21947669982910156,2.721461296081543,-1.0068089962005615
1774789965248006700,16.712006591796875,3.5120372772216797,0.7858057022094727,-0.6478162407875061
1774789965266531800,16.73053173828125,6.486335754394531,-1.3888344764709473,-0.30420875549316406
1774789965285057000,16.74905712890625,5.121669769287109,-2.408799648284912,-0.9258753657341003
1774789965303582500,16.76758251953125,1.0679702758789062,-1.34539794921875,-1.938340663909912
1774789965322107600,16.786107666015624,-2.199296474456787,0.09075212478637695,-2.2668838500976562
1774789965340633000,16.804633056640625,-2.8415021896362305,1.15989351272583,-1.5527598857879639
1774789965359158300,16.823158203125,-1.0313806533813477,0.9915380477905273,0.06662210822105408
1774789965377683700,16.84168359375,0.7703990936279297,0.22032546997070312,1.0713872909545898
1774789965396209000,16.860208984375,2.4148359298706055,-0.28431272506713867,1.250091552734375
1774789965414734300,16.878734375,2.657161235809326,-1.2307462692260742,1.1540871858596802
1774789965433259500,16.897259521484376,1.3451285362243652,-2.091569423675537,0.8636339902877808
1774789965451784700,16.91578466796875,-0.4036064147949219,-2.3980612754821777,0.5075764060020447
1774789965470310100,16.93431005859375,-2.4414334297180176,-2.445221185684204,0.3101220726966858
1774789965488835600,16.952835693359376,-3.4337005615234375,-2.4630231857299805,-0.12328541278839111
1774789965507360800,16.97136083984375,-3.3010048866271973,-2.654850959777832,-0.6019287109375
1774789965525886000,16.989885986328126,-3.1896462440490723,-2.464287281036377,-0.7593480944633484
1774789965544411400,17.008411376953124,-3.537977695465088,-1.7421250343322754,-0.6668682098388672
1774789965562936800,17.026936767578125,-3.413753032684326,-1.3096833229064941,-0.7482171058654785
1774789965581462000,17.0454619140625,-2.961456298828125,-1.0267219543457031,-0.8527296781539917
1774789965599987500,17.063987548828123,-2.4172449111938477,-0.4671974182128906,-0.7893789410591125
1774789965618512600,17.0825126953125,-1.6699748039245605,0.2873721122741699,-0.677996039390564
1774789965637037800,17.101037841796874,-1.1149139404296875,0.9130063056945801,-0.41999268531799316
1774789965655563300,17.119563232421875,-0.34051942825317383,1.3523015975952148,-0.2930724322795868
1774789965674088400,17.13808837890625,0.848330020904541,1.417325496673584,-0.45789942145347595
1774789965692614000,17.15661376953125,1.9884529113769531,1.134681224822998,-0.6177208423614502
1774789965711139000,17.17513916015625,2.6471481323242188,1.1271429061889648,-0.5120342373847961
1774789965729664500,17.19366455078125,2.158003330230713,1.2361249923706055,-0.33486539125442505
1774789965748189700,17.212189697265625,1.322883129119873,1.5741968154907227,-0.3485117554664612
1774789965766715100,17.230715087890626,1.3319263458251953,1.8000831604003906,-0.48006579279899597
1774789965785240300,17.249240234375,1.0241050720214844,1.9525809288024902,-0.7141686677932739
1774789965803765800,17.267765869140625,-0.10526847839355469,2.1383142471313477,0.17116880416870117
1774789965822291000,17.286291015625,-0.2596626281738281,2.06846284866333,1.446519136428833
1774789965840816400,17.30481640625,1.4627704620361328,0.7588615417480469,1.4863171577453613
1774789965859341600,17.323341552734377,3.69842529296875,-1.2681388854980469,1.073837161064148
1774789965877867000,17.341866943359374,4.856423377990723,-2.4542531967163086,0.7137234807014465
1774789965896392200,17.36039208984375,3.3392839431762695,-1.9497261047363281,0.4129416346549988
1774789965914917600,17.378917724609376,1.049454689025879,-0.356539249420166,0.7166016101837158
1774789965933442800,17.39744287109375,-0.9597091674804688,0.8022828102111816,1.3596786260604858
1774789965951968300,17.41596826171875,-1.7508125305175781,1.2134995460510254,1.9987530708312988
1774789965970493400,17.434493408203124,-0.614954948425293,0.7394495010375977,1.9791597127914429
1774789965989019000,17.453018798828126,0.7978019714355469,-0.5053048133850098,1.184671401977539
1774789966007544000,17.4715439453125,0.8770160675048828,-1.7077484130859375,0.41098833084106445
1774789966026069500,17.490069580078124,-0.23883962631225586,-1.8947792053222656,-0.09536679089069366
1774789966044594700,17.5085947265625,-1.4543752670288086,-1.7179007530212402,-0.35469329357147217
1774789966063120100,17.5271201171875,-2.4331045150756836,-1.6909756660461426,-0.4331481456756592
1774789966081645300,17.545645263671876,-3.0339479446411133,-1.4680538177490234,-0.3613886535167694
1774789966100170800,17.564170654296873,-3.1302881240844727,-1.1738805770874023,-0.4168488681316376
1774789966118696000,17.582696044921875,-2.936281681060791,-1.157742977142334,-0.3482479453086853
1774789966137221400,17.601221435546876,-2.710055351257324,-0.8875141143798828,-0.18069764971733093
1774789966155746600,17.61974658203125,-2.339949131011963,-0.5511159896850586,0.02422615885734558
1774789966174272000,17.63827197265625,-1.9692349433898926,-0.2940230369567871,0.2964062988758087
1774789966192797400,17.65679736328125,-1.3184466361999512,0.14468050003051758,0.4559100568294525
1774789966211322600,17.675322509765625,-0.7580604553222656,0.49509382247924805,0.716579794883728
1774789966229848000,17.69384814453125,-0.5568957328796387,0.7462573051452637,0.8272206783294678
1774789966248373200,17.712373291015624,-0.5590782165527344,1.0478568077087402,0.525705099105835
1774789966266898700,17.730898681640625,-0.3569798469543457,1.2709546089172363,0.2145797610282898
1774789966285423900,17.749423828125,-0.04794645309448242,1.3211159706115723,-0.22386983036994934
1774789966303949300,17.76794921875,0.63946533203125,1.424818992614746,-0.36227190494537354
1774789966322474500,17.786474609375,1.3865914344787598,1.4612412452697754,-0.23963317275047302
1774789966341000000,17.805,1.8519563674926758,1.5379743576049805,-0.07543137669563293
1774789966359525000,17.823525146484375,2.3996386528015137,1.876180648803711,-0.04889369010925293
1774789966378050600,17.842050537109376,2.1192779541015625,1.9882302284240723,-0.7241610288619995
1774789966396576000,17.860575927734374,1.0162568092346191,2.373271942138672,-1.9305543899536133
1774789966415101200,17.87910107421875,-0.7579755783081055,3.058467388153076,-2.594566822052002
1774789966433626600,17.897626708984376,0.11309051513671875,2.940208911895752,-1.7255175113677979
1774789966452151800,17.91615185546875,3.977902412414551,1.2122182846069336,-0.10381734371185303
1774789966470677200,17.93467724609375,8.377488136291504,-0.31617164611816406,1.1778602600097656
1774789966489202400,17.953202392578124,7.72226619720459,-1.639371395111084,0.7559593915939331
1774789966507728000,17.971727783203125,2.6266069412231445,-1.3391447067260742,-0.49515020847320557
1774789966526253000,17.990253173828126,-1.6822924613952637,-0.35332345962524414,-1.4294493198394775
1774789966544778500,18.008778564453124,-3.6412153244018555,0.2714214324951172,-1.500978946685791
1774789966563303700,18.0273037109375,-2.40706729888916,-0.45119142532348633,-0.5259329080581665
1774789966581829000,18.0458291015625,-0.4199028015136719,-1.3117470741271973,0.6098639965057373
1774789966600354600,18.0643544921875,0.9795560836791992,-1.8389606475830078,1.1514016389846802
1774789966618879700,18.082879638671876,1.175239086151123,-2.20778226852417,1.4229166507720947
1774789966637405200,18.1014052734375,0.4479079246520996,-2.4123544692993164,1.342240571975708
1774789966655930400,18.119930419921875,-1.1825804710388184,-2.3127098083496094,0.8299456834793091
1774789966674455800,18.138455810546876,-2.3389101028442383,-2.3140931129455566,0.291143000125885
1774789966692981200,18.156981201171874,-2.7945337295532227,-2.2630510330200195,-0.1214832067489624
1774789966711506400,18.17550634765625,-2.779064655303955,-2.1930899620056152,-0.278550386428833
1774789966730031900,18.194031982421876,-2.647125244140625,-1.9360442161560059,-0.3818168640136719
1774789966748557000,18.21255712890625,-2.8193483352661133,-1.4648356437683105,-0.294829398393631
1774789966767082500,18.23108251953125,-3.1133785247802734,-1.1322579383850098,-0.3206499218940735
1774789966785608000,18.24960791015625,-3.031362533569336,-0.5612697601318359,-0.4874159097671509
1774789966804133000,18.268133056640625,-2.1593165397644043,-0.16631841659545898,-0.7190637588500977
1774789966822658600,18.286658447265626,-1.296308994293213,0.05123186111450195,-0.6860829591751099
1774789966841184000,18.30518408203125,-0.4748964309692383,0.40076398849487305,-0.6975927352905273
1774789966859709200,18.323709228515625,0.4018573760986328,0.6844000816345215,-0.6796947717666626
1774789966878234600,18.342234619140626,0.9602236747741699,0.7116961479187012,-0.7202770709991455
1774789966896759800,18.360759765625,1.189061164855957,0.9182705879211426,-0.9240472912788391
1774789966915285200,18.37928515625,1.6054739952087402,1.1917166709899902,-0.9999518990516663
1774789966933810700,18.397810791015626,1.6436357498168945,1.0004119873046875,-0.780436635017395
1774789966952336000,18.4163359375,1.460782527923584,0.8971357345581055,-0.6810033917427063
1774789966970861300,18.434861328125,1.377213478088379,1.1967120170593262,-0.3301198482513428
1774789966989386500,18.453386474609374,1.3554468154907227,1.531726360321045,-0.2158060371875763
1774789967007912000,18.471911865234375,0.026191234588623047,2.015256404876709,-0.30871230363845825
1774789967026437000,18.49043701171875,-1.5097618103027344,2.3579907417297363,0.3751191198825836
1774789967044962600,18.508962646484374,0.2960200309753418,2.0658254623413086,1.9857966899871826
1774789967063488000,18.527488037109375,4.216792106628418,0.9996848106384277,3.2742345333099365
1774789967082013200,18.54601318359375,6.643169403076172,-0.606348991394043,3.1963815689086914
1774789967100538600,18.56453857421875,5.391583442687988,-1.7771704196929932,1.4542208909988403
1774789967119064000,18.58306396484375,2.2119903564453125,-1.6722393035888672,0.004219219088554382
1774789967137589200,18.60158935546875,-0.6519923210144043,-0.8413968086242676,0.033797577023506165
1774789967156114700,18.62011474609375,-1.440826416015625,-0.08608150482177734,0.7835153341293335
1774789967174640000,18.63864013671875,-0.6703829765319824,-0.4074368476867676,1.1444730758666992
1774789967193165300,18.657165283203124,-0.29535865783691406,-1.0263633728027344,0.5792626738548279
1774789967211690800,18.675690673828125,-0.8129758834838867,-1.46931791305542,-0.20064018666744232
1774789967230216200,18.69421630859375,-1.5045619010925293,-1.4912238121032715,-0.5384344458580017
1774789967248741400,18.712741455078124,-2.1763229370117188,-1.31538724899292,-0.515741765499115
1774789967267266800,18.731266845703125,-2.412869453430176,-1.4150371551513672,-0.5397645235061646
1774789967285792000,18.7497919921875,-2.399258613586426,-1.2077608108520508,-0.48136672377586365
1774789967304317400,18.7683173828125,-2.536181926727295,-1.1274518966674805,-0.6449146270751953
1774789967322843000,18.7868427734375,-2.725740909576416,-1.0222339630126953,-0.8728032112121582
1774789967341368000,18.8053681640625,-2.682924747467041,-0.7969064712524414,-0.73056560754776
1774789967359893500,18.8238935546875,-2.6915416717529297,-0.37654542922973633,-0.4005662500858307
1774789967378419000,18.8424189453125,-2.008841037750244,-0.09160232543945312,0.023556143045425415
1774789967396944400,18.8609443359375,-1.3522863388061523,-0.010123252868652344,0.3702860176563263
1774789967415469600,18.879469482421875,-0.4614119529724121,0.194732666015625,0.42701470851898193
1774789967433995000,18.8979951171875,-0.16910934448242188,0.24421405792236328,0.2946198582649231
1774789967452520400,18.9165205078125,-0.4461855888366699,0.5187268257141113,-0.11315235495567322
1774789967471045600,18.935045654296875,-0.7306170463562012,1.1346964836120605,-0.2122345268726349
1774789967489571000,18.953571044921876,-0.2238917350769043,1.502335548400879,-0.1275186538696289
1774789967508096500,18.972096435546874,0.6443977355957031,1.6296215057373047,-0.0956714004278183
1774789967535884300,18.99988427734375,2.085157871246338,1.855029582977295,0.2618744969367981
1774789967554409700,19.01840966796875,2.612121105194092,1.8188443183898926,0.15966083109378815
1774789967572935200,19.03693505859375,2.591479778289795,1.9703774452209473,-0.24802958965301514
1774789967591460600,19.055460693359375,2.5201005935668945,2.2935237884521484,-1.1926546096801758
1774789967609985800,19.07398583984375,0.989621639251709,2.747653007507324,-2.042005777359009
1774789967628511200,19.09251123046875,0.02441263198852539,3.2596426010131836,-2.1781089305877686
1774789967647036700,19.11103662109375,2.7406606674194336,2.00296688079834,-0.8994589447975159
1774789967665562000,19.12956201171875,7.3395843505859375,-0.5748300552368164,-0.025418370962142944
1774789967684087300,19.14808740234375,7.947362899780273,-2.849094867706299,-0.21953240036964417
1774789967702612700,19.16661279296875,3.695969581604004,-2.782670497894287,-1.2811074256896973
1774789967721138200,19.18513818359375,-1.0512409210205078,-1.627485752105713,-2.031167507171631
1774789967739663400,19.203663330078125,-3.1790709495544434,-0.09281063079833984,-1.4652645587921143
1774789967758188800,19.222188720703127,-3.147827625274658,0.41257715225219727,0.06509613990783691
1774789967776714200,19.24071435546875,-1.820366382598877,-0.0960988998413086,1.3227888345718384
1774789967795239400,19.259239501953125,-0.3303208351135254,-0.9859323501586914,1.1470472812652588
1774789967813764900,19.277764892578126,0.9683570861816406,-1.9337739944458008,0.5978989005088806
1774789967832290300,19.296290283203124,1.2294697761535645,-2.554669141769409,0.5694794654846191
1774789967850815700,19.314815673828125,0.42437219619750977,-2.4190235137939453,0.7648242115974426
1774789967869341200,19.333341064453126,-1.114107608795166,-2.0664243698120117,0.9522534012794495
1774789967887866400,19.351866455078124,-2.3800225257873535,-1.6547150611877441,0.6927915811538696
1774789967906391800,19.370391845703125,-2.9903697967529297,-1.5590124130249023,0.351624995470047
1774789967924917200,19.388917236328126,-3.014698028564453,-1.958604335784912,-0.13724133372306824
1774789967943442400,19.4074423828125,-2.5267367362976074,-1.9257330894470215,-0.4360525906085968
1774789967961967900,19.4259677734375,-2.1196088790893555,-1.4907407760620117,-0.2449173629283905
1774789967980493300,19.444493408203126,-2.316133499145508,-0.923194408416748,0.1571592539548874
1774789967999018800,19.463018798828124,-2.4505457878112793,-0.3702511787414551,0.17515648901462555
1774789968017544000,19.4815439453125,-2.577554702758789,0.37836599349975586,0.02003645896911621
1774789968036069400,19.5000693359375,-2.4920578002929688,0.6357564926147461,-0.441897988319397
1774789968054594800,19.5185947265625,-1.7799081802368164,0.5091938972473145,-0.6648410558700562
1774789968073120300,19.537120361328125,-1.0220766067504883,0.6524672508239746,-0.5606541037559509
1774789968091645400,19.5556455078125,-0.10609769821166992,1.0085411071777344,-0.7471073865890503
1774789968110171000,19.5741708984375,0.8287291526794434,1.0508384704589844,-0.58842533826828
1774789968128696300,19.5926962890625,1.557161808013916,1.727187156677246,-0.15746116638183594
1774789968147221500,19.611221435546874,1.853498935699463,2.5223379135131836,0.5337448716163635
1774789968165747000,19.629746826171875,1.5037994384765625,2.794698715209961,0.8120744228363037
1774789968184272400,19.6482724609375,1.4966020584106445,2.235231876373291,-0.05318480730056763
1774789968202797800,19.6667978515625,1.703695297241211,1.8914976119995117,-1.0359230041503906
1774789968221323300,19.6853232421875,1.421600341796875,1.7401509284973145,-0.8835924863815308
1774789968239848700,19.7038486328125,1.6568593978881836,1.335035800933838,0.4208160638809204
1774789968258374000,19.722373779296873,3.4091548919677734,1.26878023147583,1.2939679622650146
1774789968276899300,19.7408994140625,4.929713249206543,-0.10828828811645508,1.4165459871292114
1774789968295424500,19.759424560546876,4.972511291503906,-1.5759592056274414,0.716142475605011
1774789968313950000,19.777949951171873,2.7146530151367188,-1.7875852584838867,-0.20781037211418152
1774789968332475400,19.796475341796874,-0.14987564086914062,-1.1113462448120117,-0.44094836711883545
1774789968351000800,19.815000732421876,-1.952836036682129,-0.2803502082824707,0.17725703120231628
1774789968369526300,19.8335263671875,-1.5895881652832031,0.21208524703979492,1.1699739694595337
1774789968388051700,19.8520517578125,-0.2706108093261719,0.1759490966796875,1.8705925941467285
1774789968406577000,19.870576904296875,0.8862018585205078,-0.5107707977294922,1.5997414588928223
1774789968425102300,19.889102294921877,0.9068832397460938,-1.005014419555664,0.901233434677124
1774789968443627800,19.907627685546874,-0.008357048034667969,-1.1871147155761719,0.23942194879055023
1774789968462153200,19.9261533203125,-1.0361909866333008,-1.4685759544372559,0.18572287261486053
1774789968480678400,19.944678466796876,-2.1635913848876953,-1.80948805809021,0.005196869373321533
1774789968499203800,19.963203857421874,-2.8685550689697266,-1.7752256393432617,-0.28328824043273926
1774789968517729300,19.981729248046875,-3.109203815460205,-1.7174296379089355,-0.5860371589660645
1774789968536254700,20.000254638671876,-3.0674729347229004,-1.4651885032653809,-0.5484452247619629
1774789968554780200,20.0187802734375,-2.552293300628662,-1.151944637298584,-0.17290347814559937
1774789968573305300,20.037305419921875,-2.2045178413391113,-0.6810927391052246,0.18383164703845978
1774789968591830800,20.055830810546876,-2.173771858215332,-0.4408860206604004,0.22153523564338684
1774789968610356200,20.074356201171874,-1.6425466537475586,-0.28265905380249023,0.2722260057926178
1774789968628881700,20.092881591796875,-1.2869682312011719,0.03986406326293945,0.5762237906455994
1774789968647407000,20.111406982421876,-0.949122428894043,0.6072492599487305,0.6269274950027466
1774789968665932500,20.1299326171875,-0.9545269012451172,0.8822627067565918,0.23295831680297852
1774789968684457700,20.148457763671875,-0.7157392501831055,1.0872893333435059,-0.22424587607383728
1774789968702983200,20.166983154296876,-0.1301283836364746,1.1229000091552734,-0.5416982173919678
1774789968721508600,20.185508544921873,0.45433998107910156,1.3237342834472656,-0.4172429144382477
1774789968740034000,20.204033935546875,1.8905763626098633,1.4674158096313477,-0.42623212933540344
1774789968758559200,20.222559326171876,2.6380205154418945,1.3713531494140625,-0.39488208293914795
1774789968777084700,20.241084716796873,2.5331640243530273,1.54823637008667,-0.5057059526443481
1774789968795610000,20.259610107421874,1.9446420669555664,1.8563528060913086,-0.5917311906814575
1774789968814135600,20.278135498046876,1.0637998580932617,2.694587230682373,-0.9843312501907349
1774789968841923600,20.305923583984374,-0.29763174057006836,3.9323630332946777,-0.370589017868042
1774789968860449000,20.324448974609375,1.0342884063720703,2.9712953567504883,0.8640161752700806
1774789968878974500,20.342974365234376,4.478889465332031,1.2016706466674805,0.9938100576400757
1774789968897500000,20.3615,5.831780433654785,-0.8981895446777344,0.3570457696914673
1774789968916025000,20.380025146484375,3.1989269256591797,-1.4679241180419922,-0.6306470632553101
1774789968934550500,20.398550537109376,-0.42935705184936523,-1.1279106140136719,-2.047750949859619
1774789968953076000,20.417075927734373,-2.3578052520751953,-0.733729362487793,-2.481092929840088
1774789968971601400,20.435601318359375,-1.492898941040039,-0.8055181503295898,-1.307528018951416
1774789968990126800,20.454126953125,0.9617581367492676,-1.0421991348266602,-0.056060343980789185
1774789969008652000,20.472652099609373,2.741898536682129,-1.3151922225952148,0.6721159219741821
1774789969027177500,20.491177490234374,2.7618799209594727,-1.6084370613098145,0.9634366035461426
1774789969045703000,20.509702880859376,1.4234662055969238,-1.8863539695739746,0.4685007929801941
1774789969064228400,20.528228271484377,-0.21055936813354492,-2.108302593231201,0.20896807312965393
1774789969082753800,20.54675390625,-1.2062830924987793,-2.209148645401001,0.1380046010017395
1774789969101279000,20.565279052734375,-1.5177664756774902,-2.158114433288574,0.22350451350212097
1774789969119804400,20.583804443359377,-1.720716953277588,-2.1802077293395996,0.32688218355178833
1774789969138329900,20.602329833984374,-2.298031806945801,-2.220651626586914,0.1922541856765747
1774789969156855300,20.620855224609375,-3.0077457427978516,-2.202500820159912,-0.14266860485076904
1774789969175380700,20.639380615234376,-3.644479751586914,-1.8461551666259766,-0.28989261388778687
1774789969193906200,20.65790625,-3.728116035461426,-1.1734638214111328,-0.19565045833587646
1774789969212431600,20.676431640625,-3.523796558380127,-0.5977606773376465,0.11337751150131226
1774789969230956800,20.694956787109376,-3.0702714920043945,-0.3715810775756836,-0.10526823997497559
1774789969249482200,20.713482177734374,-2.2423653602600098,-0.12659406661987305,-0.30769598484039307
1774789969268007700,20.732007568359375,-1.4696049690246582,0.2630729675292969,-0.47319525480270386
1774789969286533000,20.750533203125,-1.0463032722473145,0.43722105026245117,-0.7974367737770081
1774789969305058600,20.76905859375,-0.5818734169006348,0.8658037185668945,-0.8353993892669678
1774789969323584000,20.787583984375,0.2455611228942871,1.373776912689209,-0.7991594076156616
1774789969342109200,20.806109130859376,1.7251834869384766,1.7951855659484863,-0.22422564029693604
1774789969360634600,20.824634521484374,2.35097599029541,2.0855722427368164,0.15026086568832397
1774789969379160000,20.84316015625,2.640866279602051,2.1048402786254883,0.3121003210544586
1774789969397685500,20.861685546875,2.517209053039551,1.523299217224121,0.13464748859405518
1774789969416211000,20.8802109375,2.3557348251342773,2.0155158042907715,-0.10506096482276917
1774789969434736400,20.898736328125,1.5233020782470703,2.7317733764648438,0.05167132616043091
1774789969453261800,20.91726171875,0.6218843460083008,2.460242748260498,0.8395049571990967
1774789969471787000,20.935787109375,1.3037500381469727,1.5173540115356445,1.5251233577728271
1774789969490312400,20.9543125,3.454957962036133,-0.028964996337890625,1.5713152885437012
1774789969508838000,20.972837890625,4.608554840087891,-1.7617807388305664,1.050300121307373
1774789969527363300,20.99136328125,3.3827009201049805,-2.704770088195801,-0.07039991021156311
1774789969545888800,21.009888671875,0.6491327285766602,-2.0880002975463867,-0.5474182367324829
1774789969564414200,21.028414306640624,-0.835777759552002,-0.8565950393676758,0.3131783604621887
1774789969582939600,21.046939697265625,-0.46927309036254883,0.031097412109375,1.8176298141479492
1774789969601464800,21.06546484375,0.04035472869873047,-0.046880245208740234,2.301168918609619
1774789969619990300,21.083990234375,-0.14443016052246094,-0.09878301620483398,1.66938054561615
1774789969638515700,21.102515625,-0.7894048690795898,-0.4987607002258301,0.653003990650177
1774789969657041200,21.121041259765626,-1.2714080810546875,-0.8848171234130859,0.09387710690498352
1774789969675566600,21.139566650390623,-1.3877668380737305,-1.0766816139221191,-0.29788738489151
1774789969694092000,21.158092041015625,-1.6350288391113281,-1.0891590118408203,-0.3723137378692627
1774789969712617200,21.1766171875,-1.9200658798217773,-0.9781064987182617,-0.47007226943969727
1774789969731142700,21.195142578125,-2.0013132095336914,-0.5801835060119629,-0.38300931453704834
1774789969749668000,21.213668212890624,-1.8446063995361328,-0.3591594696044922,-0.11142058670520782
1774789969768193500,21.232193603515626,-1.849273681640625,-0.3483295440673828,-0.19128164649009705
1774789969786719000,21.250718994140627,-2.129990577697754,-0.45621538162231445,-0.48776859045028687
1774789969805244400,21.269244384765624,-2.239323616027832,-0.23167037963867188,-0.3272514343261719
1774789969823769900,21.287769775390625,-1.4655733108520508,0.19887304306030273,0.3906940221786499
1774789969842295000,21.306294921875,-0.6105861663818359,0.11502552032470703,0.6999633312225342
1774789969860820500,21.324820556640624,-0.0778498649597168,-0.3294253349304199,0.6029019951820374
1774789969879346000,21.343345947265625,-0.4753422737121582,-0.11036968231201172,0.16752123832702637
1774789969897871400,21.361871337890626,-0.9943943023681641,0.30779600143432617,0.0010922402143478394
1774789969916396800,21.380396728515624,-0.9996809959411621,0.6050496101379395,0.26251420378685
1774789969934922200,21.398922119140625,-0.3189873695373535,1.0789756774902344,0.3866204619407654
1774789969953447700,21.41744775390625,0.4444108009338379,0.9965906143188477,0.5412513017654419
1774789969971973000,21.43597314453125,0.9847807884216309,1.0716004371643066,0.706382155418396
1774789969990498600,21.45449853515625,1.8199615478515625,1.0009961128234863,0.4972120523452759
1774789970009023700,21.473023681640626,2.2890148162841797,1.0472464561462402,-0.145806223154068
1774789970027549200,21.491549072265624,1.1413235664367676,1.864499568939209,-1.3388301134109497
1774789970046074600,21.51007470703125,-1.2300500869750977,3.0174198150634766,-1.9792416095733643
1774789970064600000,21.52860009765625,-1.8032169342041016,3.0140252113342285,-1.1589685678482056
1774789970083125500,21.54712548828125,1.8772211074829102,1.5054984092712402,0.2461559772491455
1774789970101651000,21.56565087890625,6.81147575378418,-0.4011383056640625,0.6674982309341431
1774789970120176400,21.58417626953125,6.887143135070801,-1.9498863220214844,0.11494565010070801
1774789970138701600,21.60270166015625,3.154378890991211,-1.4855413436889648,-1.2594196796417236
1774789970157227000,21.62122705078125,-0.24427413940429688,-0.5967836380004883,-2.282639741897583
1774789970175752400,21.63975244140625,-1.413276195526123,-0.2087726593017578,-1.9399669170379639
1774789970194278000,21.65827783203125,-0.5207300186157227,-0.7396712303161621,-0.9248669147491455
1774789970212803300,21.67680322265625,1.2293586730957031,-0.7953805923461914,0.22326800227165222
1774789970231328800,21.695328857421874,1.926865577697754,-1.065816879272461,0.6548731327056885
1774789970249854200,21.713854248046875,1.178389549255371,-1.188255786895752,0.8431248664855957
1774789970268379600,21.732379638671876,0.0618438720703125,-1.018815040588379,1.09970223903656
1774789970286904800,21.75090478515625,-1.0710811614990234,-1.1535539627075195,1.1420644521713257
1774789970305430300,21.76943017578125,-2.1747217178344727,-1.3749308586120605,0.6711385250091553
1774789970323955700,21.787955810546876,-2.9563779830932617,-1.631309986114502,-0.03119710087776184
1774789970342481200,21.806481201171874,-2.898988723754883,-1.654994010925293,-0.4147472381591797
1774789970361006600,21.825006591796875,-2.400632858276367,-1.6505470275878906,-0.2849530279636383
1774789970379532000,21.843531982421876,-2.157986640930176,-1.753575325012207,-0.44019824266433716
1774789970398057200,21.86205712890625,-2.3504600524902344,-1.3548259735107422,-0.6666762232780457
1774789970416582700,21.880582763671875,-2.472696304321289,-0.5376510620117188,-0.5060304999351501
1774789970435108000,21.899108154296876,-2.130122184753418,0.19317054748535156,0.07790687680244446
1774789970453633500,21.917633544921873,-1.1974592208862305,0.7822518348693848,0.607569694519043
1774789970472159000,21.936158935546874,-0.6217894554138184,0.918830394744873,0.5340189337730408
1774789970490684400,21.954684326171876,0.013265609741210938,0.5856781005859375,-0.10137376189231873
1774789970509209900,21.9732099609375,0.3434171676635742,0.3864903450012207,-0.7334030866622925
1774789970527735300,21.9917353515625,0.6747250556945801,0.7072958946228027,-0.8286656737327576
1774789970546260700,22.0102607421875,1.3167171478271484,1.0096416473388672,-0.3010265827178955
1774789970564786200,22.0287861328125,2.062676429748535,1.1330690383911133,0.21872904896736145
1774789970583311400,22.047311279296874,2.2612881660461426,0.7697162628173828,0.3723132610321045
1774789970601836800,22.0658369140625,1.4554476737976074,0.5799446105957031,0.1511310636997223
1774789970620362200,22.0843623046875,1.2270560264587402,1.1147027015686035,0.14971932768821716
1774789970638887700,22.1028876953125,0.6183514595031738,1.7914438247680664,0.08444875478744507
1774789970657413000,22.1214130859375,-1.2369070053100586,2.0850086212158203,0.4492906928062439
1774789970675938600,22.1399384765625,-1.1583161354064941,1.8989877700805664,1.4343096017837524
1774789970694464000,22.158464111328126,1.5635452270507812,1.38604736328125,2.8270697593688965
1774789970712989200,22.1769892578125,2.973201274871826,-0.46890878677368164,2.9785304069519043
1774789970731514600,22.1955146484375,3.0019540786743164,-1.5132174491882324,1.4424827098846436
1774789970750040000,22.2140400390625,1.8424997329711914,-1.4313774108886719,-0.21382327377796173
1774789970768565500,22.2325654296875,0.5473785400390625,-0.9319076538085938,-0.32651886343955994
1774789970787091000,22.251091064453124,0.06711864471435547,-0.5529766082763672,0.7236091494560242
1774789970805616400,22.269616455078125,0.5844459533691406,-0.4940071105957031,1.4420326948165894
1774789970833404400,22.297404296875,1.0581326484680176,-1.5597343444824219,0.4639883041381836
1774789970851929900,22.315929931640625,0.7043800354003906,-1.7062654495239258,-0.445637583732605
1774789970870455300,22.334455322265626,0.7442636489868164,-1.1673645973205566,-0.061675578355789185
1774789970888980700,22.352980712890623,-0.028607845306396484,-0.9224810600280762,0.7065661549568176
1774789970907506200,22.371506103515625,-1.2326788902282715,-0.8178939819335938,0.6777557134628296
1774789970926031600,22.390031494140626,-1.9992461204528809,-1.160384178161621,0.008428841829299927
1774789970944556800,22.408556884765623,-2.1436939239501953,-1.3958849906921387,-0.29657045006752014
1774789970963082200,22.427082275390624,-1.9451966285705566,-1.5740141868591309,-0.5929137468338013
1774789970981607700,22.445607666015626,-1.9929614067077637,-1.1749520301818848,-0.6233776807785034
1774789971000133000,22.464133056640627,-2.1810970306396484,-0.5643234252929688,-0.5640236139297485
1774789971018658600,22.482658447265624,-2.266279697418213,-0.0707855224609375,-0.3985193371772766
1774789971037184000,22.50118408203125,-1.7610187530517578,0.2629580497741699,0.426257848739624
1774789971055709200,22.519709228515627,-0.9763126373291016,0.35146093368530273,0.5936225652694702
1774789971074234600,22.538234619140624,-0.3430509567260742,0.14647960662841797,0.2287316918373108
1774789971092760000,22.556760009765625,-0.27476072311401367,-0.17174148559570312,-0.2098536491394043
1774789971111285500,22.575285400390626,-0.26513051986694336,-0.08134698867797852,-0.5703001022338867
1774789971129811000,22.59381103515625,-0.2120203971862793,0.5226893424987793,-0.39810711145401
1774789971148336400,22.61233642578125,0.008391857147216797,0.8922305107116699,-0.08534783124923706
1774789971166861800,22.63086181640625,0.01632213592529297,1.0991597175598145,-0.028826534748077393
1774789971185387000,22.649386962890624,0.0976104736328125,1.118342399597168,-0.1291484236717224
1774789971203912400,22.667912353515625,0.4169130325317383,1.3318443298339844,0.0546916127204895
1774789971222438000,22.68643798828125,1.2043967247009277,1.7771191596984863,0.3619212210178375
1774789971250226200,22.71422607421875,0.9087133407592773,2.079401969909668,-0.2668967843055725
1774789971268751600,22.732751708984374,-0.5603461265563965,2.1634435653686523,-1.3145989179611206
1774789971287276800,22.75127685546875,-1.8655695915222168,2.941150188446045,-1.5427125692367554
1774789971305802200,22.76980224609375,-0.14478588104248047,3.1399736404418945,-0.8361321687698364
1774789971324327700,22.78832763671875,3.513187885284424,1.8192434310913086,-0.27605414390563965
1774789971342853000,22.80685302734375,6.0798540115356445,-0.2542543411254883,-0.5029752850532532
1774789971361378600,22.825378662109376,5.3706793785095215,-1.2861642837524414,-1.3596440553665161
1774789971379904000,22.843904052734374,2.2187938690185547,-1.0897212028503418,-1.7590432167053223
1774789971398429200,22.86242919921875,-0.14056682586669922,-0.5192580223083496,-1.3279449939727783
1774789971416954600,22.88095458984375,-0.5062904357910156,-0.43471765518188477,-0.6430500149726868
1774789971435480000,22.89947998046875,0.3956332206726074,-1.030900001525879,-0.222645103931427
1774789971454005500,22.918005615234375,0.8365049362182617,-1.231987476348877,-0.12534666061401367
1774789971472531000,22.936531005859376,0.24019479751586914,-1.4359245300292969,-0.3763777017593384
1774789971491056400,22.955056396484373,-0.49707603454589844,-1.5577783584594727,-0.39680224657058716
1774789971509581800,22.973581787109374,-0.656409740447998,-1.4595184326171875,0.02068406343460083
1774789971528107000,22.99210693359375,-0.38601016998291016,-1.444704532623291,0.531632661819458
1774789971546632400,23.010632568359377,-0.49420738220214844,-1.35371732711792,0.8329905271530151
1774789971565158000,23.029157958984374,-1.3978023529052734,-1.3620615005493164,0.6803687810897827
1774789971583683300,23.047683349609375,-2.2906289100646973,-1.5710148811340332,0.16393953561782837
1774789971602208800,23.066208740234377,-2.602050304412842,-1.4828605651855469,-0.07086318731307983
1774789971620734200,23.084734130859374,-2.454787254333496,-0.9818391799926758,0.15623927116394043
1774789971639259600,23.103259765625,-1.8991093635559082,-0.7461490631103516,0.4426474869251251
1774789971657785000,23.12178515625,-1.331491470336914,-0.7764368057250977,0.41601067781448364
1774789971676310500,23.140310546875,-1.2469062805175781,-0.6212677955627441,0.22187283635139465
1774789971694835700,23.158835693359375,-1.5411643981933594,-0.40787267684936523,0.07494178414344788
1774789971713361200,23.177361083984376,-1.683450698852539,-0.33017730712890625,-0.058099567890167236
1774789971731886600,23.195886474609374,-1.630946159362793,0.34334897994995117,-0.14521920680999756
