time,seconds_elapsed,z,y,x
1774789948640308700,0.104308837890625,8.026458740234375,5.628911972045898,-0.2483716458082199
1774789948677358300,0.1413583984375,8.079538345336914,5.5561699867248535,-0.1429012268781662
1774789948695883300,0.15988330078125,8.24886417388916,5.303455352783203,-0.0011297493474557996
1774789948714408000,0.178407958984375,8.347957611083984,5.145671367645264,0.06373119354248047
1774789948732932900,0.196932861328125,8.409061431884766,5.045327663421631,0.052369698882102966
1774789948751457500,0.21545751953125,8.45711898803711,4.964627265930176,-0.0005559036508202553
1774789948769982500,0.233982421875,8.514760971069336,4.864767074584961,-0.057142943143844604
1774789948788507100,0.252507080078125,8.612943649291992,4.687645435333252,-0.11642161011695862
1774789948807032000,0.271031982421875,8.694360733032227,4.5340094566345215,-0.14569948613643646
1774789948825557000,0.289556884765625,8.749442100524902,4.426347255706787,-0.15841780602931976
1774789948844081700,0.30808154296875,8.770805358886719,4.384688854217529,-0.133615642786026
1774789948862606600,0.326606689453125,8.777115821838379,4.3722825050354,-0.12556126713752747
1774789948881131500,0.345131591796875,8.776223182678223,4.373562812805176,-0.14231744408607483
1774789948899656200,0.36365625,8.774380683898926,4.376767158508301,-0.1566387563943863
1774789948918181000,0.38218115234375,8.770159721374512,4.385151386260986,-0.15850327908992767
1774789948936705800,0.400705810546875,8.766283988952637,4.393317699432373,-0.14633329212665558
1774789948955230700,0.419230712890625,8.767115592956543,4.392550945281982,-0.11650850623846054
1774789948973755400,0.43775537109375,8.771188735961914,4.384822368621826,-0.09987010806798935
1774789948992280300,0.4562802734375,8.769818305969238,4.3877153396606445,-0.09288482367992401
1774789949010805200,0.47480517578125,8.760929107666016,4.405670642852783,-0.08106832951307297
1774789949029330000,0.493329833984375,8.751077651977539,4.425558090209961,-0.058803491294384
1774789949047854800,0.511854736328125,8.74728775024414,4.433320999145508,-0.031720541417598724
1774789949066379500,0.530379638671875,8.751777648925781,4.424529552459717,-0.018013618886470795
1774789949084904400,0.548904541015625,8.757720947265625,4.4127373695373535,-0.02161303721368313
1774789949103429000,0.56742919921875,8.760563850402832,4.407083511352539,-0.022787248715758324
1774789949121954000,0.5859541015625,8.766698837280273,4.39492654800415,-0.002104898914694786
1774789949140478700,0.604478759765625,8.77229118347168,4.383683681488037,0.024969017133116722
1774789949159003600,0.623003662109375,8.767003059387207,4.394145488739014,0.03897252678871155
1774789949177528600,0.641528564453125,8.759317398071289,4.409422397613525,0.04164382815361023
1774789949196053200,0.66005322265625,8.761967658996582,4.404102802276611,0.04678650572896004
1774789949214578200,0.678578125,8.772873878479004,4.38226318359375,0.05331658199429512
1774789949233103000,0.69710302734375,8.78148365020752,4.364913463592529,0.05894821137189865
1774789949251627800,0.715627685546875,8.785118103027344,4.3571953773498535,0.08322098106145859
1774789949270152400,0.73415234375,8.786142349243164,4.354541301727295,0.10986407846212387
1774789949288677400,0.752677490234375,8.788859367370605,4.348646640777588,0.12497910112142563
1774789949307202300,0.771202392578125,8.80085563659668,4.324585437774658,0.11533717811107635
1774789949325727000,0.78972705078125,8.820793151855469,4.284452438354492,0.08637597411870956
1774789949344252000,0.808251953125,8.84261417388916,4.239745616912842,0.055882230401039124
1774789949362776600,0.826776611328125,8.859845161437988,4.203863143920898,0.032442402094602585
1774789949381301500,0.845301513671875,8.873918533325195,4.174086093902588,0.03083241544663906
1774789949399826400,0.863826416015625,8.88424015045166,4.151828289031982,0.05460309237241745
1774789949418351000,0.88235107421875,8.888745307922363,4.1413960456848145,0.09710539132356644
1774789949436875800,0.900875732421875,8.893081665039062,4.130419731140137,0.1519957184791565
1774789949455400700,0.919400634765625,8.895602226257324,4.123098373413086,0.196721613407135
1774789949473925600,0.937925537109375,8.90077018737793,4.111328601837158,0.20893464982509613
1774789949492450300,0.9564501953125,8.906620979309082,4.098627090454102,0.2091653048992157
1774789949510975200,0.974975341796875,8.911031723022461,4.088709354400635,0.21531915664672852
1774789949529500200,0.993500244140625,8.913719177246094,4.0826945304870605,0.2181512862443924
1774789949548024800,1.01202490234375,8.9198637008667,4.0702223777771,0.19928431510925293
1774789949566549800,1.0305498046875,8.92833137512207,4.052596569061279,0.17821821570396423
1774789949585074400,1.049074462890625,8.935062408447266,4.037686347961426,0.1792449802160263
1774789949603599400,1.067599365234375,8.939254760742188,4.027336120605469,0.20165468752384186
1774789949622124000,1.0861240234375,8.944721221923828,4.013969421386719,0.22453144192695618
1774789949640649000,1.10464892578125,8.951279640197754,4.000049591064453,0.21116721630096436
1774789949659173600,1.123173583984375,8.958239555358887,3.985795021057129,0.1837483048439026
1774789949677698600,1.141698486328125,8.9613618850708,3.97969651222229,0.1624455451965332
1774789949696223500,1.160223388671875,8.958902359008789,3.9849061965942383,0.17023585736751556
1774789949714748200,1.178748046875,8.956547737121582,3.9894227981567383,0.18751360476016998
1774789949733273000,1.197273193359375,8.95926570892334,3.9825072288513184,0.203924760222435
1774789949751797800,1.2157978515625,8.964668273925781,3.9699718952178955,0.21082355082035065
1774789949770322700,1.23432275390625,8.966668128967285,3.965669870376587,0.2066727578639984
1774789949788847400,1.252847412109375,8.965922355651855,3.968169927597046,0.19041359424591064
1774789949807372300,1.271372314453125,8.964838981628418,3.971607208251953,0.16848346590995789
1774789949825897000,1.28989697265625,8.964483261108398,3.9725043773651123,0.16624686121940613
1774789949844422000,1.308421875,8.964847564697266,3.971242666244507,0.1764550656080246
1774789949862946800,1.32694677734375,8.961736679077148,3.97831130027771,0.17518505454063416
1774789949881471500,1.345471435546875,8.959016799926758,3.984389305114746,0.17620570957660675
1774789949899996400,1.363996337890625,8.957756042480469,3.9875130653381348,0.16949614882469177
1774789949918521000,1.38252099609375,8.955036163330078,3.99405837059021,0.15880011022090912
1774789949937046000,1.4010458984375,8.952603340148926,3.999577522277832,0.15700066089630127
1774789949955570700,1.41957080078125,8.951778411865234,4.001527309417725,0.15434999763965607
1774789949974095600,1.438095703125,8.948775291442871,4.008860111236572,0.13732801377773285
1774789949992620500,1.45662060546875,8.939926147460938,4.029452323913574,0.10784779489040375
1774789950011145200,1.475145263671875,8.92921257019043,4.0538763999938965,0.0750550627708435
1774789950029670100,1.493670166015625,8.925786018371582,4.061768054962158,0.0524895153939724
1774789950048194800,1.51219482421875,8.929277420043945,4.054327011108398,0.02865716442465782
1774789950066719700,1.5307197265625,8.934309005737305,4.043322563171387,0.007182978559285402
1774789950085244400,1.549244384765625,8.938055038452148,4.035040378570557,-0.002546213800087571
1774789950103769300,1.567769287109375,8.939577102661133,4.031652450561523,-0.010809749364852905
1774789950122294000,1.5862939453125,8.936946868896484,4.037470817565918,-0.014012111350893974
1774789950140819000,1.60481884765625,8.928746223449707,4.055597305297852,-0.005331183783710003
1774789950159343900,1.62334375,8.917200088500977,4.0809197425842285,-0.004346773494035006
1774789950177868500,1.64186865234375,8.90280532836914,4.112160682678223,-0.023694531992077827
1774789950196393500,1.6603935546875,8.881282806396484,4.158198356628418,-0.05093412846326828
1774789950214918400,1.67891845703125,8.85261058807373,4.218926906585693,-0.04835835471749306
1774789950233443000,1.697443115234375,8.822382926940918,4.281896591186523,-0.03623872622847557
1774789950251968000,1.715968017578125,8.795273780822754,4.337170600891113,-0.04992985725402832
1774789950270492700,1.73449267578125,8.783148765563965,4.36102819442749,-0.09010092914104462
1774789950289017600,1.753017578125,8.789658546447754,4.346279144287109,-0.14883531630039215
1774789950307542300,1.771542236328125,8.795241355895996,4.332522392272949,-0.20825476944446564
1774789950326067200,1.790067138671875,8.782254219055176,4.357265949249268,-0.23794230818748474
1774789950344592100,1.808592041015625,8.755403518676758,4.411297798156738,-0.23182742297649384
1774789950363116800,1.82711669921875,8.731649398803711,4.458527088165283,-0.22409573197364807
1774789950381641700,1.845641845703125,8.719413757324219,4.482065200805664,-0.23084761202335358
1774789950400166400,1.86416650390625,8.713336944580078,4.491851806640625,-0.26725098490715027
1774789950418691300,1.88269140625,8.70229434967041,4.509823799133301,-0.3192926347255707
1774789950437216000,1.901216064453125,8.683500289916992,4.542579174041748,-0.3635837137699127
1774789950455741000,1.919740966796875,8.658909797668457,4.587891101837158,-0.38066399097442627
1774789950474265900,1.938265869140625,8.636306762695312,4.629918575286865,-0.3852819502353668
1774789950492790500,1.95679052734375,8.617603302001953,4.6611528396606445,-0.4253818094730377
1774789950511315500,1.9753154296875,8.601943969726562,4.683865547180176,-0.48822030425071716
1774789950529840400,1.99384033203125,8.587427139282227,4.704987525939941,-0.5381254553794861
1774789950548365000,2.012364990234375,8.572261810302734,4.729426383972168,-0.565017819404602
1774789950566890000,2.030889892578125,8.555363655090332,4.755782127380371,-0.598889172077179
1774789950585414700,2.04941455078125,8.538119316101074,4.7794389724731445,-0.6541035771369934
1774789950603939600,2.067939697265625,8.519566535949707,4.803597450256348,-0.7161127328872681
1774789950622464500,2.086464599609375,8.499611854553223,4.830068111419678,-0.7729372382164001
1774789950640989200,2.1049892578125,8.480374336242676,4.852279186248779,-0.8420361280441284
1774789950659514000,2.12351416015625,8.455510139465332,4.880255699157715,-0.9261953234672546
1774789950678039000,2.1420390625,8.430305480957031,4.910580158233643,-0.9932509064674377
1774789950696563700,2.160563720703125,8.425196647644043,4.916606426239014,-1.0066938400268555
1774789950715088600,2.179088623046875,8.428946495056152,4.913111209869385,-0.992264986038208
1774789950733613300,2.19761328125,8.430303573608398,4.90932559967041,-0.9994421005249023
1774789950752138200,2.21613818359375,8.422624588012695,4.917116641998291,-1.0255488157272339
1774789950770663200,2.2346630859375,8.41614055633545,4.924921989440918,-1.0412026643753052
1774789950789187800,2.253187744140625,8.419447898864746,4.916770935058594,-1.0529236793518066
1774789950807712800,2.271712646484375,8.425274848937988,4.901017665863037,-1.0794252157211304
1774789950826237400,2.290237548828125,8.426403045654297,4.887700080871582,-1.1298319101333618
1774789950844762400,2.308762451171875,8.416913986206055,4.88699197769165,-1.2013556957244873
1774789950863287300,2.327287353515625,8.393197059631348,4.8985772132873535,-1.3147504329681396
1774789950881812000,2.34581201171875,8.358561515808105,4.9265546798706055,-1.4261467456817627
1774789950900337000,2.3643369140625,8.33079719543457,4.975853443145752,-1.4174258708953857
1774789950918861800,2.38286181640625,8.33829402923584,4.983918190002441,-1.3430545330047607
1774789950937386800,2.40138671875,8.366337776184082,4.946164131164551,-1.307759165763855
1774789950955911400,2.419911376953125,8.394087791442871,4.900034427642822,-1.3035835027694702
1774789950974436000,2.43843603515625,8.426558494567871,4.857873439788818,-1.2508299350738525
1774789950992961000,2.4569609375,8.464397430419922,4.819220066070557,-1.1399494409561157
1774789951011486000,2.47548583984375,8.500738143920898,4.78355073928833,-1.0126546621322632
1774789951030011000,2.494010986328125,8.537067413330078,4.7431840896606445,-0.8894238471984863
1774789951048535600,2.51253564453125,8.575879096984863,4.694329738616943,-0.7667821049690247
1774789951067060500,2.531060546875,8.606392860412598,4.655456066131592,-0.6535360217094421
1774789951085585200,2.549585205078125,8.633942604064941,4.614678859710693,-0.5746035575866699
1774789951104110000,2.568110107421875,8.663238525390625,4.5624308586120605,-0.550374448299408
1774789951122635000,2.586635009765625,8.680402755737305,4.530761241912842,-0.5414772033691406
1774789951141160000,2.605159912109375,8.680549621582031,4.531017303466797,-0.5369603037834167
1774789951159684600,2.6236845703125,8.672849655151367,4.550927639007568,-0.49104243516921997
1774789951178209500,2.64220947265625,8.664497375488281,4.574557781219482,-0.4126569330692291
1774789951196734200,2.660734130859375,8.659749984741211,4.58833122253418,-0.35542118549346924
1774789951215259100,2.679259033203125,8.662060737609863,4.585899353027344,-0.3295762538909912
1774789951233784000,2.6977841796875,8.669925689697266,4.570751667022705,-0.3331899344921112
1774789951252309000,2.71630908203125,8.681703567504883,4.547210216522217,-0.34829476475715637
1774789951270833700,2.734833740234375,8.694826126098633,4.5230255126953125,-0.3355749547481537
1774789951289358600,2.753358642578125,8.698404312133789,4.51845645904541,-0.3028106987476349
1774789951307883500,2.771883544921875,8.689664840698242,4.536798477172852,-0.27851852774620056
1774789951326408200,2.790408203125,8.680344581604004,4.5547261238098145,-0.2765657603740692
1774789951344933000,2.80893310546875,8.674699783325195,4.564673900604248,-0.2893362045288086
1774789951363458000,2.8274580078125,8.66850757598877,4.576485633850098,-0.2883298397064209
1774789951381983000,2.84598291015625,8.656825065612793,4.599440097808838,-0.2737107276916504
1774789951400507600,2.864507568359375,8.636706352233887,4.637369632720947,-0.26926276087760925
1774789951419032600,2.883032470703125,8.605192184448242,4.694322109222412,-0.2905040979385376
1774789951437557200,2.90155712890625,8.562010765075684,4.770080089569092,-0.32967492938041687
1774789951456082200,2.920082275390625,8.50660514831543,4.865579128265381,-0.36633428931236267
1774789951474607000,2.938607177734375,8.444441795349121,4.970293998718262,-0.39744171500205994
1774789951493132000,2.957132080078125,8.388362884521484,5.064138412475586,-0.4003254771232605
1774789951511657000,2.975656982421875,8.337717056274414,5.147119045257568,-0.40002572536468506
1774789951530181600,2.994181640625,8.293147087097168,5.215224266052246,-0.4421916604042053
1774789951548706600,3.01270654296875,8.262065887451172,5.259727954864502,-0.4938812255859375
1774789951567231500,3.0312314453125,8.236224174499512,5.2973175048828125,-0.5228990912437439
1774789951585756200,3.049756103515625,8.220860481262207,5.322414398193359,-0.5096511244773865
1774789951604281000,3.068281005859375,8.211023330688477,5.341766834259033,-0.46369194984436035
1774789951622806000,3.086805908203125,8.19791030883789,5.363996982574463,-0.43839022517204285
1774789951641330700,3.10533056640625,8.190760612487793,5.373623371124268,-0.45385193824768066
1774789951659855600,3.123855712890625,8.193025588989258,5.367312431335449,-0.4864790439605713
1774789951678380500,3.142380615234375,8.19554328918457,5.3608198165893555,-0.5148512125015259
1774789951696905500,3.160905517578125,8.191703796386719,5.366608142852783,-0.5156495571136475
1774789951715430400,3.179430419921875,8.178180694580078,5.388634204864502,-0.5003714561462402
1774789951733955000,3.197955078125,8.156739234924316,5.42158317565918,-0.49439603090286255
1774789951752480000,3.21647998046875,8.137151718139648,5.450960159301758,-0.49413982033729553
1774789951771005000,3.2350048828125,8.113469123840332,5.487118244171143,-0.48325520753860474
1774789951789529900,3.25352978515625,8.072187423706055,5.550827503204346,-0.44552814960479736
1774789951808054500,3.272054443359375,8.007857322692871,5.645171165466309,-0.42028331756591797
1774789951826579500,3.290579345703125,7.915746688842773,5.772274017333984,-0.4383920431137085
1774789951845104400,3.3091044921875,7.8136982917785645,5.9036359786987305,-0.5134022235870361
1774789951863629300,3.32762939453125,7.725715160369873,6.006710052490234,-0.6349381804466248
1774789951882154000,3.346154052734375,7.657273769378662,6.083024501800537,-0.730323314666748
1774789951900679000,3.364678955078125,7.601657390594482,6.147723197937012,-0.7685682773590088
1774789951919203800,3.383203857421875,7.556773662567139,6.202139377593994,-0.7739681601524353
1774789951937728800,3.401728759765625,7.528898239135742,6.229261875152588,-0.8260675668716431
1774789951956253400,3.42025341796875,7.5415802001953125,6.210858345031738,-0.8486390113830566
1774789951974778400,3.4387783203125,7.577452182769775,6.1730499267578125,-0.803786039352417
1774789951993303300,3.45730322265625,7.601807594299316,6.150707721710205,-0.7427689433097839
1774789952011828200,3.475828125,7.613803386688232,6.139608860015869,-0.7110450267791748
1774789952030353000,3.494352783203125,7.636912822723389,6.110172271728516,-0.7167579531669617
1774789952048877800,3.5128779296875,7.669571399688721,6.067022323608398,-0.7343692779541016
1774789952067402800,3.53140283203125,7.6954779624938965,6.034980773925781,-0.7273305058479309
1774789952085927700,3.549927734375,7.704583644866943,6.026634693145752,-0.6995986700057983
1774789952104452600,3.56845263671875,7.70283317565918,6.030790328979492,-0.6828824877738953
1774789952122977300,3.586977294921875,7.690972328186035,6.048022747039795,-0.6639019846916199
1774789952141502200,3.605502197265625,7.6626763343811035,6.088947772979736,-0.6152217984199524
1774789952160027100,3.624027099609375,7.617807865142822,6.152088165283203,-0.539623498916626
1774789952178552000,3.642552001953125,7.564072608947754,6.222794055938721,-0.48168742656707764
1774789952197077000,3.661076904296875,7.51127290725708,6.2891058921813965,-0.4453290104866028
1774789952215602000,3.679601806640625,7.468339443206787,6.342161655426025,-0.4138660132884979
1774789952234126600,3.698126708984375,7.441360950469971,6.375683307647705,-0.3836543560028076
1774789952252651500,3.716651611328125,7.4169816970825195,6.404268741607666,-0.3796243369579315
1774789952271176400,3.735176513671875,7.392160415649414,6.432899475097656,-0.37966692447662354
1774789952289701400,3.753701416015625,7.386173725128174,6.4404778480529785,-0.3675272762775421
1774789952308226300,3.772226318359375,7.411447048187256,6.412001609802246,-0.356471985578537
1774789952326751200,3.790751220703125,7.456439971923828,6.359381198883057,-0.3607790768146515
1774789952345276000,3.80927587890625,7.500580787658691,6.306958198547363,-0.366000235080719
1774789952363800800,3.82780078125,7.524044036865234,6.27970552444458,-0.35277703404426575
1774789952382325800,3.84632568359375,7.521292209625244,6.284502983093262,-0.32490190863609314
1774789952400850700,3.8648505859375,7.502748966217041,6.307481288909912,-0.3079489469528198
1774789952419375400,3.883375244140625,7.478356838226318,6.337048530578613,-0.29390373826026917
1774789952437900300,3.901900390625,7.449607849121094,6.371340274810791,-0.2823874354362488
1774789952456425200,3.92042529296875,7.420948028564453,6.403448581695557,-0.30945438146591187
1774789952474950100,3.9389501953125,7.404263973236084,6.419860363006592,-0.36424532532691956
1774789952493475000,3.95747509765625,7.400043964385986,6.420499324798584,-0.43236273527145386
1774789952512000000,3.976,7.3947649002075195,6.42427921295166,-0.4652813971042633
1774789952530525000,3.99452490234375,7.392274379730225,6.427547454833984,-0.45967867970466614
1774789952549049900,4.0130498046875,7.405468463897705,6.413778781890869,-0.4391540586948395
1774789952567574500,4.031574462890625,7.428127288818359,6.388056755065918,-0.43134868144989014
1774789952586099500,4.050099365234375,7.442561626434326,6.3705339431762695,-0.441563218832016
1774789952604624400,4.068624267578125,7.43534517288208,6.3785905838012695,-0.44678500294685364
1774789952623149300,4.0871494140625,7.405842304229736,6.413981914520264,-0.42978397011756897
1774789952641674200,4.10567431640625,7.371858596801758,6.454625606536865,-0.4048129618167877
1774789952660199200,4.12419921875,7.346153259277344,6.483153343200684,-0.4161043167114258
1774789952678724000,4.14272412109375,7.33441686630249,6.494622707366943,-0.4433910846710205
1774789952697249000,4.1612490234375,7.324387073516846,6.504379749298096,-0.46561095118522644
1774789952715773700,4.179773681640625,7.302303314208984,6.528325080871582,-0.47719791531562805
1774789952734298600,4.198298583984375,7.259588718414307,6.57490348815918,-0.48929363489151
1774789952752823600,4.216823486328125,7.198228359222412,6.639142990112305,-0.5269584059715271
1774789952771348500,4.235348388671875,7.122314453125,6.716381072998047,-0.577269971370697
1774789952789873400,4.253873291015625,7.01760196685791,6.818857669830322,-0.6533154845237732
1774789952808398300,4.2723984375,6.922084331512451,6.8966240882873535,-0.8316920399665833
1774789952826923300,4.29092333984375,7.011209487915039,6.7918925285339355,-0.9399622678756714
1774789952845448200,4.3094482421875,7.128565788269043,6.6738457679748535,-0.9020583033561707
1774789952863973000,4.32797314453125,7.145195007324219,6.660796165466309,-0.8662397861480713
1774789952882498000,4.346498046875,7.0734944343566895,6.737912654876709,-0.8582525849342346
1774789952901023000,4.36502294921875,6.9805426597595215,6.824542999267578,-0.9316776990890503
1774789952919547600,4.383547607421875,6.967658042907715,6.833807945251465,-0.9597907066345215
1774789952938072600,4.402072509765625,7.057311534881592,6.74759578704834,-0.913616955280304
1774789952956597800,4.42059765625,7.211538314819336,6.590183258056641,-0.856493353843689
1774789952975122700,4.439122802734375,7.384052753448486,6.397152900695801,-0.8500475287437439
1774789952993647400,4.4576474609375,7.5159173011779785,6.23536491394043,-0.8953167796134949
1774789953012172300,4.47617236328125,7.567210674285889,6.171151638031006,-0.9080712199211121
1774789953030697200,4.494697265625,7.536014080047607,6.217622756958008,-0.8485670685768127
1774789953049222100,4.51322216796875,7.4704132080078125,6.309256076812744,-0.7460665106773376
1774789953067747000,4.5317470703125,7.42889928817749,6.367443561553955,-0.6614379286766052
1774789953086272000,4.55027197265625,7.443731307983398,6.352028846740723,-0.6426382660865784
1774789953104797000,4.568796875,7.483072280883789,6.302220821380615,-0.6752995252609253
1774789953123321900,4.58732177734375,7.504959583282471,6.273833274841309,-0.6964055299758911
1774789953141846800,4.6058466796875,7.505784511566162,6.273860931396484,-0.6872111558914185
1774789953160371700,4.624371826171875,7.502201080322266,6.280942916870117,-0.6611638069152832
1774789953178896600,4.642896728515625,7.5045270919799805,6.28136682510376,-0.6299886107444763
1774789953197421600,4.661421630859375,7.519509792327881,6.266331672668457,-0.6003777980804443
1774789953215946500,4.679946533203125,7.555649757385254,6.224189758300781,-0.5848169922828674
1774789953234471400,4.698471435546875,7.625155448913574,6.139553546905518,-0.5773049592971802
1774789953252996400,4.716996337890625,7.7188191413879395,6.021605968475342,-0.574871838092804
1774789953271521300,4.735521240234375,7.791974067687988,5.926401138305664,-0.5773128867149353
1774789953290046200,4.754046142578125,7.815193176269531,5.896737575531006,-0.5671219229698181
1774789953308571100,4.772571044921875,7.80614709854126,5.911111354827881,-0.5415024161338806
1774789953327096000,4.791095947265625,7.805201530456543,5.914948463439941,-0.5124366283416748
1774789953345621000,4.80962109375,7.831002712249756,5.882160186767578,-0.4959622025489807
1774789953364146000,4.82814599609375,7.88142204284668,5.815190315246582,-0.48696643114089966
1774789953382670800,4.8466708984375,7.934804916381836,5.742599964141846,-0.4814721941947937
1774789953401195800,4.86519580078125,7.966728210449219,5.69752836227417,-0.48970043659210205
1774789953419720700,4.883720703125,7.976722717285156,5.680800914764404,-0.520378828048706
1774789953438245600,4.90224560546875,7.9827799797058105,5.670488357543945,-0.5396025776863098
1774789953456770600,4.9207705078125,7.997368812561035,5.650763034820557,-0.5304296016693115
1774789953475295500,4.93929541015625,8.025298118591309,5.6145429611206055,-0.4918212592601776
1774789953493820400,4.9578203125,8.063952445983887,5.563283920288086,-0.43923741579055786
1774789953512345300,4.976345458984375,8.104182243347168,5.507640838623047,-0.39813458919525146
1774789953530870300,4.994870361328125,8.131556510925293,5.468225002288818,-0.38299718499183655
1774789953549395200,5.013395263671875,8.136907577514648,5.460362911224365,-0.3815213441848755
1774789953567920000,5.031920166015625,8.117912292480469,5.489429950714111,-0.3688737154006958
1774789953586445000,5.050445068359375,8.083809852600098,5.541141510009766,-0.34373408555984497
1774789953604970000,5.068969970703125,8.051116943359375,5.5906782150268555,-0.30697670578956604
1774789953623495000,5.087494873046875,8.042280197143555,5.6053385734558105,-0.26888370513916016
1774789953642019800,5.106019775390625,8.066954612731934,5.569934368133545,-0.26546525955200195
1774789953660544800,5.124544677734375,8.107949256896973,5.508297920227051,-0.30032801628112793
1774789953679069700,5.143069580078125,8.131778717041016,5.471349239349365,-0.3300022780895233
1774789953697594600,5.1615947265625,8.117897987365723,5.492212295532227,-0.3251553773880005
1774789953716119600,5.18011962890625,8.068443298339844,5.565683364868164,-0.30623921751976013
1774789953734644500,5.19864453125,8.006157875061035,5.6554999351501465,-0.29518380761146545
1774789953753169400,5.21716943359375,7.961422920227051,5.71923303604126,-0.27658700942993164
1774789953771694300,5.2356943359375,7.952463626861572,5.732500076293945,-0.25914233922958374
1774789953790219300,5.25421923828125,7.973851680755615,5.7028069496154785,-0.2570438086986542
1774789953808744200,5.272744140625,8.006755828857422,5.65615177154541,-0.2649337947368622
1774789953827269000,5.29126904296875,8.029328346252441,5.623745918273926,-0.2715839743614197
1774789953845794000,5.3097939453125,8.033978462219238,5.616908073425293,-0.27555719017982483
1774789953864319200,5.3283193359375,8.032752990722656,5.61823844909668,-0.2839970588684082
1774789953882844000,5.346843994140625,8.033344268798828,5.616685390472412,-0.2976919710636139
1774789953901368800,5.365368896484375,8.033954620361328,5.614990234375,-0.3128115236759186
1774789953919894000,5.38389404296875,8.032752990722656,5.615911483764648,-0.3267943859100342
1774789953938418700,5.402418701171875,8.032856941223145,5.6149516105651855,-0.3404700458049774
1774789953956944000,5.42094384765625,8.03602409362793,5.610117435455322,-0.34538206458091736
1774789953975468800,5.43946875,8.04162311553955,5.602540016174316,-0.3379839360713959
1774789953993993700,5.45799365234375,8.049212455749512,5.592150688171387,-0.3292912244796753
1774789954012518700,5.4765185546875,8.060283660888672,5.575498580932617,-0.34063780307769775
1774789954031043600,5.495043701171875,8.079856872558594,5.544889450073242,-0.37482497096061707
1774789954049568500,5.513568603515625,8.105109214782715,5.5049309730529785,-0.41631391644477844
1774789954068093400,5.532093505859375,8.127326965332031,5.470577716827393,-0.43558308482170105
1774789954086618600,5.55061865234375,8.14296817779541,5.447701930999756,-0.430105596780777
1774789954105143300,5.569143310546875,8.160717010498047,5.422110557556152,-0.41690441966056824
1774789954123668500,5.58766845703125,8.183334350585938,5.387199878692627,-0.4260392487049103
1774789954142193400,5.606193359375,8.202067375183105,5.355943202972412,-0.4586392045021057
1774789954160718300,5.62471826171875,8.213855743408203,5.3360114097595215,-0.4795169234275818
1774789954179243300,5.6432431640625,8.218544960021973,5.328426837921143,-0.48350194096565247
1774789954197768200,5.661768310546875,8.214747428894043,5.333864688873291,-0.48808008432388306
1774789954216293000,5.680293212890625,8.205739974975586,5.346215724945068,-0.504173994064331
1774789954234818000,5.698818115234375,8.202125549316406,5.347598075866699,-0.5465478897094727
1774789954253343000,5.717343017578125,8.214371681213379,5.324344635009766,-0.5880886316299438
1774789954271868000,5.735867919921875,8.259982109069824,5.2566237449646,-0.5576579570770264
1774789954290393000,5.75439306640625,8.348356246948242,5.124204158782959,-0.4667600691318512
1774789954308917800,5.772917724609375,8.454782485961914,4.951098442077637,-0.4167362451553345
1774789954327443000,5.79144287109375,8.535414695739746,4.804986000061035,-0.4787314534187317
1774789954345967900,5.8099677734375,8.566932678222656,4.73552942276001,-0.5939922332763672
1774789954364492800,5.828492919921875,8.550558090209961,4.752014636993408,-0.6904354095458984
1774789954383017700,5.847017822265625,8.510034561157227,4.816246509552002,-0.7439477443695068
1774789954401542700,5.865542724609375,8.467767715454102,4.889843463897705,-0.7461365461349487
1774789954420067600,5.884067626953125,8.43931770324707,4.944754600524902,-0.7054805159568787
1774789954438592800,5.9025927734375,8.423758506774902,4.977322578430176,-0.6610016226768494
1774789954457117400,5.921117431640625,8.418327331542969,4.991021156311035,-0.6259845495223999
1774789954475642600,5.939642578125,8.418115615844727,4.997298240661621,-0.5768276453018188
1774789954494167600,5.95816748046875,8.420454978942871,5.0014753341674805,-0.5015578866004944
1774789954512692500,5.9766923828125,8.42647647857666,4.998076915740967,-0.4290700852870941
1774789954531217400,5.995217529296875,8.436521530151367,4.98475456237793,-0.38431400060653687
1774789954549742300,6.013742431640625,8.449579238891602,4.963881969451904,-0.3672311007976532
1774789954568267500,6.032267578125,8.452838897705078,4.957694053649902,-0.3757250905036926
1774789954586792400,6.05079248046875,8.439146041870117,4.980609893798828,-0.38044413924217224
1774789954605317400,6.0693173828125,8.41384506225586,5.024560451507568,-0.3624897003173828
1774789954623842300,6.08784228515625,8.38988208770752,5.066279411315918,-0.3362756073474884
1774789954642367200,6.1063671875,8.378927230834961,5.08506965637207,-0.3256523311138153
1774789954660892200,6.12489208984375,8.382011413574219,5.079516410827637,-0.3328613340854645
1774789954679417300,6.143417236328125,8.390594482421875,5.064103126525879,-0.35095199942588806
1774789954697942300,6.1619423828125,8.398578643798828,5.050542831420898,-0.35536840558052063
1774789954716467200,6.18046728515625,8.403776168823242,5.042498588562012,-0.34661275148391724
1774789954734992100,6.1989921875,8.402843475341797,5.044435024261475,-0.34099334478378296
1774789954753517000,6.21751708984375,8.399118423461914,5.050875186920166,-0.33745279908180237
1774789954772042000,6.2360419921875,8.396790504455566,5.055905818939209,-0.31953638792037964
1774789954790567200,6.254567138671875,8.40517807006836,5.044078350067139,-0.28400298953056335
1774789954809092000,6.273092041015625,8.431577682495117,5.0018157958984375,-0.24642419815063477
1774789954827617000,6.291616943359375,8.468685150146484,4.939930438995361,-0.22098176181316376
1774789954846142000,6.310141845703125,8.505989074707031,4.876381874084473,-0.1985751986503601
1774789954864667000,6.3286669921875,8.5359468460083,4.824917316436768,-0.16783390939235687
1774789954883192000,6.347192138671875,8.550257682800293,4.8002848625183105,-0.1440114974975586
1774789954901717000,6.365717041015625,8.549210548400879,4.802412033081055,-0.13498170673847198
1774789954920242000,6.384241943359375,8.55419921875,4.793856620788574,-0.12248591333627701
1774789954938766800,6.402766845703125,8.583186149597168,4.742208003997803,-0.10369592905044556
1774789954957291800,6.421291748046875,8.625231742858887,4.665443420410156,-0.09704088419675827
1774789954975817000,6.43981689453125,8.657340049743652,4.605564594268799,-0.09811417013406754
1774789954994342000,6.458341796875,8.659688949584961,4.601175308227539,-0.09672141075134277
1774789955012866800,6.47686669921875,8.626391410827637,4.663307189941406,-0.09656161069869995
1774789955031391700,6.495391845703125,8.588164329528809,4.733576774597168,-0.08406850695610046
1774789955049916700,6.513916748046875,8.57163143157959,4.763852596282959,-0.05686403065919876
1774789955068441900,6.53244189453125,8.583715438842773,4.74237585067749,-0.009757268242537975
1774789955086966800,6.550966796875,8.608055114746094,4.697998523712158,0.02409328520298004
1774789955105491700,6.56949169921875,8.629013061523438,4.659441947937012,0.010795705020427704
1774789955124016600,6.5880166015625,8.642773628234863,4.6336588859558105,-0.04549926146864891
1774789955142541600,6.60654150390625,8.65389633178711,4.61162805557251,-0.11554378271102905
1774789955161066800,6.625066650390625,8.667586326599121,4.583728790283203,-0.18101191520690918
1774789955179591700,6.643591796875,8.678268432617188,4.560604572296143,-0.24276795983314514
1774789955198116600,6.66211669921875,8.680070877075195,4.553293704986572,-0.30703234672546387
1774789955216641500,6.6806416015625,8.671606063842773,4.564755916595459,-0.36963486671447754
1774789955235166700,6.699166748046875,8.65530776977539,4.590821266174316,-0.4247310757637024
1774789955253691600,6.717691650390625,8.63997745513916,4.615920543670654,-0.4630787968635559
1774789955272216600,6.736216552734375,8.630180358886719,4.631978511810303,-0.4849243760108948
1774789955290741500,6.754741455078125,8.62513542175293,4.641079425811768,-0.4876590669155121
1774789955309266400,6.773266357421875,8.626362800598145,4.640390396118164,-0.4722665250301361
1774789955327791600,6.79179150390625,8.632872581481934,4.62894344329834,-0.46561527252197266
1774789955346316500,6.810316650390625,8.644864082336426,4.604511737823486,-0.4849605858325958
1774789955364841500,6.828841552734375,8.659805297851562,4.573554039001465,-0.5106539130210876
1774789955383366400,6.847366455078125,8.66620922088623,4.559601783752441,-0.526537299156189
1774789955401891300,6.865891357421875,8.657044410705566,4.578030109405518,-0.5173124670982361
1774789955420416500,6.88441650390625,8.635135650634766,4.622656345367432,-0.4856686294078827
1774789955438941400,6.90294140625,8.606470108032227,4.678235054016113,-0.4617229998111725
1774789955457466400,6.92146630859375,8.576963424682617,4.732120513916016,-0.4616563618183136
1774789955475991300,6.9399912109375,8.552726745605469,4.774977684020996,-0.4699254631996155
1774789955494516500,6.9585166015625,8.529243469238281,4.815201759338379,-0.4860425889492035
1774789955513041400,6.97704150390625,8.497614860534668,4.865889072418213,-0.5329858660697937
1774789955531566300,6.99556640625,8.456033706665039,4.930800914764404,-0.5942109227180481
1774789955550091500,7.014091552734375,8.437003135681152,4.964029312133789,-0.5880249738693237
1774789955568616200,7.0326162109375,8.476241111755371,4.904618263244629,-0.5181123614311218
1774789955587141400,7.051141357421875,8.550825119018555,4.777225494384766,-0.4815669357776642
1774789955605666300,7.069666259765625,8.604496955871582,4.673549175262451,-0.5394169092178345
1774789955624191200,7.088191162109375,8.597966194152832,4.672789096832275,-0.6406115889549255
1774789955642716400,7.10671630859375,8.539786338806152,4.768991947174072,-0.7065097093582153
1774789955661241300,7.125241455078125,8.475153923034668,4.883144378662109,-0.7050092220306396
1774789955679766300,7.143766357421875,8.4365816116333,4.957663059234619,-0.6450210213661194
1774789955698291200,7.162291259765625,8.434511184692383,4.970584869384766,-0.5680593848228455
1774789955716816400,7.18081640625,8.454689979553223,4.943402290344238,-0.5013969540596008
1774789955735341300,7.19934130859375,8.481103897094727,4.904036521911621,-0.43782633543014526
1774789955753866200,7.2178662109375,8.500805854797363,4.875114917755127,-0.37409546971321106
1774789955772391400,7.236391357421875,8.505996704101562,4.8697829246521,-0.32190176844596863
1774789955790916400,7.254916259765625,8.496807098388672,4.887378215789795,-0.2969496250152588
1774789955809441300,7.273441162109375,8.48330020904541,4.910912990570068,-0.2948770821094513
1774789955827966200,7.29196630859375,8.480266571044922,4.9160261154174805,-0.29691046476364136
1774789955846491400,7.310491455078125,8.491525650024414,4.897079944610596,-0.2881012260913849
1774789955865016300,7.329016357421875,8.506648063659668,4.872218608856201,-0.26232656836509705
1774789955883541200,7.347541259765625,8.515591621398926,4.858212471008301,-0.2299218773841858
1774789955902066400,7.36606640625,8.518155097961426,4.854740142822266,-0.20718394219875336
1774789955920591400,7.38459130859375,8.517998695373535,4.855065822601318,-0.20594559609889984
1774789955939116300,7.4031162109375,8.521797180175781,4.848532199859619,-0.2027302086353302
1774789955957641200,7.42164111328125,8.534346580505371,4.827625751495361,-0.17130666971206665
1774789955976166100,7.440166259765625,8.553672790527344,4.79465389251709,-0.1279156655073166
1774789955994691300,7.45869140625,8.578615188598633,4.7506561279296875,-0.09493482857942581
1774789956013216300,7.47721630859375,8.604331970214844,4.704253196716309,-0.07651747018098831
1774789956031741200,7.4957412109375,8.622962951660156,4.670290470123291,-0.05726949870586395
1774789956050266000,7.51426611328125,8.628801345825195,4.659703254699707,-0.036656733602285385
1774789956068791300,7.532791259765625,8.629705429077148,4.65810489654541,-0.025065559893846512
1774789956087316200,7.551316162109375,8.635051727294922,4.6482253074646,-0.016282811760902405
1774789956105841200,7.569841064453125,8.648245811462402,4.623656749725342,0.005155187100172043
1774789956124366300,7.588366455078125,8.661532402038574,4.598649024963379,0.026003437116742134
1774789956142891300,7.606891357421875,8.665009498596191,4.592107772827148,0.023536110296845436
1774789956161416200,7.625416259765625,8.662358283996582,4.597073554992676,0.029239846393465996
1774789956179941000,7.643941162109375,8.678083419799805,4.56625509262085,0.10282217711210251
1774789956198466300,7.66246630859375,8.725948333740234,4.470700263977051,0.20261995494365692
1774789956216991200,7.6809912109375,8.783145904541016,4.355576515197754,0.2360105663537979
1774789956235516200,7.69951611328125,8.816136360168457,4.291287422180176,0.17601913213729858
1774789956254041000,7.718041015625,8.799358367919922,4.328254699707031,0.08886048942804337
1774789956272566300,7.736566162109375,8.755870819091797,4.415712356567383,0.08129622042179108
1774789956291091200,7.75509130859375,8.729231834411621,4.465837478637695,0.1649404764175415
1774789956309616000,7.7736162109375,8.744688987731934,4.431649684906006,0.2475539892911911
1774789956328141300,7.792141357421875,8.793188095092773,4.334676742553711,0.24660919606685638
1774789956346666200,7.810666259765625,8.84380054473877,4.234034538269043,0.17475762963294983
1774789956365191400,7.82919140625,8.871332168579102,4.178658962249756,0.09314543753862381
1774789956383716400,7.84771630859375,8.873263359069824,4.175384044647217,0.041888099163770676
1774789956402241300,7.8662412109375,8.863801002502441,4.195606231689453,0.018046541139483452
1774789956420766200,7.88476611328125,8.855596542358398,4.212924957275391,0.00790476892143488
1774789956439291400,7.90329150390625,8.850825309753418,4.222939491271973,-0.0068186623975634575
1774789956457816300,7.92181640625,8.848152160644531,4.228419780731201,-0.03240314871072769
1774789956476341200,7.94034130859375,8.845782279968262,4.233017921447754,-0.06394591182470322
1774789956494866400,7.958866455078125,8.841065406799316,4.242483139038086,-0.0852748304605484
1774789956513391400,7.977391357421875,8.830162048339844,4.265162467956543,-0.08369449526071548
1774789956531916300,7.995916259765625,8.815774917602539,4.295218467712402,-0.059916902333498
1774789956550441200,8.014441162109375,8.803628921508789,4.320335865020752,-0.0347425751388073
1774789956568966400,8.03296630859375,8.802109718322754,4.323368072509766,-0.04167553782463074
1774789956587491300,8.0514912109375,8.812676429748535,4.30108118057251,-0.08840159326791763
1774789956606016300,8.070016357421874,8.822355270385742,4.279650688171387,-0.14500291645526886
1774789956624541400,8.08854150390625,8.819185256958008,4.284946441650391,-0.17768363654613495
1774789956643066400,8.10706640625,8.799507141113281,4.325104713439941,-0.18037831783294678
1774789956661591300,8.12559130859375,8.77330493927002,4.378191947937012,-0.17592668533325195
1774789956680116200,8.1441162109375,8.755034446716309,4.414219379425049,-0.18554243445396423
1774789956698641400,8.162641357421874,8.746993064880371,4.42963981628418,-0.1969631314277649
1774789956717166300,8.181166259765625,8.742314338684082,4.4385762214660645,-0.20337340235710144
1774789956735691500,8.19969140625,8.734962463378906,4.451992511749268,-0.22491250932216644
1774789956754216400,8.218216552734376,8.72264289855957,4.473028182983398,-0.27913761138916016
1774789956772741400,8.236741455078125,8.703668594360352,4.503626823425293,-0.36592206358909607
1774789956791266300,8.255266357421876,8.688288688659668,4.527379989624023,-0.43228045105934143
1774789956809791500,8.27379150390625,8.694199562072754,4.5174078941345215,-0.4174976050853729
1774789956828316400,8.29231640625,8.7274808883667,4.457021236419678,-0.36937588453292847
1774789956846841300,8.31084130859375,8.766447067260742,4.379749298095703,-0.3709356486797333
1774789956865366500,8.329366455078125,8.78062915802002,4.345707416534424,-0.43100786209106445
1774789956883891500,8.347891357421876,8.756437301635742,4.385092258453369,-0.5158964991569519
1774789956902416600,8.366416748046875,8.710789680480957,4.466898441314697,-0.582541823387146
1774789956920941600,8.384941650390624,8.671646118164062,4.541711807250977,-0.5880452394485474
1774789956939466500,8.403466552734375,8.651374816894531,4.587058067321777,-0.5319632291793823
1774789956957991400,8.421991455078125,8.646337509155273,4.6048264503479,-0.4547644257545471
1774789956976516600,8.4405166015625,8.650983810424805,4.602575302124023,-0.383614182472229
1774789956995041500,8.45904150390625,8.667479515075684,4.576569080352783,-0.31655195355415344
1774789957013566500,8.47756640625,8.692800521850586,4.532379627227783,-0.2512877285480499
1774789957032091600,8.496091552734375,8.712679862976074,4.496420383453369,-0.2044651210308075
1774789957050616600,8.514616455078125,8.714859962463379,4.4929914474487305,-0.18609535694122314
1774789957069141500,8.5331416015625,8.702170372009277,4.517309188842773,-0.19112303853034973
1774789957087666700,8.551666748046875,8.689543724060059,4.540743827819824,-0.2094210386276245
1774789957106191600,8.570191650390624,8.683674812316895,4.550753593444824,-0.23409563302993774
1774789957124716500,8.588716552734375,8.679717063903809,4.557231903076172,-0.2540179193019867
1774789957143241700,8.60724169921875,8.668047904968262,4.579346656799316,-0.2547897696495056
1774789957161766700,8.6257666015625,8.653958320617676,4.606353282928467,-0.2467622309923172
1774789957180291800,8.644291748046875,8.645261764526367,4.622164726257324,-0.2557661533355713
1774789957198816800,8.662816650390624,8.643668174743652,4.624231815338135,-0.2717666029930115
1774789957217341700,8.681341796875,8.649330139160156,4.613987445831299,-0.2657089829444885
1774789957235866600,8.69986669921875,8.66433334350586,4.587828636169434,-0.2270091325044632
1774789957254391800,8.718391845703126,8.68952751159668,4.542018890380859,-0.18045179545879364
1774789957272916700,8.736916748046875,8.7157564163208,4.492243766784668,-0.1603866070508957
1774789957291442000,8.75544189453125,8.732755661010742,4.458716869354248,-0.17091070115566254
1774789957309966800,8.773966796875,8.745051383972168,4.433572292327881,-0.19468754529953003
1774789957328491800,8.79249169921875,8.759422302246094,4.4039740562438965,-0.2189437299966812
1774789957347017000,8.811016845703126,8.774935722351074,4.372992515563965,-0.21869507431983948
1774789957365542000,8.8295419921875,8.785544395446777,4.352756023406982,-0.1952069252729416
1774789957384066800,8.84806689453125,8.78483772277832,4.3541975021362305,-0.1948959082365036
1774789957402592000,8.866592041015625,8.782849311828613,4.357944488525391,-0.20069439709186554
1774789957421117000,8.885116943359375,8.79888916015625,4.326404094696045,-0.17934374511241913
1774789957439642000,8.90364208984375,8.829115867614746,4.264828205108643,-0.16833126544952393
1774789957458167000,8.9221669921875,8.848388671875,4.223080158233643,-0.20491507649421692
1774789957476692000,8.94069189453125,8.841343879699707,4.235845565795898,-0.24216195940971375
1774789957495217200,8.959217041015625,8.810791015625,4.299401760101318,-0.2355629950761795
1774789957513742000,8.9777421875,8.778179168701172,4.368494987487793,-0.17378130555152893
1774789957532267300,8.996267333984376,8.757726669311523,4.411986351013184,-0.08360109478235245
1774789957550792200,9.014792236328125,8.748086929321289,4.431842803955078,-0.01136087067425251
1774789957569317400,9.0333173828125,8.743574142456055,4.440749168395996,0.005697392392903566
1774789957587842300,9.05184228515625,8.74035930633545,4.447061538696289,-0.012394153513014317
1774789957606367200,9.0703671875,8.734668731689453,4.458095550537109,-0.03656705841422081
1774789957624892400,9.088892333984376,8.729736328125,4.4677019119262695,-0.04169578477740288
1774789957643417300,9.107417236328125,8.73653793334961,4.454570770263672,0.009319309145212173
1774789957661942300,9.1259423828125,8.752614974975586,4.422544002532959,0.05673990398645401
1774789957680467500,9.144467529296875,8.772899627685547,4.381925582885742,0.07311610132455826
1774789957698992400,9.162992431640625,8.794211387634277,4.339306831359863,0.051591768860816956
1774789957717517600,9.181517578125,8.800041198730469,4.327778339385986,0.002690059132874012
1774789957736042500,9.20004248046875,8.77878475189209,4.370467185974121,-0.048373788595199585
1774789957754567700,9.218567626953124,8.737994194030762,4.451144218444824,-0.0719183087348938
1774789957773092600,9.237092529296875,8.693541526794434,4.537294864654541,-0.07541017979383469
1774789957791617800,9.25561767578125,8.663740158081055,4.593664169311523,-0.09076730906963348
1774789957810142700,9.274142822265626,8.650335311889648,4.618246078491211,-0.11788356304168701
1774789957828667600,9.292667724609375,8.644168853759766,4.628139972686768,-0.17048312723636627
1774789957847192800,9.31119287109375,8.637380599975586,4.637436389923096,-0.2454126924276352
1774789957865717800,9.3297177734375,8.632587432861328,4.643141746520996,-0.30010002851486206
1774789957884243000,9.348242919921875,8.62662410736084,4.653095245361328,-0.31694623827934265
1774789957902767900,9.366767822265626,8.619394302368164,4.667617321014404,-0.2996319532394409
1774789957921292800,9.385292724609375,8.618082046508789,4.671092510223389,-0.28272736072540283
1774789957939818000,9.40381787109375,8.620993614196777,4.665207862854004,-0.291019469499588
1774789957958343000,9.422343017578125,8.612666130065918,4.677545070648193,-0.3360688388347626
1774789957976868000,9.4408681640625,8.579108238220215,4.730468273162842,-0.43814903497695923
1774789957995393000,9.45939306640625,8.537471771240234,4.793426036834717,-0.5522850155830383
1774789958013918200,9.477918212890625,8.518516540527344,4.822068691253662,-0.594072163105011
1774789958032443100,9.496443115234374,8.537875175476074,4.795683860778809,-0.5258249044418335
1774789958050968000,9.514968017578125,8.568496704101562,4.748809814453125,-0.44728928804397583
1774789958069493200,9.5334931640625,8.558694839477539,4.761434555053711,-0.4978678822517395
1774789958088018200,9.55201806640625,8.499098777770996,4.850971698760986,-0.6354329586029053
1774789958106543400,9.57054345703125,8.429227828979492,4.959067344665527,-0.7253729104995728
1774789958125068300,9.589068359375,8.38652229309082,5.035767078399658,-0.691143810749054
1774789958143593500,9.607593505859375,8.376396179199219,5.06508731842041,-0.5926727652549744
1774789958162118400,9.626118408203125,8.38425350189209,5.059937953948975,-0.5212457776069641
1774789958180643600,9.6446435546875,8.394729614257812,5.044272422790527,-0.5041884183883667
1774789958199168500,9.66316845703125,8.403374671936035,5.03166389465332,-0.48585057258605957
1774789958217693700,9.681693603515624,8.402676582336426,5.036854267120361,-0.44216209650039673
1774789958236218600,9.700218505859375,8.380293846130371,5.077382564544678,-0.40153768658638
1774789958254743800,9.718743896484375,8.341163635253906,5.142803192138672,-0.3833264410495758
1774789958273268700,9.737268798828126,8.300531387329102,5.207557201385498,-0.391027569770813
1774789958291794000,9.7557939453125,8.270495414733887,5.253695011138916,-0.40985631942749023
1774789958310319000,9.774319091796874,8.2503662109375,5.28513240814209,-0.4113624095916748
1774789958328844000,9.792843994140625,8.230982780456543,5.3179426193237305,-0.3752272427082062
1774789958347369200,9.811369140625,8.201543807983398,5.366915225982666,-0.318269282579422
1774789958365894100,9.82989404296875,8.162324905395508,5.4285078048706055,-0.2795428931713104
1774789958384419300,9.84841943359375,8.131757736206055,5.474541664123535,-0.2725692391395569
1774789958402944300,9.8669443359375,8.125704765319824,5.482565879821777,-0.2911636233329773
1774789958421469400,9.885469482421875,8.140695571899414,5.4587483406066895,-0.3186548054218292
1774789958439994600,9.90399462890625,8.162569999694824,5.424172401428223,-0.34813621640205383
1774789958458519800,9.922519775390626,8.18341064453125,5.390601634979248,-0.3789285123348236
1774789958477044700,9.941044677734375,8.204174995422363,5.3572587966918945,-0.40210190415382385
1774789958495570000,9.95956982421875,8.222713470458984,5.327261447906494,-0.42147865891456604
1774789958514094800,9.9780947265625,8.23520565032959,5.306438446044922,-0.4398671090602875
1774789958532620000,9.9966201171875,8.245189666748047,5.289623260498047,-0.45511287450790405
1774789958551145200,10.015145263671876,8.253357887268066,5.276393413543701,-0.460595041513443
1774789958569670100,10.033670166015625,8.257501602172852,5.271775245666504,-0.4386584758758545
1774789958588195300,10.0521953125,8.251579284667969,5.283915996551514,-0.40255048871040344
1774789958606720300,10.07072021484375,8.22866153717041,5.320292949676514,-0.392428457736969
1774789958625245400,10.089245361328125,8.198952674865723,5.365753650665283,-0.39528968930244446
1774789958643770400,10.107770263671876,8.197173118591309,5.371508598327637,-0.35164323449134827
1774789958662295600,10.126295654296875,8.229406356811523,5.32581901550293,-0.2879641354084015
1774789958680820500,10.144820556640624,8.2542724609375,5.28783655166626,-0.2759582996368408
1774789958699345700,10.163345703125,8.235148429870605,5.3147454261779785,-0.32588469982147217
1774789958717870800,10.181870849609375,8.171795845031738,5.408397674560547,-0.37599748373031616
1774789958736395800,10.200395751953126,8.10290813446045,5.510892868041992,-0.3785712718963623
1774789958754921000,10.2189208984375,8.069422721862793,5.562597751617432,-0.33511993288993835
1774789958773446000,10.23744580078125,8.086668014526367,5.540478229522705,-0.28157687187194824
1774789958791971000,10.25597119140625,8.136039733886719,5.469718933105469,-0.23963332176208496
1774789958810496300,10.274496337890625,8.184222221374512,5.3979291915893555,-0.22638534009456635
1774789958829021200,10.293021240234374,8.214375495910645,5.351067066192627,-0.24595680832862854
1774789958847546400,10.31154638671875,8.227088928222656,5.329226970672607,-0.29111355543136597
1774789958866071300,10.3300712890625,8.2301025390625,5.3209967613220215,-0.35042697191238403
1774789958884596500,10.348596435546876,8.231127738952637,5.3151326179504395,-0.4102177619934082
1774789958903121700,10.36712158203125,8.23205280303955,5.310451984405518,-0.4503359794616699
1774789958921646600,10.385646484375,8.235204696655273,5.304978847503662,-0.4571704566478729
1774789958940171800,10.404171875,8.239148139953613,5.2995285987854,-0.44925519824028015
1774789958958696700,10.42269677734375,8.24360179901123,5.293384552001953,-0.43987175822257996
1774789958977222000,10.441221923828126,8.24244213104248,5.295952320098877,-0.4306235611438751
1774789958995747000,10.4597470703125,8.235286712646484,5.307950019836426,-0.41965171694755554
1774789959014272000,10.47827197265625,8.229894638061523,5.317065238952637,-0.40995514392852783
1774789959032797200,10.496797119140625,8.233292579650879,5.312029838562012,-0.40696316957473755
1774789959051322400,10.515322265625,8.239529609680176,5.30078649520874,-0.4268500804901123
1774789959069847300,10.533847412109376,8.238797187805176,5.299569129943848,-0.4551639258861542
1774789959088372200,10.552372314453125,8.229301452636719,5.3130292892456055,-0.4698127210140228
1774789959106897700,10.570897705078124,8.215998649597168,5.332920551300049,-0.47719940543174744
1774789959125422600,10.589422607421875,8.20904541015625,5.3426513671875,-0.4878934919834137
1774789959143947800,10.60794775390625,8.209407806396484,5.341889381408691,-0.4901130199432373
1774789959162473000,10.626472900390626,8.207249641418457,5.345449447631836,-0.4874584376811981
1774789959180998000,10.644997802734375,8.189069747924805,5.3697333335876465,-0.5248743891716003
1774789959199523000,10.663523193359374,8.146831512451172,5.420628070831299,-0.6452317833900452
1774789959218048300,10.68204833984375,8.100074768066406,5.469255447387695,-0.8039929866790771
1774789959236573200,10.7005732421875,8.104947090148926,5.454935550689697,-0.8508315682411194
1774789959255098400,10.719098388671876,8.201802253723145,5.326341152191162,-0.7286436557769775
1774789959273623600,10.73762353515625,8.323891639709473,5.149661540985107,-0.6034948825836182
1774789959292148500,10.7561484375,8.376270294189453,5.058400630950928,-0.6489005088806152
1774789959310673700,10.774673583984375,8.329374313354492,5.114085674285889,-0.7987620234489441
1774789959329198800,10.79319873046875,8.228043556213379,5.2622456550598145,-0.8822951912879944
1774789959347723800,10.811723876953126,8.140572547912598,5.405503273010254,-0.825825572013855
1774789959366249000,10.8302490234375,8.101587295532227,5.483138084411621,-0.6854676008224487
1774789959384774100,10.848774169921874,8.101513862609863,5.499336242675781,-0.5414553880691528
1774789959403299300,10.86729931640625,8.114727020263672,5.488626480102539,-0.4433765709400177
1774789959421824300,10.88582421875,8.12609577178955,5.475358963012695,-0.3967255651950836
1774789959440349400,10.904349365234374,8.132688522338867,5.466612815856934,-0.3819866180419922
1774789959458874600,10.92287451171875,8.133090019226074,5.4664130210876465,-0.3762275278568268
1774789959477399800,10.94139990234375,8.129354476928711,5.47211217880249,-0.3741101324558258
1774789959495924700,10.9599248046875,8.121553421020508,5.4827046394348145,-0.388202965259552
1774789959514450000,10.978449951171875,8.117045402526855,5.487974643707275,-0.40756916999816895
1774789959532975000,10.99697509765625,8.122370719909668,5.479358673095703,-0.4172589182853699
1774789959551500000,11.0155,8.136009216308594,5.459694862365723,-0.40923041105270386
1774789959570025200,11.034025146484375,8.153035163879395,5.435462951660156,-0.39260485768318176
1774789959588550400,11.05255029296875,8.165756225585938,5.416807174682617,-0.38602420687675476
1774789959607075600,11.07107568359375,8.173171997070312,5.405116081237793,-0.39288753271102905
1774789959625600800,11.089600830078124,8.182963371276855,5.389939785003662,-0.3975491523742676
1774789959644125700,11.108125732421875,8.197314262390137,5.3686418533325195,-0.390033483505249
1774789959662651000,11.12665087890625,8.216257095336914,5.340590476989746,-0.37628480792045593
1774789959681176000,11.145176025390626,8.245516777038574,5.296337604522705,-0.3614646792411804
1774789959699701000,11.163700927734375,8.280949592590332,5.241748332977295,-0.3468889892101288
1774789959718226200,11.18222607421875,8.311200141906738,5.195323467254639,-0.3208483159542084
1774789959736751400,11.20075146484375,8.331635475158691,5.165416717529297,-0.26963117718696594
1774789959755276500,11.219276611328125,8.344592094421387,5.147577285766602,-0.20150433480739594
1774789959773801700,11.2378017578125,8.349410057067871,5.141425132751465,-0.15325503051280975
1774789959792326700,11.25632666015625,8.348185539245605,5.143203258514404,-0.16013450920581818
1774789959810851800,11.274851806640624,8.362194061279297,5.119904041290283,-0.17514359951019287
1774789959829377000,11.293376953125,8.403560638427734,5.052450180053711,-0.15264202654361725
1774789959847902200,11.311902099609375,8.452516555786133,4.9706501960754395,-0.13409128785133362
1774789959866427100,11.33042724609375,8.475274085998535,4.9309983253479,-0.1592613160610199
1774789959884952300,11.348952392578125,8.452622413635254,4.967395305633545,-0.22034603357315063
1774789959903477500,11.3674775390625,8.397518157958984,5.0568037033081055,-0.28426340222358704
1774789959922002700,11.386002685546876,8.349308967590332,5.135012626647949,-0.30177798867225647
1774789959940527900,11.40452783203125,8.336423873901367,5.157876968383789,-0.2659522294998169
1774789959959053000,11.423052978515624,8.359675407409668,5.122346878051758,-0.21858783066272736
1774789959977578000,11.441577880859375,8.398994445800781,5.058908939361572,-0.186332106590271
1774789959996103200,11.460103271484375,8.433012008666992,5.002254486083984,-0.17924919724464417
1774789960014628400,11.47862841796875,8.451664924621582,4.970183372497559,-0.1924094259738922
1774789960033153500,11.497153564453125,8.452061653137207,4.9681620597839355,-0.22451822459697723
1774789960051678700,11.5156787109375,8.441530227661133,4.984084606170654,-0.2642875909805298
1774789960070204000,11.534203857421875,8.427760124206543,5.005259037017822,-0.3010199964046478
1774789960088729000,11.55272900390625,8.410807609558105,5.031945705413818,-0.3289635181427002
1774789960107254000,11.57125390625,8.387781143188477,5.0694379806518555,-0.3410674035549164
1774789960125779200,11.589779296875,8.359959602355957,5.115396022796631,-0.33791422843933105
1774789960144304400,11.608304443359375,8.33337688446045,5.1592631340026855,-0.327422559261322
1774789960162829600,11.62682958984375,8.315452575683594,5.1884331703186035,-0.32215169072151184
1774789960181354800,11.645354736328125,8.310835838317871,5.195479869842529,-0.32771050930023193
1774789960199880000,11.6638798828125,8.31609058380127,5.185569763183594,-0.35058289766311646
1774789960218404900,11.68240478515625,8.322420120239258,5.172759056091309,-0.387664794921875
1774789960236930000,11.700929931640625,8.3250150680542,5.166263103485107,-0.41741475462913513
1774789960255455200,11.719455322265626,8.323518753051758,5.167721271514893,-0.4290233552455902
1774789960273980400,11.73798046875,8.318964004516602,5.1738996505737305,-0.4426972270011902
1774789960292505600,11.756505615234374,8.307611465454102,5.190157890319824,-0.4649921953678131
1774789960311030800,11.77503076171875,8.29121208190918,5.214165687561035,-0.4885280430316925
1774789960329556000,11.793555908203125,8.27535343170166,5.236807346343994,-0.5145562291145325
1774789960348081200,11.8120810546875,8.265003204345703,5.250816822052002,-0.5376129150390625
1774789960366606000,11.830606201171875,8.252030372619629,5.269533634185791,-0.5535246729850769
1774789960385131500,11.849131591796874,8.222369194030762,5.3128767013549805,-0.579974889755249
1774789960403656400,11.867656494140626,8.17324447631836,5.381917476654053,-0.6351578235626221
1774789960422181600,11.886181640625,8.117424964904785,5.462687015533447,-0.6609434485435486
1774789960440706800,11.904706787109374,8.07874584197998,5.530618667602539,-0.5625896453857422
1774789960459232000,11.92323193359375,8.05609130859375,5.578428745269775,-0.38847535848617554
1774789960477757200,11.941757080078125,8.028680801391602,5.623712539672852,-0.29073667526245117
1774789960496282400,11.960282470703126,7.982214450836182,5.687051773071289,-0.3347947299480438
1774789960514807600,11.9788076171875,7.916088581085205,5.7733917236328125,-0.41698747873306274
1774789960533332700,11.997332763671874,7.848763942718506,5.863619327545166,-0.4304136335849762
1774789960551858000,12.01585791015625,7.799696922302246,5.932647228240967,-0.37256452441215515
1774789960570383000,12.034383056640625,7.764522075653076,5.9817399978637695,-0.3183935582637787
1774789960588908300,12.052908203125,7.738827228546143,6.015138149261475,-0.31473293900489807
1774789960607433500,12.07143359375,7.7240986824035645,6.031586647033691,-0.35866087675094604
1774789960625958400,12.08995849609375,7.719656944274902,6.032663822174072,-0.42925578355789185
1774789960644483600,12.108483642578125,7.716753959655762,6.0299391746521,-0.5117917656898499
1774789960663008800,12.1270087890625,7.709035873413086,6.0339179039001465,-0.5770412087440491
1774789960681534000,12.145533935546876,7.698516845703125,6.0446038246154785,-0.6049778461456299
1774789960700059100,12.16405908203125,7.6873860359191895,6.058684825897217,-0.6056469678878784
1774789960718584300,12.182584228515625,7.676845073699951,6.072821617126465,-0.5977264642715454
1774789960737109500,12.201109619140626,7.671151638031006,6.080812931060791,-0.5895150899887085
1774789960755634700,12.219634765625,7.672843933105469,6.079865455627441,-0.5771472454071045
1774789960774160000,12.238159912109374,7.68328857421875,6.068747043609619,-0.55476975440979
1774789960792685000,12.25668505859375,7.702443599700928,6.047607421875,-0.5188430547714233
1774789960811210200,12.275210205078125,7.723089694976807,6.025008201599121,-0.47281721234321594
1774789960829735400,12.2937353515625,7.7431254386901855,6.0024800300598145,-0.429669588804245
1774789960848260600,12.312260498046875,7.759303569793701,5.9824748039245605,-0.4166507124900818
1774789960866785800,12.330785888671874,7.771441459655762,5.965607166290283,-0.4319840371608734
1774789960885311000,12.34931103515625,7.785129070281982,5.946840763092041,-0.444123238325119
1774789960903836200,12.367836181640625,7.8079633712768555,5.917491436004639,-0.4351827800273895
1774789960922361300,12.386361328125,7.843159198760986,5.8725056648254395,-0.41099613904953003
1774789960940886500,12.404886474609375,7.879463195800781,5.824975490570068,-0.39257100224494934
1774789960959411700,12.42341162109375,7.899080753326416,5.7987961769104,-0.3858337998390198
1774789960977937000,12.44193701171875,7.899035453796387,5.799332141876221,-0.3786454200744629
1774789960996462000,12.460462158203125,7.8766961097717285,5.830014228820801,-0.372791588306427
1774789961014987300,12.4789873046875,7.829188823699951,5.894057273864746,-0.3664488196372986
1774789961033512400,12.497512451171875,7.773176193237305,5.969567775726318,-0.3352140784263611
1774789961052037600,12.51603759765625,7.751297950744629,6.0024542808532715,-0.24147352576255798
1774789961070562800,12.534562744140626,7.77960205078125,5.96893310546875,-0.1414659172296524
1774789961089088000,12.553087890625,7.835672855377197,5.89567232131958,-0.11686648428440094
1774789961107613200,12.57161328125,7.8838677406311035,5.830050945281982,-0.1597837507724762
1774789961126138400,12.590138427734376,7.9022393226623535,5.8033928871154785,-0.21357885003089905
1774789961144663600,12.60866357421875,7.89763069152832,5.809505939483643,-0.21784363687038422
1774789961163188700,12.627188720703124,7.896051406860352,5.813310146331787,-0.1678718626499176
1774789961181714000,12.6457138671875,7.915004730224609,5.788730621337891,-0.11703203618526459
1774789961200239000,12.664239013671875,7.947874069213867,5.743814468383789,-0.10139598697423935
1774789961218764300,12.682764404296876,7.977570056915283,5.702123641967773,-0.12067809700965881
1774789961237289700,12.701289794921875,7.988269805908203,5.686341762542725,-0.15310677886009216
1774789961255815000,12.71981494140625,7.97670316696167,5.701528549194336,-0.18753688037395477
1774789961274340000,12.738340087890625,7.953638076782227,5.7320427894592285,-0.23177160322666168
1774789961292865300,12.756865234375,7.932157039642334,5.7593302726745605,-0.2852645516395569
1774789961311390500,12.775390380859376,7.924908638000488,5.76649284362793,-0.33730047941207886
1774789961329915600,12.79391552734375,7.936803340911865,5.747415065765381,-0.38048186898231506
1774789961348440800,12.81244091796875,7.957891464233398,5.7164716720581055,-0.4053511619567871
1774789961366966000,12.830966064453126,7.973188400268555,5.695300579071045,-0.4027497172355652
1774789961385491200,12.8494912109375,7.976060390472412,5.6924614906311035,-0.38565778732299805
1774789961404016400,12.868016357421874,7.972474098205566,5.697699546813965,-0.382460355758667
1774789961422541600,12.88654150390625,7.979795932769775,5.685948848724365,-0.40402042865753174
1774789961441066800,12.905066650390625,8.006633758544922,5.645875453948975,-0.4339350461959839
1774789961459592000,12.923592041015626,8.036273002624512,5.601386547088623,-0.4617180824279785
1774789961478117000,12.9421171875,8.042912483215332,5.589904308319092,-0.484683632850647
1774789961496642600,12.960642578125,8.01939582824707,5.62240743637085,-0.4982142150402069
1774789961515167700,12.979167724609376,7.978959083557129,5.678630352020264,-0.5096576809883118
1774789961533693000,12.99769287109375,7.941277503967285,5.730066776275635,-0.5223241448402405
1774789961552218000,13.016218017578124,7.916841983795166,5.762214660644531,-0.5393257737159729
1774789961570743300,13.034743408203125,7.903606414794922,5.778106212615967,-0.5629196763038635
1774789961589268500,13.0532685546875,7.8820295333862305,5.801772117614746,-0.6192203164100647
1774789961607793700,13.071793701171876,7.840832710266113,5.846812725067139,-0.7116999626159668
1774789961626318800,13.09031884765625,7.81837272644043,5.870574951171875,-0.7614333629608154
1774789961644844000,13.108843994140624,7.858262538909912,5.821284770965576,-0.7285256385803223
1774789961663369200,13.127369140625,7.925957679748535,5.735307693481445,-0.6751537919044495
1774789961681894400,13.145894287109375,7.9673027992248535,5.679837226867676,-0.6572122573852539
1774789961700419800,13.164419921875,7.963142395019531,5.683029651641846,-0.6796451807022095
1774789961718945000,13.182945068359375,7.923831939697266,5.73652982711792,-0.6895720362663269
1774789961737470200,13.20147021484375,7.884050369262695,5.796878337860107,-0.6390097141265869
1774789961755995400,13.219995361328126,7.862342834472656,5.837102890014648,-0.5311944484710693
1774789961774520600,13.2385205078125,7.856295108795166,5.855010509490967,-0.409713476896286
1774789961793045800,13.257045654296874,7.853644847869873,5.864465713500977,-0.31414610147476196
1774789961811571200,13.2755712890625,7.83963680267334,5.88578987121582,-0.2607017159461975
1774789961830096400,13.294096435546875,7.81243371963501,5.922426223754883,-0.24726064503192902
1774789961848621600,13.31262158203125,7.781299591064453,5.962972164154053,-0.2544204890727997
1774789961867146800,13.331146728515625,7.755977630615234,5.995486736297607,-0.2633350193500519
1774789961885672000,13.349671875,7.741118431091309,6.013904571533203,-0.2800402045249939
1774789961904197000,13.368197021484375,7.735276222229004,6.020014762878418,-0.3087323009967804
1774789961922722600,13.38672265625,7.734010696411133,6.020028114318848,-0.33870309591293335
1774789961941247700,13.405247802734374,7.728489875793457,6.026268482208252,-0.3534410297870636
1774789961959773000,13.42377294921875,7.720094680786133,6.037222862243652,-0.34996873140335083
1774789961978298000,13.442298095703125,7.710932731628418,6.0494771003723145,-0.3401772677898407
1774789961996823300,13.4608232421875,7.702699661254883,6.060595989227295,-0.3286110758781433
1774789962015348500,13.479348388671875,7.701524257659912,6.063543319702148,-0.3005700409412384
1774789962033873700,13.497873779296874,7.709649562835693,6.055337905883789,-0.25409871339797974
1774789962052398800,13.51639892578125,7.7249345779418945,6.037148952484131,-0.22046896815299988
1774789962070924300,13.53492431640625,7.750560760498047,6.004537105560303,-0.21151356399059296
1774789962089449500,13.553449462890624,7.783745288848877,5.9609551429748535,-0.2251889854669571
1774789962107974700,13.571974609375,7.820464134216309,5.9123215675354,-0.23492462933063507
1774789962126499800,13.590499755859375,7.855894088745117,5.8655476570129395,-0.22508402168750763
1774789962145025000,13.60902490234375,7.879235744476318,5.834816932678223,-0.2072344273328781
1774789962163550500,13.627550537109375,7.8822021484375,5.830800533294678,-0.2074456661939621
1774789962182075600,13.64607568359375,7.860753536224365,5.85861349105835,-0.2357795685529709
1774789962200600800,13.664600830078125,7.817945957183838,5.912940502166748,-0.2953510284423828
1774789962219126000,13.6831259765625,7.781442642211914,5.957998752593994,-0.34897494316101074
1774789962237651200,13.701651123046876,7.799545764923096,5.933668613433838,-0.359249085187912
1774789962256176400,13.72017626953125,7.875892162322998,5.83371639251709,-0.3293459415435791
1774789962274701800,13.738701904296875,7.955726623535156,5.726541042327881,-0.28900352120399475
1774789962293227000,13.75722705078125,7.981576442718506,5.6914448738098145,-0.2688269019126892
1774789962311752200,13.775752197265625,7.941447734832764,5.74751091003418,-0.26444315910339355
1774789962330277400,13.79427734375,7.869137287139893,5.846843719482422,-0.24793942272663116
1774789962348802600,13.812802490234375,7.808618068695068,5.929128170013428,-0.20322400331497192
1774789962367327700,13.83132763671875,7.783186912536621,5.964119911193848,-0.14722566306591034
1774789962385853200,13.849853271484376,7.779743194580078,5.969252109527588,-0.118406280875206
1774789962404378400,13.86837841796875,7.78068733215332,5.967791557312012,-0.12944409251213074
1774789962422903600,13.886903564453124,7.778547763824463,5.969415187835693,-0.17509625852108002
1774789962441428700,13.9054287109375,7.777559280395508,5.968850612640381,-0.22974218428134918
1774789962459954000,13.923953857421875,7.788626194000244,5.9519877433776855,-0.28556379675865173
1774789962478479400,13.942479248046874,7.8139328956604,5.915678024291992,-0.34292107820510864
1774789962497004500,13.961004638671875,7.841792583465576,5.8752946853637695,-0.3969714939594269
1774789962515529700,13.97952978515625,7.856475353240967,5.851016044616699,-0.46022188663482666
1774789962534055000,13.998054931640626,7.855894565582275,5.84689998626709,-0.5187205076217651
1774789962552580400,14.016580322265625,7.842899322509766,5.861940383911133,-0.544948160648346
1774789962571105500,14.03510546875,7.8258137702941895,5.8866729736328125,-0.5235523581504822
1774789962589630700,14.053630615234376,7.812991142272949,5.907336711883545,-0.4805496633052826
1774789962608156000,14.072156005859375,7.809635162353516,5.913114547729492,-0.46376246213912964
1774789962626681000,14.09068115234375,7.8142194747924805,5.90383243560791,-0.5031111240386963
1774789962645206300,14.109206298828125,7.821084022521973,5.88741397857666,-0.5825796127319336
1774789962663731700,14.127731689453125,7.822992324829102,5.876960754394531,-0.6576586961746216
1774789962682257000,14.1462568359375,7.815491199493408,5.882325172424316,-0.697665274143219
1774789962700782000,14.164781982421875,7.808865070343018,5.892298221588135,-0.6876304149627686
1774789962719307500,14.1833076171875,7.806671142578125,5.900055408477783,-0.6446861624717712
1774789962737832700,14.201832763671876,7.808714389801025,5.901524543762207,-0.6052790880203247
1774789962756358000,14.22035791015625,7.808417797088623,5.901162624359131,-0.6126024127006531
1774789962774883000,14.238883056640624,7.793701648712158,5.912844181060791,-0.6832989454269409
1774789962793408300,14.257408203125,7.760705471038818,5.942133903503418,-0.7955343723297119
1774789962811933700,14.27593359375,7.73906946182251,5.960784435272217,-0.8638539910316467
1774789962830459000,14.294458984375,7.770392894744873,5.9290056228637695,-0.7989147901535034
1774789962848984000,14.312984130859375,7.829991817474365,5.866772174835205,-0.6652830839157104
1774789962867509200,14.33150927734375,7.847228050231934,5.847469329833984,-0.6312645673751831
1774789962886034700,14.35003466796875,7.785669803619385,5.912855625152588,-0.7693266868591309
1774789962904559900,14.368559814453125,7.677938461303711,6.023464202880859,-0.9682546854019165
1774789962923085000,14.3870849609375,7.587663173675537,6.119840621948242,-1.0701931715011597
1774789962941610200,14.4056103515625,7.548141956329346,6.178440093994141,-1.0113400220870972
1774789962960135700,14.4241357421875,7.550583839416504,6.199141979217529,-0.8542286157608032
1774789962978660900,14.442660888671876,7.566393852233887,6.199471950531006,-0.6975865364074707
1774789962997186000,14.46118603515625,7.580175399780273,6.194211959838867,-0.5857163667678833
1774789963015711200,14.479711181640624,7.586514949798584,6.1925506591796875,-0.5172011256217957
1774789963034236700,14.498236572265625,7.5829572677612305,6.199408531188965,-0.4862935245037079
1774789963052761900,14.516761962890625,7.572276592254639,6.2117133140563965,-0.4956214427947998
1774789963071287000,14.535287109375,7.561163425445557,6.221822738647461,-0.5367822647094727
1774789963089812200,14.553812255859375,7.547635078430176,6.233468055725098,-0.5894643068313599
1774789963108337700,14.572337646484375,7.53539514541626,6.2453789710998535,-0.6192201972007751
1774789963126862800,14.59086279296875,7.526847839355469,6.256747722625732,-0.6083356738090515
1774789963145388000,14.609387939453125,7.516926288604736,6.271777153015137,-0.5753495693206787
1774789963163913200,14.627913330078124,7.500831604003906,6.292877674102783,-0.5546204447746277
1774789963182438400,14.6464384765625,7.4920830726623535,6.303832530975342,-0.5484175086021423
1774789963200963800,14.6649638671875,7.497673988342285,6.296451091766357,-0.5567559003829956
1774789963219489000,14.683489013671876,7.521910667419434,6.265880107879639,-0.5744573473930359
1774789963238014200,14.70201416015625,7.569330215454102,6.207785129547119,-0.5822619795799255
1774789963256539600,14.72053955078125,7.630666255950928,6.132877349853516,-0.5754510164260864
1774789963275064800,14.73906494140625,7.6888651847839355,6.061280250549316,-0.5591241717338562
1774789963293590000,14.757590087890625,7.7292890548706055,6.012028217315674,-0.5329092144966125
1774789963312115500,14.776115478515624,7.747779369354248,5.991684436798096,-0.4919804036617279
1774789963330640600,14.794640625,7.752828121185303,5.988241672515869,-0.45276591181755066
1774789963349165800,14.813165771484375,7.758628845214844,5.98246431350708,-0.42918074131011963
1774789963367691000,14.83169091796875,7.773696422576904,5.964290142059326,-0.4090181589126587
1774789963386216400,14.850216552734375,7.784691333770752,5.951535701751709,-0.38496965169906616
1774789963404741600,14.86874169921875,7.77626895904541,5.9640092849731445,-0.3614136278629303
1774789963423266800,14.887266845703126,7.760939598083496,5.986083984375,-0.3240421712398529
1774789963441792000,14.9057919921875,7.770951747894287,5.977057456970215,-0.23975153267383575
1774789963460317400,14.9243173828125,7.817104816436768,5.9198174476623535,-0.1378675103187561
1774789963478842600,14.942842529296875,7.879730224609375,5.837036609649658,-0.09611447155475616
1774789963497368000,14.9613681640625,7.924710273742676,5.77485990524292,-0.1426788717508316
1774789963515893200,14.979893310546874,7.927750587463379,5.768500804901123,-0.21345941722393036
1774789963534418400,14.99841845703125,7.89227819442749,5.815979957580566,-0.23812562227249146
1774789963552943600,15.016943603515625,7.843709945678711,5.88319730758667,-0.18598228693008423
1774789963571468800,15.03546875,7.812446594238281,5.926844596862793,-0.09258006513118744
1774789963589994200,15.053994140625,7.810924530029297,5.929539680480957,-0.02014968730509281
1774789963608519400,15.07251953125,7.835816860198975,5.896640777587891,-0.0011914123315364122
1774789963627044600,15.091044677734375,7.875812530517578,5.8429131507873535,-0.0482427179813385
1774789963645570000,15.109570068359375,7.915039539337158,5.788271903991699,-0.13584713637828827
1774789963664095200,15.12809521484375,7.937292098999023,5.754946231842041,-0.22442589700222015
1774789963682620700,15.14662060546875,7.939576148986816,5.749203205108643,-0.28316909074783325
1774789963701145900,15.165145751953125,7.930798530578613,5.760247707366943,-0.3039121925830841
1774789963719671000,15.183671142578126,7.9234795570373535,5.769440174102783,-0.3200232982635498
1774789963738196200,15.2021962890625,7.918069839477539,5.774609565734863,-0.3583962619304657
1774789963756721700,15.2207216796875,7.907264232635498,5.786234378814697,-0.4062564969062805
1774789963775246800,15.239246826171875,7.892208099365234,5.804839611053467,-0.4327471852302551
1774789963793772000,15.25777197265625,7.878573894500732,5.823792457580566,-0.42649784684181213
1774789963812297200,15.276297119140626,7.875868797302246,5.829798698425293,-0.39311084151268005
1774789963830822700,15.29482275390625,7.889729976654053,5.812193870544434,-0.37543541193008423
1774789963849347800,15.313347900390625,7.924319744110107,5.76265287399292,-0.40911605954170227
1774789963867873000,15.331873046875,7.975391864776611,5.685162544250488,-0.49240097403526306
1774789963886398500,15.3503984375,8.024059295654297,5.608643531799316,-0.5726923942565918
1774789963904923600,15.368923583984374,8.051153182983398,5.5657267570495605,-0.609929084777832
1774789963923449000,15.387448974609375,8.048602104187012,5.570858478546143,-0.5966004729270935
1774789963941974300,15.405974365234375,8.02094841003418,5.614980220794678,-0.5538852214813232
1774789963960499500,15.42449951171875,7.980190277099609,5.6765570640563965,-0.5134603977203369
1774789963979024600,15.443024658203125,7.927302837371826,5.748813152313232,-0.528593122959137
1774789963997550000,15.461550048828125,7.867405891418457,5.821997165679932,-0.6153575778007507
1774789964016075300,15.4800751953125,7.820687770843506,5.873124599456787,-0.7166820168495178
1774789964034600400,15.498600341796875,7.827984809875488,5.864904403686523,-0.7042272686958313
1774789964053126000,15.5171259765625,7.893492698669434,5.791928768157959,-0.5627729296684265
1774789964071651000,15.535651123046875,7.9619364738464355,5.709064483642578,-0.4295777678489685
1774789964090176500,15.554176513671875,7.979274272918701,5.684070587158203,-0.43921858072280884
1774789964108701700,15.57270166015625,7.94465446472168,5.721804618835449,-0.5601850748062134
1774789964127227000,15.591226806640625,7.893680572509766,5.779946804046631,-0.6726051568984985
1774789964145752300,15.60975244140625,7.859846115112305,5.823364734649658,-0.6940039992332458
1774789964164277500,15.628277587890626,7.850281238555908,5.8445234298706055,-0.6205064654350281
1774789964182802700,15.646802734375,7.843678951263428,5.8650288581848145,-0.4985208511352539
1774789964201328000,15.665328125,7.825470924377441,5.898529052734375,-0.3738212585449219
1774789964219853300,15.683853271484375,7.796888828277588,5.940856456756592,-0.29176756739616394
1774789964238378500,15.70237841796875,7.765636920928955,5.9823737144470215,-0.2765270173549652
1774789964256903700,15.720903564453126,7.747792720794678,6.003164291381836,-0.3226599395275116
1774789964275429000,15.73942919921875,7.749973773956299,5.9958176612854,-0.3980722725391388
1774789964293954300,15.757954345703125,7.764743328094482,5.971822738647461,-0.4652734100818634
1774789964312479700,15.776479736328126,7.778518199920654,5.949958324432373,-0.512874960899353
1774789964331005000,15.7950048828125,7.78033447265625,5.94620943069458,-0.5285649299621582
1774789964349530400,15.8135302734375,7.768355369567871,5.9631733894348145,-0.5134252905845642
1774789964368055600,15.8320556640625,7.754306793212891,5.984882354736328,-0.47148260474205017
1774789964386580700,15.850580810546875,7.750006675720215,5.9937744140625,-0.4271359443664551
1774789964405106200,15.869106201171874,7.762192249298096,5.979743957519531,-0.40175557136535645
1774789964423631400,15.88763134765625,7.794047832489014,5.938647270202637,-0.3945563733577728
1774789964442156500,15.906156494140625,7.841188907623291,5.8764824867248535,-0.3912784457206726
1774789964460682000,15.924681884765626,7.893156051635742,5.806909561157227,-0.3850610554218292
1774789964479207200,15.943207275390625,7.939474582672119,5.74433708190918,-0.37111151218414307
1774789964497732400,15.961732421875,7.977640151977539,5.692647457122803,-0.3484382927417755
1774789964516257800,15.9802578125,8.00369930267334,5.656999588012695,-0.33098286390304565
1774789964534783000,15.998782958984375,8.008394241333008,5.650412559509277,-0.32990309596061707
1774789964553308200,16.01730810546875,7.996680736541748,5.6674909591674805,-0.3209989368915558
1774789964571833600,16.03583349609375,7.975039005279541,5.699978828430176,-0.2817482650279999
1774789964590358800,16.05435888671875,7.943014621734619,5.746982574462891,-0.2260453999042511
1774789964608884200,16.07288427734375,7.899339199066162,5.808135509490967,-0.19078457355499268
1774789964627409400,16.091409423828125,7.857534885406494,5.865296363830566,-0.16680997610092163
1774789964645934800,16.109934814453126,7.846205234527588,5.88176155090332,-0.11113007366657257
1774789964664460000,16.1284599609375,7.872032642364502,5.848182201385498,-0.015786347910761833
1774789964692247800,16.156247802734374,7.909404754638672,5.797364234924316,0.04755482077598572
1774789964710773200,16.174773193359375,7.895985126495361,5.815794944763184,-0.01832096464931965
1774789964729298400,16.19329833984375,7.8509907722473145,5.875670433044434,-0.09390880912542343
1774789964747823900,16.211823974609374,7.793078899383545,5.952095031738281,-0.10428143292665482
1774789964766349000,16.23034912109375,7.7500834465026855,6.0086188316345215,-0.055606093257665634
1774789964784874200,16.248874267578124,7.748701572418213,6.010655879974365,0.004589925520122051
1774789964803399700,16.267399658203125,7.792220592498779,5.9540181159973145,0.0369083508849144
1774789964821924900,16.2859248046875,7.8607072830200195,5.863357067108154,0.026720909401774406
1774789964840450000,16.304449951171875,7.925301551818848,5.775800704956055,-0.010523882694542408
1774789964858975500,16.3229755859375,7.967169284820557,5.7175726890563965,-0.06293458491563797
1774789964877500700,16.341500732421874,7.982484817504883,5.695239543914795,-0.12066414207220078
1774789964896026000,16.360026123046875,7.9759111404418945,5.702739715576172,-0.18440820276737213
1774789964914551300,16.37855126953125,7.954891681671143,5.7294487953186035,-0.25201424956321716
1774789964933076500,16.397076416015626,7.923539638519287,5.770071983337402,-0.3068722188472748
1774789964951602000,16.415601806640623,7.886313438415527,5.819774150848389,-0.32661816477775574
1774789964970127000,16.434127197265624,7.857437610626221,5.860171318054199,-0.299089640378952
1774789964988652500,16.452652587890626,7.8519415855407715,5.869467258453369,-0.25834915041923523
1774789965007177700,16.471177734375,7.870567798614502,5.845159530639648,-0.24219077825546265
1774789965025703200,16.489703125,7.902749538421631,5.800535678863525,-0.26595163345336914
1774789965044228400,16.508228271484374,7.940123081207275,5.746993541717529,-0.3112826943397522
1774789965062753800,16.52675390625,7.978756904602051,5.6913251876831055,-0.3444526493549347
1774789965081279000,16.545279052734376,8.011930465698242,5.643408298492432,-0.36234980821609497
1774789965099804200,16.56380419921875,8.036126136779785,5.607946395874023,-0.37684258818626404
1774789965118329600,16.58232958984375,8.044246673583984,5.595396518707275,-0.3898876905441284
1774789965136854800,16.600854736328124,8.032170295715332,5.612208843231201,-0.3971700966358185
1774789965155380200,16.619380126953125,8.001276969909668,5.655645370483398,-0.40451523661613464
1774789965173905400,16.637905517578126,7.953610897064209,5.719733238220215,-0.4417181611061096
1774789965192430600,16.6564306640625,7.901400566101074,5.783154487609863,-0.5416502356529236
1774789965210956000,16.6749560546875,7.879550457000732,5.80263090133667,-0.6423031091690063
1774789965229481200,16.693481201171874,7.928538799285889,5.7357048988342285,-0.6405888199806213
1774789965248006700,16.712006591796875,8.020268440246582,5.616118431091309,-0.5521602630615234
1774789965266531800,16.73053173828125,8.070898056030273,5.546511173248291,-0.5169199705123901
1774789965285057000,16.74905712890625,8.036239624023438,5.586886405944824,-0.6131357550621033
1774789965303582500,16.76758251953125,7.941173076629639,5.703731060028076,-0.7586916089057922
1774789965322107600,16.786107666015624,7.850147247314453,5.819773197174072,-0.8220819234848022
1774789965340633000,16.804633056640625,7.810111045837402,5.886205196380615,-0.724668562412262
1774789965359158300,16.823158203125,7.81104040145874,5.907489776611328,-0.5095009207725525
1774789965377683700,16.84168359375,7.823484897613525,5.906894207000732,-0.2684507668018341
1774789965396209000,16.860208984375,7.831096172332764,5.90213680267334,-0.09535083919763565
1774789965414734300,16.878734375,7.8288679122924805,5.905705451965332,-0.04314856231212616
1774789965433259500,16.897259521484376,7.816938400268555,5.920932769775391,-0.09171270579099655
1774789965451784700,16.91578466796875,7.793715476989746,5.948868751525879,-0.1983386129140854
1774789965470310100,16.93431005859375,7.759986400604248,5.98802375793457,-0.310759574174881
1774789965488835600,16.952835693359376,7.727931976318359,6.025084972381592,-0.384449303150177
1774789965507360800,16.97136083984375,7.703122138977051,6.055009841918945,-0.41127991676330566
1774789965525886000,16.989885986328126,7.677204132080078,6.087259769439697,-0.4197527766227722
1774789965544411400,17.008411376953124,7.655637264251709,6.114032745361328,-0.4245072305202484
1774789965562936800,17.026936767578125,7.648247718811035,6.123385906219482,-0.4228985607624054
1774789965581462000,17.0454619140625,7.655395030975342,6.1156463623046875,-0.40522050857543945
1774789965599987500,17.063987548828123,7.675496578216553,6.092286586761475,-0.37575119733810425
1774789965618512600,17.0825126953125,7.706505298614502,6.055047035217285,-0.3414275348186493
1774789965637037800,17.101037841796874,7.746890544891357,6.005241870880127,-0.30518457293510437
1774789965655563300,17.119563232421875,7.794284343719482,5.945333003997803,-0.2693277895450592
1774789965674088400,17.13808837890625,7.842148780822754,5.8835835456848145,-0.23354752361774445
1774789965692614000,17.15661376953125,7.877895355224609,5.836867332458496,-0.20033910870552063
1774789965711139000,17.17513916015625,7.892697334289551,5.81730842590332,-0.18614938855171204
1774789965729664500,17.19366455078125,7.89027214050293,5.820127010345459,-0.20029713213443756
1774789965748189700,17.212189697265625,7.884324550628662,5.827567100524902,-0.2174549549818039
1774789965766715100,17.230715087890626,7.878856658935547,5.83469295501709,-0.22440868616104126
1774789965785240300,17.249240234375,7.8671674728393555,5.850439548492432,-0.22455838322639465
1774789965803765800,17.267765869140625,7.861566066741943,5.859070301055908,-0.19353510439395905
1774789965822291000,17.286291015625,7.8945536613464355,5.816329002380371,-0.1293589174747467
1774789965840816400,17.30481640625,7.972113132476807,5.710824966430664,-0.047786060720682144
1774789965859341600,17.323341552734377,8.059835433959961,5.586514472961426,0.017112094908952713
1774789965877867000,17.341866943359374,8.110806465148926,5.512195110321045,0.030091172084212303
1774789965896392200,17.36039208984375,8.098209381103516,5.53076696395874,0.003366647055372596
1774789965914917600,17.378917724609376,8.037656784057617,5.6183600425720215,-0.022387471050024033
1774789965933442800,17.39744287109375,7.97111177444458,5.712409019470215,-0.012356939725577831
1774789965951968300,17.41596826171875,7.930214881896973,5.768909931182861,0.04178828373551369
1774789965970493400,17.434493408203124,7.92724609375,5.772292613983154,0.09894654154777527
1774789965989019000,17.453018798828126,7.94630765914917,5.745895862579346,0.10608898848295212
1774789966007544000,17.4715439453125,7.962863922119141,5.72369384765625,0.05018299072980881
1774789966026069500,17.490069580078124,7.965541839599609,5.7200446128845215,-0.040526382625103
1774789966044594700,17.5085947265625,7.956827640533447,5.73061466217041,-0.1390521377325058
1774789966063120100,17.5271201171875,7.944402694702148,5.745194911956787,-0.22268235683441162
1774789966081645300,17.545645263671876,7.934025764465332,5.7566657066345215,-0.28710588812828064
1774789966100170800,17.564170654296873,7.928715229034424,5.761547565460205,-0.332325279712677
1774789966118696000,17.582696044921875,7.929098129272461,5.759316921234131,-0.36063340306282043
1774789966137221400,17.601221435546876,7.934407711029053,5.7510480880737305,-0.37550994753837585
1774789966155746600,17.61974658203125,7.937423229217529,5.74691104888916,-0.37509775161743164
1774789966174272000,17.63827197265625,7.933324337005615,5.753798007965088,-0.35574308037757874
1774789966192797400,17.65679736328125,7.923982620239258,5.768523216247559,-0.32406625151634216
1774789966211322600,17.675322509765625,7.915871620178223,5.780819416046143,-0.30247217416763306
1774789966229848000,17.69384814453125,7.913727283477783,5.783596992492676,-0.3054506182670593
1774789966248373200,17.712373291015624,7.913144111633301,5.783221244812012,-0.32694119215011597
1774789966266898700,17.730898681640625,7.908113956451416,5.788705348968506,-0.35073116421699524
1774789966285423900,17.749423828125,7.900386810302734,5.7988505363464355,-0.35722509026527405
1774789966303949300,17.76794921875,7.89007568359375,5.813583850860596,-0.34544163942337036
1774789966322474500,17.786474609375,7.877358436584473,5.831483840942383,-0.3337881863117218
1774789966341000000,17.805,7.864603042602539,5.848337650299072,-0.3396497666835785
1774789966359525000,17.823525146484375,7.853337287902832,5.860365867614746,-0.3893555998802185
1774789966378050600,17.842050537109376,7.839380741119385,5.870851993560791,-0.49760568141937256
1774789966396576000,17.860575927734374,7.822021961212158,5.880053520202637,-0.6413482427597046
1774789966415101200,17.87910107421875,7.823724746704102,5.867173671722412,-0.7321177124977112
1774789966433626600,17.897626708984376,7.883267879486084,5.794404983520508,-0.6703267097473145
1774789966452151800,17.91615185546875,7.980758190155029,5.6785454750061035,-0.4816816449165344
1774789966470677200,17.93467724609375,8.037345886230469,5.608682155609131,-0.3378397822380066
1774789966489202400,17.953202392578124,7.996214389801025,5.66460657119751,-0.3783925175666809
1774789966507728000,17.971727783203125,7.877844333648682,5.816617488861084,-0.5262434482574463
1774789966526253000,17.990253173828126,7.749026298522949,5.976513385772705,-0.6358168721199036
1774789966544778500,18.008778564453124,7.670535087585449,6.079946041107178,-0.6062523722648621
1774789966563303700,18.0273037109375,7.651886940002441,6.11773681640625,-0.4385448694229126
1774789966581829000,18.0458291015625,7.658664226531982,6.121305465698242,-0.21181857585906982
1774789966600354600,18.0643544921875,7.653989315032959,6.130805969238281,-0.007519737351685762
1774789966618879700,18.082879638671876,7.625329971313477,6.165321350097656,0.11634160578250885
1774789966637405200,18.1014052734375,7.5888752937316895,6.2096123695373535,0.14167875051498413
1774789966655930400,18.119930419921875,7.562277317047119,6.242865085601807,0.09482187032699585
1774789966674455800,18.138455810546876,7.555666446685791,6.251543998718262,0.0220594871789217
1774789966692981200,18.156981201171874,7.560709476470947,6.245378494262695,-0.03608747571706772
1774789966711506400,18.17550634765625,7.561409950256348,6.244239330291748,-0.0702376440167427
1774789966730031900,18.194031982421876,7.54537296295166,6.263336181640625,-0.09138409793376923
1774789966748557000,18.21255712890625,7.516844749450684,6.297305107116699,-0.10666099190711975
1774789966767082500,18.23108251953125,7.490230083465576,6.328713893890381,-0.11925452202558517
1774789966785608000,18.24960791015625,7.483692646026611,6.336380958557129,-0.1225462555885315
1774789966804133000,18.268133056640625,7.504567623138428,6.311583518981934,-0.12551727890968323
1774789966822658600,18.286658447265626,7.552868843078613,6.253300189971924,-0.1442137509584427
1774789966841184000,18.30518408203125,7.627573490142822,6.1607842445373535,-0.18776468932628632
1774789966859709200,18.323709228515625,7.717703819274902,6.045295715332031,-0.24866630136966705
1774789966878234600,18.342234619140626,7.798437118530273,5.937985420227051,-0.3083895444869995
1774789966896759800,18.360759765625,7.853371620178223,5.863594055175781,-0.3364557921886444
1774789966915285200,18.37928515625,7.8813886642456055,5.826136112213135,-0.33201536536216736
1774789966933810700,18.397810791015626,7.890127658843994,5.815277576446533,-0.3143622577190399
1774789966952336000,18.4163359375,7.891158103942871,5.815184593200684,-0.2891961336135864
1774789966970861300,18.434861328125,7.886298656463623,5.823791027069092,-0.24523895978927612
1774789966989386500,18.453386474609374,7.869100570678711,5.848834991455078,-0.19690030813217163
1774789967007912000,18.471911865234375,7.838100910186768,5.891643047332764,-0.15201732516288757
1774789967026437000,18.49043701171875,7.82457160949707,5.911403179168701,-0.042207784950733185
1774789967044962600,18.508962646484374,7.859231472015381,5.863419532775879,0.15219193696975708
1774789967063488000,18.527488037109375,7.92468786239624,5.766749858856201,0.3380667269229889
1774789967082013200,18.54601318359375,7.982237339019775,5.683791637420654,0.385741651058197
1774789967100538600,18.56453857421875,8.004011154174805,5.658886909484863,0.2884213626384735
1774789967119064000,18.58306396484375,7.9835524559021,5.69281530380249,0.15850475430488586
1774789967137589200,18.60158935546875,7.941106796264648,5.753086090087891,0.10582416504621506
1774789967156114700,18.62011474609375,7.902888774871826,5.804737567901611,0.14053279161453247
1774789967174640000,18.63864013671875,7.8804144859313965,5.833946228027344,0.18580126762390137
1774789967193165300,18.657165283203124,7.872311592102051,5.844857215881348,0.1863711178302765
1774789967211690800,18.675690673828125,7.873632907867432,5.844336986541748,0.1414399892091751
1774789967230216200,18.69421630859375,7.876863956451416,5.841107368469238,0.08284413814544678
1774789967248741400,18.712741455078124,7.87635612487793,5.842326641082764,0.02495637908577919
1774789967267266800,18.731266845703125,7.872725009918213,5.847228527069092,-0.022350164130330086
1774789967285792000,18.7497919921875,7.867626667022705,5.853756904602051,-0.06609361618757248
1774789967304317400,18.7683173828125,7.862086772918701,5.860289096832275,-0.12242817133665085
1774789967322843000,18.7868427734375,7.861887454986572,5.859166622161865,-0.17681077122688293
1774789967341368000,18.8053681640625,7.86782693862915,5.8498640060424805,-0.21625925600528717
1774789967359893500,18.8238935546875,7.87912130355835,5.834091663360596,-0.23064683377742767
1774789967378419000,18.8424189453125,7.8930182456970215,5.815526962280273,-0.22428768873214722
1774789967396944400,18.8609443359375,7.906674861907959,5.797572612762451,-0.20746023952960968
1774789967415469600,18.879469482421875,7.917498588562012,5.783220291137695,-0.1948532611131668
1774789967433995000,18.8979951171875,7.921936511993408,5.776835918426514,-0.20363320410251617
1774789967452520400,18.9165205078125,7.919250011444092,5.780032634735107,-0.21699929237365723
1774789967471045600,18.935045654296875,7.916487693786621,5.783762454986572,-0.21841369569301605
1774789967489571000,18.953571044921876,7.924465656280518,5.773486614227295,-0.2001890242099762
1774789967508096500,18.972096435546874,7.938723087310791,5.754916191101074,-0.16733872890472412
1774789967535884300,18.99988427734375,7.940557956695557,5.753406524658203,-0.1274888664484024
1774789967554409700,19.01840966796875,7.927601337432861,5.770899772644043,-0.14225511252880096
1774789967572935200,19.03693505859375,7.9112396240234375,5.791501522064209,-0.20294082164764404
1774789967591460600,19.055460693359375,7.892376899719238,5.812206268310547,-0.31469255685806274
1774789967609985800,19.07398583984375,7.8779425621032715,5.8234639167785645,-0.44235122203826904
1774789967628511200,19.09251123046875,7.8989434242248535,5.791350841522217,-0.4871605932712555
1774789967647036700,19.11103662109375,7.969478130340576,5.7003631591796875,-0.4045494794845581
1774789967665562000,19.12956201171875,8.033592224121094,5.61541223526001,-0.3145298361778259
1774789967684087300,19.14808740234375,8.02154541015625,5.629704475402832,-0.36278948187828064
1774789967702612700,19.16661279296875,7.919908046722412,5.759937286376953,-0.5182321071624756
1774789967721138200,19.18513818359375,7.771011829376221,5.946727752685547,-0.6466774940490723
1774789967739663400,19.203663330078125,7.637370586395264,6.117704391479492,-0.6439218521118164
1774789967758188800,19.222188720703127,7.558762073516846,6.225473403930664,-0.5281892418861389
1774789967776714200,19.24071435546875,7.544536113739014,6.253381729125977,-0.3815351128578186
1774789967795239400,19.259239501953125,7.580003261566162,6.216403007507324,-0.26509568095207214
1774789967813764900,19.277764892578126,7.6322126388549805,6.1546406745910645,-0.2002776861190796
1774789967832290300,19.296290283203124,7.671922206878662,6.105650424957275,-0.1817431002855301
1774789967850815700,19.314815673828125,7.681663513183594,6.092975616455078,-0.19515055418014526
1774789967869341200,19.333341064453126,7.665439605712891,6.112280368804932,-0.22685284912586212
1774789967887866400,19.351866455078124,7.6407246589660645,6.14196252822876,-0.25691765546798706
1774789967906391800,19.370391845703125,7.622538089752197,6.163846492767334,-0.27256137132644653
1774789967924917200,19.388917236328126,7.617613792419434,6.170149803161621,-0.26757460832595825
1774789967943442400,19.4074423828125,7.621055603027344,6.1668548583984375,-0.24451999366283417
1774789967961967900,19.4259677734375,7.624068260192871,6.163942337036133,-0.22312377393245697
1774789967980493300,19.444493408203126,7.6242547035217285,6.1639533042907715,-0.21632473170757294
1774789967999018800,19.463018798828124,7.6262030601501465,6.1612324714660645,-0.22498168051242828
1774789968017544000,19.4815439453125,7.636120319366455,6.148371696472168,-0.23995491862297058
1774789968036069400,19.5000693359375,7.65974235534668,6.118532657623291,-0.24960125982761383
1774789968054594800,19.5185947265625,7.6989030838012695,6.069387435913086,-0.24455662071704865
1774789968073120300,19.537120361328125,7.752105712890625,6.001985549926758,-0.22676587104797363
1774789968091645400,19.5556455078125,7.813724517822266,5.922569274902344,-0.1981876790523529
1774789968110171000,19.5741708984375,7.872118949890137,5.845681667327881,-0.16771823167800903
1774789968128696300,19.5926962890625,7.920428276062012,5.780758857727051,-0.141506627202034
1774789968147221500,19.611221435546874,7.954607009887695,5.7334065437316895,-0.1505296230316162
1774789968165747000,19.629746826171875,7.981313228607178,5.694352626800537,-0.20827041566371918
1774789968184272400,19.6482724609375,8.011435508728027,5.648419380187988,-0.2874917685985565
1774789968202797800,19.6667978515625,8.047313690185547,5.592737674713135,-0.3639020621776581
1774789968221323300,19.6853232421875,8.092376708984375,5.525130271911621,-0.3959222435951233
1774789968239848700,19.7038486328125,8.15198040008545,5.4394426345825195,-0.3578731119632721
1774789968258374000,19.722373779296873,8.219014167785645,5.342566967010498,-0.2741926312446594
1774789968276899300,19.7408994140625,8.269670486450195,5.266657829284668,-0.2127172350883484
1774789968295424500,19.759424560546876,8.281011581420898,5.248602390289307,-0.21773689985275269
1774789968313950000,19.777949951171873,8.244084358215332,5.303698539733887,-0.2761445641517639
1774789968332475400,19.796475341796874,8.176884651184082,5.404170513153076,-0.3223017156124115
1774789968351000800,19.815000732421876,8.118629455566406,5.492827892303467,-0.29509761929512024
1774789968369526300,19.8335263671875,8.094362258911133,5.532762050628662,-0.20057299733161926
1774789968388051700,19.8520517578125,8.100149154663086,5.527004718780518,-0.10095731168985367
1774789968406577000,19.870576904296875,8.11413860321045,5.507091045379639,-0.05562266707420349
1774789968425102300,19.889102294921877,8.118470191955566,5.5004777908325195,-0.07469342648983002
1774789968443627800,19.907627685546874,8.107220649719238,5.516073226928711,-0.12764354050159454
1774789968462153200,19.9261533203125,8.086005210876465,5.54516077041626,-0.19521641731262207
1774789968480678400,19.944678466796876,8.06365966796875,5.574706077575684,-0.2653939425945282
1774789968499203800,19.963203857421874,8.04757308959961,5.594967842102051,-0.3213733434677124
1774789968517729300,19.981729248046875,8.039523124694824,5.6045684814453125,-0.35393932461738586
1774789968536254700,20.000254638671876,8.038041114807129,5.6060895919799805,-0.36337199807167053
1774789968554780200,20.0187802734375,8.042129516601562,5.6003499031066895,-0.3613997995853424
1774789968573305300,20.037305419921875,8.048345565795898,5.590747356414795,-0.371564656496048
1774789968591830800,20.055830810546876,8.057305335998535,5.576702117919922,-0.38809069991111755
1774789968610356200,20.074356201171874,8.068849563598633,5.559596061706543,-0.3936363458633423
1774789968628881700,20.092881591796875,8.07944393157959,5.544331073760986,-0.3915922939777374
1774789968647407000,20.111406982421876,8.086276054382324,5.533809661865234,-0.39934155344963074
1774789968665932500,20.1299326171875,8.090582847595215,5.525291442871094,-0.4289510250091553
1774789968684457700,20.148457763671875,8.101072311401367,5.507205009460449,-0.46228283643722534
1774789968702983200,20.166983154296876,8.11662483215332,5.482339382171631,-0.48449259996414185
1774789968721508600,20.185508544921873,8.131194114685059,5.460726261138916,-0.48428627848625183
1774789968740034000,20.204033935546875,8.133875846862793,5.457149505615234,-0.4795730710029602
1774789968758559200,20.222559326171876,8.113953590393066,5.485281467437744,-0.49580246210098267
1774789968777084700,20.241084716796873,8.072508811950684,5.541313648223877,-0.5466582775115967
1774789968795610000,20.259610107421874,8.020630836486816,5.607758045196533,-0.6268219947814941
1774789968814135600,20.278135498046876,7.967866897583008,5.671023368835449,-0.7231709361076355
1774789968841923600,20.305923583984374,7.920901298522949,5.72931432723999,-0.7776014804840088
1774789968860449000,20.324448974609375,7.945601463317871,5.707540035247803,-0.6795481443405151
1774789968878974500,20.342974365234376,7.987823963165283,5.662261962890625,-0.5512233972549438
1774789968897500000,20.3615,7.98805046081543,5.665194034576416,-0.5167320370674133
1774789968916025000,20.380025146484375,7.929558753967285,5.7385382652282715,-0.6013878583908081
1774789968934550500,20.398550537109376,7.851204872131348,5.833178520202637,-0.7092268466949463
1774789968953076000,20.417075927734373,7.806784629821777,5.891297817230225,-0.7191026210784912
1774789968971601400,20.435601318359375,7.8177690505981445,5.889769077301025,-0.6028922200202942
1774789968990126800,20.454126953125,7.8570380210876465,5.852675437927246,-0.4284041225910187
1774789969008652000,20.472652099609373,7.883233547210693,5.825893878936768,-0.28977683186531067
1774789969027177500,20.491177490234374,7.881696701049805,5.830256462097168,-0.23949794471263885
1774789969045703000,20.509702880859376,7.862329483032227,5.855530738830566,-0.2586783766746521
1774789969064228400,20.528228271484377,7.84289026260376,5.87945032119751,-0.30252140760421753
1774789969082753800,20.54675390625,7.8328118324279785,5.890881538391113,-0.3390575349330902
1774789969101279000,20.565279052734375,7.826472282409668,5.897468566894531,-0.3695646822452545
1774789969119804400,20.583804443359377,7.812821388244629,5.91298770904541,-0.4083947241306305
1774789969138329900,20.602329833984374,7.785262584686279,5.945600509643555,-0.4581657350063324
1774789969156855300,20.620855224609375,7.743841171264648,5.995356559753418,-0.5089221000671387
1774789969175380700,20.639380615234376,7.702554225921631,6.045647621154785,-0.5396139025688171
1774789969193906200,20.65790625,7.6766438484191895,6.078341484069824,-0.5415633916854858
1774789969212431600,20.676431640625,7.67413854598999,6.0822367668151855,-0.5332666635513306
1774789969230956800,20.694956787109376,7.693244934082031,6.0584845542907715,-0.5283395648002625
1774789969249482200,20.713482177734374,7.730069637298584,6.011293411254883,-0.529857873916626
1774789969268007700,20.732007568359375,7.7779083251953125,5.948197364807129,-0.5417522192001343
1774789969286533000,20.750533203125,7.826145172119141,5.883568286895752,-0.5526909828186035
1774789969305058600,20.76905859375,7.871785640716553,5.8236775398254395,-0.5386660695075989
1774789969323584000,20.787583984375,7.919519901275635,5.763270378112793,-0.4861273169517517
1774789969342109200,20.806109130859376,7.962629318237305,5.708863735198975,-0.41927939653396606
1774789969360634600,20.824634521484374,7.992224216461182,5.670653820037842,-0.3720797300338745
1774789969379160000,20.84316015625,8.011650085449219,5.644193649291992,-0.3562723994255066
1774789969397685500,20.861685546875,8.024601936340332,5.625972270965576,-0.35295549035072327
1774789969416211000,20.8802109375,8.02545166015625,5.625263214111328,-0.3448657691478729
1774789969434736400,20.898736328125,8.010743141174316,5.646860599517822,-0.33366987109184265
1774789969453261800,20.91726171875,7.999293327331543,5.665770530700684,-0.2841225564479828
1774789969471787000,20.935787109375,8.01082706451416,5.653467655181885,-0.18800294399261475
1774789969490312400,20.9543125,8.04050350189209,5.6135053634643555,-0.0962238684296608
1774789969508838000,20.972837890625,8.064082145690918,5.579833030700684,-0.08016279339790344
1774789969527363300,20.99136328125,8.0600004196167,5.584531784057617,-0.14060333371162415
1774789969545888800,21.009888671875,8.03355884552002,5.621150493621826,-0.18698912858963013
1774789969564414200,21.028414306640624,8.006550788879395,5.660757541656494,-0.14614243805408478
1774789969582939600,21.046939697265625,7.989705562591553,5.686158180236816,-0.05106770992279053
1774789969601464800,21.06546484375,7.980383396148682,5.699419975280762,0.021978585049510002
1774789969619990300,21.083990234375,7.9789581298828125,5.701342582702637,0.03623666241765022
1774789969638515700,21.102515625,7.992502689361572,5.682446479797363,-0.009219611063599586
1774789969657041200,21.121041259765626,8.025403022766113,5.635378360748291,-0.07623196393251419
1774789969675566600,21.139566650390623,8.062137603759766,5.581440448760986,-0.14085893332958221
1774789969694092000,21.158092041015625,8.08485221862793,5.547004699707031,-0.1905028522014618
1774789969712617200,21.1766171875,8.088996887207031,5.540071964263916,-0.21476812660694122
1774789969731142700,21.195142578125,8.08059310913086,5.552186012268066,-0.21827763319015503
1774789969749668000,21.213668212890624,8.067740440368652,5.570599555969238,-0.22441987693309784
1774789969768193500,21.232193603515626,8.053207397460938,5.590824604034424,-0.24274975061416626
1774789969786719000,21.250718994140627,8.035618782043457,5.615527153015137,-0.25511229038238525
1774789969805244400,21.269244384765624,8.0169095993042,5.643113613128662,-0.2341219037771225
1774789969823769900,21.287769775390625,7.999972820281982,5.6685380935668945,-0.1962200105190277
1774789969842295000,21.306294921875,7.987280368804932,5.687013149261475,-0.1777869462966919
1774789969860820500,21.324820556640624,7.974897384643555,5.703865051269531,-0.1931675374507904
1774789969879346000,21.343345947265625,7.955382347106934,5.730010986328125,-0.22195744514465332
1774789969897871400,21.361871337890626,7.9289398193359375,5.765730857849121,-0.24218706786632538
1774789969916396800,21.380396728515624,7.905394554138184,5.7978434562683105,-0.24524565041065216
1774789969934922200,21.398922119140625,7.89191198348999,5.816493034362793,-0.23775000870227814
1774789969953447700,21.41744775390625,7.8859124183654785,5.82446813583374,-0.24151673913002014
1774789969971973000,21.43597314453125,7.888484954833984,5.819952964782715,-0.2652405798435211
1774789969990498600,21.45449853515625,7.895040988922119,5.808364391326904,-0.31879621744155884
1774789970009023700,21.473023681640626,7.887751579284668,5.812411308288574,-0.4118700325489044
1774789970027549200,21.491549072265624,7.8540215492248535,5.847201347351074,-0.5431238412857056
1774789970046074600,21.51007470703125,7.8182597160339355,5.884308338165283,-0.6481660008430481
1774789970064600000,21.52860009765625,7.83437967300415,5.864964008331299,-0.6285564303398132
1774789970083125500,21.54712548828125,7.919844150543213,5.763613224029541,-0.4766712486743927
1774789970101651000,21.56565087890625,8.00727367401123,5.650028705596924,-0.36210694909095764
1774789970120176400,21.58417626953125,8.03056526184082,5.61281156539917,-0.4204200208187103
1774789970138701600,21.60270166015625,7.990042686462402,5.655339241027832,-0.5888468623161316
1774789970157227000,21.62122705078125,7.931412220001221,5.722370624542236,-0.7194153070449829
1774789970175752400,21.63975244140625,7.903780937194824,5.760366439819336,-0.7202810645103455
1774789970194278000,21.65827783203125,7.912248134613037,5.7604475021362305,-0.6196491122245789
1774789970212803300,21.67680322265625,7.9272027015686035,5.751201152801514,-0.5035184025764465
1774789970231328800,21.695328857421874,7.924776554107666,5.760427474975586,-0.43103063106536865
1774789970249854200,21.713854248046875,7.901419639587402,5.79500675201416,-0.39478600025177
1774789970268379600,21.732379638671876,7.864405155181885,5.846192836761475,-0.3788888454437256
1774789970286904800,21.75090478515625,7.823505878448486,5.900382995605469,-0.38552409410476685
1774789970305430300,21.76943017578125,7.790869235992432,5.941765785217285,-0.4100787043571472
1774789970323955700,21.787955810546876,7.7766008377075195,5.9587931632995605,-0.4331910014152527
1774789970342481200,21.806481201171874,7.78283166885376,5.949774265289307,-0.4450984597206116
1774789970361006600,21.825006591796875,7.799008369445801,5.928458213806152,-0.4463663101196289
1774789970379532000,21.843531982421876,7.809115886688232,5.915603160858154,-0.44015032052993774
1774789970398057200,21.86205712890625,7.804105758666992,5.924496650695801,-0.40823763608932495
1774789970416582700,21.880582763671875,7.789989948272705,5.947207927703857,-0.3422844111919403
1774789970435108000,21.899108154296876,7.7823662757873535,5.961166858673096,-0.2639113664627075
1774789970453633500,21.917633544921873,7.795401573181152,5.946262836456299,-0.20993509888648987
1774789970472159000,21.936158935546874,7.8300909996032715,5.900899410247803,-0.1986272782087326
1774789970490684400,21.954684326171876,7.870993137359619,5.8456854820251465,-0.21402087807655334
1774789970509209900,21.9732099609375,7.904919624328613,5.799472332000732,-0.22080618143081665
1774789970527735300,21.9917353515625,7.926706314086914,5.770590782165527,-0.1949140578508377
1774789970546260700,22.0102607421875,7.936638355255127,5.758188724517822,-0.15306194126605988
1774789970564786200,22.0287861328125,7.9357380867004395,5.76005744934082,-0.12720735371112823
1774789970583311400,22.047311279296874,7.9165849685668945,5.78601598739624,-0.14176678657531738
1774789970601836800,22.0658369140625,7.873632431030273,5.843602657318115,-0.1691313534975052
1774789970620362200,22.0843623046875,7.804356575012207,5.935208320617676,-0.1889706552028656
1774789970638887700,22.1028876953125,7.71323299407959,6.0516133308410645,-0.2332361787557602
1774789970657413000,22.1214130859375,7.607068061828613,6.183150291442871,-0.2674895226955414
1774789970675938600,22.1399384765625,7.5021843910217285,6.312259197235107,-0.20734646916389465
1774789970694464000,22.158464111328126,7.419127941131592,6.4123454093933105,-0.09356123208999634
1774789970712989200,22.1769892578125,7.358940124511719,6.481853008270264,-0.04445253312587738
1774789970731514600,22.1955146484375,7.313574314117432,6.532791614532471,-0.06822200119495392
1774789970750040000,22.2140400390625,7.274715900421143,6.575165748596191,-0.12685799598693848
1774789970768565500,22.2325654296875,7.247405529022217,6.604599475860596,-0.1573830544948578
1774789970787091000,22.251091064453124,7.2407660484313965,6.611885070800781,-0.1570904701948166
1774789970805616400,22.269616455078125,7.259411811828613,6.591613292694092,-0.14820244908332825
1774789970833404400,22.297404296875,7.327995300292969,6.51436185836792,-0.1842965930700302
1774789970851929900,22.315929931640625,7.379373073577881,6.455239772796631,-0.2123938947916031
1774789970870455300,22.334455322265626,7.421531677246094,6.406030178070068,-0.23245775699615479
1774789970888980700,22.352980712890623,7.442160606384277,6.380653381347656,-0.2681621313095093
1774789970907506200,22.371506103515625,7.437986850738525,6.383111476898193,-0.3203510344028473
1774789970926031600,22.390031494140626,7.425360202789307,6.394911289215088,-0.37351271510124207
1774789970944556800,22.408556884765623,7.419069766998291,6.399303436279297,-0.4203700125217438
1774789970963082200,22.427082275390624,7.416647434234619,6.398919105529785,-0.46643105149269104
1774789970981607700,22.445607666015626,7.4134135246276855,6.399871349334717,-0.5033209323883057
1774789971000133000,22.464133056640627,7.408299922943115,6.403672218322754,-0.5295857191085815
1774789971018658600,22.482658447265624,7.411759853363037,6.399396896362305,-0.5328546762466431
1774789971037184000,22.50118408203125,7.428359031677246,6.381136894226074,-0.5205413103103638
1774789971055709200,22.519709228515627,7.454990386962891,6.349999904632568,-0.5205923914909363
1774789971074234600,22.538234619140624,7.485401153564453,6.311792373657227,-0.5481268763542175
1774789971092760000,22.556760009765625,7.513752460479736,6.274396896362305,-0.5880932211875916
1774789971111285500,22.575285400390626,7.533854007720947,6.247152805328369,-0.6200886368751526
1774789971129811000,22.59381103515625,7.545006275177002,6.2315168380737305,-0.6414638161659241
1774789971148336400,22.61233642578125,7.547580242156982,6.226492881774902,-0.6596997976303101
1774789971166861800,22.63086181640625,7.537081241607666,6.2375311851501465,-0.6752750277519226
1774789971185387000,22.649386962890624,7.515015125274658,6.263594627380371,-0.6799490451812744
1774789971203912400,22.667912353515625,7.490974426269531,6.293175220489502,-0.6720362305641174
1774789971222438000,22.68643798828125,7.46707820892334,6.320455074310303,-0.6818828582763672
1774789971250226200,22.71422607421875,7.410576820373535,6.375527858734131,-0.7787167429924011
1774789971268751600,22.732751708984374,7.3601460456848145,6.42309045791626,-0.8617019057273865
1774789971287276800,22.75127685546875,7.339593410491943,6.444472312927246,-0.8772277235984802
1774789971305802200,22.76980224609375,7.392735958099365,6.394013404846191,-0.7965160012245178
1774789971324327700,22.78832763671875,7.501336574554443,6.278498649597168,-0.6933941841125488
1774789971342853000,22.80685302734375,7.598504066467285,6.163801670074463,-0.6638337969779968
1774789971361378600,22.825378662109376,7.631772041320801,6.114633083343506,-0.7332869172096252
1774789971379904000,22.843904052734374,7.599551677703857,6.144300937652588,-0.8153393268585205
1774789971398429200,22.86242919921875,7.54555606842041,6.2095046043396,-0.8228161334991455
1774789971416954600,22.88095458984375,7.50262975692749,6.26953125,-0.7575734257698059
1774789971435480000,22.89947998046875,7.473830699920654,6.3137688636779785,-0.669752299785614
1774789971454005500,22.918005615234375,7.450244903564453,6.347377300262451,-0.6123964786529541
1774789971472531000,22.936531005859376,7.4338765144348145,6.36851167678833,-0.5915390849113464
1774789971491056400,22.955056396484373,7.434037685394287,6.369918346405029,-0.5741140246391296
1774789971509581800,22.973581787109374,7.443293571472168,6.362668037414551,-0.5331311821937561
1774789971528107000,22.99210693359375,7.4457573890686035,6.363987922668457,-0.480362206697464
1774789971546632400,23.010632568359377,7.434423923492432,6.379785060882568,-0.4450439512729645
1774789971565158000,23.029157958984374,7.416518211364746,6.400857448577881,-0.44122010469436646
1774789971583683300,23.047683349609375,7.41234016418457,6.40529727935791,-0.44695845246315
1774789971602208800,23.066208740234377,7.430901527404785,6.384387016296387,-0.4378252327442169
1774789971620734200,23.084734130859374,7.460720062255859,6.351396083831787,-0.4096517264842987
1774789971639259600,23.103259765625,7.494361877441406,6.314176559448242,-0.36890149116516113
1774789971657785000,23.12178515625,7.526147365570068,6.278003215789795,-0.3379199504852295
1774789971676310500,23.140310546875,7.552326202392578,6.2472453117370605,-0.3235483467578888
1774789971694835700,23.158835693359375,7.576693058013916,6.217833042144775,-0.3204256594181061
1774789971713361200,23.177361083984376,7.60501766204834,6.183216571807861,-0.31923526525497437
1774789971731886600,23.195886474609374,7.6361870765686035,6.14532995223999,-0.306514173746109
1774789971750412000,23.214412109375,7.661541938781738,6.114951133728027,-0.2802395224571228
1774789971768937500,23.2329375,7.676212310791016,6.098341464996338,-0.23743416368961334
1774789971787463000,23.251462890625,7.6868791580200195,6.087109088897705,-0.17141816020011902
1774789971805988400,23.26998828125,7.703537940979004,6.067612648010254,-0.09977097809314728
1774789971824513800,23.288513671875,7.73129940032959,6.032882213592529,-0.04157940298318863
1774789971843039000,23.3070390625,7.76563024520874,5.988771438598633,-0.0008925364236347377
1774789971861564400,23.325564453125,7.790934085845947,5.955812931060791,0.004927294794470072
1774789971880089900,23.34408984375,7.7974653244018555,5.94722843170166,-0.019466524943709373
1774789971898615300,23.362615234375,7.80734920501709,5.9342803955078125,0.0013520256616175175
1774789971917140700,23.381140625,7.847568988800049,5.880074977874756,0.10374542325735092
1774789971935666200,23.399666259765624,7.911299228668213,5.790707111358643,0.2223539650440216
1774789971954191600,23.418191650390625,7.965517044067383,5.712568283081055,0.2958117425441742
1774789971972716800,23.436716796875,7.97952127456665,5.69234561920166,0.30793341994285583
1774789971991242200,23.4552421875,7.949265480041504,5.735486030578613,0.2894202470779419
1774789972009767700,23.473767578125,7.90513801574707,5.796095371246338,0.29061850905418396
1774789972028293000,23.492293212890626,7.881680011749268,5.826047897338867,0.32659628987312317
1774789972046818600,23.510818603515624,7.890347003936768,5.812906265258789,0.3506205976009369
1774789972065344000,23.529343994140625,7.91827917098999,5.7755842208862305,0.3374406397342682
1774789972083869200,23.547869140625,7.940512180328369,5.747332572937012,0.29466745257377625
1774789972102394600,23.56639453125,7.935483932495117,5.756890296936035,0.23810750246047974
1774789972120920000,23.584920166015625,7.900338172912598,5.807211399078369,0.1770346462726593
1774789972139445500,23.603445556640626,7.856973171234131,5.86688232421875,0.13430114090442657
1774789972157971000,23.621970947265623,7.8279924392700195,5.905684471130371,0.12573173642158508
1774789972176496400,23.640496337890625,7.821078300476074,5.914562225341797,0.13810838758945465
1774789972195021800,23.659021728515626,7.8276214599609375,5.905917644500732,0.13737621903419495
1774789972213547000,23.677547119140623,7.838289260864258,5.892190933227539,0.11705700308084488
1774789972232072400,23.696072509765624,7.845428943634033,5.883205413818359,0.08675869554281235
1774789972250598000,23.714597900390626,7.844081878662109,5.885319232940674,0.061573732644319534
1774789972269123300,23.733123291015627,7.840333938598633,5.890493392944336,0.04040967673063278
1774789972287648800,23.751648681640624,7.842624664306641,5.887582778930664,0.0024471201468259096
1774789972306174200,23.77017431640625,7.848135948181152,5.879887580871582,-0.06376192718744278
1774789972324699600,23.78869970703125,7.848231792449951,5.8784942626953125,-0.13763459026813507
1774789972343225000,23.80722509765625,7.835445880889893,5.893596172332764,-0.20419737696647644
1774789972361750500,23.82575048828125,7.808340072631836,5.927306652069092,-0.2592962086200714
