time,seconds_elapsed,z,y,x
1774789948714408000,0.178407958984375,-0.45937031507492065,-0.6878337264060974,-0.2926042377948761
1774789948732932900,0.196932861328125,-0.5039634704589844,-0.4740310609340668,-0.35674503445625305
1774789948751457500,0.21545751953125,-0.49052441120147705,-0.4618137776851654,-0.4379900395870209
1774789948769982500,0.233982421875,-0.4196641147136688,-0.5772672295570374,-0.546113133430481
1774789948788507100,0.252507080078125,-0.29993459582328796,-0.4508182108402252,-0.5192350745201111
1774789948807032000,0.271031982421875,-0.18387030065059662,-0.3659079968929291,-0.3799578845500946
1774789948825557000,0.289556884765625,-0.12644900381565094,-0.23029601573944092,-0.18203771114349365
1774789948844081700,0.30808154296875,-0.18814635276794434,-0.2309068888425827,-0.06719512492418289
1774789948862606600,0.326606689453125,-0.2528980076313019,-0.10567960888147354,0.05497783049941063
1774789948881131500,0.345131591796875,-0.20647229254245758,-0.14233149588108063,0.10079269111156464
1774789948899656200,0.36365625,-0.09407317638397217,-0.1649334877729416,0.06047561392188072
1774789948918181000,0.38218115234375,-0.010384701192378998,-0.13683371245861053,0.003665188793092966
1774789948936705800,0.400705810546875,0.009162971749901772,-0.0769689604640007,-0.08429934084415436
1774789948955230700,0.419230712890625,-0.0256563201546669,-0.07269290834665298,-0.15210533142089844
1774789948973755400,0.43775537109375,-0.046425722539424896,0.006108647678047419,-0.09468404203653336
1774789948992280300,0.4562802734375,-0.03298669680953026,-0.0054977829568088055,-0.001832594396546483
1774789949010805200,0.47480517578125,0.001221729558892548,-0.08918625861406326,0.04886918142437935
1774789949029330000,0.493329833984375,0.01954767294228077,-0.14110976457595825,0.021380268037319183
1774789949047854800,0.511854736328125,0.006108647678047419,-0.06963858753442764,-0.0818558782339096
1774789949066379500,0.530379638671875,-0.015271619893610477,0.06108647957444191,-0.1490510106086731
1774789949084904400,0.548904541015625,-0.05070177838206291,0.09529490768909454,-0.12644900381565094
1774789949103429000,0.56742919921875,-0.0720820426940918,-0.010384701192378998,-0.1233946830034256
1774789949121954000,0.5859541015625,-0.04825831577181816,-0.13439024984836578,-0.12400554865598679
1774789949140478700,0.604478759765625,-0.017104214057326317,-0.07086031138896942,-0.0030543238390237093
1774789949159003600,0.623003662109375,-0.06047561392188072,0.010384701192378998,0.08368847519159317
1774789949177528600,0.641528564453125,-0.0769689604640007,0.010384701192378998,0.0360410213470459
1774789949196053200,0.66005322265625,-0.049480047076940536,0.007330377586185932,-0.1081230640411377
1774789949214578200,0.678578125,-0.0616973415017128,0.036651886999607086,-0.15638138353824615
1774789949233103000,0.69710302734375,-0.06780599057674408,-0.030543239787220955,-0.09590577334165573
1774789949251627800,0.715627685546875,-0.08368847519159317,-0.1649334877729416,-0.04276053607463837
1774789949270152400,0.73415234375,-0.08857539296150208,-0.1337793916463852,-0.025045456364750862
1774789949288677400,0.752677490234375,-0.16249002516269684,-0.017715077847242355,-0.13622283935546875
1774789949307202300,0.771202392578125,-0.19730933010578156,0.06719512492418289,-0.24312418699264526
1774789949325727000,0.78972705078125,-0.17348559200763702,0.10690133273601532,-0.2712239623069763
1774789949344252000,0.808251953125,-0.12950333952903748,0.13011419773101807,-0.24740023910999298
1774789949362776600,0.826776611328125,-0.07574722915887833,0.08613193035125732,-0.2052505612373352
1774789949381301500,0.845301513671875,-0.06475166976451874,-0.020769402384757996,-0.20463970303535461
1774789949399826400,0.863826416015625,-0.10018182545900345,-0.17653992772102356,-0.17165300250053406
1774789949418351000,0.88235107421875,-0.16615521907806396,-0.2974911332130432,-0.05436696484684944
1774789949436875800,0.900875732421875,-0.15577052533626556,-0.411722868680954,-0.024434590712189674
1774789949455400700,0.919400634765625,-0.11178825795650482,-0.27550002932548523,-0.020769402384757996
1774789949473925600,0.937925537109375,-0.10873392969369888,-0.056199558079242706,-0.03176496922969818
1774789949492450300,0.9564501953125,-0.0720820426940918,0.013439024798572063,-0.04886918142437935
1774789949510975200,0.974975341796875,-0.06230820715427399,-0.009773836471140385,-0.06108647957444191
1774789949529500200,0.993500244140625,-0.14538581669330597,0.043371398001909256,-0.08857539296150208
1774789949548024800,1.01202490234375,-0.1795942485332489,0.09040798991918564,-0.1130099818110466
1774789949566549800,1.0305498046875,-0.10873392969369888,0.006108647678047419,-0.0818558782339096
1774789949585074400,1.049074462890625,0.010384701192378998,-0.1178968995809555,-0.03543015569448471
1774789949603599400,1.067599365234375,0.08552107214927673,-0.1441640853881836,-0.02626718580722809
1774789949622124000,1.0861240234375,0.043371398001909256,0.023212861269712448,-0.0824667438864708
1774789949640649000,1.10464892578125,-0.017104214057326317,0.21868959069252014,-0.07757982611656189
1774789949659173600,1.123173583984375,-0.05864302068948746,0.2254091054201126,-0.053145237267017365
1774789949677698600,1.141698486328125,-0.015271619893610477,0.0769689604640007,-0.02260199747979641
1774789949696223500,1.160223388671875,0.006108647678047419,-0.11545344442129135,-0.004886918235570192
1774789949714748200,1.178748046875,0.023823726922273636,-0.1081230640411377,-0.025045456364750862
1774789949733273000,1.197273193359375,0.014660755172371864,-0.05253437161445618,-0.06108647957444191
1774789949751797800,1.2157978515625,0.017104214057326317,0.020769402384757996,-0.040317077189683914
1774789949770322700,1.23432275390625,-0.009162971749901772,0.08429934084415436,-0.007941242307424545
1774789949788847400,1.252847412109375,-0.01649334840476513,0.13622283935546875,-0.001221729558892548
1774789949807372300,1.271372314453125,-0.020158538594841957,0.13072505593299866,-0.01649334840476513
1774789949825897000,1.28989697265625,-0.0409279391169548,-0.020769402384757996,-0.034208428114652634
1774789949844422000,1.308421875,-0.05803215503692627,-0.06475166976451874,0.002443459117785096
1774789949862946800,1.32694677734375,-0.04520399495959282,-0.009162971749901772,0.04886918142437935
1774789949881471500,1.345471435546875,-0.030543239787220955,0.009773836471140385,0.05436696484684944
1774789949899996400,1.363996337890625,0.009162971749901772,0.07452550530433655,0.03787361457943916
1774789949918521000,1.38252099609375,0.02932151034474373,0.09651663154363632,0.020158538594841957
1774789949937046000,1.4010458984375,-0.000610864779446274,0.03176496922969818,-0.01649334840476513
1774789949955570700,1.41957080078125,0.002443459117785096,0.06841685622930527,0.01282816007733345
1774789949974095600,1.438095703125,0.046425722539424896,0.1740964651107788,0.09834922850131989
1774789949992620500,1.45662060546875,0.08491020649671555,0.2718348205089569,0.16554436087608337
1774789950011145200,1.475145263671875,0.07024945318698883,0.2834412455558777,0.06597339361906052
1774789950029670100,1.493670166015625,0.024434590712189674,0.18203771114349365,-0.08918625861406326
1774789950048194800,1.51219482421875,-0.006719512399286032,0.1899789422750473,-0.1484401375055313
1774789950066719700,1.5307197265625,-0.0665842592716217,0.13194678723812103,-0.164322629570961
1774789950085244400,1.549244384765625,-0.16004657745361328,-0.002443459117785096,-0.14294235408306122
1774789950103769300,1.567769287109375,-0.16249002516269684,-0.05742128938436508,-0.009773836471140385
1774789950122294000,1.5862939453125,-0.09529490768909454,-0.09712749719619751,0.1026252806186676
1774789950140819000,1.60481884765625,-0.08307760953903198,-0.06963858753442764,0.13561198115348816
1774789950159343900,1.62334375,-0.1594357043504715,0.05497783049941063,0.11362084746360779
1774789950177868500,1.64186865234375,-0.24434591829776764,0.0922405794262886,0.11239911615848541
1774789950196393500,1.6603935546875,-0.22296564280986786,0.004886918235570192,0.235793799161911
1774789950214918400,1.67891845703125,-0.1905898153781891,-0.14782927930355072,0.41233372688293457
1774789950233443000,1.697443115234375,-0.09346231073141098,-0.11239911615848541,0.4514290690422058
1774789950251968000,1.715968017578125,-0.04153880476951599,0.07269290834665298,0.3396408259868622
1774789950270492700,1.73449267578125,-0.07452550530433655,0.28038692474365234,0.13072505593299866
1774789950289017600,1.753017578125,-0.01893680728971958,0.42088583111763,0.036651886999607086
1774789950307542300,1.771542236328125,0.007330377586185932,0.379347026348114,0.09346231073141098
1774789950326067200,1.790067138671875,-0.04520399495959282,0.07574722915887833,0.2309068888425827
1774789950344592100,1.808592041015625,-0.10567960888147354,-0.22724169492721558,0.30115634202957153
1774789950363116800,1.82711669921875,-0.12583814561367035,-0.09346231073141098,0.28038692474365234
1774789950381641700,1.845641845703125,-0.1692095398902893,0.07024945318698883,0.17653992772102356
1774789950400166400,1.86416650390625,-0.09651663154363632,0.2315177470445633,0.11484257876873016
1774789950418691300,1.88269140625,-0.09101885557174683,0.28954991698265076,0.11728604137897491
1774789950437216000,1.901216064453125,-0.1490510106086731,0.15577052533626556,0.19853104650974274
1774789950455741000,1.919740966796875,-0.18142683804035187,-0.013439024798572063,0.2528980076313019
1774789950474265900,1.938265869140625,-0.2767217457294464,0.015271619893610477,0.23273947834968567
1774789950492790500,1.95679052734375,-0.30482152104377747,0.18753549456596375,0.23762640357017517
1774789950511315500,1.9753154296875,-0.24006985127925873,0.23029601573944092,0.22846342623233795
1774789950529840400,1.99384033203125,-0.1795942485332489,0.16615521907806396,0.1795942485332489
1774789950548365000,2.012364990234375,-0.21807873249053955,0.1026252806186676,0.15027274191379547
1774789950566890000,2.030889892578125,-0.2626718580722809,0.1178968995809555,0.18875721096992493
1774789950585414700,2.04941455078125,-0.21502439677715302,0.21197007596492767,0.2107483446598053
1774789950603939600,2.067939697265625,-0.16187916696071625,0.2528980076313019,0.19425499439239502
1774789950622464500,2.086464599609375,-0.13072505593299866,0.24495677649974823,0.18570289015769958
1774789950640989200,2.1049892578125,-0.06780599057674408,0.3494146466255188,0.2107483446598053
1774789950659514000,2.12351416015625,-0.0360410213470459,0.40744680166244507,0.19242240488529205
1774789950678039000,2.1420390625,-0.05192350596189499,0.25473061203956604,0.10384701192378998
1774789950696563700,2.160563720703125,-0.0616973415017128,-0.03237583488225937,0.001221729558892548
1774789950715088600,2.179088623046875,-0.1380554437637329,-0.1539379209280014,-0.03298669680953026
1774789950733613300,2.19761328125,-0.20647229254245758,-0.017104214057326317,0.010384701192378998
1774789950752138200,2.21613818359375,-0.11117739230394363,0.08491020649671555,0.11362084746360779
1774789950770663200,2.2346630859375,-0.000610864779446274,0.04459312930703163,0.02871064469218254
1774789950789187800,2.253187744140625,0.04520399495959282,0.10873392969369888,-0.07574722915887833
1774789950807712800,2.271712646484375,0.05864302068948746,0.26511532068252563,-0.0977383628487587
1774789950826237400,2.290237548828125,0.1026252806186676,0.41844236850738525,-0.06291907280683517
1774789950844762400,2.308762451171875,0.29626941680908203,0.6328558921813965,0.020769402384757996
1774789950863287300,2.327287353515625,0.42943793535232544,1.0396918058395386,0.07574722915887833
1774789950881812000,2.34581201171875,0.42821621894836426,0.9046907424926758,0.12705987691879272
1774789950900337000,2.3643369140625,0.16004657745361328,-0.21868959069252014,0.21380266547203064
1774789950918861800,2.38286181640625,-0.11545344442129135,-0.5241219997406006,-0.10629047453403473
1774789950937386800,2.40138671875,-0.26450446248054504,-0.287106454372406,-0.24923282861709595
1774789950955911400,2.419911376953125,-0.37629270553588867,-0.27855435013771057,-0.23518294095993042
1774789950974436000,2.43843603515625,-0.33658650517463684,-0.6713404059410095,-0.20280711352825165
1774789950992961000,2.4569609375,-0.3084867000579834,-0.9169080257415771,-0.18570289015769958
1774789951011486000,2.47548583984375,-0.3707949221134186,-0.9975422024726868,-0.17104214429855347
1774789951030011000,2.494010986328125,-0.3182605504989624,-0.9517273306846619,-0.2461785078048706
1774789951048535600,2.51253564453125,-0.10323614627122879,-0.870482325553894,-0.2669478952884674
1774789951067060500,2.531060546875,0.06536252796649933,-0.6737838387489319,-0.20280711352825165
1774789951085585200,2.549585205078125,0.09285144507884979,-0.3194822669029236,-0.2822195291519165
1774789951104110000,2.568110107421875,-0.02260199747979641,-0.09590577334165573,-0.3280344009399414
1774789951122635000,2.586635009765625,-0.10018182545900345,-0.07513637095689774,-0.12705987691879272
1774789951141160000,2.605159912109375,-0.09285144507884979,-0.11423171311616898,0.056810423731803894
1774789951159684600,2.6236845703125,0.05497783049941063,-0.3750709891319275,0.15088360011577606
1774789951178209500,2.64220947265625,0.16798780858516693,-0.42332929372787476,0.14660754799842834
1774789951196734200,2.660734130859375,0.1948658674955368,-0.20463970303535461,0.06291907280683517
1774789951215259100,2.679259033203125,0.1282816082239151,-0.03176496922969818,-0.05070177838206291
1774789951233784000,2.6977841796875,0.007941242307424545,0.09101885557174683,-0.12461641430854797
1774789951252309000,2.71630908203125,-0.08307760953903198,0.05192350596189499,-0.17165300250053406
1774789951270833700,2.734833740234375,-0.08613193035125732,-0.18570289015769958,-0.14049890637397766
1774789951289358600,2.753358642578125,-0.001221729558892548,-0.22724169492721558,0.03176496922969818
1774789951307883500,2.771883544921875,0.06902772188186646,-0.09101885557174683,0.15271618962287903
1774789951326408200,2.790408203125,0.053145237267017365,0.07269290834665298,0.10567960888147354
1774789951344933000,2.80893310546875,-0.01282816007733345,0.08674279600381851,0.050090912729501724
1774789951363458000,2.8274580078125,-0.049480047076940536,-0.05864302068948746,0.08307760953903198
1774789951381983000,2.84598291015625,-0.03481929376721382,-0.12644900381565094,0.17043127119541168
1774789951400507600,2.864507568359375,-0.08063415437936783,-0.033597562462091446,0.2779434621334076
1774789951419032600,2.883032470703125,-0.13439024984836578,0.10995566099882126,0.41844236850738525
1774789951437557200,2.90155712890625,-0.14721840620040894,0.19425499439239502,0.5748237371444702
1774789951456082200,2.920082275390625,-0.15027274191379547,0.15149445831775665,0.6896663308143616
1774789951474607000,2.938607177734375,-0.06597339361906052,0.11484257876873016,0.7000510096549988
1774789951493132000,2.957132080078125,0.07574722915887833,-0.03543015569448471,0.6505709886550903
1774789951511657000,2.975656982421875,0.14294235408306122,0.16004657745361328,0.5119046568870544
1774789951530181600,2.994181640625,0.10384701192378998,0.4355465769767761,0.3084867000579834
1774789951548706600,3.01270654296875,0.050090912729501724,0.3090975880622864,0.2370155304670334
1774789951567231500,3.0312314453125,0.0360410213470459,0.18631376326084137,0.2107483446598053
1774789951585756200,3.049756103515625,0.000610864779446274,-0.18692462146282196,0.11056652665138245
1774789951604281000,3.068281005859375,0.023212861269712448,-0.30482152104377747,0.13011419773101807
1774789951622806000,3.086805908203125,0.043982263654470444,-0.07574722915887833,0.16310089826583862
1774789951641330700,3.10533056640625,0.039706211537122726,0.1899789422750473,0.04276053607463837
1774789951659855600,3.123855712890625,-0.025045456364750862,0.22296564280986786,-0.05497783049941063
1774789951678380500,3.142380615234375,-0.09651663154363632,0.10140355676412582,-0.031154103577136993
1774789951696905500,3.160905517578125,-0.056810423731803894,-0.09651663154363632,0.06963858753442764
1774789951715430400,3.179430419921875,0.017715077847242355,-0.1026252806186676,0.18875721096992493
1774789951733955000,3.197955078125,0.028099779039621353,0.009162971749901772,0.23457208275794983
1774789951752480000,3.21647998046875,-0.06475166976451874,-0.043982263654470444,0.18753549456596375
1774789951771005000,3.2350048828125,-0.17226386070251465,-0.21135921776294708,0.28527384996414185
1774789951789529900,3.25352978515625,-0.23518294095993042,-0.41233372688293457,0.4874700903892517
1774789951808054500,3.272054443359375,-0.21319180727005005,-0.28954991698265076,0.7385355234146118
1774789951826579500,3.290579345703125,-0.08002328872680664,0.15271618962287903,0.9395100474357605
1774789951845104400,3.3091044921875,-0.04886918142437935,0.6102539300918579,0.8735366463661194
1774789951863629300,3.32762939453125,-0.1331685185432434,0.7947350740432739,0.62857985496521
1774789951882154000,3.346154052734375,-0.07574722915887833,0.5125155448913574,0.4990765154361725
1774789951900679000,3.364678955078125,-0.09162971377372742,0.13194678723812103,0.4221075773239136
1774789951919203800,3.383203857421875,-0.2419024556875229,-0.1337793916463852,0.3549124300479889
1774789951937728800,3.401728759765625,-0.2822195291519165,0.24984370172023773,0.1484401375055313
1774789951956253400,3.42025341796875,-0.15210533142089844,-0.1178968995809555,-0.20769402384757996
1774789951974778400,3.4387783203125,-0.06352993845939636,-0.4825831651687622,-0.2657261788845062
1774789951993303300,3.45730322265625,-0.050090912729501724,-0.46914416551589966,-0.08857539296150208
1774789952011828200,3.475828125,-0.017104214057326317,-0.16310089826583862,-0.043982263654470444
1774789952030353000,3.494352783203125,-0.023823726922273636,0.06291907280683517,-0.23029601573944092
1774789952048877800,3.5128779296875,-0.021380268037319183,0.08857539296150208,-0.2981020212173462
1774789952067402800,3.53140283203125,0.020769402384757996,-0.10629047453403473,-0.18631376326084137
1774789952085927700,3.549927734375,0.03237583488225937,-0.16187916696071625,-0.017104214057326317
1774789952104452600,3.56845263671875,0.01649334840476513,-0.0616973415017128,0.05436696484684944
1774789952122977300,3.586977294921875,0.1331685185432434,-0.07452550530433655,0.15821397304534912
1774789952141502200,3.605502197265625,0.15271618962287903,-0.30115634202957153,0.30543237924575806
1774789952160027100,3.624027099609375,0.13744457066059113,-0.4153880476951599,0.45387253165245056
1774789952178552000,3.642552001953125,0.11545344442129135,-0.24495677649974823,0.4929678738117218
1774789952197077000,3.661076904296875,0.08613193035125732,-0.14233149588108063,0.4422661066055298
1774789952215602000,3.679601806640625,0.053145237267017365,-0.18325942754745483,0.32009315490722656
1774789952234126600,3.698126708984375,0.05253437161445618,-0.1233946830034256,0.19669845700263977
1774789952252651500,3.716651611328125,-0.021991131827235222,0.017715077847242355,0.19181154668331146
1774789952271176400,3.735176513671875,-0.05070177838206291,-0.05070177838206291,0.17776164412498474
1774789952289701400,3.753701416015625,-0.06414080411195755,-0.1484401375055313,-0.03787361457943916
1774789952308226300,3.772226318359375,-0.046425722539424896,-0.08674279600381851,-0.3084867000579834
1774789952326751200,3.790751220703125,-0.11178825795650482,-0.025045456364750862,-0.4251618981361389
1774789952345276000,3.80927587890625,-0.09712749719619751,-0.05742128938436508,-0.3591884970664978
1774789952363800800,3.82780078125,0.04825831577181816,-0.10201441496610641,-0.13439024984836578
1774789952382325800,3.84632568359375,0.11056652665138245,-0.11972949653863907,0.0720820426940918
1774789952400850700,3.8648505859375,0.046425722539424896,-0.036651886999607086,0.17653992772102356
1774789952419375400,3.883375244140625,0.030543239787220955,-0.07574722915887833,0.20830489695072174
1774789952437900300,3.901900390625,-0.03543015569448471,-0.06047561392188072,0.24006985127925873
1774789952456425200,3.92042529296875,-0.20341797173023224,0.13011419773101807,0.20280711352825165
1774789952474950100,3.9389501953125,-0.2101374864578247,0.2828303873538971,0.06536252796649933
1774789952493475000,3.95747509765625,-0.1740964651107788,0.3426951467990875,-0.01893680728971958
1774789952512000000,3.976,0.0409279391169548,0.14538581669330597,0.01649334840476513
1774789952530525000,3.99452490234375,0.13255766034126282,0.002443459117785096,-0.03298669680953026
1774789952549049900,4.0130498046875,0.021991131827235222,-0.10690133273601532,-0.18387030065059662
1774789952567574500,4.031574462890625,-0.1337793916463852,-0.11545344442129135,-0.21319180727005005
1774789952586099500,4.050099365234375,-0.09162971377372742,0.037262752652168274,-0.08674279600381851
1774789952604624400,4.068624267578125,0.11056652665138245,0.07513637095689774,0.10995566099882126
1774789952623149300,4.0871494140625,0.16859868168830872,-0.010995565913617611,0.26511532068252563
1774789952641674200,4.10567431640625,0.12767073512077332,-0.02260199747979641,0.24556763470172882
1774789952660199200,4.12419921875,0.08918625861406326,0.26022839546203613,0.1545487940311432
1774789952678724000,4.14272412109375,0.10445787757635117,0.29504770040512085,0.023212861269712448
1774789952697249000,4.1612490234375,0.09468404203653336,0.24862197041511536,0.0513126403093338
1774789952715773700,4.179773681640625,0.024434590712189674,0.11545344442129135,0.18631376326084137
1774789952734298600,4.198298583984375,-0.09834922850131989,0.10140355676412582,0.38301220536231995
1774789952752823600,4.216823486328125,-0.1331685185432434,0.1899789422750473,0.5094612240791321
1774789952771348500,4.235348388671875,-0.09834922850131989,0.34147340059280396,0.6340776681900024
1774789952789873400,4.253873291015625,-0.164322629570961,0.5106829404830933,0.8686497211456299
1774789952808398300,4.2723984375,-0.36712974309921265,1.5234967470169067,0.2809978127479553
1774789952826923300,4.29092333984375,-0.17348559200763702,-0.03176496922969818,-1.2217295169830322
1774789952845448200,4.3094482421875,-0.5619956254959106,-0.7641918659210205,-0.6768381595611572
1774789952863973000,4.32797314453125,-0.4728093445301056,-0.6988292932510376,0.25411975383758545
1774789952882498000,4.346498046875,-0.3549124300479889,-0.25045454502105713,0.8362739086151123
1774789952901023000,4.36502294921875,-0.2211330533027649,0.4361574649810791,0.6731730103492737
1774789952919547600,4.383547607421875,-0.10934479534626007,-0.15149445831775665,-0.16310089826583862
1774789952938072600,4.402072509765625,-0.08552107214927673,-0.5271763205528259,-0.861319363117218
1774789952956597800,4.42059765625,-0.1539379209280014,-0.5754346251487732,-1.2968659400939941
1774789952975122700,4.439122802734375,-0.10690133273601532,0.01588248461484909,-1.3548980951309204
1774789952993647400,4.4576474609375,-0.025045456364750862,0.3084867000579834,-0.952949047088623
1774789953012172300,4.47617236328125,0.20708316564559937,0.07330377399921417,-0.19853104650974274
1774789953030697200,4.494697265625,0.5870410799980164,-0.13439024984836578,0.49480047821998596
1774789953049222100,4.51322216796875,0.5760455131530762,-0.3194822669029236,0.6212494969367981
1774789953067747000,4.5317470703125,0.25900667905807495,-0.2718348205089569,0.2626718580722809
1774789953086272000,4.55027197265625,-0.006719512399286032,0.018325943499803543,-0.2461785078048706
1774789953104797000,4.568796875,-0.043982263654470444,0.21135921776294708,-0.3280344009399414
1774789953123321900,4.58732177734375,0.05864302068948746,0.10506874322891235,-0.11545344442129135
1774789953141846800,4.6058466796875,0.2309068888425827,0.02260199747979641,0.039706211537122726
1774789953160371700,4.624371826171875,0.3481929302215576,0.053145237267017365,0.031154103577136993
1774789953178896600,4.642896728515625,0.30970844626426697,0.020769402384757996,-0.050090912729501724
1774789953197421600,4.661421630859375,0.13683371245861053,-0.0720820426940918,-0.18753549456596375
1774789953215946500,4.679946533203125,-0.06719512492418289,-0.1380554437637329,-0.4001164436340332
1774789953234471400,4.698471435546875,-0.09957095980644226,-0.15577052533626556,-0.7098248600959778
1774789953252996400,4.716996337890625,0.09407317638397217,0.030543239787220955,-0.8405499458312988
1774789953271521300,4.735521240234375,0.1893680840730667,0.13561198115348816,-0.5662716627120972
1774789953290046200,4.754046142578125,0.22235478460788727,0.04764745384454727,-0.08979712426662445
1774789953308571100,4.772571044921875,0.19120067358016968,-0.07635809481143951,0.09346231073141098
1774789953327096000,4.791095947265625,0.14599667489528656,-0.09285144507884979,-0.06047561392188072
1774789953345621000,4.80962109375,0.15210533142089844,0.004886918235570192,-0.3225366175174713
1774789953364146000,4.82814599609375,0.1740964651107788,0.06414080411195755,-0.5326740741729736
1774789953382670800,4.8466708984375,0.13072505593299866,0.0513126403093338,-0.49418962001800537
1774789953401195800,4.86519580078125,-0.010995565913617611,0.10995566099882126,-0.2614501118659973
1774789953419720700,4.883720703125,-0.13011419773101807,0.12705987691879272,-0.09040798991918564
1774789953438245600,4.90224560546875,-0.018325943499803543,0.05192350596189499,-0.09101885557174683
1774789953456770600,4.9207705078125,0.18264856934547424,-0.030543239787220955,-0.18631376326084137
1774789953475295500,4.93929541015625,0.27427828311920166,-0.13133592903614044,-0.31093016266822815
1774789953493820400,4.9578203125,0.21991132199764252,-0.19669845700263977,-0.39828383922576904
1774789953512345300,4.976345458984375,0.03909534588456154,-0.17287473380565643,-0.3897317349910736
1774789953530870300,4.994870361328125,-0.1185077652335167,-0.10323614627122879,-0.2162461280822754
1774789953549395200,5.013395263671875,-0.053145237267017365,-0.05558869615197182,0.030543239787220955
1774789953567920000,5.031920166015625,0.11117739230394363,-0.04886918142437935,0.24801109731197357
1774789953586445000,5.050445068359375,0.1496618688106537,-0.09285144507884979,0.3500255048274994
1774789953604970000,5.068969970703125,0.007941242307424545,-0.23945899307727814,0.268169641494751
1774789953623495000,5.087494873046875,-0.26450446248054504,-0.37201663851737976,0.003665188793092966
1774789953642019800,5.106019775390625,-0.5125155448913574,-0.24984370172023773,-0.2968802750110626
1774789953660544800,5.124544677734375,-0.43493571877479553,-0.024434590712189674,-0.35063639283180237
1774789953679069700,5.143069580078125,-0.20341797173023224,-0.001221729558892548,-0.10018182545900345
1774789953697594600,5.1615947265625,-0.028099779039621353,-0.10873392969369888,0.2932150959968567
1774789953716119600,5.18011962890625,-0.07330377399921417,-0.14233149588108063,0.5876519083976746
1774789953734644500,5.19864453125,-0.1594357043504715,-0.1545487940311432,0.6090322136878967
1774789953753169400,5.21716943359375,-0.15821397304534912,-0.25045454502105713,0.3536907136440277
1774789953771694300,5.2356943359375,-0.1026252806186676,-0.15515965223312378,-0.001832594396546483
1774789953790219300,5.25421923828125,-0.10506874322891235,-0.036651886999607086,-0.25411975383758545
1774789953808744200,5.272744140625,-0.17592905461788177,-0.021380268037319183,-0.3090975880622864
1774789953827269000,5.29126904296875,-0.3090975880622864,-0.13439024984836578,-0.15699224174022675
1774789953845794000,5.3097939453125,-0.37201663851737976,-0.20891575515270233,0.014660755172371864
1774789953864319200,5.3283193359375,-0.287106454372406,-0.12461641430854797,0.037262752652168274
1774789953882844000,5.346843994140625,-0.21197007596492767,-0.047036588191986084,-0.000610864779446274
1774789953901368800,5.365368896484375,-0.15515965223312378,-0.007941242307424545,-0.0030543238390237093
1774789953919894000,5.38389404296875,-0.12461641430854797,0.011606430634856224,0.001221729558892548
1774789953938418700,5.402418701171875,-0.143553227186203,0.007330377586185932,-0.024434590712189674
1774789953956944000,5.42094384765625,-0.14233149588108063,-0.08002328872680664,-0.053756099194288254
1774789953975468800,5.43946875,-0.11117739230394363,-0.14172062277793884,-0.07086031138896942
1774789953993993700,5.45799365234375,-0.11911863088607788,-0.10079269111156464,-0.08613193035125732
1774789954012518700,5.4765185546875,-0.19914191961288452,0.010995565913617611,-0.13439024984836578
1774789954031043600,5.495043701171875,-0.2724456787109375,0.10873392969369888,-0.23396120965480804
1774789954049568500,5.513568603515625,-0.25900667905807495,0.10445787757635117,-0.2724456787109375
1774789954068093400,5.532093505859375,-0.17837251722812653,-0.03543015569448471,-0.21135921776294708
1774789954086618600,5.55061865234375,-0.09590577334165573,-0.13439024984836578,-0.14721840620040894
1774789954105143300,5.569143310546875,-0.049480047076940536,-0.09468404203653336,-0.19914191961288452
1774789954123668500,5.58766845703125,-0.050090912729501724,0.1081230640411377,-0.24373504519462585
1774789954142193400,5.606193359375,-0.039706211537122726,0.205861434340477,-0.19853104650974274
1774789954160718300,5.62471826171875,0.04214967042207718,0.1282816082239151,-0.12767073512077332
1774789954179243300,5.6432431640625,0.10629047453403473,0.08368847519159317,-0.046425722539424896
1774789954197768200,5.661768310546875,0.12950333952903748,0.1331685185432434,0.04153880476951599
1774789954216293000,5.680293212890625,0.1386663019657135,0.21868959069252014,0.059864748269319534
1774789954234818000,5.698818115234375,0.10690133273601532,0.3738492429256439,-0.06047561392188072
1774789954253343000,5.717343017578125,0.056199558079242706,0.2009745091199875,-0.25473061203956604
1774789954271868000,5.735867919921875,0.04214967042207718,-0.3652971386909485,-0.5845975875854492
1774789954290393000,5.75439306640625,0.03237583488225937,-0.627968966960907,-0.9498947262763977
1774789954308917800,5.772917724609375,-0.14660754799842834,-0.24434591829776764,-1.0458004474639893
1774789954327443000,5.79144287109375,-0.10567960888147354,0.481361448764801,-0.7159335017204285
1774789954345967900,5.8099677734375,0.24556763470172882,0.8277217745780945,-0.20402882993221283
1774789954364492800,5.828492919921875,0.4929678738117218,0.7916807532310486,0.2315177470445633
1774789954383017700,5.847017822265625,0.4917461574077606,0.5094612240791321,0.42455101013183594
1774789954401542700,5.865542724609375,0.5503891706466675,0.20158538222312927,0.41783151030540466
1774789954420067600,5.884067626953125,0.6120865345001221,0.034208428114652634,0.2724456787109375
1774789954438592800,5.9025927734375,0.5962040424346924,0.0665842592716217,0.1380554437637329
1774789954457117400,5.921117431640625,0.5986474752426147,0.12644900381565094,0.039706211537122726
1774789954475642600,5.939642578125,0.6603448390960693,0.018325943499803543,0.013439024798572063
1774789954494167600,5.95816748046875,0.6017017960548401,-0.14477495849132538,-0.0030543238390237093
1774789954512692500,5.9766923828125,0.4526508152484894,-0.14110976457595825,-0.04153880476951599
1774789954531217400,5.995217529296875,0.3396408259868622,-0.02626718580722809,-0.09101885557174683
1774789954549742300,6.013742431640625,0.3066541254520416,0.13927717506885529,-0.11484257876873016
1774789954568267500,6.032267578125,0.27916520833969116,0.25045454502105713,0.018325943499803543
1774789954586792400,6.05079248046875,0.23518294095993042,0.13255766034126282,0.19242240488529205
1774789954605317400,6.0693173828125,0.2626718580722809,0.0054977829568088055,0.2883281707763672
1774789954623842300,6.08784228515625,0.24251331388950348,-0.017104214057326317,0.2205221801996231
1774789954642367200,6.1063671875,0.1692095398902893,0.07574722915887833,0.05436696484684944
1774789954660892200,6.12489208984375,0.08368847519159317,0.11972949653863907,-0.09346231073141098
1774789954679417300,6.143417236328125,0.047036588191986084,0.13561198115348816,-0.12522727251052856
1774789954697942300,6.1619423828125,0.02626718580722809,0.007330377586185932,-0.09896009415388107
1774789954716467200,6.18046728515625,0.009162971749901772,-0.05803215503692627,-0.04581485688686371
1774789954734992100,6.1989921875,-0.023212861269712448,-0.04276053607463837,0.017104214057326317
1774789954753517000,6.21751708984375,-0.034208428114652634,-0.06475166976451874,0.028099779039621353
1774789954772042000,6.2360419921875,0.001221729558892548,-0.17165300250053406,0.009162971749901772
1774789954790567200,6.254567138671875,-0.002443459117785096,-0.2632827162742615,-0.14233149588108063
1774789954809092000,6.273092041015625,-0.01649334840476513,-0.25045454502105713,-0.3402516841888428
1774789954827617000,6.291616943359375,-0.06841685622930527,-0.17715078592300415,-0.41355544328689575
1774789954846142000,6.310141845703125,-0.07391463965177536,-0.20219624042510986,-0.3915643095970154
1774789954864667000,6.3286669921875,-0.04581485688686371,-0.22663083672523499,-0.2834412455558777
1774789954883192000,6.347192138671875,0.01954767294228077,-0.1178968995809555,-0.08674279600381851
1774789954901717000,6.365717041015625,-0.0054977829568088055,-0.037262752652168274,0.030543239787220955
1774789954920242000,6.384241943359375,-0.08002328872680664,-0.11972949653863907,-0.12278381735086441
1774789954938766800,6.402766845703125,-0.24312418699264526,-0.18631376326084137,-0.3897317349910736
1774789954957291800,6.421291748046875,-0.3341430425643921,-0.1533270627260208,-0.4575377106666565
1774789954975817000,6.43981689453125,-0.3023780584335327,-0.12705987691879272,-0.27550002932548523
1774789954994342000,6.458341796875,-0.13988803327083588,-0.05436696484684944,0.13988803327083588
1774789955012866800,6.47686669921875,-0.056199558079242706,-0.04214967042207718,0.4764745235443115
1774789955031391700,6.495391845703125,-0.23457208275794983,-0.1954767256975174,0.3909534513950348
1774789955049916700,6.513916748046875,-0.3133736252784729,-0.36712974309921265,0.08857539296150208
1774789955068441900,6.53244189453125,-0.3530798554420471,-0.48502662777900696,-0.20341797173023224
1774789955086966800,6.550966796875,-0.4422661066055298,-0.3634645342826843,-0.26511532068252563
1774789955105491700,6.56949169921875,-0.5338957905769348,-0.08429934084415436,-0.1899789422750473
1774789955124016600,6.5880166015625,-0.6346884965896606,0.08674279600381851,-0.11484257876873016
1774789955142541600,6.60654150390625,-0.6603448390960693,0.10323614627122879,-0.1178968995809555
1774789955161066800,6.625066650390625,-0.583375871181488,0.0873536616563797,-0.1380554437637329
1774789955179591700,6.643591796875,-0.4990765154361725,0.1233946830034256,-0.0873536616563797
1774789955198116600,6.66211669921875,-0.36835145950317383,0.20647229254245758,0.014049889519810677
1774789955216641500,6.6806416015625,-0.22296564280986786,0.26022839546203613,0.12034036219120026
1774789955235166700,6.699166748046875,-0.14599667489528656,0.2516762912273407,0.17715078592300415
1774789955253691600,6.717691650390625,-0.15210533142089844,0.12644900381565094,0.12461641430854797
1774789955272216600,6.736216552734375,-0.1178968995809555,0.07269290834665298,0.07086031138896942
1774789955290741500,6.754741455078125,-0.11484257876873016,-0.07513637095689774,0.023212861269712448
1774789955309266400,6.773266357421875,-0.1178968995809555,-0.14538581669330597,-0.03848448023200035
1774789955327791600,6.79179150390625,-0.16065743565559387,-0.06536252796649933,-0.10018182545900345
1774789955346316500,6.810316650390625,-0.1496618688106537,0.09957095980644226,-0.1747073233127594
1774789955364841500,6.828841552734375,-0.05497783049941063,0.13194678723812103,-0.19425499439239502
1774789955383366400,6.847366455078125,0.0054977829568088055,0.0818558782339096,-0.056199558079242706
1774789955401891300,6.865891357421875,0.05864302068948746,-0.07819069176912308,0.1490510106086731
1774789955420416500,6.88441650390625,0.13500112295150757,-0.14172062277793884,0.29077163338661194
1774789955438941400,6.90294140625,0.16859868168830872,-0.020158538594841957,0.3433060050010681
1774789955457466400,6.92146630859375,0.1948658674955368,0.14477495849132538,0.31459537148475647
1774789955475991300,6.9399912109375,0.24984370172023773,0.2003636509180069,0.2461785078048706
1774789955494516500,6.9585166015625,0.2559523284435272,0.2816086709499359,0.2516762912273407
1774789955513041400,6.97704150390625,0.24740023910999298,0.4886918365955353,0.3402516841888428
1774789955531566300,6.99556640625,0.25473061203956604,0.4477638900279999,0.3738492429256439
1774789955550091500,7.014091552734375,0.1954767256975174,-0.13683371245861053,0.03237583488225937
1774789955568616200,7.0326162109375,0.08979712426662445,-0.45937031507492065,-0.5632173418998718
1774789955587141400,7.051141357421875,-0.018325943499803543,-0.0977383628487587,-0.7635809779167175
1774789955605666300,7.069666259765625,0.01893680728971958,0.5076286196708679,-0.4159989058971405
1774789955624191200,7.088191162109375,0.4477638900279999,0.8124501705169678,0.2822195291519165
1774789955642716400,7.10671630859375,0.7409789562225342,0.6713404059410095,0.6945532560348511
1774789955661241300,7.125241455078125,0.6737838387489319,0.22907429933547974,0.6432406306266785
1774789955679766300,7.143766357421875,0.6120865345001221,-0.11423171311616898,0.3274235129356384
1774789955698291200,7.162291259765625,0.5998691916465759,-0.15149445831775665,-0.034208428114652634
1774789955716816400,7.18081640625,0.6047561168670654,-0.06047561392188072,-0.22235478460788727
1774789955735341300,7.19934130859375,0.6102539300918579,-0.047036588191986084,-0.24923282861709595
1774789955753866200,7.2178662109375,0.5845975875854492,-0.040317077189683914,-0.14477495849132538
1774789955772391400,7.236391357421875,0.48441576957702637,0.013439024798572063,0.01893680728971958
1774789955790916400,7.254916259765625,0.2987128794193268,0.09529490768909454,0.14477495849132538
1774789955809441300,7.273441162109375,0.1288924664258957,0.10934479534626007,0.13439024984836578
1774789955827966200,7.29196630859375,0.0769689604640007,0.04825831577181816,-0.020769402384757996
1774789955846491400,7.310491455078125,0.13927717506885529,-0.009773836471140385,-0.1496618688106537
1774789955865016300,7.329016357421875,0.2003636509180069,-0.09651663154363632,-0.1545487940311432
1774789955883541200,7.347541259765625,0.24312418699264526,-0.0665842592716217,-0.06719512492418289
1774789955902066400,7.36606640625,0.2003636509180069,-0.002443459117785096,-0.02932151034474373
1774789955920591400,7.38459130859375,0.0769689604640007,0.07941242307424545,-0.020769402384757996
1774789955939116300,7.4031162109375,-0.02871064469218254,-0.07024945318698883,-0.09896009415388107
1774789955957641200,7.42164111328125,-0.07391463965177536,-0.28466299176216125,-0.18325942754745483
1774789955976166100,7.440166259765625,-0.1288924664258957,-0.34208428859710693,-0.24740023910999298
1774789955994691300,7.45869140625,-0.1844811588525772,-0.28466299176216125,-0.30054548382759094
1774789956013216300,7.47721630859375,-0.15821397304534912,-0.21380266547203064,-0.3017672002315521
1774789956031741200,7.4957412109375,-0.08613193035125732,-0.19303326308727264,-0.17592905461788177
1774789956050266000,7.51426611328125,-0.12156209349632263,-0.1997527778148651,-0.04764745384454727
1774789956068791300,7.532791259765625,-0.19669845700263977,-0.16554436087608337,-0.01893680728971958
1774789956087316200,7.551316162109375,-0.2620609998703003,-0.2107483446598053,-0.09712749719619751
1774789956105841200,7.569841064453125,-0.23273947834968567,-0.2968802750110626,-0.17043127119541168
1774789956124366300,7.588366455078125,-0.12156209349632263,-0.18387030065059662,-0.12583814561367035
1774789956142891300,7.606891357421875,-0.033597562462091446,0.01893680728971958,0.01588248461484909
1774789956161416200,7.625416259765625,-0.07330377399921417,-0.1692095398902893,0
1774789956179941000,7.643941162109375,-0.16798780858516693,-0.6499601006507874,-0.30054548382759094
1774789956198466300,7.66246630859375,-0.25350889563560486,-0.6695078015327454,-0.6530144214630127
1774789956216991200,7.6809912109375,-0.36651885509490967,-0.18753549456596375,-0.6304124593734741
1774789956235516200,7.69951611328125,-0.3530798554420471,0.35674503445625305,-0.18325942754745483
1774789956254041000,7.718041015625,-0.17104214429855347,0.3909534513950348,0.43004879355430603
1774789956272566300,7.736566162109375,-0.1539379209280014,-0.2205221801996231,0.5387827157974243
1774789956291091200,7.75509130859375,-0.19853104650974274,-0.7024945020675659,0.17104214429855347
1774789956309616000,7.7736162109375,-0.3439168632030487,-0.5668824911117554,-0.3549124300479889
1774789956328141300,7.792141357421875,-0.5375609993934631,-0.07147117704153061,-0.6328558921813965
1774789956346666200,7.810666259765625,-0.5161807537078857,0.2565632164478302,-0.535728394985199
1774789956365191400,7.82919140625,-0.28038692474365234,0.3176496922969818,-0.2003636509180069
1774789956383716400,7.84771630859375,-0.15821397304534912,0.17043127119541168,0.06352993845939636
1774789956402241300,7.8662412109375,-0.16676609218120575,0.031154103577136993,0.1331685185432434
1774789956420766200,7.88476611328125,-0.17287473380565643,-0.02932151034474373,0.09040798991918564
1774789956439291400,7.90329150390625,-0.15577052533626556,0.030543239787220955,0.05558869615197182
1774789956457816300,7.92181640625,-0.021991131827235222,0.13744457066059113,0.03237583488225937
1774789956476341200,7.94034130859375,0.16859868168830872,0.24556763470172882,0.029932374134659767
1774789956494866400,7.958866455078125,0.277332603931427,0.21807873249053955,0.05742128938436508
1774789956513391400,7.977391357421875,0.31642794609069824,0.09529490768909454,0.13622283935546875
1774789956531916300,7.995916259765625,0.2675587832927704,-0.02626718580722809,0.15760311484336853
1774789956550441200,8.014441162109375,0.164322629570961,-0.03237583488225937,0.10201441496610641
1774789956568966400,8.03296630859375,0.06291907280683517,0.16615521907806396,-0.04764745384454727
1774789956596754000,8.06075390625,0.08979712426662445,0.40744680166244507,-0.16126830875873566
1774789956615278800,8.07927880859375,0.19669845700263977,0.3426951467990875,-0.023823726922273636
1774789956633803800,8.0978037109375,0.3249800503253937,0.1954767256975174,0.18875721096992493
1774789956652328700,8.11632861328125,0.3072649836540222,0.1081230640411377,0.2974911332130432
1774789956670854000,8.13485400390625,0.18387030065059662,0.14172062277793884,0.21685700118541718
1774789956689378800,8.15337890625,0.1588248461484909,0.16126830875873566,0.08491020649671555
1774789956707904000,8.171904052734375,0.2162461280822754,0.143553227186203,0.039706211537122726
1774789956726429000,8.190428955078126,0.2571740746498108,0.2315177470445633,0.07024945318698883
1774789956744953900,8.208953857421875,0.27855435013771057,0.42394015192985535,0.11239911615848541
1774789956763479000,8.22747900390625,0.30054548382759094,0.6517927050590515,0.16798780858516693
1774789956782004000,8.24600390625,0.36285367608070374,0.657290518283844,0.13988803327083588
1774789956800529000,8.26452880859375,0.39828383922576904,0.1795942485332489,-0.043371398001909256
1774789956819053800,8.2830537109375,0.29993459582328796,-0.185092031955719,-0.3274235129356384
1774789956837579000,8.3015791015625,0.16187916696071625,0.000610864779446274,-0.4673115611076355
1774789956856104000,8.32010400390625,0.18753549456596375,0.40255987644195557,-0.2254091054201126
1774789956874628900,8.33862890625,0.43921178579330444,0.6835576891899109,0.21135921776294708
1774789956893153800,8.35715380859375,0.7244856357574463,0.7904590368270874,0.5045742988586426
1774789956911679000,8.375678955078126,0.8356630206108093,0.5332849621772766,0.4630354940891266
1774789956930204000,8.394203857421875,0.8026763200759888,0.11056652665138245,0.2767217457294464
1774789956948729000,8.41272900390625,0.6939423680305481,-0.12034036219120026,0.1130099818110466
1774789956967254000,8.43125390625,0.5919279456138611,-0.14294235408306122,0.009773836471140385
1774789956985779000,8.449779052734375,0.5870410799980164,-0.1026252806186676,-0.11117739230394363
1774789957004304100,8.46830419921875,0.6181951761245728,-0.07819069176912308,-0.24984370172023773
1774789957022829000,8.4868291015625,0.5564978122711182,-0.010384701192378998,-0.23945899307727814
1774789957041354200,8.505354248046874,0.3958403766155243,0.09040798991918564,-0.05803215503692627
1774789957059879200,8.523879150390625,0.2406807243824005,0.17287473380565643,0.1545487940311432
1774789957078404000,8.542404052734375,0.1288924664258957,0.18814635276794434,0.16859868168830872
1774789957096929000,8.560928955078126,0.10140355676412582,0.21746785938739777,0.0824667438864708
1774789957115454200,8.5794541015625,0.1282816082239151,0.205861434340477,0.01954767294228077
1774789957133979100,8.597979248046874,0.24312418699264526,0.15699224174022675,0.10934479534626007
1774789957152504300,8.61650439453125,0.2577849328517914,0.07574722915887833,0.15577052533626556
1774789957171029200,8.635029296875,0.16187916696071625,0.11911863088607788,0.08796452730894089
1774789957189554200,8.65355419921875,0.036651886999607086,0.1337793916463852,-0.007330377586185932
1774789957208079000,8.6720791015625,-0.07880155742168427,-0.029932374134659767,-0.08552107214927673
1774789957226604300,8.690604248046874,-0.143553227186203,-0.29565855860710144,-0.1692095398902893
1774789957245129200,8.709129150390625,-0.15699224174022675,-0.40255987644195557,-0.28588470816612244
1774789957263654400,8.727654296875,-0.15699224174022675,-0.27000224590301514,-0.3329212963581085
1774789957282179300,8.746179443359376,-0.19303326308727264,-0.0720820426940918,-0.2370155304670334
1774789957300704300,8.764704345703125,-0.2663370370864868,-0.0030543238390237093,-0.15577052533626556
1774789957319229400,8.7832294921875,-0.27916520833969116,0.007330377586185932,-0.185092031955719
1774789957337754400,8.80175439453125,-0.24312418699264526,-0.07757982611656189,-0.19730933010578156
1774789957356279600,8.820279541015625,-0.2767217457294464,-0.27366742491722107,-0.15027274191379547
1774789957374804500,8.838804443359376,-0.347582072019577,-0.21502439677715302,-0.006719512399286032
1774789957393329400,8.857329345703125,-0.39767298102378845,-0.12767073512077332,0.06230820715427399
1774789957411854600,8.8758544921875,-0.3860665261745453,-0.29504770040512085,-0.11178825795650482
1774789957430379500,8.894379638671875,-0.3970620930194855,-0.2981020212173462,-0.3298669755458832
1774789957448904400,8.912904541015624,-0.44959646463394165,-0.000610864779446274,-0.25411975383758545
1774789957467429600,8.9314296875,-0.42332929372787476,0.09285144507884979,0.06047561392188072
1774789957485954600,8.94995458984375,-0.24556763470172882,-0.08857539296150208,0.3964512348175049
1774789957504479700,8.968479736328124,-0.12950333952903748,-0.37690356373786926,0.472198486328125
1774789957523004700,8.987004638671875,-0.11545344442129135,-0.593149721622467,0.3249800503253937
1774789957541529600,9.005529541015624,-0.19364413619041443,-0.5699368119239807,0.16554436087608337
1774789957560054800,9.0240546875,-0.38667741417884827,-0.347582072019577,0.0824667438864708
1774789957578579700,9.042579833984375,-0.49052441120147705,-0.1233946830034256,0.06047561392188072
1774789957597104600,9.061104736328126,-0.44470956921577454,-0.07880155742168427,0.07086031138896942
1774789957615629800,9.0796298828125,-0.3750709891319275,-0.040317077189683914,0.08491020649671555
1774789957634154800,9.09815478515625,-0.3543015718460083,-0.45875945687294006,-0.06475166976451874
1774789957652680000,9.116679931640626,-0.4581485986709595,-0.5418370366096497,-0.1954767256975174
1774789957671204900,9.135204833984375,-0.5308414697647095,-0.41233372688293457,-0.22907429933547974
1774789957689730000,9.15372998046875,-0.45937031507492065,-0.15638138353824615,-0.2528980076313019
1774789957708255000,9.1722548828125,-0.1893680840730667,0.17226386070251465,-0.11484257876873016
1774789957726780200,9.1907802734375,0.08124501258134842,0.3640754222869873,0.2107483446598053
1774789957745305000,9.20930517578125,0.1484401375055313,0.2669478952884674,0.45998117327690125
1774789957763830000,9.227830078125,0.08124501258134842,0.08429934084415436,0.5381718873977661
1774789957782355200,9.246355224609376,-0.07513637095689774,0.05925388261675835,0.37629270553588867
1774789957800880000,9.264880126953125,-0.1649334877729416,0.07513637095689774,0.17165300250053406
1774789957819405000,9.283405029296874,-0.1081230640411377,0.22846342623233795,0.05070177838206291
1774789957837930200,9.30193017578125,-0.059864748269319534,0.43860089778900146,0.053145237267017365
1774789957856455200,9.320455078125,-0.026878049597144127,0.3707949221134186,0.027488915249705315
1774789957874980400,9.33898046875,0.08368847519159317,0.20769402384757996,0.03481929376721382
1774789957893505300,9.35750537109375,0.2809978127479553,0.040317077189683914,0.07086031138896942
1774789957912030500,9.376030517578124,0.3298669755458832,0.043371398001909256,0.024434590712189674
1774789957930555400,9.394555419921875,0.29626941680908203,0.185092031955719,-0.04886918142437935
1774789957949080600,9.41308056640625,0.3426951467990875,0.4043924808502197,0.02626718580722809
1774789957967605500,9.43160546875,0.4056142270565033,0.7751874327659607,0.2761108875274658
1774789957986130700,9.450130615234375,0.4257727563381195,0.9584468603134155,0.3854556679725647
1774789958004655600,9.468655517578124,0.24740023910999298,0.5198459029197693,0.19669845700263977
1774789958023180800,9.487180908203126,0.19853104650974274,-0.23884813487529755,-0.14538581669330597
1774789958041705700,9.505705810546875,0.25350889563560486,-0.4764745235443115,-0.31520622968673706
1774789958060231000,9.52423095703125,0.24251331388950348,0.2577849328517914,0.04153880476951599
1774789958078755800,9.542755859375,0.1802051067352295,0.9590576887130737,0.5613847374916077
1774789958097280800,9.56128076171875,0.2730565667152405,0.8503237962722778,0.7507528066635132
1774789958115806000,9.579805908203125,0.45998117327690125,0.16615521907806396,0.5320632457733154
1774789958134331000,9.598330810546875,0.6212494969367981,-0.277332603931427,0.21930044889450073
1774789958152856000,9.61685595703125,0.544891357421875,-0.2260199636220932,-0.0030543238390237093
1774789958171381000,9.635381103515625,0.4105011224746704,0.1026252806186676,-0.07574722915887833
1774789958189906200,9.65390625,0.4355465769767761,0.19669845700263977,-0.07024945318698883
1774789958208431000,9.67243115234375,0.5400044918060303,0.07269290834665298,-0.006108647678047419
1774789958226956300,9.690956298828125,0.5137372612953186,0.04459312930703163,0.20891575515270233
1774789958245481200,9.709481201171876,0.32620179653167725,0.07757982611656189,0.401949018239975
1774789958264006400,9.72800634765625,0.18264856934547424,0.14233149588108063,0.4379900395870209
1774789958282531300,9.74653125,0.1185077652335167,0.21868959069252014,0.32681265473365784
1774789958301056500,9.765056396484376,0.12522727251052856,0.13683371245861053,0.20158538222312927
1774789958319581400,9.78358154296875,0.20463970303535461,-0.06047561392188072,0.1795942485332489
1774789958338106600,9.802106689453124,0.2510654330253601,-0.23396120965480804,0.26878049969673157
1774789958356631600,9.820631591796875,0.2052505612373352,-0.18081597983837128,0.38667741417884827
1774789958375156700,9.83915673828125,0.056199558079242706,-0.06902772188186646,0.3347539007663727
1774789958393681700,9.857681640625,-0.14660754799842834,0.01282816007733345,0.0922405794262886
1774789958412206800,9.876206787109375,-0.19669845700263977,0.05742128938436508,-0.14477495849132538
1774789958430731800,9.894731689453126,-0.1893680840730667,0.05070177838206291,-0.2467893660068512
1774789958449257200,9.91325732421875,-0.235793799161911,0.040317077189683914,-0.2406807243824005
1774789958467782400,9.931782470703125,-0.20952661335468292,0.007330377586185932,-0.235793799161911
1774789958486307300,9.950307373046876,-0.17104214429855347,-0.003665188793092966,-0.21746785938739777
1774789958504832500,9.96883251953125,-0.20402882993221283,-0.0256563201546669,-0.15149445831775665
1774789958523357400,9.987357421875,-0.24801109731197357,-0.07147117704153061,-0.10751219838857651
1774789958541882600,10.005882568359375,-0.1948658674955368,-0.08368847519159317,-0.08307760953903198
1774789958560407600,10.024407470703125,-0.014049889519810677,-0.1380554437637329,-0.031154103577136993
1774789958578932700,10.0429326171875,0.19181154668331146,-0.1545487940311432,0.053145237267017365
1774789958597457700,10.061457763671875,0.2608392536640167,0.04153880476951599,0.19792018830776215
1774789958615982800,10.07998291015625,0.0977383628487587,0.1380554437637329,0.30115634202957153
1774789958634508000,10.098508056640625,-0.16126830875873566,-0.3042106628417969,0.10629047453403473
1774789958653033000,10.117032958984375,-0.2528980076313019,-0.5821541547775269,-0.23396120965480804
1774789958671558100,10.13555810546875,-0.18753549456596375,-0.2809978127479553,-0.2419024556875229
1774789958690083000,10.1540830078125,-0.08002328872680664,0.24984370172023773,0.14477495849132538
1774789958708608300,10.172608154296874,0.006719512399286032,0.389120876789093,0.5968148708343506
1774789958727133200,10.19113330078125,0.020158538594841957,0.11484257876873016,0.7147117853164673
1774789958745658400,10.209658447265625,-0.1380554437637329,-0.3176496922969818,0.43371400237083435
1774789958764183600,10.22818359375,-0.33169957995414734,-0.5681042671203613,-0.04276053607463837
1774789958782708500,10.24670849609375,-0.4159989058971405,-0.5668824911117554,-0.4105011224746704
1774789958801233700,10.265233642578124,-0.36651885509490967,-0.3836230933666229,-0.4520399272441864
1774789958819758600,10.283758544921875,-0.2883281707763672,-0.09712749719619751,-0.2932150959968567
1774789958838283800,10.30228369140625,-0.2663370370864868,0.09590577334165573,-0.12950333952903748
1774789958856809000,10.32080908203125,-0.23945899307727814,0.22663083672523499,-0.030543239787220955
1774789958875334000,10.339333984375,-0.20463970303535461,0.27366742491722107,-0.015271619893610477
1774789958893859000,10.357859130859374,-0.12705987691879272,0.21930044889450073,-0.023212861269712448
1774789958912384000,10.376384033203125,-0.000610864779446274,0.06902772188186646,-0.04153880476951599
1774789958930909200,10.3949091796875,0.10323614627122879,0.0030543238390237093,-0.056199558079242706
1774789958949434400,10.413434326171876,0.1337793916463852,0.026878049597144127,-0.06963858753442764
1774789958967959300,10.431959228515625,0.14110976457595825,0.039706211537122726,-0.027488915249705315
1774789958986484500,10.450484375,0.09040798991918564,0.006108647678047419,0.04581485688686371
1774789959005009400,10.469009521484375,-0.004276053514331579,-0.043982263654470444,0.05497783049941063
1774789959023534600,10.48753466796875,-0.03176496922969818,-0.037262752652168274,-0.02260199747979641
1774789959042059800,10.506059814453126,0.006108647678047419,0.10629047453403473,-0.08674279600381851
1774789959060585000,10.5245849609375,0.07269290834665298,0.24801109731197357,-0.039706211537122726
1774789959079110000,10.54310986328125,0.11606431007385254,0.1948658674955368,0.047036588191986084
1774789959097635000,10.561635009765626,0.12767073512077332,0.12034036219120026,0.10629047453403473
1774789959116160000,10.580159912109375,0.0818558782339096,0.11178825795650482,0.05497783049941063
1774789959134685200,10.598685302734374,0.11606431007385254,0.08857539296150208,-0.02260199747979641
1774789959153210400,10.61721044921875,0.2419024556875229,0.08979712426662445,-0.007941242307424545
1774789959171735600,10.635735595703125,0.3543015718460083,0.3433060050010681,0.1185077652335167
1774789959190260500,10.654260498046876,0.3597993552684784,0.8894191384315491,0.3029889166355133
1774789959208785700,10.67278564453125,0.2003636509180069,1.202792763710022,0.31581708788871765
1774789959227310600,10.691310546875,-0.10751219838857651,0.4679224193096161,-0.007330377586185932
1774789959245835800,10.709835693359375,-0.046425722539424896,-0.7275399565696716,-0.7379246354103088
1774789959264361000,10.72836083984375,0.20463970303535461,-0.896138608455658,-1.1514800786972046
1774789959282886000,10.746885986328126,0.44837474822998047,0.30482152104377747,-0.6688969135284424
1774789959301411000,10.7654111328125,0.6273581385612488,1.3274091482162476,0.24923282861709595
1774789959319936300,10.783936279296874,0.7611374855041504,1.1771364212036133,0.8912517428398132
1774789959338461400,10.80246142578125,0.8045089244842529,0.2974911332130432,0.9315688014030457
1774789959356986600,10.820986572265625,0.7806851863861084,-0.38667741417884827,0.5473348498344421
1774789959375511600,10.839511474609376,0.7788525819778442,-0.4825831651687622,0.14721840620040894
1774789959394036700,10.85803662109375,0.7470875978469849,-0.2107483446598053,-0.05070177838206291
1774789959412561700,10.876561767578124,0.6713404059410095,0.11423171311616898,-0.0818558782339096
1774789959431086800,10.8950869140625,0.4874700903892517,0.24923282861709595,-0.06841685622930527
1774789959449612000,10.913612060546875,0.2993237376213074,0.21930044889450073,-0.01588248461484909
1774789959468137200,10.93213720703125,0.1386663019657135,0.11056652665138245,0.023823726922273636
1774789959486662100,10.950662109375,-0.026878049597144127,0.09590577334165573,0.06780599057674408
1774789959505187300,10.969187255859374,-0.1795942485332489,0.04764745384454727,0.06047561392188072
1774789959523712500,10.98771240234375,-0.20830489695072174,-0.03787361457943916,-0.023212861269712448
1774789959542237400,11.006237548828125,-0.1441640853881836,-0.12522727251052856,-0.1130099818110466
1774789959560762600,11.0247626953125,-0.10690133273601532,-0.1747073233127594,-0.1588248461484909
1774789959579287800,11.043287841796875,-0.16615521907806396,-0.1588248461484909,-0.13561198115348816
1774789959597813000,11.06181298828125,-0.32070401310920715,-0.15577052533626556,-0.07941242307424545
1774789959616338200,11.080338134765626,-0.46608981490135193,-0.2419024556875229,-0.08491020649671555
1774789959634863000,11.098863037109375,-0.5143481492996216,-0.3646862804889679,-0.1233946830034256
1774789959653388300,11.11738818359375,-0.5290089249610901,-0.4373791813850403,-0.15210533142089844
1774789959671913500,11.13591357421875,-0.5314523577690125,-0.4477638900279999,-0.24251331388950348
1774789959690438700,11.154438720703125,-0.4874700903892517,-0.41783151030540466,-0.33169957995414734
1774789959708963600,11.172963623046876,-0.4361574649810791,-0.41905322670936584,-0.2993237376213074
1774789959727488800,11.19148876953125,-0.4196641147136688,-0.5687150955200195,-0.18570289015769958
1774789959746014000,11.210013916015624,-0.42821621894836426,-0.7098248600959778,-0.10140355676412582
1774789959764539100,11.2285390625,-0.3811796307563782,-0.6206386089324951,-0.024434590712189674
1774789959783064300,11.247064208984375,-0.3689623177051544,-0.25900667905807495,0.04886918142437935
1774789959801589200,11.26558935546875,-0.5021308660507202,-0.14294235408306122,-0.09162971377372742
1774789959820114400,11.284114501953125,-0.6640099883079529,-0.4789179861545563,-0.3756818473339081
1774789959838639600,11.3026396484375,-0.7250964641571045,-0.5485565662384033,-0.5076286196708679
1774789959857164800,11.321164794921875,-0.7391464114189148,-0.2889390289783478,-0.28405213356018066
1774789959875689700,11.339689697265625,-0.6688969135284424,-0.015271619893610477,0.19303326308727264
1774789959894215000,11.35821484375,-0.5632173418998718,0.11728604137897491,0.5955931544303894
1774789959912740000,11.376739990234375,-0.5112938284873962,-0.10873392969369888,0.5797106623649597
1774789959931265300,11.395265380859374,-0.49113526940345764,-0.48075059056282043,0.24312418699264526
1774789959949790500,11.41379052734375,-0.5332849621772766,-0.627968966960907,-0.1539379209280014
1774789959968315600,11.432315673828125,-0.5821541547775269,-0.5681042671203613,-0.37323838472366333
1774789959986840600,11.450840576171874,-0.5748237371444702,-0.4050033390522003,-0.35185810923576355
1774789960005365800,11.46936572265625,-0.5613847374916077,-0.26878049969673157,-0.21135921776294708
1774789960023891000,11.487890869140625,-0.5332849621772766,-0.12278381735086441,-0.009162971749901772
1774789960042416000,11.506416015625,-0.4734202027320862,-0.024434590712189674,0.12278381735086441
1774789960060941300,11.52494140625,-0.3549124300479889,0.02626718580722809,0.1539379209280014
1774789960079466500,11.543466552734374,-0.24984370172023773,0.04825831577181816,0.16737695038318634
1774789960097991400,11.561991455078125,-0.16676609218120575,-0.003665188793092966,0.21807873249053955
1774789960116516600,11.5805166015625,-0.06902772188186646,-0.043982263654470444,0.27427828311920166
1774789960135041800,11.599041748046876,-0.017715077847242355,-0.08613193035125732,0.268169641494751
1774789960153567000,11.61756689453125,-0.05436696484684944,-0.07880155742168427,0.18631376326084137
1774789960172092200,11.636092041015624,-0.1185077652335167,-0.043371398001909256,0.05253437161445618
1774789960190617300,11.654617431640625,-0.16249002516269684,0.033597562462091446,-0.06719512492418289
1774789960209142500,11.673142578125,-0.21380266547203064,0.11423171311616898,-0.1026252806186676
1774789960227667500,11.69166748046875,-0.2162461280822754,0.09468404203653336,-0.0665842592716217
1774789960246192600,11.710192626953125,-0.11484257876873016,0.017104214057326317,-0.004886918235570192
1774789960264717800,11.7287177734375,-0.039706211537122726,0.04764745384454727,0.020769402384757996
1774789960283243000,11.747242919921876,0.056810423731803894,0.17653992772102356,0.0769689604640007
1774789960301768200,11.765768310546875,0.12644900381565094,0.21746785938739777,0.12583814561367035
1774789960320293400,11.78429345703125,0.1539379209280014,0.2657261788845062,0.13133592903614044
1774789960338818600,11.802818603515625,0.1484401375055313,0.2632827162742615,0.07330377399921417
1774789960357343700,11.82134375,0.1948658674955368,0.22418737411499023,0.06719512492418289
1774789960375868700,11.83986865234375,0.3426951467990875,0.33597561717033386,0.22785256803035736
1774789960394394000,11.85839404296875,0.5204567909240723,0.637742817401886,0.3958403766155243
1774789960412919000,11.8769189453125,0.6707295179367065,0.7018836140632629,0.4630354940891266
1774789960431444200,11.8954443359375,0.7635809779167175,0.0054977829568088055,0.3897317349910736
1774789960449969400,11.913969482421875,0.739757239818573,-0.6805033683776855,0.30543237924575806
1774789960468494600,11.93249462890625,0.5216785073280334,-0.49968740344047546,0.33231043815612793
1774789960487019800,11.951019775390625,0.3591884970664978,0.39217519760131836,0.4831940531730652
1774789960505545000,11.969544921875,0.5497782826423645,0.9639446139335632,0.6298015713691711
1774789960524070100,11.988070068359375,0.9645555019378662,0.8888082504272461,0.6365211009979248
1774789960542595300,12.00659521484375,1.109330415725708,0.472198486328125,0.4612029194831848
1774789960561120500,12.02512060546875,0.9211840629577637,0.28038692474365234,0.3225366175174713
1774789960579645400,12.0436455078125,0.5424479246139526,0.35796675086021423,0.24495677649974823
1774789960598171000,12.0621708984375,0.21868959069252014,0.4789179861545563,0.15027274191379547
1774789960616696000,12.080696044921876,0.03909534588456154,0.5369501113891602,0.039706211537122726
1774789960635221000,12.099220947265625,-0.07147117704153061,0.56382817029953,-0.001221729558892548
1774789960653746200,12.11774609375,-0.10873392969369888,0.4416552484035492,0.040317077189683914
1774789960672271600,12.136271728515625,-0.007941242307424545,0.2565632164478302,0.09529490768909454
1774789960690796500,12.154796630859375,0.16187916696071625,0.16310089826583862,0.10873392969369888
1774789960709321700,12.17332177734375,0.21502439677715302,0.12217295914888382,0.09590577334165573
1774789960727847000,12.191846923828125,0.15088360011577606,0.0873536616563797,0.05803215503692627
1774789960746372000,12.2103720703125,0.08552107214927673,0.011606430634856224,-0.010384701192378998
1774789960764897300,12.228897216796875,0.10201441496610641,-0.04276053607463837,-0.08124501258134842
1774789960783422500,12.24742236328125,0.12950333952903748,-0.10934479534626007,-0.17043127119541168
1774789960801947600,12.26594775390625,0.12705987691879272,-0.2003636509180069,-0.19730933010578156
1774789960820472800,12.284472900390625,0.0409279391169548,-0.2663370370864868,-0.1954767256975174
1774789960838998000,12.302998046875,-0.10201441496610641,-0.20402882993221283,-0.1698204129934311
1774789960857523200,12.321523193359376,-0.258395791053772,-0.08307760953903198,-0.13439024984836578
1774789960876048400,12.34004833984375,-0.3390299379825592,-0.13988803327083588,-0.13744457066059113
1774789960894573600,12.358573486328124,-0.3292561173439026,-0.2864955961704254,-0.19608759880065918
1774789960913098800,12.3770986328125,-0.2938259541988373,-0.4007273018360138,-0.2993237376213074
1774789960931624000,12.3956240234375,-0.32681265473365784,-0.4043924808502197,-0.33719736337661743
1774789960950149000,12.414149169921876,-0.3194822669029236,-0.2932150959968567,-0.18753549456596375
1774789960968674300,12.43267431640625,-0.2706131041049957,-0.24434591829776764,0.0054977829568088055
1774789960987199500,12.451199462890624,-0.2101374864578247,-0.18631376326084137,0.19669845700263977
1774789961005724700,12.469724609375,-0.06780599057674408,-0.1026252806186676,0.41783151030540466
1774789961024249900,12.488249755859375,0.08857539296150208,-0.08857539296150208,0.5418370366096497
1774789961042775000,12.506775146484374,0.046425722539424896,-0.5210676789283752,0.3029889166355133
1774789961061300200,12.52530029296875,-0.21502439677715302,-0.8759800791740417,-0.15515965223312378
1774789961079825400,12.543825439453125,-0.5229002237319946,-0.6304124593734741,-0.4508182108402252
1774789961098350600,12.5623505859375,-0.6047561168670654,-0.17715078592300415,-0.42943793535232544
1774789961116875800,12.580875732421875,-0.4324922561645508,0.10079269111156464,-0.1844811588525772
1774789961135401000,12.59940087890625,-0.277332603931427,-0.05864302068948746,0.05192350596189499
1774789961153926100,12.617926025390625,-0.4013381600379944,-0.5626064538955688,0.06475166976451874
1774789961172451300,12.636451416015625,-0.7171552777290344,-0.8729257583618164,-0.10567960888147354
1774789961190976500,12.6549765625,-0.860708475112915,-0.7812960743904114,-0.2419024556875229
1774789961209501700,12.673501708984375,-0.7476984858512878,-0.45509424805641174,-0.22968515753746033
1774789961228027100,12.692027099609374,-0.4990765154361725,-0.1594357043504715,-0.09101885557174683
1774789961246552300,12.71055224609375,-0.2626718580722809,0.01282816007733345,0.1130099818110466
1774789961265077500,12.729077392578125,-0.22479823231697083,0.11423171311616898,0.2156352698802948
1774789961283602400,12.7476025390625,-0.31581708788871765,0.13683371245861053,0.20402882993221283
1774789961302127900,12.7661279296875,-0.4404335021972656,0.043371398001909256,0.07819069176912308
1774789961320653000,12.784653076171875,-0.4159989058971405,0.000610864779446274,-0.09834922850131989
1774789961339178200,12.80317822265625,-0.258395791053772,0.002443459117785096,-0.2156352698802948
1774789961357703400,12.821703369140625,-0.04886918142437935,-0.024434590712189674,-0.17531819641590118
1774789961376228600,12.840228515625,0.06536252796649933,-0.0769689604640007,-0.06597339361906052
1774789961394753800,12.85875390625,-0.03298669680953026,-0.06841685622930527,0.010995565913617611
1774789961413279000,12.877279052734375,-0.26450446248054504,-0.039706211537122726,-0.056810423731803894
1774789961431804200,12.89580419921875,-0.33597561717033386,-0.017104214057326317,-0.2419024556875229
1774789961450329300,12.914329345703125,-0.18814635276794434,0.05497783049941063,-0.3231474757194519
1774789961468854500,12.9328544921875,0.04520399495959282,0.185092031955719,-0.14172062277793884
1774789961487379700,12.951379638671876,0.21135921776294708,0.22785256803035736,0.14172062277793884
1774789961505905200,12.9699052734375,0.2706131041049957,0.2632827162742615,0.3298669755458832
1774789961524430300,12.988430419921874,0.2370155304670334,0.2510654330253601,0.32070401310920715
1774789961542955500,13.00695556640625,0.14049890637397766,0.23396120965480804,0.20402882993221283
1774789961561480700,13.025480712890625,0.04214967042207718,0.17592905461788177,0.07941242307424545
1774789961580006000,13.044005859375,0.03298669680953026,0.31459537148475647,0.11178825795650482
1774789961598531000,13.062531005859375,0.18081597983837128,0.7086031436920166,0.27000224590301514
1774789961617056300,13.08105615234375,0.27855435013771057,0.6169734001159668,0.18631376326084137
1774789961635581400,13.09958154296875,0.11667517572641373,-0.06963858753442764,-0.29565855860710144
1774789961654106600,13.118106689453125,-0.06230820715427399,-0.44409868121147156,-0.5870410799980164
1774789961672631800,13.1366318359375,-0.04886918142437935,-0.2309068888425827,-0.3494146466255188
1774789961691157200,13.1551572265625,0.13072505593299866,0.1954767256975174,0.04825831577181816
1774789961709682400,13.173682373046875,0.5595521330833435,0.4630354940891266,0.37751442193984985
1774789961728207600,13.19220751953125,0.8637627959251404,0.31581708788871765,0.4147771894931793
1774789961746732800,13.21073291015625,0.9749401807785034,-0.021991131827235222,0.258395791053772
1774789961765258000,13.229258056640624,0.8936951756477356,-0.19120067358016968,0.11606431007385254
1774789961783783200,13.247783203125,0.6310232877731323,-0.22907429933547974,0.05558869615197182
1774789961802308400,13.266308349609375,0.4251618981361389,-0.09712749719619751,0.13744457066059113
1774789961820833800,13.284833740234374,0.32131487131118774,0.1185077652335167,0.268169641494751
1774789961839359000,13.30335888671875,0.27855435013771057,0.2706131041049957,0.3029889166355133
1774789961857884200,13.32188427734375,0.22907429933547974,0.258395791053772,0.24801109731197357
1774789961876409300,13.340409423828126,0.09834922850131989,0.19303326308727264,0.143553227186203
1774789961894934500,13.3589345703125,-0.006719512399286032,0.1905898153781891,0.059864748269319534
1774789961913459700,13.377459716796874,0.004886918235570192,0.22174391150474548,0.004276053514331579
1774789961931985200,13.395985107421875,0.12095122784376144,0.2101374864578247,0.02932151034474373
1774789961950510300,13.41451025390625,0.20463970303535461,0.143553227186203,0.06597339361906052
1774789961969035500,13.433035400390626,0.21930044889450073,0.0818558782339096,0.059864748269319534
1774789961987560700,13.451560791015625,0.18753549456596375,0.0720820426940918,0.059864748269319534
1774789962006086000,13.4700859375,0.09468404203653336,-0.09346231073141098,0.003665188793092966
1774789962024611000,13.488611083984376,0.043371398001909256,-0.28405213356018066,-0.07330377399921417
1774789962043136500,13.507136474609375,-0.031154103577136993,-0.30970844626426697,-0.13439024984836578
1774789962061661700,13.52566162109375,-0.1740964651107788,-0.24495677649974823,-0.2254091054201126
1774789962080187000,13.544186767578125,-0.2834412455558777,-0.1539379209280014,-0.3066541254520416
1774789962098712000,13.562712158203125,-0.3042106628417969,-0.15577052533626556,-0.3335321843624115
1774789962117237200,13.5812373046875,-0.2559523284435272,-0.2614501118659973,-0.3298669755458832
1774789962135762400,13.599762451171875,-0.12583814561367035,-0.24923282861709595,-0.2260199636220932
1774789962154287900,13.618287841796874,-0.07819069176912308,-0.1130099818110466,-0.053756099194288254
1774789962172813000,13.63681298828125,0.001221729558892548,0.14233149588108063,0.16859868168830872
1774789962191338200,13.655338134765625,0.11117739230394363,0.43432486057281494,0.35124725103378296
1774789962209863400,13.673863525390624,0.11911863088607788,0.48930269479751587,0.3597993552684784
1774789962228388600,13.692388671875,-0.19120067358016968,-0.004276053514331579,-0.06047561392188072
1774789962246913800,13.710913818359375,-0.47097674012184143,-0.49602219462394714,-0.5925388336181641
1774789962265439000,13.72943896484375,-0.4465421438217163,-0.6041452884674072,-0.7232639193534851
1774789962283964400,13.74796435546875,-0.08674279600381851,-0.23945899307727814,-0.2718348205089569
1774789962302489600,13.766489501953124,0.35613417625427246,0.2419024556875229,0.3707949221134186
1774789962321014800,13.785014892578126,0.5082395076751709,0.33169957995414734,0.7000510096549988
1774789962339540000,13.8035400390625,0.3243691921234131,0.04214967042207718,0.6230821013450623
1774789962358065200,13.822065185546874,-0.10079269111156464,-0.39767298102378845,0.27977606654167175
1774789962376590300,13.84059033203125,-0.4147771894931793,-0.5027416944503784,0.053756099194288254
1774789962395115800,13.85911572265625,-0.536339282989502,-0.34086254239082336,0.013439024798572063
1774789962413641000,13.877640869140626,-0.5314523577690125,-0.08429934084415436,0.03909534588456154
1774789962432166100,13.896166259765625,-0.4618137776851654,0.05070177838206291,0.029932374134659767
1774789962450691300,13.91469140625,-0.48075059056282043,0.0360410213470459,-0.0769689604640007
1774789962469216800,13.933216796875,-0.5033525824546814,0.030543239787220955,-0.22235478460788727
1774789962487742000,13.951741943359375,-0.46975502371788025,0.024434590712189674,-0.27977606654167175
1774789962506267100,13.97026708984375,-0.40927940607070923,0.11484257876873016,-0.1795942485332489
1774789962524792300,13.988792236328125,-0.3347539007663727,0.17653992772102356,-0.04764745384454727
1774789962543317800,14.00731787109375,-0.17531819641590118,0.11178825795650482,0.0824667438864708
1774789962561843000,14.025843017578126,-0.02260199747979641,-0.12095122784376144,0.14599667489528656
1774789962580368100,14.0443681640625,0.05803215503692627,-0.25473061203956604,0.13561198115348816
1774789962598893300,14.062893310546874,0.003665188793092966,-0.17531819641590118,0.05192350596189499
1774789962617418500,14.08141845703125,-0.14110976457595825,0.10751219838857651,-0.05436696484684944
1774789962635943700,14.099943603515625,-0.24862197041511536,0.3543015718460083,-0.11178825795650482
1774789962654469000,14.11846923828125,-0.17348559200763702,0.43004879355430603,-0.09712749719619751
1774789962672994300,14.136994384765625,0.030543239787220955,0.35063639283180237,-0.001832594396546483
1774789962691519500,14.15551953125,0.1698204129934311,0.12034036219120026,0.02260199747979641
1774789962710044700,14.174044677734376,0.2309068888425827,-0.11423171311616898,0.001221729558892548
1774789962728570000,14.192570068359375,0.16676609218120575,-0.1740964651107788,-0.01893680728971958
1774789962747095300,14.21109521484375,0.05497783049941063,0.003665188793092966,-0.018325943499803543
1774789962765620500,14.229620361328125,0.06536252796649933,0.4404335021972656,0.05803215503692627
1774789962784145700,14.248145751953125,0.24312418699264526,0.8906408548355103,0.16676609218120575
1774789962802671000,14.266671142578126,0.401949018239975,0.9040798544883728,0.10629047453403473
1774789962821196300,14.2851962890625,0.328645259141922,-0.014049889519810677,-0.24556763470172882
1774789962839721500,14.303721435546874,0.06963858753442764,-0.8845322132110596,-0.47097674012184143
1774789962858246700,14.32224658203125,-0.22174391150474548,-0.6579013466835022,-0.16554436087608337
1774789962876771800,14.340771728515625,-0.3072649836540222,0.5094612240791321,0.4990765154361725
1774789962895297300,14.35929736328125,-0.10751219838857651,1.3072506189346313,0.8949168920516968
1774789962913822500,14.377822509765625,0.2816086709499359,1.1239912509918213,0.7550288438796997
1774789962932347600,14.39634765625,0.6780598759651184,0.26878049969673157,0.3970620930194855
1774789962950872800,14.414872802734376,0.8472694754600525,-0.4202749729156494,0.09285144507884979
1774789962969398300,14.433398193359375,0.7458658814430237,-0.5711585879325867,-0.026878049597144127
1774789962987923500,14.45192333984375,0.5229002237319946,-0.42882707715034485,-0.0409279391169548
1774789963006448600,14.47044873046875,0.3585776388645172,-0.23029601573944092,-0.009162971749901772
1774789963024973800,14.488973876953125,0.2761108875274658,-0.043371398001909256,0.053145237267017365
1774789963043499300,14.507499267578124,0.17348559200763702,0.17715078592300415,0.10995566099882126
1774789963062024400,14.5260244140625,0.01649334840476513,0.2938259541988373,0.0922405794262886
1774789963080549600,14.544549560546875,-0.0616973415017128,0.34636032581329346,0.09712749719619751
1774789963099074800,14.56307470703125,-0.0873536616563797,0.2009745091199875,0.09712749719619751
1774789963117600300,14.581600341796875,-0.026878049597144127,-0.05253437161445618,0.08063415437936783
1774789963136125400,14.60012548828125,0.0922405794262886,-0.1740964651107788,0.08552107214927673
1774789963154650600,14.618650634765626,0.10629047453403473,-0.11056652665138245,0.14049890637397766
1774789963173176000,14.637176025390625,-0.012217295356094837,-0.07024945318698883,0.08857539296150208
1774789963191701200,14.655701171875,-0.07757982611656189,-0.04276053607463837,-0.04153880476951599
1774789963210226400,14.674226318359375,-0.13683371245861053,0.006719512399286032,-0.19425499439239502
1774789963228751600,14.692751708984375,-0.18875721096992493,-0.09529490768909454,-0.3915643095970154
1774789963247276800,14.71127685546875,-0.14294235408306122,-0.1740964651107788,-0.5381718873977661
1774789963265802200,14.72980224609375,-0.0977383628487587,-0.19669845700263977,-0.5345066785812378
1774789963284327400,14.748327392578124,-0.10384701192378998,-0.2632827162742615,-0.3958403766155243
1774789963302852900,14.766852783203126,-0.06291907280683517,-0.3384190797805786,-0.18631376326084137
1774789963321378000,14.7853779296875,-0.0769689604640007,-0.37201663851737976,-0.0409279391169548
1774789963339903200,14.8039033203125,-0.12278381735086441,-0.2889390289783478,-0.026878049597144127
1774789963367691000,14.83169091796875,-0.11056652665138245,-0.2419024556875229,-0.14538581669330597
1774789963386216400,14.850216552734375,0.014660755172371864,-0.16798780858516693,-0.043371398001909256
1774789963404741600,14.86874169921875,-0.001221729558892548,-0.16798780858516693,0.11667517572641373
1774789963423266800,14.887266845703126,-0.14233149588108063,-0.4410443603992462,0.10506874322891235
1774789963441792000,14.9057919921875,-0.3659079968929291,-0.9126319885253906,-0.164322629570961
1774789963460317400,14.9243173828125,-0.5467239618301392,-1.0384701490402222,-0.4459312856197357
1774789963478842600,14.942842529296875,-0.6169734001159668,-0.5369501113891602,-0.4886918365955353
1774789963497368000,14.9613681640625,-0.43310311436653137,0.14538581669330597,-0.23029601573944092
1774789963515893200,14.979893310546874,-0.06536252796649933,0.38789913058280945,0.15088360011577606
1774789963534418400,14.99841845703125,0.17776164412498474,0.15821397304534912,0.4257727563381195
1774789963552943600,15.016943603515625,0.12767073512077332,-0.3750709891319275,0.43921178579330444
1774789963571468800,15.03546875,-0.164322629570961,-0.7354812026023865,0.21502439677715302
1774789963589994200,15.053994140625,-0.39767298102378845,-0.6798924803733826,-0.05070177838206291
1774789963608519400,15.07251953125,-0.46608981490135193,-0.3402516841888428,-0.2522871494293213
1774789963627044600,15.091044677734375,-0.42882707715034485,0.12767073512077332,-0.35735589265823364
1774789963645570000,15.109570068359375,-0.3787361681461334,0.36712974309921265,-0.3249800503253937
1774789963664095200,15.12809521484375,-0.3591884970664978,0.32009315490722656,-0.16126830875873566
1774789963682620700,15.14662060546875,-0.32009315490722656,0.09040798991918564,0.01588248461484909
1774789963701145900,15.165145751953125,-0.20280711352825165,-0.05864302068948746,0.09651663154363632
1774789963719671000,15.183671142578126,-0.10567960888147354,0.06047561392188072,0.05192350596189499
1774789963738196200,15.2021962890625,-0.03298669680953026,0.2822195291519165,0.03909534588456154
1774789963756721700,15.2207216796875,0.03543015569448471,0.3298669755458832,0.07086031138896942
1774789963775246800,15.239246826171875,0.07330377399921417,0.1795942485332489,0.0922405794262886
1774789963793772000,15.25777197265625,0.06108647957444191,-0.06108647957444191,0.06841685622930527
1774789963812297200,15.276297119140626,0.021380268037319183,-0.2205221801996231,-0.037262752652168274
1774789963830822700,15.29482275390625,-0.0409279391169548,-0.07024945318698883,-0.2009745091199875
1774789963849347800,15.313347900390625,-0.11606431007385254,0.2565632164478302,-0.42271843552589417
1774789963867873000,15.331873046875,-0.08796452730894089,0.5467239618301392,-0.5717694163322449
1774789963886398500,15.3503984375,0.043371398001909256,0.5009090900421143,-0.5021308660507202
1774789963904923600,15.368923583984374,0.17776164412498474,0.2614501118659973,-0.23762640357017517
1774789963923449000,15.387448974609375,0.25045454502105713,0.002443459117785096,0.09162971377372742
1774789963941974300,15.405974365234375,0.2657261788845062,-0.1331685185432434,0.3225366175174713
1774789963960499500,15.42449951171875,0.28588470816612244,-0.01649334840476513,0.4263836145401001
1774789963979024600,15.443024658203125,0.2968802750110626,0.4477638900279999,0.5015199780464172
1774789963997550000,15.461550048828125,0.287106454372406,0.9004147052764893,0.46059203147888184
1774789964016075300,15.4800751953125,0.3640754222869873,0.8448259830474854,0.20647229254245758
1774789964034600400,15.498600341796875,0.30115634202957153,-0.17715078592300415,-0.29077163338661194
1774789964053126000,15.5171259765625,0.12217295914888382,-1.000596523284912,-0.6114756464958191
1774789964071651000,15.535651123046875,-0.06352993845939636,-0.7440332770347595,-0.42332929372787476
1774789964090176500,15.554176513671875,-0.046425722539424896,0.3243691921234131,0.10690133273601532
1774789964108701700,15.57270166015625,0.2467893660068512,1.0458004474639893,0.4367683231830597
1774789964127227000,15.591226806640625,0.647516667842865,1.0757328271865845,0.4050033390522003
1774789964145752300,15.60975244140625,0.851545512676239,0.5430588126182556,0.18692462146282196
1774789964164277500,15.628277587890626,0.7470875978469849,-0.0720820426940918,0.049480047076940536
1774789964182802700,15.646802734375,0.5192350745201111,-0.4630354940891266,0.13744457066059113
1774789964201328000,15.665328125,0.3231474757194519,-0.5406153202056885,0.26878049969673157
1774789964219853300,15.683853271484375,0.15699224174022675,-0.2919933497905731,0.3341430425643921
1774789964238378500,15.70237841796875,0.0409279391169548,0.08002328872680664,0.3078758418560028
1774789964256903700,15.720903564453126,-0.07513637095689774,0.3848448097705841,0.11484257876873016
1774789964275429000,15.73942919921875,-0.08796452730894089,0.4734202027320862,-0.07880155742168427
1774789964293954300,15.757954345703125,-0.08002328872680664,0.3756818473339081,-0.17531819641590118
1774789964312479700,15.776479736328126,-0.04520399495959282,0.22907429933547974,-0.1282816082239151
1774789964331005000,15.7950048828125,0.023212861269712448,0.05070177838206291,0.010384701192378998
1774789964349530400,15.8135302734375,0.036651886999607086,-0.1490510106086731,0.1282816082239151
1774789964368055600,15.8320556640625,-0.021991131827235222,-0.3494146466255188,0.12095122784376144
1774789964386580700,15.850580810546875,-0.05803215503692627,-0.35246896743774414,0.010995565913617611
1774789964405106200,15.869106201171874,-0.08002328872680664,-0.21746785938739777,-0.1588248461484909
1774789964423631400,15.88763134765625,-0.12217295914888382,-0.13561198115348816,-0.3488037884235382
1774789964442156500,15.906156494140625,-0.12278381735086441,-0.13439024984836578,-0.4685332775115967
1774789964460682000,15.924681884765626,-0.11728604137897491,-0.15088360011577606,-0.4825831651687622
1774789964479207200,15.943207275390625,-0.10995566099882126,-0.21380266547203064,-0.4098902642726898
1774789964497732400,15.961732421875,-0.059864748269319534,-0.22724169492721558,-0.3329212963581085
1774789964516257800,15.9802578125,-0.040317077189683914,-0.12950333952903748,-0.19364413619041443
1774789964534783000,15.998782958984375,-0.05436696484684944,-0.036651886999607086,0.014660755172371864
1774789964553308200,16.01730810546875,-0.001832594396546483,-0.10567960888147354,0.14660754799842834
1774789964571833600,16.03583349609375,0.12950333952903748,-0.23396120965480804,0.2364046722650528
1774789964590358800,16.05435888671875,0.2461785078048706,-0.18631376326084137,0.33719736337661743
1774789964608884200,16.07288427734375,0.23029601573944092,-0.01954767294228077,0.4043924808502197
1774789964627409400,16.091409423828125,0.04825831577181816,-0.10995566099882126,0.30482152104377747
1774789964645934800,16.109934814453126,-0.3170388340950012,-0.6310232877731323,-0.028099779039621353
1774789964664460000,16.1284599609375,-0.6133082509040833,-1.0598503351211548,-0.2919933497905731
1774789964692247800,16.156247802734374,-0.685390293598175,-0.4373791813850403,-0.0256563201546669
1774789964710773200,16.174773193359375,-0.4269944727420807,0.25900667905807495,0.32559093832969666
1774789964729298400,16.19329833984375,-0.06963858753442764,0.3860665261745453,0.5345066785812378
1774789964747823900,16.211823974609374,0.04581485688686371,-0.02626718580722809,0.5351175665855408
1774789964766349000,16.23034912109375,-0.2467893660068512,-0.5607738494873047,0.287106454372406
1774789964784874200,16.248874267578124,-0.6365211009979248,-0.842382550239563,-0.12705987691879272
1774789964803399700,16.267399658203125,-0.7660244107246399,-0.7128791809082031,-0.47036588191986084
1774789964821924900,16.2859248046875,-0.6798924803733826,-0.37323838472366333,-0.6096430420875549
1774789964840450000,16.304449951171875,-0.40866854786872864,-0.027488915249705315,-0.5033525824546814
1774789964858975500,16.3229755859375,-0.23029601573944092,0.19792018830776215,-0.287106454372406
1774789964877500700,16.341500732421874,-0.20219624042510986,0.25350889563560486,-0.07086031138896942
1774789964896026000,16.360026123046875,-0.21746785938739777,0.3042106628417969,0.10629047453403473
1774789964914551300,16.37855126953125,-0.1905898153781891,0.318871408700943,0.2101374864578247
1774789964933076500,16.397076416015626,-0.05803215503692627,0.29016077518463135,0.2889390289783478
1774789964951602000,16.415601806640623,0.05253437161445618,0.08918625861406326,0.31031930446624756
1774789964970127000,16.434127197265624,0.07024945318698883,-0.19730933010578156,0.18387030065059662
1774789964988652500,16.452652587890626,-0.014049889519810677,-0.2406807243824005,-0.0513126403093338
1774789965007177700,16.471177734375,-0.19608759880065918,-0.13255766034126282,-0.25473061203956604
1774789965025703200,16.489703125,-0.38240134716033936,-0.01588248461484909,-0.3451386094093323
1774789965044228400,16.508228271484374,-0.4257727563381195,0.02932151034474373,-0.3842339515686035
1774789965062753800,16.52675390625,-0.3439168632030487,-0.07024945318698883,-0.37140578031539917
1774789965081279000,16.545279052734376,-0.24312418699264526,-0.08002328872680664,-0.29993459582328796
1774789965099804200,16.56380419921875,-0.14599667489528656,-0.017715077847242355,-0.1954767256975174
1774789965118329600,16.58232958984375,-0.0360410213470459,0.046425722539424896,-0.01588248461484909
1774789965136854800,16.600854736328124,0.06230820715427399,0.07391463965177536,0.17898337543010712
1774789965155380200,16.619380126953125,0.1899789422750473,0.1905898153781891,0.3481929302215576
1774789965173905400,16.637905517578126,0.2889390289783478,0.5338957905769348,0.4526508152484894
1774789965192430600,16.6564306640625,0.24556763470172882,0.9260709881782532,0.3585776388645172
1774789965210956000,16.6749560546875,0.06047561392188072,0.5968148708343506,-0.06536252796649933
1774789965229481200,16.693481201171874,-0.11606431007385254,-0.34147340059280396,-0.6615665555000305
1774789965248006700,16.712006591796875,-0.0360410213470459,-0.6841685771942139,-0.7672461867332458
1774789965266531800,16.73053173828125,0.1747073233127594,0.09162971377372742,-0.1795942485332489
1774789965285057000,16.74905712890625,0.4324922561645508,1.1038326025009155,0.5595521330833435
1774789965303582500,16.76758251953125,0.6774490475654602,1.3848304748535156,0.850934624671936
1774789965322107600,16.786107666015624,0.8833104968070984,0.758083164691925,0.6126973628997803
1774789965340633000,16.804633056640625,0.9645555019378662,-0.2864955961704254,0.20219624042510986
1774789965359158300,16.823158203125,0.7935133576393127,-1.0036507844924927,-0.001221729558892548
1774789965377683700,16.84168359375,0.4563159942626953,-1.247385859489441,-0.033597562462091446
1774789965396209000,16.860208984375,0.16859868168830872,-0.8350521326065063,0.020769402384757996
1774789965414734300,16.878734375,0.012217295356094837,-0.09957095980644226,0.1185077652335167
1774789965433259500,16.897259521484376,-0.033597562462091446,0.47097674012184143,0.1948658674955368
1774789965451784700,16.91578466796875,-0.03176496922969818,0.7922916412353516,0.27000224590301514
1774789965470310100,16.93431005859375,-0.10201441496610641,0.6725621223449707,0.30054548382759094
1774789965488835600,16.952835693359376,-0.13133592903614044,0.3133736252784729,0.24923282861709595
1774789965507360800,16.97136083984375,0.009162971749901772,0.10629047453403473,0.21258094906806946
1774789965525886000,16.989885986328126,0.12522727251052856,0.11606431007385254,0.22724169492721558
1774789965544411400,17.008411376953124,0.10384701192378998,0.08613193035125732,0.14049890637397766
1774789965562936800,17.026936767578125,0.10384701192378998,0.01588248461484909,0.001221729558892548
1774789965581462000,17.0454619140625,0.16126830875873566,-0.053756099194288254,-0.11545344442129135
1774789965599987500,17.063987548828123,0.1802051067352295,-0.11178825795650482,-0.2260199636220932
1774789965618512600,17.0825126953125,0.1740964651107788,-0.13072505593299866,-0.3225366175174713
1774789965637037800,17.101037841796874,0.08918625861406326,-0.19792018830776215,-0.4043924808502197
1774789965655563300,17.119563232421875,-0.03237583488225937,-0.28527384996414185,-0.45998117327690125
1774789965674088400,17.13808837890625,-0.09468404203653336,-0.32559093832969666,-0.4263836145401001
1774789965692614000,17.15661376953125,-0.050090912729501724,-0.27488914132118225,-0.2657261788845062
1774789965711139000,17.17513916015625,-0.0054977829568088055,-0.06047561392188072,-0.06230820715427399
1774789965729664500,17.19366455078125,0.006108647678047419,0.12217295914888382,0.05436696484684944
1774789965748189700,17.212189697265625,-0.001832594396546483,0.09162971377372742,0.03848448023200035
1774789965766715100,17.230715087890626,0.05070177838206291,0.05925388261675835,0.04214967042207718
1774789965785240300,17.249240234375,0.12705987691879272,0.043982263654470444,0.09651663154363632
1774789965803765800,17.267765869140625,0.023212861269712448,-0.25411975383758545,-0.034208428114652634
1774789965822291000,17.286291015625,-0.3133736252784729,-0.6646208763122559,-0.4526508152484894
1774789965840816400,17.30481640625,-0.5406153202056885,-0.9022472500801086,-0.7831286191940308
1774789965859341600,17.323341552734377,-0.4276053309440613,-0.6346884965896606,-0.720820426940918
1774789965877867000,17.341866943359374,-0.034208428114652634,0.01588248461484909,-0.22479823231697083
1774789965896392200,17.36039208984375,0.29626941680908203,0.42455101013183594,0.379347026348114
1774789965914917600,17.378917724609376,0.3555232882499695,0.411722868680954,0.6780598759651184
1774789965933442800,17.39744287109375,0.15821397304534912,0.009773836471140385,0.5705476999282837
1774789965951968300,17.41596826171875,-0.24006985127925873,-0.5283980369567871,0.24373504519462585
1774789965970493400,17.434493408203124,-0.6175842881202698,-0.7244856357574463,-0.08429934084415436
1774789965989019000,17.453018798828126,-0.750141978263855,-0.43493571877479553,-0.18081597983837128
1774789966007544000,17.4715439453125,-0.6707295179367065,0.001221729558892548,-0.0720820426940918
1774789966026069500,17.490069580078124,-0.5564978122711182,0.2467893660068512,0.050090912729501724
1774789966044594700,17.5085947265625,-0.46364638209342957,0.3127627670764923,0.11117739230394363
1774789966063120100,17.5271201171875,-0.3585776388645172,0.25900667905807495,0.11178825795650482
1774789966081645300,17.545645263671876,-0.2877173125743866,0.18203771114349365,0.06536252796649933
1774789966100170800,17.564170654296873,-0.21380266547203064,0.1026252806186676,0.010995565913617611
1774789966118696000,17.582696044921875,-0.09651663154363632,0.08491020649671555,-0.0409279391169548
1774789966137221400,17.601221435546876,0.0030543238390237093,0.06902772188186646,-0.07941242307424545
1774789966155746600,17.61974658203125,0.06291907280683517,0.013439024798572063,-0.036651886999607086
1774789966174272000,17.63827197265625,0.07269290834665298,-0.10323614627122879,0.04153880476951599
1774789966192797400,17.65679736328125,0.06963858753442764,-0.1539379209280014,0.0824667438864708
1774789966211322600,17.675322509765625,0.06719512492418289,-0.03848448023200035,0.04764745384454727
1774789966229848000,17.69384814453125,0.03787361457943916,0.11911863088607788,-0.01893680728971958
1774789966248373200,17.712373291015624,-0.002443459117785096,0.18203771114349365,-0.026878049597144127
1774789966266898700,17.730898681640625,-0.023823726922273636,0.143553227186203,0.020158538594841957
1774789966285423900,17.749423828125,0.01893680728971958,0.012217295356094837,0.04886918142437935
1774789966303949300,17.76794921875,0.08307760953903198,-0.04459312930703163,0.08796452730894089
1774789966322474500,17.786474609375,0.10690133273601532,0.010384701192378998,0.11667517572641373
1774789966341000000,17.805,0.11362084746360779,0.17165300250053406,0.10323614627122879
1774789966359525000,17.823525146484375,0.07147117704153061,0.4990765154361725,0.07513637095689774
1774789966378050600,17.842050537109376,0.07452550530433655,0.8765909671783447,0.06291907280683517
1774789966396576000,17.860575927734374,0.1795942485332489,1.0757328271865845,0.01282816007733345
1774789966415101200,17.87910107421875,0.2315177470445633,0.5131264328956604,-0.2565632164478302
1774789966433626600,17.897626708984376,0.2730565667152405,-0.5711585879325867,-0.6969966888427734
1774789966452151800,17.91615185546875,0.3909534513950348,-1.0965023040771484,-0.7855721116065979
1774789966470677200,17.93467724609375,0.5076286196708679,-0.3121519088745117,-0.18325942754745483
1774789966489202400,17.953202392578124,0.5784889459609985,1.0134246349334717,0.7354812026023865
1774789966507728000,17.971727783203125,0.6090322136878967,1.497840404510498,1.166751742362976
1774789966526253000,17.990253173828126,0.6982184648513794,1.0604612827301025,0.9816597104072571
1774789966544778500,18.008778564453124,0.7141009569168091,0.010995565913617611,0.48013970255851746
1774789966563303700,18.0273037109375,0.6963858604431152,-0.8197805285453796,0.10140355676412582
1774789966581829000,18.0458291015625,0.5992583632469177,-1.1270455121994019,0.003665188793092966
1774789966600354600,18.0643544921875,0.4196641147136688,-0.9608902931213379,0.1649334877729416
1774789966618879700,18.082879638671876,0.20769402384757996,-0.48502662777900696,0.3536907136440277
1774789966637405200,18.1014052734375,0.05192350596189499,0.07819069176912308,0.37812530994415283
1774789966655930400,18.119930419921875,-0.050090912729501724,0.40927940607070923,0.2309068888425827
1774789966674455800,18.138455810546876,-0.10384701192378998,0.4477638900279999,0.030543239787220955
1774789966692981200,18.156981201171874,-0.08979712426662445,0.29016077518463135,-0.050090912729501724
1774789966711506400,18.17550634765625,-0.08857539296150208,0.12705987691879272,0.021991131827235222
1774789966730031900,18.194031982421876,-0.08674279600381851,0.050090912729501724,0.1747073233127594
1774789966748557000,18.21255712890625,-0.11606431007385254,-0.002443459117785096,0.24373504519462585
1774789966767082500,18.23108251953125,-0.16737695038318634,-0.07391463965177536,0.17653992772102356
1774789966785608000,18.24960791015625,-0.23212862014770508,-0.20952661335468292,-0.03543015569448471
1774789966804133000,18.268133056640625,-0.2510654330253601,-0.19914191961288452,-0.26389357447624207
1774789966822658600,18.286658447265626,-0.2718348205089569,-0.07391463965177536,-0.49418962001800537
1774789966841184000,18.30518408203125,-0.27488914132118225,0.09834922850131989,-0.7189878225326538
1774789966859709200,18.323709228515625,-0.24556763470172882,0.22907429933547974,-0.8246674537658691
1774789966878234600,18.342234619140626,-0.21868959069252014,0.19364413619041443,-0.6884446144104004
1774789966896759800,18.360759765625,-0.17653992772102356,-0.03848448023200035,-0.43432486057281494
1774789966915285200,18.37928515625,-0.14233149588108063,-0.20830489695072174,-0.18631376326084137
1774789966933810700,18.397810791015626,-0.07330377399921417,-0.20830489695072174,-0.034208428114652634
1774789966952336000,18.4163359375,0.07330377399921417,-0.16126830875873566,0.01893680728971958
1774789966970861300,18.434861328125,0.25411975383758545,-0.15515965223312378,0.06780599057674408
1774789966989386500,18.453386474609374,0.3646862804889679,-0.04520399495959282,0.19425499439239502
1774789967007912000,18.471911865234375,0.3347539007663727,-0.10445787757635117,0.2565632164478302
1774789967026437000,18.49043701171875,0.13255766034126282,-0.8081740736961365,-0.02871064469218254
1774789967044962600,18.508962646484374,-0.12644900381565094,-1.4666863679885864,-0.4923570156097412
1774789967063488000,18.527488037109375,-0.3689623177051544,-1.2901464700698853,-0.6524035930633545
1774789967082013200,18.54601318359375,-0.5516108870506287,-0.3237583339214325,-0.3909534513950348
1774789967100538600,18.56453857421875,-0.47525280714035034,0.5320632457733154,0.053756099194288254
1774789967119064000,18.58306396484375,-0.20647229254245758,0.6792816519737244,0.379347026348114
1774789967137589200,18.60158935546875,-0.07819069176912308,0.12095122784376144,0.43004879355430603
1774789967156114700,18.62011474609375,-0.2577849328517914,-0.49113526940345764,0.2968802750110626
1774789967174640000,18.63864013671875,-0.4984656572341919,-0.5894845128059387,0.1533270627260208
1774789967193165300,18.657165283203124,-0.5876519083976746,-0.32559093832969666,0.05803215503692627
1774789967211690800,18.675690673828125,-0.5070177912712097,-0.02626718580722809,-0.004886918235570192
1774789967230216200,18.69421630859375,-0.3909534513950348,0.10567960888147354,-0.009773836471140385
1774789967248741400,18.712741455078124,-0.3549124300479889,0.10201441496610641,0.010995565913617611
1774789967267266800,18.731266845703125,-0.3176496922969818,0.053756099194288254,0.034208428114652634
1774789967285792000,18.7497919921875,-0.2883281707763672,0.0818558782339096,0.040317077189683914
1774789967304317400,18.7683173828125,-0.2706131041049957,0.18081597983837128,0.030543239787220955
1774789967322843000,18.7868427734375,-0.17104214429855347,0.1948658674955368,-0.039706211537122726
1774789967341368000,18.8053681640625,-0.028099779039621353,0.18814635276794434,-0.09651663154363632
1774789967359893500,18.8238935546875,0.020769402384757996,0.05436696484684944,-0.1496618688106537
1774789967378419000,18.8424189453125,0.0360410213470459,-0.04153880476951599,-0.1545487940311432
1774789967396944400,18.8609443359375,0.026878049597144127,-0.09468404203653336,-0.14049890637397766
1774789967415469600,18.879469482421875,0.03298669680953026,-0.014049889519810677,-0.09468404203653336
1774789967433995000,18.8979951171875,0.0873536616563797,0.1594357043504715,-0.0360410213470459
1774789967452520400,18.9165205078125,0.16859868168830872,0.20402882993221283,0.017715077847242355
1774789967471045600,18.935045654296875,0.20463970303535461,0.12156209349632263,-0.02932151034474373
1774789967489571000,18.953571044921876,0.2565632164478302,0.030543239787220955,-0.13744457066059113
1774789967508096500,18.972096435546874,0.2919933497905731,-0.03481929376721382,-0.15027274191379547
1774789967535884300,18.99988427734375,0.20463970303535461,0.05497783049941063,0.04886918142437935
1774789967554409700,19.01840966796875,0.14599667489528656,0.29565855860710144,0.13744457066059113
1774789967572935200,19.03693505859375,0.1545487940311432,0.5949822664260864,0.1380554437637329
1774789967591460600,19.055460693359375,0.21807873249053955,0.9853248596191406,0.12950333952903748
1774789967609985800,19.07398583984375,0.2663370370864868,0.952949047088623,-0.01588248461484909
1774789967628511200,19.09251123046875,0.1692095398902893,0.1386663019657135,-0.4013381600379944
1774789967647036700,19.11103662109375,0.08063415437936783,-0.6988292932510376,-0.6914989352226257
1774789967665562000,19.12956201171875,0.20708316564559937,-0.2987128794193268,-0.3481929302215576
1774789967684087300,19.14808740234375,0.4886918365955353,0.9217949509620667,0.48013970255851746
1774789967702612700,19.16661279296875,0.7177661061286926,1.618180751800537,1.1270455121994019
1774789967721138200,19.18513818359375,0.94439697265625,1.352454662322998,1.2712095975875854
1774789967739663400,19.203663330078125,1.0299180746078491,0.49052441120147705,0.9902117848396301
1774789967758188800,19.222188720703127,0.8869756460189819,-0.2364046722650528,0.5057960152626038
1774789967776714200,19.24071435546875,0.5589412450790405,-0.5235111117362976,0.002443459117785096
1774789967795239400,19.259239501953125,0.2779434621334076,-0.4789179861545563,-0.34147340059280396
1774789967813764900,19.277764892578126,0.23762640357017517,-0.1533270627260208,-0.38789913058280945
1774789967832290300,19.296290283203124,0.34086254239082336,0.2315177470445633,-0.22724169492721558
1774789967850815700,19.314815673828125,0.389120876789093,0.472198486328125,0.0360410213470459
1774789967869341200,19.333341064453126,0.28527384996414185,0.500298261642456,0.19303326308727264
1774789967887866400,19.351866455078124,0.15027274191379547,0.33597561717033386,0.20280711352825165
1774789967906391800,19.370391845703125,0.034208428114652634,0.11667517572641373,0.11423171311616898
1774789967924917200,19.388917236328126,0.034208428114652634,-0.056199558079242706,0.010384701192378998
1774789967943442400,19.4074423828125,0.1490510106086731,-0.07574722915887833,-0.034208428114652634
1774789967961967900,19.4259677734375,0.2205221801996231,0.03543015569448471,-0.020769402384757996
1774789967980493300,19.444493408203126,0.1637117564678192,0.11667517572641373,-0.020158538594841957
1774789967999018800,19.463018798828124,0.05253437161445618,0.13133592903614044,-0.06230820715427399
1774789968017544000,19.4815439453125,-0.07941242307424545,0.04764745384454727,-0.16310089826583862
1774789968036069400,19.5000693359375,-0.164322629570961,-0.10201441496610641,-0.29077163338661194
1774789968054594800,19.5185947265625,-0.14599667489528656,-0.19914191961288452,-0.4111120104789734
1774789968073120300,19.537120361328125,-0.13988803327083588,-0.27488914132118225,-0.5235111117362976
1774789968091645400,19.5556455078125,-0.12522727251052856,-0.33047783374786377,-0.573602020740509
1774789968110171000,19.5741708984375,-0.03176496922969818,-0.25473061203956604,-0.5198459029197693
1774789968128696300,19.5926962890625,0.018325943499803543,-0.13744457066059113,-0.42271843552589417
1774789968147221500,19.611221435546874,-0.14782927930355072,0.05436696484684944,-0.3139844834804535
1774789968165747000,19.629746826171875,-0.5106829404830933,0.1282816082239151,-0.2883281707763672
1774789968184272400,19.6482724609375,-0.6585122346878052,0.07757982611656189,-0.32681265473365784
1774789968202797800,19.6667978515625,-0.4874700903892517,0.1130099818110466,-0.38179048895835876
1774789968221323300,19.6853232421875,-0.2981020212173462,-0.1288924664258957,-0.472198486328125
1774789968239848700,19.7038486328125,-0.2809978127479553,-0.5430588126182556,-0.5925388336181641
1774789968258374000,19.722373779296873,-0.38667741417884827,-0.7696896195411682,-0.5937605500221252
1774789968276899300,19.7408994140625,-0.3909534513950348,-0.5247328281402588,-0.34208428859710693
1774789968295424500,19.759424560546876,-0.20830489695072174,0.05253437161445618,0.11911863088607788
1774789968313950000,19.777949951171873,0.05436696484684944,0.4575377106666565,0.5540543794631958
1774789968332475400,19.796475341796874,0.22724169492721558,0.35124725103378296,0.711046576499939
1774789968351000800,19.815000732421876,0.20708316564559937,-0.1795942485332489,0.4984656572341919
1774789968369526300,19.8335263671875,0.06414080411195755,-0.6145299673080444,0.1490510106086731
1774789968388051700,19.8520517578125,-0.18325942754745483,-0.6829468011856079,-0.09468404203653336
1774789968406577000,19.870576904296875,-0.4050033390522003,-0.401949018239975,-0.09590577334165573
1774789968425102300,19.889102294921877,-0.4874700903892517,-0.0873536616563797,0.03543015569448471
1774789968443627800,19.907627685546874,-0.45448338985443115,0.08429934084415436,0.17348559200763702
1774789968462153200,19.9261533203125,-0.430659681558609,0.1802051067352295,0.2364046722650528
1774789968480678400,19.944678466796876,-0.38789913058280945,0.18692462146282196,0.2101374864578247
1774789968499203800,19.963203857421874,-0.3170388340950012,0.11056652665138245,0.1282816082239151
1774789968517729300,19.981729248046875,-0.1997527778148651,0.013439024798572063,0.05192350596189499
1774789968536254700,20.000254638671876,-0.09590577334165573,-0.05925388261675835,-0.008552107028663158
1774789968554780200,20.0187802734375,-0.011606430634856224,-0.027488915249705315,-0.05742128938436508
1774789968573305300,20.037305419921875,-0.0256563201546669,0.0818558782339096,-0.08368847519159317
1774789968591830800,20.055830810546876,-0.04214967042207718,0.07635809481143951,-0.12156209349632263
1774789968610356200,20.074356201171874,0.014660755172371864,0.037262752652168274,-0.13011419773101807
1774789968638144300,20.102144287109375,-0.02932151034474373,0.014660755172371864,-0.10018182545900345
1774789968656669700,20.120669677734377,-0.12583814561367035,0.10506874322891235,-0.07147117704153061
1774789968675195100,20.139195068359374,-0.14660754799842834,0.12767073512077332,-0.12461641430854797
1774789968693720600,20.157720458984375,-0.05497783049941063,0.1288924664258957,-0.1905898153781891
1774789968712245800,20.176245849609376,0.0409279391169548,0.04825831577181816,-0.1802051067352295
1774789968730771200,20.194771240234374,0.059864748269319534,-0.021991131827235222,-0.08491020649671555
1774789968749296600,20.213296630859375,0.11606431007385254,0.12767073512077332,0.13133592903614044
1774789968767822000,20.231822021484376,0.18631376326084137,0.4001164436340332,0.3426951467990875
1774789968786347500,20.250347412109374,0.27488914132118225,0.6719512343406677,0.42455101013183594
1774789968804873000,20.268873046875,0.3909534513950348,0.9034690260887146,0.38728827238082886
1774789968823398100,20.287398193359376,0.4520399272441864,0.8362739086151123,0.268169641494751
1774789968841923600,20.305923583984374,0.3390299379825592,0.14721840620040894,0.017715077847242355
1774789968860449000,20.324448974609375,0.1441640853881836,-0.7031053900718689,-0.2981020212173462
1774789968878974500,20.342974365234376,0.12644900381565094,-0.6585122346878052,-0.24801109731197357
1774789968897500000,20.3615,0.2309068888425827,0.17287473380565643,0.24984370172023773
1774789968916025000,20.380025146484375,0.25473061203956604,0.8943060636520386,0.6597339510917664
1774789968934550500,20.398550537109376,0.37629270553588867,0.860708475112915,0.6200277805328369
1774789968953076000,20.417075927734373,0.5430588126182556,0.1588248461484909,0.2406807243824005
1774789968971601400,20.435601318359375,0.6096430420875549,-0.5662716627120972,-0.16004657745361328
1774789968990126800,20.454126953125,0.5387827157974243,-0.8148936033248901,-0.26450446248054504
1774789969008652000,20.472652099609373,0.3481929302215576,-0.5393936038017273,-0.0720820426940918
1774789969027177500,20.491177490234374,0.1130099818110466,-0.07269290834665298,0.1594357043504715
1774789969045703000,20.509702880859376,0.01588248461484909,0.24251331388950348,0.258395791053772
1774789969064228400,20.528228271484377,0.023823726922273636,0.328645259141922,0.19120067358016968
1774789969082753800,20.54675390625,0.050090912729501724,0.27550002932548523,0.09101885557174683
1774789969101279000,20.565279052734375,0.03543015569448471,0.2406807243824005,0.07330377399921417
1774789969119804400,20.583804443359377,-0.0030543238390237093,0.2993237376213074,0.15515965223312378
1774789969138329900,20.602329833984374,-0.043371398001909256,0.32620179653167725,0.277332603931427
1774789969156855300,20.620855224609375,-0.02871064469218254,0.3084867000579834,0.36835145950317383
1774789969175380700,20.639380615234376,0.020769402384757996,0.16004657745361328,0.31642794609069824
1774789969193906200,20.65790625,0.05864302068948746,0.009773836471140385,0.1484401375055313
1774789969212431600,20.676431640625,-0.014660755172371864,-0.07574722915887833,-0.06780599057674408
1774789969230956800,20.694956787109376,-0.11178825795650482,-0.12034036219120026,-0.24312418699264526
1774789969249482200,20.713482177734374,-0.15088360011577606,-0.10567960888147354,-0.38789913058280945
1774789969268007700,20.732007568359375,-0.15577052533626556,-0.03787361457943916,-0.4685332775115967
1774789969286533000,20.750533203125,-0.13255766034126282,-0.07819069176912308,-0.4526508152484894
1774789969305058600,20.76905859375,-0.09529490768909454,-0.25411975383758545,-0.42332929372787476
1774789969323584000,20.787583984375,-0.02871064469218254,-0.4679224193096161,-0.43432486057281494
1774789969342109200,20.806109130859376,-0.002443459117785096,-0.44409868121147156,-0.3555232882499695
1774789969360634600,20.824634521484374,-0.11728604137897491,-0.3426951467990875,-0.22968515753746033
1774789969379160000,20.84316015625,-0.2009745091199875,-0.1844811588525772,-0.1594357043504715
1774789969397685500,20.861685546875,-0.09529490768909454,-0.08918625861406326,-0.09101885557174683
1774789969416211000,20.8802109375,0.04764745384454727,-0.017104214057326317,0.031154103577136993
1774789969434736400,20.898736328125,0.017104214057326317,-0.08368847519159317,0.13561198115348816
1774789969453261800,20.91726171875,-0.19364413619041443,-0.5222893953323364,0.059864748269319534
1774789969471787000,20.935787109375,-0.4508182108402252,-0.9847140312194824,-0.14233149588108063
1774789969490312400,20.9543125,-0.6035344004631042,-0.9004147052764893,-0.2254091054201126
1774789969508838000,20.972837890625,-0.536339282989502,-0.2809978127479553,-0.05803215503692627
1774789969527363300,20.99136328125,-0.205861434340477,0.3231474757194519,0.22418737411499023
1774789969545888800,21.009888671875,0.1331685185432434,0.27550002932548523,0.3335321843624115
1774789969564414200,21.028414306640624,0.2528980076313019,-0.24006985127925873,0.25473061203956604
1774789969582939600,21.046939697265625,0.05253437161445618,-0.56382817029953,0.14233149588108063
1774789969601464800,21.06546484375,-0.27366742491722107,-0.5308414697647095,0.07757982611656189
1774789969619990300,21.083990234375,-0.5491674542427063,-0.3182605504989624,-0.008552107028663158
1774789969638515700,21.102515625,-0.6212494969367981,-0.040317077189683914,-0.1740964651107788
1774789969657041200,21.121041259765626,-0.5375609993934631,0.0873536616563797,-0.34574946761131287
1774789969675566600,21.139566650390623,-0.40378162264823914,0.12522727251052856,-0.3335321843624115
1774789969694092000,21.158092041015625,-0.3194822669029236,0.06414080411195755,-0.17348559200763702
1774789969712617200,21.1766171875,-0.22174391150474548,-0.0513126403093338,-0.000610864779446274
1774789969731142700,21.195142578125,-0.14782927930355072,-0.11056652665138245,0.09162971377372742
1774789969749668000,21.213668212890624,-0.14599667489528656,-0.036651886999607086,0.1130099818110466
1774789969768193500,21.232193603515626,-0.12278381735086441,0.040317077189683914,0.1282816082239151
1774789969786719000,21.250718994140627,-0.021380268037319183,0.014660755172371864,0.1545487940311432
1774789969805244400,21.269244384765624,0.06719512492418289,-0.17043127119541168,0.1594357043504715
1774789969823769900,21.287769775390625,0.020769402384757996,-0.22174391150474548,0.13744457066059113
1774789969842295000,21.306294921875,-0.059864748269319534,-0.09040798991918564,0.10690133273601532
1774789969860820500,21.324820556640624,-0.029932374134659767,0.15271618962287903,0.13133592903614044
1774789969879346000,21.343345947265625,0.047036588191986084,0.235793799161911,0.19608759880065918
1774789969897871400,21.361871337890626,0.09834922850131989,0.18631376326084137,0.22785256803035736
1774789969916396800,21.380396728515624,0.10873392969369888,0.07819069176912308,0.17165300250053406
1774789969934922200,21.398922119140625,0.08552107214927673,0.02932151034474373,0.0769689604640007
1774789969953447700,21.41744775390625,0.05558869615197182,0.11606431007385254,0.02260199747979641
1774789969971973000,21.43597314453125,-0.010384701192378998,0.2211330533027649,-0.05558869615197182
1774789969990498600,21.45449853515625,-0.009773836471140385,0.43921178579330444,-0.06780599057674408
1774789970009023700,21.473023681640626,0.07819069176912308,0.7751874327659607,0.09468404203653336
1774789970027549200,21.491549072265624,0.19303326308727264,1.0323615074157715,0.2522871494293213
1774789970046074600,21.51007470703125,0.13561198115348816,0.6298015713691711,0.12217295914888382
1774789970064600000,21.52860009765625,-0.06597339361906052,-0.4978547990322113,-0.3659079968929291
1774789970083125500,21.54712548828125,-0.15699224174022675,-1.265711784362793,-0.7898481488227844
1774789970101651000,21.56565087890625,-0.07147117704153061,-0.5619956254959106,-0.5723803043365479
1774789970120176400,21.58417626953125,0.001221729558892548,0.6982184648513794,0.06291907280683517
1774789970138701600,21.60270166015625,0.059864748269319534,1.212566614151001,0.46975502371788025
1774789970157227000,21.62122705078125,0.28466299176216125,0.822834849357605,0.43371400237083435
1774789970175752400,21.63975244140625,0.4917461574077606,0.06963858753442764,0.1282816082239151
1774789970194278000,21.65827783203125,0.583375871181488,-0.39828383922576904,-0.08002328872680664
1774789970212803300,21.67680322265625,0.47525280714035034,-0.38728827238082886,-0.039706211537122726
1774789970231328800,21.695328857421874,0.3811796307563782,-0.11239911615848541,0.143553227186203
1774789970249854200,21.713854248046875,0.3555232882499695,0.08552107214927673,0.30482152104377747
1774789970268379600,21.732379638671876,0.2809978127479553,0.17104214429855347,0.3811796307563782
1774789970286904800,21.75090478515625,0.15088360011577606,0.23518294095993042,0.36774060130119324
1774789970305430300,21.76943017578125,0.0409279391169548,0.24251331388950348,0.24740023910999298
1774789970323955700,21.787955810546876,0.0030543238390237093,0.13439024984836578,0.0616973415017128
1774789970342481200,21.806481201171874,0.02626718580722809,0.06597339361906052,-0.10995566099882126
1774789970361006600,21.825006591796875,0.06841685622930527,0.04886918142437935,-0.15699224174022675
1774789970379532000,21.843531982421876,0.1496618688106537,0.024434590712189674,-0.056199558079242706
1774789970398057200,21.86205712890625,0.25473061203956604,-0.11667517572641373,0.07819069176912308
1774789970416582700,21.880582763671875,0.27916520833969116,-0.31093016266822815,0.12767073512077332
1774789970435108000,21.899108154296876,0.164322629570961,-0.40866854786872864,0.017104214057326317
1774789970453633500,21.917633544921873,-0.020769402384757996,-0.29626941680908203,-0.1948658674955368
1774789970472159000,21.936158935546874,-0.20891575515270233,-0.1490510106086731,-0.3738492429256439
1774789970490684400,21.954684326171876,-0.2620609998703003,-0.07391463965177536,-0.37629270553588867
1774789970509209900,21.9732099609375,-0.16798780858516693,-0.1484401375055313,-0.28527384996414185
1774789970527735300,21.9917353515625,-0.07391463965177536,-0.31154105067253113,-0.16310089826583862
1774789970546260700,22.0102607421875,-0.06047561392188072,-0.33719736337661743,-0.056810423731803894
1774789970564786200,22.0287861328125,-0.1288924664258957,-0.19914191961288452,0.05742128938436508
1774789970583311400,22.047311279296874,-0.18203771114349365,0.0409279391169548,0.2528980076313019
1774789970601836800,22.0658369140625,-0.1893680840730667,0.0360410213470459,0.47036588191986084
1774789970620362200,22.0843623046875,-0.1747073233127594,0.026878049597144127,0.6908880472183228
1774789970638887700,22.1028876953125,-0.21685700118541718,0.2107483446598053,0.8240565657615662
1774789970657413000,22.1214130859375,-0.4728093445301056,-0.2364046722650528,0.9101884961128235
1774789970675938600,22.1399384765625,-0.7202095985412598,-1.1777472496032715,0.8527672290802002
1774789970694464000,22.158464111328126,-0.9382883310317993,-1.4844014644622803,0.6872228980064392
1774789970712989200,22.1769892578125,-1.1032217741012573,-1.072678565979004,0.5345066785812378
1774789970731514600,22.1955146484375,-1.0036507844924927,-0.5436696410179138,0.4526508152484894
1774789970750040000,22.2140400390625,-0.6792816519737244,-0.1893680840730667,0.3750709891319275
1774789970768565500,22.2325654296875,-0.4269944727420807,-0.23945899307727814,0.22663083672523499
1774789970787091000,22.251091064453124,-0.43371400237083435,-0.4202749729156494,0.03237583488225937
1774789970805616400,22.269616455078125,-0.5992583632469177,-0.5369501113891602,-0.1692095398902893
1774789970833404400,22.297404296875,-0.5748237371444702,-0.24312418699264526,-0.36712974309921265
1774789970851929900,22.315929931640625,-0.3591884970664978,-0.15638138353824615,-0.3640754222869873
1774789970870455300,22.334455322265626,-0.17348559200763702,0.009162971749901772,-0.2828303873538971
1774789970888980700,22.352980712890623,-0.22235478460788727,0.1282816082239151,-0.0977383628487587
1774789970907506200,22.371506103515625,-0.3848448097705841,0.08979712426662445,0.0720820426940918
1774789970926031600,22.390031494140626,-0.40378162264823914,0.024434590712189674,0.09285144507884979
1774789970944556800,22.408556884765623,-0.2974911332130432,0.06047561392188072,0.02871064469218254
1774789970963082200,22.427082275390624,-0.13011419773101807,0.19120067358016968,0.007330377586185932
1774789970981607700,22.445607666015626,0.02871064469218254,0.24801109731197357,0.006108647678047419
1774789971000133000,22.464133056640627,0.08429934084415436,0.21319180727005005,-0.004276053514331579
1774789971018658600,22.482658447265624,0.12217295914888382,0.06475166976451874,-0.0977383628487587
1774789971037184000,22.50118408203125,0.04153880476951599,-0.043371398001909256,-0.1954767256975174
1774789971055709200,22.519709228515627,-0.09651663154363632,-0.017715077847242355,-0.25900667905807495
1774789971074234600,22.538234619140624,-0.143553227186203,0.13255766034126282,-0.277332603931427
1774789971092760000,22.556760009765625,-0.050090912729501724,0.23396120965480804,-0.2522871494293213
1774789971111285500,22.575285400390626,0.11117739230394363,0.2822195291519165,-0.1795942485332489
1774789971129811000,22.59381103515625,0.205861434340477,0.2919933497905731,-0.1233946830034256
1774789971148336400,22.61233642578125,0.24434591829776764,0.33536475896835327,-0.047036588191986084
1774789971166861800,22.63086181640625,0.24373504519462585,0.3017672002315521,0.06902772188186646
1774789971185387000,22.649386962890624,0.2834412455558777,0.23945899307727814,0.16249002516269684
1774789971203912400,22.667912353515625,0.33169957995414734,0.22235478460788727,0.16187916696071625
1774789971222438000,22.68643798828125,0.30054548382759094,0.40927940607070923,0.15638138353824615
1774789971250226200,22.71422607421875,0.23029601573944092,0.8087849617004395,0.2730565667152405
1774789971268751600,22.732751708984374,0.26511532068252563,0.7446441650390625,0.2626718580722809
1774789971287276800,22.75127685546875,0.2205221801996231,0.06414080411195755,-0.053145237267017365
1774789971305802200,22.76980224609375,0.10018182545900345,-0.6585122346878052,-0.5962040424346924
1774789971324327700,22.78832763671875,0.013439024798572063,-0.6847794055938721,-0.8759800791740417
1774789971342853000,22.80685302734375,0.06230820715427399,0.03237583488225937,-0.6395754218101501
1774789971361378600,22.825378662109376,0.2730565667152405,0.7971785664558411,-0.09651663154363632
