time,seconds_elapsed,z,y,x
1774789948649571000,0.113571044921875,-0.4430296719074249,-1.452636480331421,0.3222311735153198
1774789948668096000,0.132095947265625,-0.4326449930667877,-1.5552617311477661,0.08460476994514465
1774789948695883300,0.15988330078125,-0.4289797842502594,-0.9865466356277466,-0.17623448371887207
1774789948714408000,0.178407958984375,-0.4601338803768158,-0.6890554428100586,-0.2965748608112335
1774789948732932900,0.196932861328125,-0.5047270059585571,-0.47525280714035034,-0.3607156574726105
1774789948751457500,0.21545751953125,-0.4912880063056946,-0.4630354940891266,-0.4419606626033783
1774789948769982500,0.233982421875,-0.42042768001556396,-0.5784889459609985,-0.5500837564468384
1774789948788507100,0.252507080078125,-0.3006981909275055,-0.4520399272441864,-0.5232056975364685
1774789948807032000,0.271031982421875,-0.18463388085365295,-0.36712974309921265,-0.383928507566452
1774789948825557000,0.289556884765625,-0.12721258401870728,-0.2315177470445633,-0.18600831925868988
1774789948844081700,0.30808154296875,-0.18890993297100067,-0.23212862014770508,-0.07116574794054031
1774789948862606600,0.326606689453125,-0.2536616027355194,-0.10690133273601532,0.05100720748305321
1774789948881131500,0.345131591796875,-0.20723587274551392,-0.143553227186203,0.09682206809520721
1774789948899656200,0.36365625,-0.0948367565870285,-0.16615521907806396,0.0565049909055233
1774789948918181000,0.38218115234375,-0.011148282326757908,-0.1380554437637329,-0.000305432389723137
1774789948936705800,0.400705810546875,0.008399390615522861,-0.07819069176912308,-0.08826996386051178
1774789948955230700,0.419230712890625,-0.026419902220368385,-0.07391463965177536,-0.15607595443725586
1774789948973755400,0.43775537109375,-0.04718930274248123,0.004886918235570192,-0.09865466505289078
1774789948992280300,0.4562802734375,-0.03375028073787689,-0.006719512399286032,-0.005803215317428112
1774789949010805200,0.47480517578125,0.00045814859913662076,-0.09040798991918564,0.044898562133312225
1774789949029330000,0.493329833984375,0.018784092739224434,-0.14233149588108063,0.01740964688360691
1774789949047854800,0.511854736328125,0.005345067009329796,-0.07086031138896942,-0.08582650125026703
1774789949066379500,0.530379638671875,-0.016035201027989388,0.059864748269319534,-0.15302163362503052
1774789949084904400,0.548904541015625,-0.05146535858511925,0.09407317638397217,-0.13041962683200836
1774789949103429000,0.56742919921875,-0.07284562289714813,-0.011606430634856224,-0.12736530601978302
1774789949121954000,0.5859541015625,-0.049021899700164795,-0.13561198115348816,-0.1279761642217636
1774789949140478700,0.604478759765625,-0.017867794260382652,-0.0720820426940918,-0.007024944759905338
1774789949159003600,0.623003662109375,-0.06123919412493706,0.009162971749901772,0.07971785217523575
1774789949177528600,0.641528564453125,-0.07773254066705704,0.009162971749901772,0.032070402055978775
1774789949196053200,0.66005322265625,-0.05024362727999687,0.006108647678047419,-0.11209368705749512
1774789949214578200,0.678578125,-0.06246092543005943,0.03543015569448471,-0.16035200655460358
1774789949233103000,0.69710302734375,-0.06856957077980042,-0.03176496922969818,-0.09987638890743256
1774789949251627800,0.715627685546875,-0.0844520553946495,-0.16615521907806396,-0.04673115536570549
1774789949270152400,0.73415234375,-0.08933897316455841,-0.13500112295150757,-0.029016077518463135
1774789949288677400,0.752677490234375,-0.16325360536575317,-0.01893680728971958,-0.14019346237182617
1774789949307202300,0.771202392578125,-0.1980729103088379,0.06597339361906052,-0.24709481000900269
1774789949325727000,0.78972705078125,-0.17424917221069336,0.10567960888147354,-0.27519458532333374
1774789949344252000,0.808251953125,-0.1302669197320938,0.1288924664258957,-0.2513708472251892
1774789949362776600,0.826776611328125,-0.07651081681251526,0.08491020649671555,-0.20922118425369263
1774789949381301500,0.845301513671875,-0.06551524996757507,-0.021991131827235222,-0.20861032605171204
1774789949399826400,0.863826416015625,-0.10094540566205978,-0.17776164412498474,-0.17562362551689148
1774789949418351000,0.88235107421875,-0.1669187992811203,-0.2987128794193268,-0.05833758786320686
1774789949436875800,0.900875732421875,-0.1565341055393219,-0.41294458508491516,-0.028405211865901947
1774789949455400700,0.919400634765625,-0.11255183815956116,-0.2767217457294464,-0.024740023538470268
1774789949473925600,0.937925537109375,-0.10949750989675522,-0.05742128938436508,-0.035735588520765305
1774789949492450300,0.9564501953125,-0.07284562289714813,0.012217295356094837,-0.05283980444073677
1774789949510975200,0.974975341796875,-0.06307178735733032,-0.010995565913617611,-0.06505709886550903
1774789949529500200,0.993500244140625,-0.1461493968963623,0.04214967042207718,-0.0925460159778595
1774789949548024800,1.01202490234375,-0.18035782873630524,0.08918625861406326,-0.11698060482740402
1774789949566549800,1.0305498046875,-0.10949750989675522,0.004886918235570192,-0.08582650125026703
1774789949585074400,1.049074462890625,0.009621120058000088,-0.11911863088607788,-0.03940077871084213
1774789949603599400,1.067599365234375,0.0847574844956398,-0.14538581669330597,-0.03023780696094036
1774789949622124000,1.0861240234375,0.04260781779885292,0.021991131827235222,-0.08643736690282822
1774789949640649000,1.10464892578125,-0.017867794260382652,0.21746785938739777,-0.08155044913291931
1774789949659173600,1.123173583984375,-0.05940660089254379,0.22418737411499023,-0.05711585655808449
1774789949677698600,1.141698486328125,-0.016035201027989388,0.07574722915887833,-0.026572618633508682
1774789949696223500,1.160223388671875,0.005345067009329796,-0.11667517572641373,-0.008857538923621178
1774789949714748200,1.178748046875,0.02306014485657215,-0.10934479534626007,-0.029016077518463135
1774789949733273000,1.197273193359375,0.013897174037992954,-0.053756099194288254,-0.06505709886550903
1774789949751797800,1.2157978515625,0.016340631991624832,0.01954767294228077,-0.04428769648075104
1774789949770322700,1.23432275390625,-0.009926552884280682,0.08307760953903198,-0.011911863461136818
1774789949788847400,1.252847412109375,-0.017256930470466614,0.13500112295150757,-0.005192350596189499
1774789949807372300,1.271372314453125,-0.020922118797898293,0.12950333952903748,-0.0204639695584774
1774789949825897000,1.28989697265625,-0.04169152304530144,-0.021991131827235222,-0.03817904740571976
1774789949844422000,1.308421875,-0.058795735239982605,-0.06597339361906052,-0.0015271619195118546
1774789949862946800,1.32694677734375,-0.045967575162649155,-0.010384701192378998,0.044898562133312225
1774789949881471500,1.345471435546875,-0.03130681812763214,0.008552107028663158,0.05039634555578232
1774789949899996400,1.363996337890625,0.008399390615522861,0.07330377399921417,0.03390299528837204
1774789949918521000,1.38252099609375,0.028557928279042244,0.09529490768909454,0.016187917441129684
1774789949937046000,1.4010458984375,-0.0013744457392022014,0.030543239787220955,-0.0204639695584774
1774789949955570700,1.41957080078125,0.001679878099821508,0.06719512492418289,0.008857538923621178
1774789949974095600,1.438095703125,0.04566214233636856,0.17287473380565643,0.09437860548496246
1774789949992620500,1.45662060546875,0.08414662629365921,0.2706131041049957,0.16157373785972595
1774789950011145200,1.475145263671875,0.0694858655333519,0.2822195291519165,0.06200277432799339
1774789950029670100,1.493670166015625,0.02367101050913334,0.18081597983837128,-0.09315688163042068
1774789950048194800,1.51219482421875,-0.007483093533664942,0.18875721096992493,-0.15241076052188873
1774789950066719700,1.5307197265625,-0.06734783947467804,0.13072505593299866,-0.16829325258731842
1774789950085244400,1.549244384765625,-0.16081015765666962,-0.003665188793092966,-0.14691297709941864
1774789950103769300,1.567769287109375,-0.16325360536575317,-0.05864302068948746,-0.013744457624852657
1774789950122294000,1.5862939453125,-0.09605848789215088,-0.09834922850131989,0.09865466505289078
1774789950140819000,1.60481884765625,-0.08384118974208832,-0.07086031138896942,0.13164135813713074
1774789950159343900,1.62334375,-0.16019928455352783,0.053756099194288254,0.10965022444725037
1774789950177868500,1.64186865234375,-0.24510949850082397,0.09101885557174683,0.10842850059270859
1774789950196393500,1.6603935546875,-0.2237292230129242,0.003665188793092966,0.23182319104671478
1774789950214918400,1.67891845703125,-0.19135339558124542,-0.1490510106086731,0.40836310386657715
1774789950233443000,1.697443115234375,-0.09422589093446732,-0.11362084746360779,0.4474584460258484
1774789950251968000,1.715968017578125,-0.04230238497257233,0.07147117704153061,0.33567020297050476
1774789950270492700,1.73449267578125,-0.07528908550739288,0.27916520833969116,0.12675444781780243
1774789950289017600,1.753017578125,-0.019700389355421066,0.4196641147136688,0.032681263983249664
1774789950307542300,1.771542236328125,0.006566796451807022,0.37812530994415283,0.08949168771505356
1774789950326067200,1.790067138671875,-0.045967575162649155,0.07452550530433655,0.22693626582622528
1774789950344592100,1.808592041015625,-0.10644318908452988,-0.22846342623233795,0.2971857190132141
1774789950363116800,1.82711669921875,-0.12660172581672668,-0.09468404203653336,0.2764163017272949
1774789950381641700,1.845641845703125,-0.16997312009334564,0.06902772188186646,0.17256930470466614
1774789950400166400,1.86416650390625,-0.09728021919727325,0.23029601573944092,0.11087195575237274
1774789950418691300,1.88269140625,-0.09178243577480316,0.2883281707763672,0.11331541836261749
1774789950437216000,1.901216064453125,-0.14981459081172943,0.1545487940311432,0.1945604383945465
1774789950455741000,1.919740966796875,-0.1821904182434082,-0.014660755172371864,0.24892739951610565
1774789950474265900,1.938265869140625,-0.27748534083366394,0.014049889519810677,0.22876885533332825
1774789950492790500,1.95679052734375,-0.305585116147995,0.18631376326084137,0.23365578055381775
1774789950511315500,1.9753154296875,-0.24083344638347626,0.22907429933547974,0.22449280321598053
1774789950529840400,1.99384033203125,-0.18035782873630524,0.1649334877729416,0.17562362551689148
1774789950548365000,2.012364990234375,-0.2188423126935959,0.10140355676412582,0.14630211889743805
1774789950566890000,2.030889892578125,-0.263435423374176,0.11667517572641373,0.1847866028547287
1774789950585414700,2.04941455078125,-0.21578797698020935,0.2107483446598053,0.20677772164344788
1774789950603939600,2.067939697265625,-0.16264274716377258,0.2516762912273407,0.1902843713760376
1774789950622464500,2.086464599609375,-0.1314886510372162,0.24373504519462585,0.18173226714134216
1774789950640989200,2.1049892578125,-0.06856957077980042,0.3481929302215576,0.20677772164344788
1774789950659514000,2.12351416015625,-0.036804601550102234,0.4062250852584839,0.18845178186893463
1774789950678039000,2.1420390625,-0.052687086164951324,0.25350889563560486,0.09987638890743256
1774789950696563700,2.160563720703125,-0.06246092543005943,-0.033597562462091446,-0.0027488914784044027
1774789950715088600,2.179088623046875,-0.13881902396678925,-0.15515965223312378,-0.03695731982588768
1774789950733613300,2.19761328125,-0.20723587274551392,-0.018325943499803543,0.006414080038666725
1774789950752138200,2.21613818359375,-0.11194097250699997,0.08368847519159317,0.10965022444725037
1774789950770663200,2.2346630859375,-0.0013744457392022014,0.043371398001909256,0.024740023538470268
1774789950789187800,2.253187744140625,0.044440411031246185,0.10751219838857651,-0.07971785217523575
1774789950807712800,2.271712646484375,0.05787943676114082,0.26389357447624207,-0.10170898586511612
1774789950826237400,2.290237548828125,0.10186170041561127,0.4172206521034241,-0.0668896958231926
1774789950844762400,2.308762451171875,0.2955058515071869,0.6316341757774353,0.016798781231045723
1774789950863287300,2.327287353515625,0.4286743700504303,1.0384701490402222,0.0717766135931015
1774789950881812000,2.34581201171875,0.42745262384414673,0.9034690260887146,0.1230892539024353
1774789950900337000,2.3643369140625,0.15928299725055695,-0.21991132199764252,0.2098320573568344
1774789950918861800,2.38286181640625,-0.11621702462434769,-0.5253437161445618,-0.11026109009981155
1774789950937386800,2.40138671875,-0.2652680277824402,-0.2883281707763672,-0.25320345163345337
1774789950955911400,2.419911376953125,-0.3770562708377838,-0.27977606654167175,-0.23915356397628784
1774789950974436000,2.43843603515625,-0.337350070476532,-0.6725621223449707,-0.20677772164344788
1774789950992961000,2.4569609375,-0.3092502951622009,-0.9181297421455383,-0.189673513174057
1774789951011486000,2.47548583984375,-0.3715584874153137,-0.998763918876648,-0.1750127524137497
1774789951030011000,2.494010986328125,-0.31902414560317993,-0.952949047088623,-0.250149130821228
1774789951048535600,2.51253564453125,-0.10399972647428513,-0.8717040419578552,-0.27091851830482483
1774789951067060500,2.531060546875,0.064598947763443,-0.6750055551528931,-0.20677772164344788
1774789951085585200,2.549585205078125,0.09208786487579346,-0.32070401310920715,-0.2861901521682739
1774789951104110000,2.568110107421875,-0.023365577682852745,-0.09712749719619751,-0.33200499415397644
1774789951122635000,2.586635009765625,-0.10094540566205978,-0.07635809481143951,-0.13103049993515015
1774789951141160000,2.605159912109375,-0.09361502528190613,-0.11545344442129135,0.05283980444073677
1774789951159684600,2.6236845703125,0.054214250296354294,-0.37629270553588867,0.14691297709941864
1774789951178209500,2.64220947265625,0.1672242283821106,-0.42455101013183594,0.14263692498207092
1774789951196734200,2.660734130859375,0.19410228729248047,-0.205861434340477,0.05894844979047775
1774789951215259100,2.679259033203125,0.12751802802085876,-0.03298669680953026,-0.054672397673130035
1774789951233784000,2.6977841796875,0.007177661173045635,0.08979712426662445,-0.1285870373249054
1774789951252309000,2.71630908203125,-0.08384118974208832,0.05070177838206291,-0.17562362551689148
1774789951270833700,2.734833740234375,-0.08689551800489426,-0.18692462146282196,-0.1444695144891739
1774789951289358600,2.753358642578125,-0.0019853105768561363,-0.22846342623233795,0.02779434807598591
1774789951307883500,2.771883544921875,0.06826414167881012,-0.0922405794262886,0.1487455666065216
1774789951326408200,2.790408203125,0.05238165333867073,0.07147117704153061,0.10170898586511612
1774789951344933000,2.80893310546875,-0.01359174121171236,0.08552107214927673,0.0461202897131443
1774789951363458000,2.8274580078125,-0.05024362727999687,-0.059864748269319534,0.07910698652267456
1774789951381983000,2.84598291015625,-0.03558287397027016,-0.12767073512077332,0.16646064817905426
1774789951400507600,2.864507568359375,-0.08139773458242416,-0.03481929376721382,0.27397283911705017
1774789951419032600,2.883032470703125,-0.13515383005142212,0.10873392969369888,0.41447174549102783
1774789951437557200,2.90155712890625,-0.14798198640346527,0.19303326308727264,0.5708531141281128
1774789951456082200,2.920082275390625,-0.1510363221168518,0.15027274191379547,0.6856957077980042
1774789951474607000,2.938607177734375,-0.06673697382211685,0.11362084746360779,0.6960803866386414
1774789951493132000,2.957132080078125,0.07498364895582199,-0.036651886999607086,0.6466003656387329
1774789951511657000,2.975656982421875,0.14217877388000488,0.1588248461484909,0.5079340934753418
1774789951530181600,2.994181640625,0.10308343172073364,0.43432486057281494,0.30451610684394836
1774789951548706600,3.01270654296875,0.04932733252644539,0.3078758418560028,0.23304490745067596
1774789951567231500,3.0312314453125,0.03527744114398956,0.185092031955719,0.20677772164344788
1774789951585756200,3.049756103515625,-0.0001527161948615685,-0.18814635276794434,0.10659590363502502
1774789951604281000,3.068281005859375,0.022449281066656113,-0.30604326725006104,0.12614357471466064
1774789951622806000,3.086805908203125,0.04321868345141411,-0.0769689604640007,0.1591302752494812
1774789951641330700,3.10533056640625,0.03894263133406639,0.18875721096992493,0.038789913058280945
1774789951659855600,3.123855712890625,-0.025809036567807198,0.22174391150474548,-0.05894844979047775
1774789951678380500,3.142380615234375,-0.09728021919727325,0.10018182545900345,-0.035124726593494415
1774789951696905500,3.160905517578125,-0.05757400393486023,-0.0977383628487587,0.06566796451807022
1774789951715430400,3.179430419921875,0.01695149764418602,-0.10384701192378998,0.1847866028547287
1774789951733955000,3.197955078125,0.027336198836565018,0.007941242307424545,0.2306014597415924
1774789951752480000,3.21647998046875,-0.06551524996757507,-0.04520399495959282,0.18356487154960632
1774789951771005000,3.2350048828125,-0.17302745580673218,-0.21258094906806946,0.2813032269477844
1774789951789529900,3.25352978515625,-0.23594652116298676,-0.41355544328689575,0.4834994673728943
1774789951808054500,3.272054443359375,-0.21395538747310638,-0.29077163338661194,0.7345649003982544
1774789951826579500,3.290579345703125,-0.08078686892986298,0.15149445831775665,0.9355394244194031
1774789951845104400,3.3091044921875,-0.049632761627435684,0.6090322136878967,0.869566023349762
1774789951863629300,3.32762939453125,-0.13393209874629974,0.7935133576393127,0.6246092319488525
1774789951882154000,3.346154052734375,-0.07651081681251526,0.5112938284873962,0.49510589241981506
1774789951900679000,3.364678955078125,-0.09239330142736435,0.13072505593299866,0.41813695430755615
1774789951919203800,3.383203857421875,-0.24266603589057922,-0.13500112295150757,0.35094180703163147
1774789951937728800,3.401728759765625,-0.28298309445381165,0.24862197041511536,0.1444695144891739
1774789951956253400,3.42025341796875,-0.15286891162395477,-0.11911863088607788,-0.21166464686393738
1774789951974778400,3.4387783203125,-0.0642935186624527,-0.4838049113750458,-0.26969680190086365
1774789951993303300,3.45730322265625,-0.05085449293255806,-0.47036588191986084,-0.0925460159778595
1774789952011828200,3.475828125,-0.017867794260382652,-0.164322629570961,-0.047952886670827866
1774789952030353000,3.494352783203125,-0.02458730712532997,0.0616973415017128,-0.23426663875579834
1774789952048877800,3.5128779296875,-0.02214384824037552,0.0873536616563797,-0.3020726442337036
1774789952067402800,3.53140283203125,0.02000582218170166,-0.10751219838857651,-0.1902843713760376
1774789952085927700,3.549927734375,0.031612250953912735,-0.16310089826583862,-0.02107483521103859
1774789952104452600,3.56845263671875,0.015729768201708794,-0.06291907280683517,0.05039634555578232
1774789952122977300,3.586977294921875,0.13240493834018707,-0.07574722915887833,0.1542433500289917
1774789952141502200,3.605502197265625,0.1519526094198227,-0.3023780584335327,0.30146175622940063
1774789952160027100,3.624027099609375,0.1366809904575348,-0.4166097939014435,0.44990190863609314
1774789952178552000,3.642552001953125,0.11468986421823502,-0.2461785078048706,0.4889972507953644
1774789952197077000,3.661076904296875,0.08536835014820099,-0.143553227186203,0.43829548358917236
1774789952215602000,3.679601806640625,0.05238165333867073,-0.1844811588525772,0.31612253189086914
1774789952234126600,3.698126708984375,0.05177079141139984,-0.12461641430854797,0.19272783398628235
1774789952252651500,3.716651611328125,-0.022754713892936707,0.01649334840476513,0.18784092366695404
1774789952271176400,3.735176513671875,-0.05146535858511925,-0.05192350596189499,0.1737910360097885
1774789952289701400,3.753701416015625,-0.06490438431501389,-0.1496618688106537,-0.041844237595796585
1774789952308226300,3.772226318359375,-0.04718930274248123,-0.08796452730894089,-0.3124573230743408
1774789952326751200,3.790751220703125,-0.11255183815956116,-0.02626718580722809,-0.42913252115249634
1774789952345276000,3.80927587890625,-0.09789107739925385,-0.05864302068948746,-0.3631591200828552
1774789952363800800,3.82780078125,0.047494735568761826,-0.10323614627122879,-0.1383608728647232
1774789952382325800,3.84632568359375,0.10980294644832611,-0.12095122784376144,0.06811141967773438
1774789952400850700,3.8648505859375,0.04566214233636856,-0.03787361457943916,0.17256930470466614
1774789952419375400,3.883375244140625,0.02977965772151947,-0.0769689604640007,0.20433427393436432
1774789952437900300,3.901900390625,-0.036193739622831345,-0.0616973415017128,0.2360992431640625
1774789952456425200,3.92042529296875,-0.20418155193328857,0.1288924664258957,0.19883649051189423
1774789952474950100,3.9389501953125,-0.21090106666088104,0.2816086709499359,0.061391908675432205
1774789952493475000,3.95747509765625,-0.17486004531383514,0.34147340059280396,-0.022907428443431854
1774789952512000000,3.976,0.04016435891389847,0.1441640853881836,0.012522728182375431
1774789952530525000,3.99452490234375,0.13179408013820648,0.001221729558892548,-0.03695731982588768
1774789952549049900,4.0130498046875,0.021227551624178886,-0.1081230640411377,-0.18784092366695404
1774789952567574500,4.031574462890625,-0.13454297184944153,-0.11667517572641373,-0.21716243028640747
1774789952586099500,4.050099365234375,-0.09239330142736435,0.0360410213470459,-0.09071341902017593
1774789952604624400,4.068624267578125,0.10980294644832611,0.07391463965177536,0.10598503798246384
1774789952623149300,4.0871494140625,0.16783510148525238,-0.012217295356094837,0.2611446976661682
1774789952641674200,4.10567431640625,0.12690715491771698,-0.023823726922273636,0.2415970265865326
1774789952660199200,4.12419921875,0.08842267841100693,0.25900667905807495,0.15057817101478577
1774789952678724000,4.14272412109375,0.10369429737329483,0.2938259541988373,0.019242240116000175
1774789952697249000,4.1612490234375,0.09392046183347702,0.24740023910999298,0.04734202101826668
1774789952715773700,4.179773681640625,0.02367101050913334,0.11423171311616898,0.18234314024448395
1774789952734298600,4.198298583984375,-0.09911280870437622,0.10018182545900345,0.3790415823459625
1774789952752823600,4.216823486328125,-0.13393209874629974,0.18875721096992493,0.5054906010627747
1774789952771348500,4.235348388671875,-0.09911280870437622,0.3402516841888428,0.630107045173645
1774789952789873400,4.253873291015625,-0.16508620977401733,0.5094612240791321,0.8646790981292725
1774789952808398300,4.2723984375,-0.3678933084011078,1.5222749710083008,0.2770271897315979
1774789952826923300,4.29092333984375,-0.17424917221069336,-0.03298669680953026,-1.2257001399993896
1774789952845448200,4.3094482421875,-0.5627591609954834,-0.7654135823249817,-0.6808087825775146
1774789952863973000,4.32797314453125,-0.47357290983200073,-0.7000510096549988,0.250149130821228
1774789952882498000,4.346498046875,-0.3556760251522064,-0.2516762912273407,0.8323032855987549
1774789952901023000,4.36502294921875,-0.22189663350582123,0.43493571877479553,0.6692023873329163
1774789952919547600,4.383547607421875,-0.1101083755493164,-0.15271618962287903,-0.16707152128219604
1774789952938072600,4.402072509765625,-0.08628465235233307,-0.5283980369567871,-0.8652899861335754
1774789952956597800,4.42059765625,-0.15470150113105774,-0.5766563415527344,-1.3008365631103516
1774789952975122700,4.439122802734375,-0.10766492038965225,0.014660755172371864,-1.3588687181472778
1774789952993647400,4.4576474609375,-0.025809036567807198,0.3072649836540222,-0.9569196701049805
1774789953012172300,4.47617236328125,0.20631958544254303,0.0720820426940918,-0.20250166952610016
1774789953030697200,4.494697265625,0.5862774848937988,-0.13561198115348816,0.49082985520362854
1774789953049222100,4.51322216796875,0.5752819180488586,-0.32070401310920715,0.6172788739204407
1774789953067747000,4.5317470703125,0.2582430839538574,-0.2730565667152405,0.25870123505592346
1774789953086272000,4.55027197265625,-0.007483093533664942,0.017104214057326317,-0.250149130821228
1774789953104797000,4.568796875,-0.04474584385752678,0.2101374864578247,-0.33200499415397644
1774789953123321900,4.58732177734375,0.05787943676114082,0.10384701192378998,-0.11942406743764877
1774789953141846800,4.6058466796875,0.23014330863952637,0.021380268037319183,0.035735588520765305
1774789953160371700,4.624371826171875,0.3474293351173401,0.05192350596189499,0.02718348242342472
1774789953178896600,4.642896728515625,0.30894485116004944,0.01954767294228077,-0.05406153202056885
1774789953197421600,4.661421630859375,0.1360701322555542,-0.07330377399921417,-0.19150610268115997
1774789953215946500,4.679946533203125,-0.06795870512723923,-0.13927717506885529,-0.40408703684806824
1774789953234471400,4.698471435546875,-0.1003345400094986,-0.15699224174022675,-0.7137954831123352
1774789953252996400,4.716996337890625,0.09330959618091583,0.02932151034474373,-0.8445205688476562
1774789953271521300,4.735521240234375,0.18860450387001038,0.13439024984836578,-0.5702422857284546
1774789953290046200,4.754046142578125,0.22159120440483093,0.046425722539424896,-0.09376774728298187
1774789953308571100,4.772571044921875,0.19043709337711334,-0.07757982611656189,0.08949168771505356
1774789953327096000,4.791095947265625,0.14523309469223022,-0.09407317638397217,-0.06444623321294785
1774789953345621000,4.80962109375,0.1513417512178421,0.003665188793092966,-0.32650721073150635
1774789953364146000,4.82814599609375,0.17333288490772247,0.06291907280683517,-0.536644697189331
1774789953382670800,4.8466708984375,0.12996147572994232,0.050090912729501724,-0.4981602132320404
1774789953401195800,4.86519580078125,-0.011759147047996521,0.10873392969369888,-0.26542073488235474
1774789953419720700,4.883720703125,-0.1308777779340744,0.12583814561367035,-0.09437860548496246
1774789953438245600,4.90224560546875,-0.01908952370285988,0.05070177838206291,-0.09498947113752365
1774789953456770600,4.9207705078125,0.1818849891424179,-0.03176496922969818,-0.1902843713760376
1774789953475295500,4.93929541015625,0.2735147178173065,-0.13255766034126282,-0.31490078568458557
1774789953493820400,4.9578203125,0.21914774179458618,-0.19792018830776215,-0.40225446224212646
1774789953512345300,4.976345458984375,0.0383317656815052,-0.1740964651107788,-0.39370235800743103
1774789953530870300,4.994870361328125,-0.11927134543657303,-0.10445787757635117,-0.2202167510986328
1774789953549395200,5.013395263671875,-0.0539088174700737,-0.056810423731803894,0.026572618633508682
1774789953567920000,5.031920166015625,0.1104138121008873,-0.050090912729501724,0.24404047429561615
1774789953586445000,5.050445068359375,0.14889828860759735,-0.09407317638397217,0.34605491161346436
1774789953604970000,5.068969970703125,0.007177661173045635,-0.2406807243824005,0.26419901847839355
1774789953623495000,5.087494873046875,-0.2652680277824402,-0.37323838472366333,-0.000305432389723137
1774789953642019800,5.106019775390625,-0.513279139995575,-0.2510654330253601,-0.30085089802742004
1774789953660544800,5.124544677734375,-0.43569931387901306,-0.0256563201546669,-0.3546070158481598
1774789953679069700,5.143069580078125,-0.20418155193328857,-0.002443459117785096,-0.10415244847536087
1774789953697594600,5.1615947265625,-0.028863361105322838,-0.10995566099882126,0.28924447298049927
1774789953716119600,5.18011962890625,-0.07406735420227051,-0.143553227186203,0.5836812853813171
1774789953734644500,5.19864453125,-0.16019928455352783,-0.15577052533626556,0.6050615906715393
1774789953753169400,5.21716943359375,-0.15897755324840546,-0.2516762912273407,0.3497200906276703
1774789953771694300,5.2356943359375,-0.10338886082172394,-0.15638138353824615,-0.005803215317428112
1774789953790219300,5.25421923828125,-0.10583232343196869,-0.03787361457943916,-0.25809037685394287
1774789953808744200,5.272744140625,-0.1766926348209381,-0.02260199747979641,-0.3130682110786438
1774789953827269000,5.29126904296875,-0.3098611533641815,-0.13561198115348816,-0.16096286475658417
1774789953845794000,5.3097939453125,-0.3727802336215973,-0.2101374864578247,0.010690134018659592
1774789953864319200,5.3283193359375,-0.28787001967430115,-0.12583814561367035,0.03329212963581085
1774789953882844000,5.346843994140625,-0.212733656167984,-0.04825831577181816,-0.004581485874950886
1774789953901368800,5.365368896484375,-0.15592323243618011,-0.009162971749901772,-0.007024944759905338
1774789953929156400,5.39315625,-0.13942988216876984,0.011606430634856224,-0.014966187067329884
1774789953947681300,5.411681396484375,-0.1461493968963623,-0.02932151034474373,-0.04306596517562866
1774789953966206200,5.430206298828125,-0.13209950923919678,-0.1185077652335167,-0.06811141967773438
1774789953984731100,5.448731201171875,-0.10216713696718216,-0.14294235408306122,-0.08093958348035812
1774789954003256000,5.467256103515625,-0.1565341055393219,-0.04276053607463837,-0.1029307171702385
1774789954021781000,5.485781005859375,-0.24083344638347626,0.06230820715427399,-0.18600831925868988
1774789954040306200,5.50430615234375,-0.2805396616458893,0.12583814561367035,-0.2715294063091278
1774789954058831000,5.5228310546875,-0.22128576040267944,0.034208428114652634,-0.25381430983543396
1774789954077356000,5.54135595703125,-0.13820815086364746,-0.09468404203653336,-0.1744018942117691
1774789954095881000,5.559880859375,-0.06368265300989151,-0.1386663019657135,-0.16523891687393188
1774789954114406000,5.578406005859375,-0.049021899700164795,-0.0054977829568088055,-0.2367101013660431
1774789954132930800,5.596930908203125,-0.05329795181751251,0.1899789422750473,-0.23304490745067596
1774789954151455700,5.615455810546875,-0.006872228812426329,0.16676609218120575,-0.1701258420944214
1774789954169980700,5.633980712890625,0.08353576064109802,0.09957095980644226,-0.09071341902017593
1774789954188505600,5.652505615234375,0.11713331937789917,0.0977383628487587,-0.004581485874950886
1774789954207030800,5.67103076171875,0.13729186356067657,0.16187916696071625,0.06444623321294785
1774789954225555700,5.6895556640625,0.12812888622283936,0.3017672002315521,0.010690134018659592
1774789954244080600,5.70808056640625,0.0798705667257309,0.36163195967674255,-0.1536324918270111
1774789954262605600,5.72660546875,0.040775224566459656,-0.08124501258134842,-0.40286532044410706
1774789954281130500,5.745130615234375,0.04932733252644539,-0.5687150955200195,-0.785877525806427
1774789954299655400,5.763655517578125,-0.06612611562013626,-0.5326740741729736,-1.0583232641220093
1774789954318180400,5.782180419921875,-0.16814053058624268,0.14049890637397766,-0.9208786487579346
1774789954336705300,5.800705322265625,0.037720900028944016,0.7250964641571045,-0.4786125421524048
1774789954355230200,5.819230224609375,0.4231765866279602,0.8448259830474854,0.04673115536570549
1774789954373755400,5.83775537109375,0.49831295013427734,0.648127555847168,0.35094180703163147
1774789954392280300,5.8562802734375,0.5111411213874817,0.36224281787872314,0.44501498341560364
1774789954410805200,5.87480517578125,0.5893318057060242,0.08307760953903198,0.3430005609989166
1774789954429330200,5.893330078125,0.6088794469833374,0.03481929376721382,0.19944734871387482
1774789954447855000,5.911855224609375,0.5887209177017212,0.10384701192378998,0.07788526266813278
1774789954466380000,5.930380126953125,0.6320923566818237,0.09407317638397217,0.014966187067329884
1774789954484905000,5.948905029296875,0.6485856771469116,-0.07757982611656189,0.003970621153712273
1774789954503430100,5.96743017578125,0.5294670462608337,-0.16859868168830872,-0.025961752980947495
1774789954521955000,5.985955078125,0.38530296087265015,-0.08002328872680664,-0.06444623321294785
1774789954540480000,6.00447998046875,0.3162752389907837,0.0360410213470459,-0.1230892539024353
1774789954559005000,6.0230048828125,0.29245150089263916,0.21868959069252014,-0.06811141967773438
1774789954577529900,6.04152978515625,0.25641047954559326,0.2211330533027649,0.10965022444725037
1774789954596054800,6.0600546875,0.23747368156909943,0.04520399495959282,0.24831652641296387
1774789954614580000,6.078580078125,0.2643517255783081,-0.01954767294228077,0.2715294063091278
1774789954633104600,6.097104736328125,0.21120649576187134,0.025045456364750862,0.1383608728647232
1774789954651629800,6.1156298828125,0.11896591633558273,0.09346231073141098,-0.03695731982588768
1774789954670154800,6.13415478515625,0.06154462695121765,0.15027274191379547,-0.12614357471466064
1774789954688679700,6.1526796875,0.03711003437638283,0.07452550530433655,-0.11575887352228165
1774789954707204600,6.17120458984375,0.01695149764418602,-0.04459312930703163,-0.08460476994514465
1774789954725729500,6.1897294921875,-0.0038179049734026194,-0.049480047076940536,-0.012522728182375431
1774789954744254700,6.208254638671875,-0.03741546720266342,-0.04886918142437935,0.023518294095993042
1774789954762779600,6.226779541015625,-0.014813470654189587,-0.11056652665138245,0.023518294095993042
1774789954781304600,6.2453046875,0.00045814859913662076,-0.23518294095993042,-0.05345066636800766
1774789954799829500,6.26382958984375,-0.0032070400193333626,-0.26878049969673157,-0.2507599890232086
1774789954818354400,6.2823544921875,-0.04718930274248123,-0.21746785938739777,-0.4004218578338623
1774789954836879600,6.300879638671875,-0.07223475724458694,-0.17165300250053406,-0.41263917088508606
1774789954855404500,6.319404541015625,-0.06979130208492279,-0.23518294095993042,-0.35582873225212097
1774789954873929500,6.337929443359375,-0.010537417605519295,-0.18325942754745483,-0.1951712965965271
1774789954892454400,6.356454345703125,0.02367101050913334,-0.06108647957444191,-0.0027488914784044027
1774789954910979300,6.374979248046875,-0.0386371985077858,-0.06047561392188072,-0.013133592903614044
1774789954929504300,6.393504150390625,-0.15286891162395477,-0.1698204129934311,-0.2715294063091278
1774789954948029400,6.412029541015625,-0.31902414560317993,-0.18203771114349365,-0.4657844007015228
1774789954966554400,6.430554443359375,-0.30375251173973083,-0.1178968995809555,-0.3845393657684326
1774789954985079300,6.449079345703125,-0.24205516278743744,-0.12705987691879272,-0.10231985151767731
1774789955003604200,6.467604248046875,-0.05329795181751251,-0.001832594396546483,0.35705047845840454
1774789955022129200,6.486129150390625,-0.13698641955852509,-0.12583814561367035,0.4725039005279541
1774789955040654300,6.504654296875,-0.295811265707016,-0.27916520833969116,0.250149130821228
1774789955059179300,6.52317919921875,-0.32452189922332764,-0.44409868121147156,-0.08032871782779694
1774789955077704200,6.5417041015625,-0.4027126133441925,-0.4630354940891266,-0.27091851830482483
1774789955096229000,6.56022900390625,-0.48212501406669617,-0.2260199636220932,-0.23487751185894012
1774789955114754000,6.578754150390625,-0.5896372199058533,0.0256563201546669,-0.15179990231990814
1774789955133279200,6.597279296875,-0.6611084342002869,0.10079269111156464,-0.10720676928758621
1774789955151804200,6.61580419921875,-0.633008599281311,0.09468404203653336,-0.14263692498207092
1774789955170329000,6.6343291015625,-0.5401571989059448,0.09896009415388107,-0.12370011955499649
1774789955188854000,6.65285400390625,-0.4399753510951996,0.15821397304534912,-0.0412333719432354
1774789955207379200,6.671379150390625,-0.2952004075050354,0.23457208275794983,0.06383536756038666
1774789955225904000,6.689904052734375,-0.1718057245016098,0.26511532068252563,0.15485422313213348
1774789955244429000,6.708428955078125,-0.14737112820148468,0.20280711352825165,0.1585194170475006
1774789955262954000,6.7269541015625,-0.13820815086364746,0.08368847519159317,0.08949168771505356
1774789955281479000,6.74547900390625,-0.11194097250699997,0.017715077847242355,0.04917461425065994
1774789955300004000,6.764004150390625,-0.11804962158203125,-0.14110976457595825,-0.015577051788568497
1774789955318529000,6.782529052734375,-0.13271036744117737,-0.1233946830034256,-0.07116574794054031
1774789955337054000,6.801053955078125,-0.16997312009334564,0.026878049597144127,-0.13958260416984558
1774789955355579100,6.8195791015625,-0.10705405473709106,0.1288924664258957,-0.20677772164344788
1774789955374104000,6.83810400390625,-0.019700389355421066,0.11667517572641373,-0.14813470840454102
1774789955392629000,6.85662890625,0.02611446939408779,0.008552107028663158,0.04428769648075104
1774789955411154000,6.87515380859375,0.1000291109085083,-0.13500112295150757,0.22937972843647003
1774789955429678800,6.893678955078125,0.15561780333518982,-0.1026252806186676,0.3191768527030945
1774789955448204000,6.9122041015625,0.17821979522705078,0.07330377399921417,0.34116798639297485
1774789955466728700,6.930728759765625,0.2234237939119339,0.17592905461788177,0.27030766010284424
1774789955485254000,6.94925390625,0.25702136754989624,0.22235478460788727,0.23304490745067596
1774789955503778800,6.96777880859375,0.24663665890693665,0.3811796307563782,0.2813032269477844
1774789955522304000,6.986303955078125,0.25274530053138733,0.5430588126182556,0.38209593296051025
1774789955540829000,7.004828857421875,0.23441936075687408,0.17653992772102356,0.25442516803741455
1774789955559353900,7.023353759765625,0.14950916171073914,-0.37262752652168274,-0.2721402645111084
1774789955577878800,7.041878662109375,0.02672533318400383,-0.3591884970664978,-0.7498365044593811
1774789955596403700,7.06040380859375,-0.04046979174017906,0.1997527778148651,-0.6588176488876343
1774789955614929000,7.078928955078125,0.18555018305778503,0.7134900689125061,-0.08582650125026703
1774789955633453800,7.097453857421875,0.6565269231796265,0.8069523572921753,0.5561923980712891
1774789955651978800,7.115978759765625,0.7243329286575317,0.4612029194831848,0.7064651250839233
1774789955670504000,7.13450390625,0.6320923566818237,0.01649334840476513,0.5054906010627747
1774789955689028900,7.15302880859375,0.6015490889549255,-0.16249002516269684,0.12614357471466064
1774789955707553800,7.1715537109375,0.5991056561470032,-0.10323614627122879,-0.15790854394435883
1774789955726078700,7.19007861328125,0.6076577305793762,-0.049480047076940536,-0.25870123505592346
1774789955744604000,7.20860400390625,0.6009382009506226,-0.05070177838206291,-0.21410810947418213
1774789955763128800,7.22712890625,0.5459604263305664,-0.023212861269712448,-0.06872228533029556
1774789955781653800,7.24565380859375,0.40057456493377686,0.0616973415017128,0.0925460159778595
1774789955800178700,7.2641787109375,0.19960007071495056,0.10690133273601532,0.15302163362503052
1774789955818704000,7.282703857421875,0.08720094710588455,0.0873536616563797,0.06505709886550903
1774789955837228800,7.301228759765625,0.09453132748603821,0.014660755172371864,-0.1078176349401474
1774789955855753700,7.319753662109375,0.17516547441482544,-0.046425722539424896,-0.16768237948417664
1774789955874279000,7.33827880859375,0.2234237939119339,-0.1026252806186676,-0.12003492563962936
1774789955892803800,7.356803955078125,0.23503021895885468,-0.0409279391169548,-0.04367683082818985
1774789955911328800,7.375328857421875,0.14401137828826904,0.0513126403093338,-0.024740023538470268
1774789955929853700,7.393853759765625,0.018173227086663246,0.03176496922969818,-0.05222893878817558
1774789955948378600,7.412378662109375,-0.05757400393486023,-0.1954767256975174,-0.15118902921676636
1774789955966903800,7.43090380859375,-0.09178243577480316,-0.3292561173439026,-0.21349723637104034
1774789955985428700,7.4494287109375,-0.16814053058624268,-0.33231043815612793,-0.2886336147785187
1774789956003953700,7.46795361328125,-0.17608177661895752,-0.2315177470445633,-0.3094030022621155
1774789956022478600,7.486478515625,-0.12293653935194016,-0.20647229254245758,-0.2629773020744324
1774789956041003800,7.505003662109375,-0.08689551800489426,-0.19792018830776215,-0.10109812021255493
1774789956059528700,7.52352880859375,-0.1614210158586502,-0.18387030065059662,-0.025961752980947495
1774789956078053600,7.5420537109375,-0.23228132724761963,-0.1740964651107788,-0.05039634555578232
1774789956096578800,7.560578857421875,-0.26648977398872375,-0.26878049969673157,-0.15302163362503052
1774789956115103700,7.579103759765625,-0.18035782873630524,-0.27000224590301514,-0.16646064817905426
1774789956133628700,7.597628662109375,-0.06551524996757507,-0.06352993845939636,-0.06322450190782547
1774789956152153600,7.616153564453125,-0.049021899700164795,-0.009162971749901772,0.038789913058280945
1774789956170678800,7.6346787109375,-0.11804962158203125,-0.430659681558609,-0.1230892539024353
1774789956189203700,7.65320361328125,-0.21456626057624817,-0.7446441650390625,-0.5061014890670776
1774789956207728600,7.671728759765625,-0.29336780309677124,-0.44959646463394165,-0.6887500286102295
1774789956226253800,7.69025390625,-0.388662725687027,0.09651663154363632,-0.4633409380912781
1774789956244778800,7.70877880859375,-0.25671592354774475,0.47097674012184143,0.1444695144891739
1774789956263303700,7.7273037109375,-0.14492766559123993,0.12950333952903748,0.5525271892547607
1774789956281828600,7.74582861328125,-0.1773035079240799,-0.5345066785812378,0.39309149980545044
1774789956300353800,7.764353759765625,-0.24816381931304932,-0.7049379348754883,-0.09865466505289078
1774789956318878700,7.782878662109375,-0.4558578431606293,-0.33169957995414734,-0.5482511520385742
1774789956337403600,7.801403564453125,-0.5652026534080505,0.12522727251052856,-0.6319395899772644
1774789956355928800,7.8199287109375,-0.40698865056037903,0.318871408700943,-0.383928507566452
1774789956374453800,7.838453857421875,-0.19379685819149017,0.2516762912273407,-0.047952886670827866
1774789956392978700,7.856978759765625,-0.15775582194328308,0.09407317638397217,0.11881320178508759
1774789956411503900,7.87550390625,-0.17119485139846802,-0.01282816007733345,0.1127045527100563
1774789956430028800,7.89402880859375,-0.1766926348209381,-0.01649334840476513,0.060781046748161316
1774789956448553700,7.9125537109375,-0.10461059212684631,0.07941242307424545,0.0412333719432354
1774789956467079000,7.931078857421875,0.07803797721862793,0.20402882993221283,0.025350889191031456
1774789956485603800,7.949603759765625,0.22953243553638458,0.24434591829776764,0.028405211865901947
1774789956504128800,7.968128662109375,0.3095557391643524,0.1692095398902893,0.09560033679008484
1774789956522653700,7.98665380859375,0.2961167097091675,0.021380268037319183,0.14996729791164398
1774789956541179000,8.005178955078126,0.2240346521139145,-0.053756099194288254,0.14202606678009033
1774789956559703800,8.023703857421875,0.10247256606817245,0.04276053607463837,0.0308486707508564
1774789956578228700,8.042228759765624,0.04627300798892975,0.28466299176216125,-0.13225223124027252
1774789956596754000,8.06075390625,0.08903354406356812,0.4062250852584839,-0.16523891687393188
1774789956615278800,8.07927880859375,0.19593487679958344,0.34147340059280396,-0.02779434807598591
1774789956633803800,8.0978037109375,0.32421648502349854,0.19425499439239502,0.1847866028547287
1774789956652328700,8.11632861328125,0.3065013885498047,0.10690133273601532,0.2935205399990082
1774789956670854000,8.13485400390625,0.18310672044754028,0.14049890637397766,0.21288637816905975
1774789956689378800,8.15337890625,0.15806126594543457,0.16004657745361328,0.08093958348035812
1774789956707904000,8.171904052734375,0.21548254787921906,0.14233149588108063,0.035735588520765305
1774789956726429000,8.190428955078126,0.25641047954559326,0.23029601573944092,0.06627883017063141
1774789956744953900,8.208953857421875,0.27779075503349304,0.42271843552589417,0.10842850059270859
1774789956763479000,8.22747900390625,0.2997818887233734,0.6505709886550903,0.1640172004699707
1774789956782004000,8.24600390625,0.3620901107788086,0.6560688018798828,0.13591741025447845
1774789956800529000,8.26452880859375,0.3975202441215515,0.17837251722812653,-0.04734202101826668
1774789956819053800,8.2830537109375,0.2991710305213928,-0.18631376326084137,-0.33139413595199585
1774789956837579000,8.3015791015625,0.1611155867576599,-0.000610864779446274,-0.4712821841239929
1774789956856104000,8.32010400390625,0.18677189946174622,0.4013381600379944,-0.22937972843647003
1774789956874628900,8.33862890625,0.4384481906890869,0.6823359727859497,0.20738859474658966
1774789956893153800,8.35715380859375,0.7237220406532288,0.7892373204231262,0.5006036758422852
1774789956911679000,8.375678955078126,0.8348994255065918,0.5320632457733154,0.45906487107276917
1774789956930204000,8.394203857421875,0.8019127249717712,0.10934479534626007,0.272751122713089
1774789956948729000,8.41272900390625,0.6931788325309753,-0.12156209349632263,0.10903936624526978
1774789956967254000,8.43125390625,0.5911644101142883,-0.1441640853881836,0.005803215317428112
1774789956985779000,8.449779052734375,0.5862774848937988,-0.10384701192378998,-0.11514800786972046
1774789957004304100,8.46830419921875,0.6174315810203552,-0.07941242307424545,-0.25381430983543396
1774789957022829000,8.4868291015625,0.5557342171669006,-0.011606430634856224,-0.24342961609363556
1774789957041354200,8.505354248046874,0.39507678151130676,0.08918625861406326,-0.06200277432799339
1774789957059879200,8.523879150390625,0.23991714417934418,0.17165300250053406,0.15057817101478577
1774789957078404000,8.542404052734375,0.12812888622283936,0.18692462146282196,0.1646280586719513
1774789957096929000,8.560928955078126,0.10063996911048889,0.2162461280822754,0.07849612087011337
1774789957115454200,8.5794541015625,0.12751802802085876,0.20463970303535461,0.015577051788568497
1774789957133979100,8.597979248046874,0.24236060678958893,0.15577052533626556,0.10537417232990265
1774789957152504300,8.61650439453125,0.25702136754989624,0.07452550530433655,0.15179990231990814
1774789957171029200,8.635029296875,0.1611155867576599,0.1178968995809555,0.08399390429258347
1774789957189554200,8.65355419921875,0.03588830679655075,0.13255766034126282,-0.011300998739898205
1774789957208079000,8.6720791015625,-0.0795651376247406,-0.031154103577136993,-0.08949168771505356
1774789957226604300,8.690604248046874,-0.14431680738925934,-0.2968802750110626,-0.17318016290664673
1774789957245129200,8.709129150390625,-0.15775582194328308,-0.40378162264823914,-0.28985533118247986
1774789957263654400,8.727654296875,-0.15775582194328308,-0.2712239623069763,-0.33689191937446594
1774789957282179300,8.746179443359376,-0.19379685819149017,-0.07330377399921417,-0.2409861534833908
1774789957300704300,8.764704345703125,-0.26710063219070435,-0.004276053514331579,-0.1597411334514618
1774789957319229400,8.7832294921875,-0.2799287736415863,0.006108647678047419,-0.18906265497207642
1774789957337754400,8.80175439453125,-0.2438877671957016,-0.07880155742168427,-0.20127993822097778
1774789957356279600,8.820279541015625,-0.27748534083366394,-0.27488914132118225,-0.1542433500289917
1774789957374804500,8.838804443359376,-0.34834563732147217,-0.2162461280822754,-0.010690134018659592
1774789957393329400,8.857329345703125,-0.3984365463256836,-0.1288924664258957,0.05833758786320686
1774789957411854600,8.8758544921875,-0.3868301212787628,-0.29626941680908203,-0.11575887352228165
1774789957430379500,8.894379638671875,-0.397825688123703,-0.2993237376213074,-0.3338375985622406
1774789957448904400,8.912904541015624,-0.4503600597381592,-0.001832594396546483,-0.25809037685394287
1774789957467429600,8.9314296875,-0.4240928590297699,0.09162971377372742,0.0565049909055233
1774789957485954600,8.94995458984375,-0.24633121490478516,-0.08979712426662445,0.39248061180114746
1774789957504479700,8.968479736328124,-0.1302669197320938,-0.37812530994415283,0.4682278633117676
1774789957523004700,8.987004638671875,-0.11621702462434769,-0.5943714380264282,0.32100942730903625
1774789957541529600,9.005529541015624,-0.19440771639347076,-0.5711585879325867,0.16157373785972595
1774789957560054800,9.0240546875,-0.3874409794807434,-0.3488037884235382,0.07849612087011337
1774789957578579700,9.042579833984375,-0.4912880063056946,-0.12461641430854797,0.0565049909055233
1774789957597104600,9.061104736328126,-0.4454731345176697,-0.08002328872680664,0.0668896958231926
1774789957615629800,9.0796298828125,-0.37583455443382263,-0.04153880476951599,0.08093958348035812
1774789957634154800,9.09815478515625,-0.35506516695022583,-0.45998117327690125,-0.06872228533029556
1774789957652680000,9.116679931640626,-0.4589121639728546,-0.5430588126182556,-0.19944734871387482
1774789957671204900,9.135204833984375,-0.531605064868927,-0.41355544328689575,-0.23304490745067596
1774789957689730000,9.15372998046875,-0.4601338803768158,-0.15760311484336853,-0.2568686306476593
1774789957708255000,9.1722548828125,-0.19013166427612305,0.17104214429855347,-0.11881320178508759
1774789957726780200,9.1907802734375,0.08048143237829208,0.36285367608070374,0.20677772164344788
1774789957745305000,9.20930517578125,0.14767655730247498,0.2657261788845062,0.4560105502605438
1774789957763830000,9.227830078125,0.08048143237829208,0.08307760953903198,0.5342012643814087
1774789957782355200,9.246355224609376,-0.07589995115995407,0.05803215503692627,0.37232208251953125
1774789957800880000,9.264880126953125,-0.16569706797599792,0.07391463965177536,0.16768237948417664
1774789957819405000,9.283405029296874,-0.10888664424419403,0.22724169492721558,0.04673115536570549
1774789957837930200,9.30193017578125,-0.06062832847237587,0.4373791813850403,0.04917461425065994
1774789957856455200,9.320455078125,-0.02764163166284561,0.3695732057094574,0.023518294095993042
1774789957874980400,9.33898046875,0.08292489498853683,0.20647229254245758,0.0308486707508564
1774789957893505300,9.35750537109375,0.2802342176437378,0.03909534588456154,0.0668896958231926
1774789957912030500,9.376030517578124,0.32910341024398804,0.04214967042207718,0.0204639695584774
1774789957930555400,9.394555419921875,0.2955058515071869,0.18387030065059662,-0.05283980444073677
1774789957949080600,9.41308056640625,0.34193155169487,0.40317076444625854,0.022296564653515816
1774789957967605500,9.43160546875,0.40485063195228577,0.7739656567573547,0.2721402645111084
1774789957986130700,9.450130615234375,0.425009161233902,0.9572250843048096,0.3814850449562073
1774789958004655600,9.468655517578124,0.24663665890693665,0.5186241865158081,0.19272783398628235
1774789958023180800,9.487180908203126,0.1977674663066864,-0.24006985127925873,-0.1493564397096634
1774789958041705700,9.505705810546875,0.25274530053138733,-0.4776962697505951,-0.3191768527030945
1774789958060231000,9.52423095703125,0.24174973368644714,0.2565632164478302,0.03756818547844887
1774789958078755800,9.542755859375,0.17944152653217316,0.9578359723091125,0.5574141144752502
1774789958097280800,9.56128076171875,0.27229297161102295,0.8491020202636719,0.7467821836471558
1774789958115806000,9.579805908203125,0.4592176079750061,0.1649334877729416,0.528092622756958
1774789958134331000,9.598330810546875,0.6204859018325806,-0.27855435013771057,0.2153298407793045
1774789958152856000,9.61685595703125,0.5441278219223022,-0.22724169492721558,-0.007024944759905338
1774789958171381000,9.635381103515625,0.40973755717277527,0.10140355676412582,-0.07971785217523575
1774789958189906200,9.65390625,0.434783011674881,0.1954767256975174,-0.07422006875276566
1774789958208431000,9.67243115234375,0.5392408967018127,0.07147117704153061,-0.010079269297420979
1774789958226956300,9.690956298828125,0.5129737257957458,0.043371398001909256,0.2049451321363449
1774789958245481200,9.709481201171876,0.3254382014274597,0.07635809481143951,0.39797839522361755
1774789958264006400,9.72800634765625,0.1818849891424179,0.14110976457595825,0.43401941657066345
1774789958282531300,9.74653125,0.11774418503046036,0.21746785938739777,0.3228420317173004
1774789958301056500,9.765056396484376,0.12446369975805283,0.13561198115348816,0.19761475920677185
1774789958319581400,9.78358154296875,0.20387612283229828,-0.0616973415017128,0.17562362551689148
1774789958338106600,9.802106689453124,0.2503018379211426,-0.23518294095993042,0.26480987668037415
1774789958356631600,9.820631591796875,0.20448698103427887,-0.18203771114349365,0.38270679116249084
1774789958375156700,9.83915673828125,0.05543597787618637,-0.07024945318698883,0.33078327775001526
1774789958393681700,9.857681640625,-0.14737112820148468,0.011606430634856224,0.08826996386051178
1774789958412206800,9.876206787109375,-0.1974620372056961,0.056199558079242706,-0.1487455666065216
1774789958430731800,9.894731689453126,-0.19013166427612305,0.049480047076940536,-0.2507599890232086
1774789958449257200,9.91325732421875,-0.23655737936496735,0.03909534588456154,-0.24465134739875793
1774789958467782400,9.931782470703125,-0.21029019355773926,0.006108647678047419,-0.23976442217826843
1774789958486307300,9.950307373046876,-0.1718057245016098,-0.004886918235570192,-0.2214384824037552
1774789958504832500,9.96883251953125,-0.20479241013526917,-0.026878049597144127,-0.15546508133411407
1774789958523357400,9.987357421875,-0.2487746775150299,-0.07269290834665298,-0.11148282140493393
1774789958541882600,10.005882568359375,-0.19562944769859314,-0.08491020649671555,-0.0870482325553894
1774789958560407600,10.024407470703125,-0.014813470654189587,-0.13927717506885529,-0.035124726593494415
1774789958578932700,10.0429326171875,0.19104796648025513,-0.15577052533626556,0.04917461425065994
1774789958597457700,10.061457763671875,0.2600756883621216,0.040317077189683914,0.19394956529140472
1774789958615982800,10.07998291015625,0.09697478264570236,0.13683371245861053,0.2971857190132141
1774789958634508000,10.098508056640625,-0.162031888961792,-0.30543237924575806,0.10231985151767731
1774789958653033000,10.117032958984375,-0.2536616027355194,-0.583375871181488,-0.23793183267116547
1774789958671558100,10.13555810546875,-0.18829907476902008,-0.2822195291519165,-0.2458730787038803
1774789958690083000,10.1540830078125,-0.08078686892986298,0.24862197041511536,0.14080433547496796
1774789958708608300,10.172608154296874,0.005955931730568409,0.38789913058280945,0.5928442478179932
1774789958727133200,10.19113330078125,0.019394956529140472,0.11362084746360779,0.7107411623001099
1774789958745658400,10.209658447265625,-0.13881902396678925,-0.318871408700943,0.42974337935447693
1774789958764183600,10.22818359375,-0.3324631452560425,-0.5693259835243225,-0.04673115536570549
1774789958791971000,10.25597119140625,-0.40637779235839844,-0.5137372612953186,-0.4773908257484436
1774789958810496300,10.274496337890625,-0.32268932461738586,-0.2309068888425827,-0.38759371638298035
1774789958829021200,10.293021240234374,-0.27320927381515503,0.0054977829568088055,-0.20922118425369263
1774789958847546400,10.31154638671875,-0.2548833191394806,0.17226386070251465,-0.07299833744764328
1774789958866071300,10.3300712890625,-0.22434009611606598,0.258395791053772,-0.019242240116000175
1774789958884596500,10.348596435546876,-0.17486004531383514,0.25961753726005554,-0.024740023538470268
1774789958903121700,10.36712158203125,-0.06612611562013626,0.15088360011577606,-0.0308486707508564
1774789958921646600,10.385646484375,0.056657709181308746,0.012217295356094837,-0.06017018109560013
1774789958940171800,10.404171875,0.12812888622283936,0.01649334840476513,-0.06322450190782547
1774789958958696700,10.42269677734375,0.1366809904575348,0.02626718580722809,-0.06444623321294785
1774789958977222000,10.441221923828126,0.1256854236125946,0.03176496922969818,0.010690134018659592
1774789958995747000,10.4597470703125,0.0383317656815052,-0.0256563201546669,0.0565049909055233
1774789959014272000,10.47827197265625,-0.02764163166284561,-0.0513126403093338,0.0204639695584774
1774789959032797200,10.496797119140625,-0.02214384824037552,0.004886918235570192,-0.07116574794054031
1774789959051322400,10.515322265625,0.041386090219020844,0.205861434340477,-0.07788526266813278
1774789959069847300,10.533847412109376,0.09392046183347702,0.23457208275794983,-0.000305432389723137
1774789959088372200,10.552372314453125,0.1311832070350647,0.14599667489528656,0.08155044913291931
1774789959106897700,10.570897705078124,0.10247256606817245,0.10873392969369888,0.08888082206249237
1774789959125422600,10.589422607421875,0.08109229803085327,0.10506874322891235,0.004581485874950886
1774789959143947800,10.60794775390625,0.1727220118045807,0.06902772188186646,-0.035124726593494415
1774789959171735600,10.635735595703125,0.35353797674179077,0.34208428859710693,0.11453714966773987
1774789959190260500,10.654260498046876,0.35903576016426086,0.8881973624229431,0.29901832342147827
1774789959208785700,10.67278564453125,0.19960007071495056,1.201570987701416,0.31184646487236023
1774789959227310600,10.691310546875,-0.10827577859163284,0.4667007029056549,-0.011300998739898205
1774789959245835800,10.709835693359375,-0.04718930274248123,-0.7287616729736328,-0.7418952584266663
1774789959264361000,10.72836083984375,0.20387612283229828,-0.8973603844642639,-1.155450701713562
1774789959282886000,10.746885986328126,0.44761115312576294,0.3035998046398163,-0.6728675365447998
1774789959301411000,10.7654111328125,0.6265945434570312,1.3261874914169312,0.24526220560073853
1774789959319936300,10.783936279296874,0.7603739500045776,1.1759146451950073,0.8872811198234558
1774789959338461400,10.80246142578125,0.8037453293800354,0.29626941680908203,0.9275981783866882
1774789959356986600,10.820986572265625,0.7799215912818909,-0.38789913058280945,0.5433642268180847
1774789959375511600,10.839511474609376,0.7780889868736267,-0.4838049113750458,0.1432477980852127
1774789959394036700,10.85803662109375,0.7463240623474121,-0.21197007596492767,-0.054672397673130035
1774789959412561700,10.876561767578124,0.670576810836792,0.1130099818110466,-0.08582650125026703
1774789959431086800,10.8950869140625,0.48670652508735657,0.24801109731197357,-0.07238747924566269
1774789959449612000,10.913612060546875,0.29856017231941223,0.21807873249053955,-0.019853105768561363
1774789959468137200,10.93213720703125,0.13790272176265717,0.10934479534626007,0.019853105768561363
1774789959486662100,10.950662109375,-0.02764163166284561,0.09468404203653336,0.06383536756038666
1774789959505187300,10.969187255859374,-0.18035782873630524,0.046425722539424896,0.0565049909055233
1774789959523712500,10.98771240234375,-0.20906847715377808,-0.03909534588456154,-0.02718348242342472
1774789959542237400,11.006237548828125,-0.14492766559123993,-0.12644900381565094,-0.11698060482740402
1774789959560762600,11.0247626953125,-0.10766492038965225,-0.17592905461788177,-0.16279546916484833
1774789959579287800,11.043287841796875,-0.1669187992811203,-0.16004657745361328,-0.13958260416984558
1774789959597813000,11.06181298828125,-0.3214675784111023,-0.15699224174022675,-0.08338304609060287
1774789959616338200,11.080338134765626,-0.46685341000556946,-0.24312418699264526,-0.08888082206249237
1774789959634863000,11.098863037109375,-0.5151117444038391,-0.3659079968929291,-0.12736530601978302
1774789959653388300,11.11738818359375,-0.5297724604606628,-0.43860089778900146,-0.15607595443725586
1774789959671913500,11.13591357421875,-0.53221595287323,-0.44898560643196106,-0.2464839369058609
1774789959690438700,11.154438720703125,-0.48823368549346924,-0.41905322670936584,-0.33567020297050476
1774789959708963600,11.172963623046876,-0.43692103028297424,-0.4202749729156494,-0.3032943606376648
1774789959727488800,11.19148876953125,-0.42042768001556396,-0.5699368119239807,-0.189673513174057
1774789959746014000,11.210013916015624,-0.4289797842502594,-0.711046576499939,-0.10537417232990265
1774789959764539100,11.2285390625,-0.3819431960582733,-0.6218603253364563,-0.028405211865901947
1774789959783064300,11.247064208984375,-0.36972591280937195,-0.26022839546203613,0.044898562133312225
1774789959801589200,11.26558935546875,-0.502894401550293,-0.1441640853881836,-0.09560033679008484
1774789959820114400,11.284114501953125,-0.6647735834121704,-0.48013970255851746,-0.3796524703502655
1774789959838639600,11.3026396484375,-0.725860059261322,-0.5497782826423645,-0.5115992426872253
1774789959857164800,11.321164794921875,-0.7399099469184875,-0.29016077518463135,-0.2880227565765381
1774789959875689700,11.339689697265625,-0.6696605086326599,-0.01649334840476513,0.18906265497207642
1774789959894215000,11.35821484375,-0.5639809370040894,0.11606431007385254,0.591622531414032
1774789959912740000,11.376739990234375,-0.5120574235916138,-0.10995566099882126,0.5757400393486023
1774789959931265300,11.395265380859374,-0.49189886450767517,-0.4819723069667816,0.23915356397628784
1774789959949790500,11.41379052734375,-0.5340485572814941,-0.6291907429695129,-0.15790854394435883
1774789959968315600,11.432315673828125,-0.5829176902770996,-0.5693259835243225,-0.37720900774002075
1774789959986840600,11.450840576171874,-0.5755873322486877,-0.4062250852584839,-0.35582873225212097
1774789960005365800,11.46936572265625,-0.5621483325958252,-0.27000224590301514,-0.2153298407793045
1774789960023891000,11.487890869140625,-0.5340485572814941,-0.12400554865598679,-0.013133592903614044
1774789960042416000,11.506416015625,-0.4741837978363037,-0.0256563201546669,0.11881320178508759
1774789960060941300,11.52494140625,-0.3556760251522064,0.025045456364750862,0.14996729791164398
1774789960079466500,11.543466552734374,-0.25060728192329407,0.047036588191986084,0.16340632736682892
1774789960097991400,11.561991455078125,-0.16752967238426208,-0.004886918235570192,0.21410810947418213
1774789960116516600,11.5805166015625,-0.06979130208492279,-0.04520399495959282,0.27030766010284424
1774789960135041800,11.599041748046876,-0.01847865991294384,-0.0873536616563797,0.26419901847839355
1774789960153567000,11.61756689453125,-0.05513054504990578,-0.08002328872680664,0.18234314024448395
1774789960172092200,11.636092041015624,-0.11927134543657303,-0.04459312930703163,0.048563748598098755
1774789960190617300,11.654617431640625,-0.16325360536575317,0.03237583488225937,-0.07116574794054031
1774789960209142500,11.673142578125,-0.21456626057624817,0.1130099818110466,-0.10659590363502502
1774789960227667500,11.69166748046875,-0.21700970828533173,0.09346231073141098,-0.07055488228797913
1774789960246192600,11.710192626953125,-0.1156061589717865,0.01588248461484909,-0.008857538923621178
1774789960264717800,11.7287177734375,-0.04046979174017906,0.046425722539424896,0.016798781231045723
1774789960283243000,11.747242919921876,0.05604684352874756,0.17531819641590118,0.07299833744764328
1774789960301768200,11.765768310546875,0.1256854236125946,0.2162461280822754,0.12186752259731293
1774789960320293400,11.78429345703125,0.15317434072494507,0.26450446248054504,0.12736530601978302
1774789960338818600,11.802818603515625,0.14767655730247498,0.2620609998703003,0.06933315098285675
1774789960357343700,11.82134375,0.19410228729248047,0.22296564280986786,0.06322450190782547
1774789960375868700,11.83986865234375,0.34193155169487,0.3347539007663727,0.22388194501399994
1774789960394394000,11.85839404296875,0.5196931958198547,0.6365211009979248,0.39186975359916687
1774789960412919000,11.8769189453125,0.669965922832489,0.7006618976593018,0.45906487107276917
1774789960431444200,11.8954443359375,0.7628173828125,0.004276053514331579,0.3857611119747162
1774789960449969400,11.913969482421875,0.7389936447143555,-0.6817250847816467,0.30146175622940063
1774789960468494600,11.93249462890625,0.5209149122238159,-0.5009090900421143,0.3283398151397705
1774789960487019800,11.951019775390625,0.3584249019622803,0.3909534513950348,0.47922343015670776
1774789960505545000,11.969544921875,0.5490147471427917,0.962722897529602,0.6258309483528137
1774789960524070100,11.988070068359375,0.9637919068336487,0.8875865340232849,0.6325504779815674
1774789960542595300,12.00659521484375,1.1085668802261353,0.47097674012184143,0.4572322964668274
1774789960561120500,12.02512060546875,0.9204205274581909,0.27916520833969116,0.3185659945011139
1774789960579645400,12.0436455078125,0.5416843295097351,0.35674503445625305,0.2409861534833908
1774789960598171000,12.0621708984375,0.2179260104894638,0.4776962697505951,0.14630211889743805
1774789960616696000,12.080696044921876,0.0383317656815052,0.535728394985199,0.035735588520765305
1774789960635221000,12.099220947265625,-0.07223475724458694,0.5626064538955688,-0.005192350596189499
1774789960653746200,12.11774609375,-0.10949750989675522,0.4404335021972656,0.03634645417332649
1774789960672271600,12.136271728515625,-0.008704823441803455,0.25534147024154663,0.09132428467273712
1774789960690796500,12.154796630859375,0.1611155867576599,0.16187916696071625,0.10476330667734146
1774789960709321700,12.17332177734375,0.21426081657409668,0.12095122784376144,0.09193515032529831
1774789960727847000,12.191846923828125,0.15012001991271973,0.08613193035125732,0.05406153202056885
1774789960746372000,12.2103720703125,0.0847574844956398,0.010384701192378998,-0.01435532234609127
1774789960764897300,12.228897216796875,0.10125083476305008,-0.043982263654470444,-0.08521563559770584
1774789960783422500,12.24742236328125,0.12873975932598114,-0.11056652665138245,-0.1744018942117691
1774789960801947600,12.26594775390625,0.1262962967157364,-0.20158538222312927,-0.20127993822097778
1774789960820472800,12.284472900390625,0.04016435891389847,-0.2675587832927704,-0.19944734871387482
1774789960838998000,12.302998046875,-0.10277800261974335,-0.2052505612373352,-0.1737910360097885
1774789960857523200,12.321523193359376,-0.2591593861579895,-0.08429934084415436,-0.1383608728647232
1774789960876048400,12.34004833984375,-0.33979353308677673,-0.14110976457595825,-0.14141519367694855
1774789960894573600,12.358573486328124,-0.33001968264579773,-0.2877173125743866,-0.2000582218170166
1774789960913098800,12.3770986328125,-0.2945895493030548,-0.401949018239975,-0.3032943606376648
1774789960931624000,12.3956240234375,-0.32757624983787537,-0.4056142270565033,-0.34116798639297485
1774789960950149000,12.414149169921876,-0.3202458620071411,-0.29443681240081787,-0.19150610268115997
1774789960968674300,12.43267431640625,-0.27137666940689087,-0.24556763470172882,0.0015271619195118546
1774789960987199500,12.451199462890624,-0.21090106666088104,-0.18753549456596375,0.19272783398628235
1774789961005724700,12.469724609375,-0.06856957077980042,-0.10384701192378998,0.41386088728904724
1774789961024249900,12.488249755859375,0.08781181275844574,-0.08979712426662445,0.5378664135932922
1774789961042775000,12.506775146484374,0.04566214233636856,-0.5222893953323364,0.29901832342147827
1774789961061300200,12.52530029296875,-0.21578797698020935,-0.8772017955780029,-0.1591302752494812
1774789961079825400,12.543825439453125,-0.5236638188362122,-0.6316341757774353,-0.45478883385658264
1774789961098350600,12.5623505859375,-0.605519711971283,-0.17837251722812653,-0.43340855836868286
1774789961116875800,12.580875732421875,-0.4332558512687683,0.09957095980644226,-0.18845178186893463
1774789961135401000,12.59940087890625,-0.27809619903564453,-0.059864748269319534,0.047952886670827866
1774789961153926100,12.617926025390625,-0.4021017551422119,-0.56382817029953,0.060781046748161316
1774789961172451300,12.636451416015625,-0.7179188132286072,-0.8741474747657776,-0.10965022444725037
1774789961190976500,12.6549765625,-0.8614720702171326,-0.7825177907943726,-0.2458730787038803
1774789961209501700,12.673501708984375,-0.7484620809555054,-0.4563159942626953,-0.23365578055381775
1774789961228027100,12.692027099609374,-0.49984011054039,-0.16065743565559387,-0.09498947113752365
1774789961246552300,12.71055224609375,-0.263435423374176,0.011606430634856224,0.10903936624526978
1774789961265077500,12.729077392578125,-0.22556181252002716,0.1130099818110466,0.21166464686393738
1774789961283602400,12.7476025390625,-0.3165806829929352,0.13561198115348816,0.2000582218170166
1774789961302127900,12.7661279296875,-0.44119709730148315,0.04214967042207718,0.07422006875276566
1774789961320653000,12.784653076171875,-0.41676250100135803,-0.000610864779446274,-0.10231985151767731
1774789961339178200,12.80317822265625,-0.2591593861579895,0.001221729558892548,-0.21960589289665222
1774789961357703400,12.821703369140625,-0.049632761627435684,-0.0256563201546669,-0.1792888194322586
1774789961376228600,12.840228515625,0.064598947763443,-0.07819069176912308,-0.06994401663541794
1774789961394753800,12.85875390625,-0.03375028073787689,-0.06963858753442764,0.007024944759905338
1774789961413279000,12.877279052734375,-0.2652680277824402,-0.0409279391169548,-0.060781046748161316
1774789961431804200,12.89580419921875,-0.3367392122745514,-0.018325943499803543,-0.2458730787038803
1774789961450329300,12.914329345703125,-0.18890993297100067,0.053756099194288254,-0.3271180987358093
1774789961468854500,12.9328544921875,0.044440411031246185,0.18387030065059662,-0.14569124579429626
1774789961487379700,12.951379638671876,0.21059563755989075,0.22663083672523499,0.13775001466274261
1774789961505905200,12.9699052734375,0.2698495090007782,0.2620609998703003,0.32589635252952576
1774789961524430300,12.988430419921874,0.23625195026397705,0.24984370172023773,0.31673339009284973
1774789961542955500,13.00695556640625,0.13973531126976013,0.23273947834968567,0.2000582218170166
1774789961561480700,13.025480712890625,0.041386090219020844,0.1747073233127594,0.07544180005788803
1774789961580006000,13.044005859375,0.03222311660647392,0.3133736252784729,0.1078176349401474
1774789961598531000,13.062531005859375,0.18005239963531494,0.7073814272880554,0.2660316228866577
1774789961617056300,13.08105615234375,0.27779075503349304,0.6157516837120056,0.18234314024448395
1774789961635581400,13.09958154296875,0.11591159552335739,-0.07086031138896942,-0.29962918162345886
1774789961654106600,13.118106689453125,-0.06307178735733032,-0.4453204274177551,-0.5910117030143738
1774789961672631800,13.1366318359375,-0.049632761627435684,-0.23212862014770508,-0.3533852696418762
1774789961691157200,13.1551572265625,0.12996147572994232,0.19425499439239502,0.04428769648075104
1774789961709682400,13.173682373046875,0.558788537979126,0.4618137776851654,0.37354379892349243
1774789961728207600,13.19220751953125,0.8629992008209229,0.31459537148475647,0.4108065664768219
1774789961746732800,13.21073291015625,0.9741765856742859,-0.023212861269712448,0.25442516803741455
1774789961765258000,13.229258056640624,0.8929315805435181,-0.19242240488529205,0.11209368705749512
1774789961783783200,13.247783203125,0.6302597522735596,-0.23029601573944092,0.051618073135614395
1774789961802308400,13.266308349609375,0.4243983030319214,-0.09834922850131989,0.1334739476442337
1774789961820833800,13.284833740234374,0.3205513060092926,0.11728604137897491,0.26419901847839355
1774789961839359000,13.30335888671875,0.27779075503349304,0.26939135789871216,0.29901832342147827
1774789961857884200,13.32188427734375,0.2283107042312622,0.2571740746498108,0.24404047429561615
1774789961876409300,13.340409423828126,0.09758564829826355,0.19181154668331146,0.13958260416984558
1774789961894934500,13.3589345703125,-0.007483093533664942,0.1893680840730667,0.05589412897825241
1774789961913459700,13.377459716796874,0.004123337101191282,0.2205221801996231,0.000305432389723137
1774789961931985200,13.395985107421875,0.12018764764070511,0.20891575515270233,0.025350889191031456
1774789961950510300,13.41451025390625,0.20387612283229828,0.14233149588108063,0.06200277432799339
1774789961969035500,13.433035400390626,0.2185368686914444,0.08063415437936783,0.05589412897825241
1774789961987560700,13.451560791015625,0.18677189946174622,0.07086031138896942,0.05589412897825241
1774789962006086000,13.4700859375,0.09392046183347702,-0.09468404203653336,-0.000305432389723137
1774789962024611000,13.488611083984376,0.04260781779885292,-0.28527384996414185,-0.0772743970155716
1774789962043136500,13.507136474609375,-0.03191768378019333,-0.31093016266822815,-0.1383608728647232
1774789962061661700,13.52566162109375,-0.17486004531383514,-0.2461785078048706,-0.22937972843647003
1774789962080187000,13.544186767578125,-0.2842048406600952,-0.15515965223312378,-0.31062474846839905
1774789962098712000,13.562712158203125,-0.304974228143692,-0.15699224174022675,-0.33750277757644653
1774789962117237200,13.5812373046875,-0.25671592354774475,-0.2626718580722809,-0.3338375985622406
1774789962135762400,13.599762451171875,-0.12660172581672668,-0.25045454502105713,-0.22999058663845062
1774789962154287900,13.618287841796874,-0.07895427197217941,-0.11423171311616898,-0.057726722210645676
1774789962172813000,13.63681298828125,0.00045814859913662076,0.14110976457595825,0.1646280586719513
1774789962191338200,13.655338134765625,0.1104138121008873,0.43310311436653137,0.34727662801742554
1774789962209863400,13.673863525390624,0.11835505068302155,0.4880809485912323,0.35582873225212097
1774789962228388600,13.692388671875,-0.191964253783226,-0.0054977829568088055,-0.06444623321294785
1774789962246913800,13.710913818359375,-0.47174033522605896,-0.4972439408302307,-0.5965094566345215
1774789962265439000,13.72943896484375,-0.44730573892593384,-0.6053670048713684,-0.7272345423698425
1774789962283964400,13.74796435546875,-0.08750637620687485,-0.2406807243824005,-0.27580544352531433
1774789962302489600,13.766489501953124,0.35537058115005493,0.2406807243824005,0.36682429909706116
1774789962321014800,13.785014892578126,0.5074759125709534,0.33047783374786377,0.6960803866386414
1774789962339540000,13.8035400390625,0.32360562682151794,0.0409279391169548,0.6191114783287048
1774789962358065200,13.822065185546874,-0.10155627131462097,-0.39889469742774963,0.27580544352531433
1774789962376590300,13.84059033203125,-0.41554075479507446,-0.5039634704589844,0.04978547990322113
1774789962395115800,13.85911572265625,-0.5371028780937195,-0.34208428859710693,0.00946840364485979
1774789962413641000,13.877640869140626,-0.53221595287323,-0.08552107214927673,0.035124726593494415
1774789962432166100,13.896166259765625,-0.46257734298706055,0.049480047076940536,0.025961752980947495
1774789962450691300,13.91469140625,-0.4815141558647156,0.03481929376721382,-0.08093958348035812
1774789962469216800,13.933216796875,-0.5041161775588989,0.02932151034474373,-0.2263254076242447
1774789962487742000,13.951741943359375,-0.4705185890197754,0.023212861269712448,-0.2837466895580292
1774789962506267100,13.97026708984375,-0.41004297137260437,0.11362084746360779,-0.18356487154960632
1774789962524792300,13.988792236328125,-0.3355174660682678,0.17531819641590118,-0.051618073135614395
1774789962543317800,14.00731787109375,-0.17608177661895752,0.11056652665138245,0.07849612087011337
1774789962561843000,14.025843017578126,-0.023365577682852745,-0.12217295914888382,0.14202606678009033
1774789962580368100,14.0443681640625,0.057268574833869934,-0.2559523284435272,0.13164135813713074
1774789962598893300,14.062893310546874,0.002901607658714056,-0.17653992772102356,0.047952886670827866
1774789962617418500,14.08141845703125,-0.1418733447790146,0.10629047453403473,-0.05833758786320686
1774789962635943700,14.099943603515625,-0.2493855506181717,0.3530798554420471,-0.11575887352228165
1774789962654469000,14.11846923828125,-0.17424917221069336,0.42882707715034485,-0.10109812021255493
1774789962672994300,14.136994384765625,0.02977965772151947,0.3494146466255188,-0.005803215317428112
1774789962691519500,14.15551953125,0.16905683279037476,0.11911863088607788,0.018631376326084137
1774789962710044700,14.174044677734376,0.23014330863952637,-0.11545344442129135,-0.0027488914784044027
1774789962728570000,14.192570068359375,0.16600249707698822,-0.17531819641590118,-0.022907428443431854
1774789962747095300,14.21109521484375,0.054214250296354294,0.002443459117785096,-0.022296564653515816
1774789962765620500,14.229620361328125,0.064598947763443,0.43921178579330444,0.05406153202056885
1774789962784145700,14.248145751953125,0.24236060678958893,0.8894191384315491,0.16279546916484833
1774789962802671000,14.266671142578126,0.40118545293807983,0.9028581380844116,0.10231985151767731
1774789962821196300,14.2851962890625,0.32788166403770447,-0.015271619893610477,-0.24953825771808624
1774789962839721500,14.303721435546874,0.06887500733137131,-0.8857539296150208,-0.47494736313819885
1774789962858246700,14.32224658203125,-0.22250749170780182,-0.6591231226921082,-0.1695149689912796
1774789962876771800,14.340771728515625,-0.30802857875823975,0.5082395076751709,0.49510589241981506
1774789962895297300,14.35929736328125,-0.10827577859163284,1.3060288429260254,0.8909462690353394
1774789962913822500,14.377822509765625,0.2808450758457184,1.1227694749832153,0.7510582208633423
1774789962932347600,14.39634765625,0.6772963404655457,0.2675587832927704,0.39309149980545044
1774789962950872800,14.414872802734376,0.846505880355835,-0.4214966893196106,0.08888082206249237
1774789962969398300,14.433398193359375,0.7451022863388062,-0.5723803043365479,-0.0308486707508564
1774789962987923500,14.45192333984375,0.5221366882324219,-0.43004879355430603,-0.044898562133312225
1774789963006448600,14.47044873046875,0.3578140437602997,-0.2315177470445633,-0.013133592903614044
1774789963024973800,14.488973876953125,0.2753472924232483,-0.04459312930703163,0.04917461425065994
1774789963043499300,14.507499267578124,0.1727220118045807,0.17592905461788177,0.10598503798246384
1774789963062024400,14.5260244140625,0.015729768201708794,0.2926042377948761,0.08826996386051178
1774789963080549600,14.544549560546875,-0.06246092543005943,0.3451386094093323,0.09315688163042068
1774789963099074800,14.56307470703125,-0.08811724185943604,0.1997527778148651,0.09315688163042068
1774789963117600300,14.581600341796875,-0.02764163166284561,-0.053756099194288254,0.0766635313630104
1774789963136125400,14.60012548828125,0.09147699922323227,-0.17531819641590118,0.08155044913291931
1774789963154650600,14.618650634765626,0.1055268943309784,-0.11178825795650482,0.13652828335762024
1774789963173176000,14.637176025390625,-0.012980876490473747,-0.07147117704153061,0.08460476994514465
1774789963191701200,14.655701171875,-0.07834340631961823,-0.043982263654470444,-0.04550942778587341
1774789963210226400,14.674226318359375,-0.13759729266166687,0.0054977829568088055,-0.19822561740875244
1774789963228751600,14.692751708984375,-0.18952079117298126,-0.09651663154363632,-0.3955349326133728
1774789963247276800,14.71127685546875,-0.14370593428611755,-0.17531819641590118,-0.5421425104141235
1774789963265802200,14.72980224609375,-0.09850194305181503,-0.19792018830776215,-0.5384773015975952
1774789963284327400,14.748327392578124,-0.10461059212684631,-0.26450446248054504,-0.3998109996318817
1774789963302852900,14.766852783203126,-0.06368265300989151,-0.3396408259868622,-0.1902843713760376
1774789963321378000,14.7853779296875,-0.07773254066705704,-0.37323838472366333,-0.044898562133312225
1774789963339903200,14.8039033203125,-0.12354740500450134,-0.29016077518463135,-0.0308486707508564
1774789963367691000,14.83169091796875,-0.11133010685443878,-0.24312418699264526,-0.1493564397096634
1774789963386216400,14.850216552734375,0.013897174037992954,-0.1692095398902893,-0.04734202101826668
1774789963404741600,14.86874169921875,-0.0019853105768561363,-0.1692095398902893,0.1127045527100563
1774789963423266800,14.887266845703126,-0.14309507608413696,-0.4422661066055298,0.10109812021255493
1774789963441792000,14.9057919921875,-0.3666715919971466,-0.9138537049293518,-0.16829325258731842
1774789963460317400,14.9243173828125,-0.5474875569343567,-1.0396918058395386,-0.44990190863609314
1774789963478842600,14.942842529296875,-0.6177369952201843,-0.5381718873977661,-0.4926624298095703
1774789963497368000,14.9613681640625,-0.4338667094707489,0.1441640853881836,-0.23426663875579834
1774789963515893200,14.979893310546874,-0.06612611562013626,0.38667741417884827,0.14691297709941864
1774789963534418400,14.99841845703125,0.1769980639219284,0.15699224174022675,0.4218021333217621
1774789963552943600,15.016943603515625,0.12690715491771698,-0.37629270553588867,0.435241162776947
1774789963571468800,15.03546875,-0.16508620977401733,-0.7367029190063477,0.2110537886619568
1774789963589994200,15.053994140625,-0.3984365463256836,-0.6811142563819885,-0.054672397673130035
1774789963608519400,15.07251953125,-0.46685341000556946,-0.34147340059280396,-0.2562577724456787
1774789963627044600,15.091044677734375,-0.42959064245224,0.12644900381565094,-0.36132651567459106
1774789963645570000,15.109570068359375,-0.37949973344802856,0.3659079968929291,-0.3289506733417511
1774789963664095200,15.12809521484375,-0.35995206236839294,0.318871408700943,-0.16523891687393188
1774789963682620700,15.14662060546875,-0.3208567202091217,0.08918625861406326,0.011911863461136818
1774789963701145900,15.165145751953125,-0.20357069373130798,-0.059864748269319534,0.0925460159778595
1774789963719671000,15.183671142578126,-0.10644318908452988,0.05925388261675835,0.047952886670827866
1774789963738196200,15.2021962890625,-0.03375028073787689,0.2809978127479553,0.035124726593494415
1774789963756721700,15.2207216796875,0.034666575491428375,0.328645259141922,0.0668896958231926
1774789963775246800,15.239246826171875,0.07254019379615784,0.17837251722812653,0.08826996386051178
1774789963793772000,15.25777197265625,0.060322895646095276,-0.06230820715427399,0.06444623321294785
1774789963812297200,15.276297119140626,0.0206166859716177,-0.22174391150474548,-0.0412333719432354
1774789963830822700,15.29482275390625,-0.04169152304530144,-0.07147117704153061,-0.2049451321363449
1774789963849347800,15.313347900390625,-0.11682789027690887,0.25534147024154663,-0.4266890585422516
1774789963867873000,15.331873046875,-0.08872810751199722,0.545502245426178,-0.5757400393486023
1774789963886398500,15.3503984375,0.04260781779885292,0.49968740344047546,-0.5061014890670776
1774789963904923600,15.368923583984374,0.1769980639219284,0.26022839546203613,-0.2415970265865326
1774789963923449000,15.387448974609375,0.249690979719162,0.001221729558892548,0.08765909820795059
1774789963941974300,15.405974365234375,0.2649625837802887,-0.13439024984836578,0.3185659945011139
1774789963960499500,15.42449951171875,0.2851211428642273,-0.017715077847242355,0.4224129915237427
1774789963979024600,15.443024658203125,0.2961167097091675,0.4465421438217163,0.4975493550300598
1774789963997550000,15.461550048828125,0.2863428592681885,0.8991929292678833,0.4566214084625244
1774789964016075300,15.4800751953125,0.3633118271827698,0.8436042666435242,0.20250166952610016
1774789964034600400,15.498600341796875,0.300392746925354,-0.17837251722812653,-0.29474225640296936
1774789964053126000,15.5171259765625,0.12140937149524689,-1.0018181800842285,-0.6154462695121765
1774789964071651000,15.535651123046875,-0.0642935186624527,-0.7452550530433655,-0.4272999167442322
1774789964090176500,15.554176513671875,-0.04718930274248123,0.3231474757194519,0.1029307171702385
1774789964108701700,15.57270166015625,0.24602578580379486,1.0445787906646729,0.43279770016670227
1774789964127227000,15.591226806640625,0.6467530727386475,1.074511170387268,0.4010327160358429
1774789964145752300,15.60975244140625,0.8507819175720215,0.5418370366096497,0.18295399844646454
1774789964164277500,15.628277587890626,0.7463240623474121,-0.07330377399921417,0.04550942778587341
1774789964182802700,15.646802734375,0.5184714794158936,-0.46425724029541016,0.1334739476442337
1774789964201328000,15.665328125,0.3223838806152344,-0.5418370366096497,0.26480987668037415
1774789964219853300,15.683853271484375,0.1562286615371704,-0.2932150959968567,0.33017241954803467
1774789964238378500,15.70237841796875,0.04016435891389847,0.07880155742168427,0.3039052188396454
1774789964256903700,15.720903564453126,-0.07589995115995407,0.3836230933666229,0.11087195575237274
1774789964275429000,15.73942919921875,-0.08872810751199722,0.472198486328125,-0.08277218043804169
1774789964293954300,15.757954345703125,-0.08078686892986298,0.3744601011276245,-0.1792888194322586
1774789964312479700,15.776479736328126,-0.045967575162649155,0.22785256803035736,-0.13225223124027252
1774789964331005000,15.7950048828125,0.022449281066656113,0.049480047076940536,0.006414080038666725
1774789964349530400,15.8135302734375,0.03588830679655075,-0.15027274191379547,0.12431098520755768
1774789964368055600,15.8320556640625,-0.022754713892936707,-0.35063639283180237,0.11698060482740402
1774789964386580700,15.850580810546875,-0.058795735239982605,-0.3536907136440277,0.007024944759905338
1774789964405106200,15.869106201171874,-0.08078686892986298,-0.21868959069252014,-0.16279546916484833
1774789964423631400,15.88763134765625,-0.12293653935194016,-0.13683371245861053,-0.35277441143989563
1774789964442156500,15.906156494140625,-0.12354740500450134,-0.13561198115348816,-0.4725039005279541
1774789964460682000,15.924681884765626,-0.11804962158203125,-0.15210533142089844,-0.48655378818511963
1774789964479207200,15.943207275390625,-0.1107192412018776,-0.21502439677715302,-0.41386088728904724
1774789964497732400,15.961732421875,-0.06062832847237587,-0.22846342623233795,-0.33689191937446594
1774789964516257800,15.9802578125,-0.04108065739274025,-0.13072505593299866,-0.19761475920677185
1774789964534783000,15.998782958984375,-0.05513054504990578,-0.03787361457943916,0.010690134018659592
1774789964553308200,16.01730810546875,-0.0025961752980947495,-0.10690133273601532,0.14263692498207092
1774789964571833600,16.03583349609375,0.12873975932598114,-0.23518294095993042,0.23243404924869537
1774789964590358800,16.05435888671875,0.24541492760181427,-0.18753549456596375,0.33322674036026
1774789964608884200,16.07288427734375,0.22953243553638458,-0.020769402384757996,0.4004218578338623
1774789964627409400,16.091409423828125,0.047494735568761826,-0.11117739230394363,0.30085089802742004
1774789964645934800,16.109934814453126,-0.31780239939689636,-0.6322450637817383,-0.032070402055978775
1774789964664460000,16.1284599609375,-0.6140718460083008,-1.0610721111297607,-0.29596397280693054
1774789964692247800,16.156247802734374,-0.6861538887023926,-0.43860089778900146,-0.029626941308379173
1774789964710773200,16.174773193359375,-0.4277580678462982,0.2577849328517914,0.32162031531333923
1774789964729298400,16.19329833984375,-0.07040216773748398,0.3848448097705841,0.5305360555648804
1774789964747823900,16.211823974609374,0.04505127668380737,-0.027488915249705315,0.5311469435691833
1774789964766349000,16.23034912109375,-0.24755294620990753,-0.5619956254959106,0.2831358313560486
1774789964784874200,16.248874267578124,-0.6372846961021423,-0.8436042666435242,-0.13103049993515015
1774789964803399700,16.267399658203125,-0.7667880058288574,-0.7141009569168091,-0.47433650493621826
1774789964821924900,16.2859248046875,-0.6806560754776001,-0.3744601011276245,-0.6136136651039124
1774789964840450000,16.304449951171875,-0.4094321131706238,-0.02871064469218254,-0.5073232054710388
1774789964858975500,16.3229755859375,-0.23105959594249725,0.19669845700263977,-0.2910770773887634
1774789964877500700,16.341500732421874,-0.2029598206281662,0.2522871494293213,-0.07483093440532684
1774789964896026000,16.360026123046875,-0.2182314395904541,0.3029889166355133,0.10231985151767731
1774789964914551300,16.37855126953125,-0.19135339558124542,0.3176496922969818,0.20616686344146729
1774789964933076500,16.397076416015626,-0.058795735239982605,0.2889390289783478,0.28496840596199036
1774789964951602000,16.415601806640623,0.05177079141139984,0.08796452730894089,0.30634868144989014
1774789964970127000,16.434127197265624,0.0694858655333519,-0.19853104650974274,0.1798996776342392
1774789964988652500,16.452652587890626,-0.014813470654189587,-0.2419024556875229,-0.05528326332569122
1774789965007177700,16.471177734375,-0.19685117900371552,-0.1337793916463852,-0.25870123505592346
1774789965025703200,16.489703125,-0.3831649422645569,-0.017104214057326317,-0.3491092324256897
1774789965044228400,16.508228271484374,-0.42653632164001465,0.028099779039621353,-0.38820457458496094
1774789965062753800,16.52675390625,-0.34468045830726624,-0.07147117704153061,-0.3753764033317566
1774789965081279000,16.545279052734376,-0.2438877671957016,-0.08124501258134842,-0.3039052188396454
1774789965099804200,16.56380419921875,-0.1467602699995041,-0.01893680728971958,-0.19944734871387482
1774789965118329600,16.58232958984375,-0.036804601550102234,0.04520399495959282,-0.019853105768561363
1774789965136854800,16.600854736328124,0.06154462695121765,0.07269290834665298,0.1750127524137497
1774789965155380200,16.619380126953125,0.18921536207199097,0.1893680840730667,0.3442223072052002
1774789965173905400,16.637905517578126,0.28817546367645264,0.5326740741729736,0.44868019223213196
1774789965192430600,16.6564306640625,0.24480405449867249,0.924849271774292,0.3546070158481598
1774789965210956000,16.6749560546875,0.05971203371882439,0.5955931544303894,-0.06933315098285675
1774789965229481200,16.693481201171874,-0.11682789027690887,-0.3426951467990875,-0.6655371785163879
1774789965248006700,16.712006591796875,-0.036804601550102234,-0.685390293598175,-0.7712168097496033
1774789965266531800,16.73053173828125,0.17394374310970306,0.09040798991918564,-0.18356487154960632
1774789965285057000,16.74905712890625,0.43172869086265564,1.1026109457015991,0.5555815100669861
1774789965303582500,16.76758251953125,0.6766854524612427,1.3836086988449097,0.8469640016555786
1774789965322107600,16.786107666015624,0.8825469017028809,0.7568614482879639,0.6087267398834229
1774789965340633000,16.804633056640625,0.9637919068336487,-0.2877173125743866,0.19822561740875244
1774789965359158300,16.823158203125,0.7927497625350952,-1.0048725605010986,-0.005192350596189499
1774789965377683700,16.84168359375,0.4555523991584778,-1.2486076354980469,-0.03756818547844887
1774789965396209000,16.860208984375,0.16783510148525238,-0.8362739086151123,0.016798781231045723
1774789965414734300,16.878734375,0.011453714221715927,-0.10079269111156464,0.11453714966773987
1774789965433259500,16.897259521484376,-0.03436114266514778,0.46975502371788025,0.19089524447917938
1774789965451784700,16.91578466796875,-0.03252854943275452,0.7910698652267456,0.2660316228866577
1774789965479572700,16.94357275390625,-0.1357647031545639,0.49663305282592773,0.28008151054382324
1774789965498098200,16.96209814453125,-0.08017600327730179,0.16737695038318634,0.21288637816905975
1774789965516623400,16.980623291015625,0.0847574844956398,0.10506874322891235,0.22266021370887756
1774789965535148800,16.999148681640627,0.125074565410614,0.10445787757635117,0.19333870708942413
1774789965553674000,17.017674072265624,0.08842267841100693,0.05436696484684944,0.06566796451807022
1774789965572199400,17.036199462890625,0.1366809904575348,-0.024434590712189674,-0.061391908675432205
1774789965590724600,17.054724609375,0.1715002804994583,-0.08552107214927673,-0.17684535682201385
1774789965609250000,17.07325,0.1824958473443985,-0.12278381735086441,-0.2788597643375397
1774789965627775200,17.091775146484373,0.13912445306777954,-0.1649334877729416,-0.37354379892349243
1774789965646300700,17.11030078125,0.0334448479115963,-0.23212862014770508,-0.43951719999313354
1774789965664825900,17.128825927734376,-0.0795651376247406,-0.3243691921234131,-0.4621191918849945
1774789965683351300,17.147351318359377,-0.08323032408952713,-0.3170388340950012,-0.3643808364868164
1774789965701876500,17.16587646484375,-0.023365577682852745,-0.1893680840730667,-0.16646064817905426
1774789965720402000,17.18440185546875,0.005955931730568409,0.05864302068948746,0.012522728182375431
1774789965738927000,17.202927001953125,-0.0019853105768561363,0.12217295914888382,0.04978547990322113
1774789965757452500,17.22145263671875,0.01206457894295454,0.05742128938436508,0.022296564653515816
1774789965785240300,17.249240234375,0.1262962967157364,0.04276053607463837,0.0925460159778595
1774789965803765800,17.267765869140625,0.022449281066656113,-0.25534147024154663,-0.03817904740571976
1774789965822291000,17.286291015625,-0.31413722038269043,-0.665842592716217,-0.4566214084625244
1774789965840816400,17.30481640625,-0.541378915309906,-0.9034690260887146,-0.7870992422103882
1774789965859341600,17.323341552734377,-0.4283689260482788,-0.6359102129936218,-0.7247910499572754
1774789965877867000,17.341866943359374,-0.03497200831770897,0.014660755172371864,-0.22876885533332825
1774789965896392200,17.36039208984375,0.2955058515071869,0.42332929372787476,0.3753764033317566
1774789965914917600,17.378917724609376,0.35475972294807434,0.4105011224746704,0.6740893125534058
1774789965933442800,17.39744287109375,0.15745039284229279,0.008552107028663158,0.5665770769119263
1774789965951968300,17.41596826171875,-0.24083344638347626,-0.5296197533607483,0.23976442217826843
1774789965970493400,17.434493408203124,-0.6183478832244873,-0.7257073521614075,-0.08826996386051178
1774789965989019000,17.453018798828126,-0.7509055137634277,-0.4361574649810791,-0.1847866028547287
1774789966007544000,17.4715439453125,-0.6714931130409241,0,-0.07605266571044922
1774789966026069500,17.490069580078124,-0.5572614073753357,0.24556763470172882,0.0461202897131443
1774789966044594700,17.5085947265625,-0.4644099473953247,0.31154105067253113,0.10720676928758621
1774789966063120100,17.5271201171875,-0.35934120416641235,0.2577849328517914,0.1078176349401474
1774789966081645300,17.545645263671876,-0.28848087787628174,0.18081597983837128,0.061391908675432205
1774789966100170800,17.564170654296873,-0.21456626057624817,0.10140355676412582,0.007024944759905338
1774789966118696000,17.582696044921875,-0.09728021919727325,0.08368847519159317,-0.044898562133312225
1774789966137221400,17.601221435546876,0.002290742937475443,0.06780599057674408,-0.08338304609060287
1774789966155746600,17.61974658203125,0.06215549260377884,0.012217295356094837,-0.04062250629067421
1774789966174272000,17.63827197265625,0.07192932814359665,-0.10445787757635117,0.03756818547844887
1774789966192797400,17.65679736328125,0.06887500733137131,-0.15515965223312378,0.07849612087011337
1774789966211322600,17.675322509765625,0.06643154472112656,-0.039706211537122726,0.04367683082818985
1774789966229848000,17.69384814453125,0.03711003437638283,0.1178968995809555,-0.022907428443431854
1774789966248373200,17.712373291015624,-0.0032070400193333626,0.18081597983837128,-0.0308486707508564
1774789966266898700,17.730898681640625,-0.02458730712532997,0.14233149588108063,0.016187917441129684
1774789966285423900,17.749423828125,0.018173227086663246,0.010995565913617611,0.044898562133312225
1774789966303949300,17.76794921875,0.08231402933597565,-0.04581485688686371,0.08399390429258347
1774789966322474500,17.786474609375,0.10613775253295898,0.009162971749901772,0.1127045527100563
1774789966341000000,17.805,0.11285726726055145,0.17043127119541168,0.09926552325487137
1774789966359525000,17.823525146484375,0.07070759683847427,0.4978547990322113,0.07116574794054031
1774789966378050600,17.842050537109376,0.07376192510128021,0.8753692507743835,0.05894844979047775
1774789966396576000,17.860575927734374,0.17883066833019257,1.074511170387268,0.008857538923621178
1774789966415101200,17.87910107421875,0.23075416684150696,0.5119046568870544,-0.2605338394641876
1774789966433626600,17.897626708984376,0.27229297161102295,-0.5723803043365479,-0.7009673118591309
1774789966452151800,17.91615185546875,0.39018988609313965,-1.0977239608764648,-0.7895427346229553
1774789966470677200,17.93467724609375,0.5068650245666504,-0.3133736252784729,-0.18723005056381226
1774789966489202400,17.953202392578124,0.577725350856781,1.0122029781341553,0.731510579586029
1774789966507728000,17.971727783203125,0.6082686185836792,1.4966187477111816,1.1627811193466187
1774789966526253000,17.990253173828126,0.6974548697471619,1.0592395067214966,0.9776890873908997
1774789966544778500,18.008778564453124,0.7133373618125916,0.009773836471140385,0.4761691093444824
1774789966563303700,18.0273037109375,0.6956222653388977,-0.8210022449493408,0.0974329337477684
1774789966581829000,18.0458291015625,0.5984947681427002,-1.1282672882080078,-0.000305432389723137
1774789966600354600,18.0643544921875,0.4189005196094513,-0.9621120095252991,0.16096286475658417
1774789966618879700,18.082879638671876,0.20693044364452362,-0.4862483739852905,0.3497200906276703
1774789966637405200,18.1014052734375,0.051159925758838654,0.0769689604640007,0.3741546869277954
1774789966655930400,18.119930419921875,-0.05085449293255806,0.40805765986442566,0.22693626582622528
1774789966674455800,18.138455810546876,-0.10461059212684631,0.4465421438217163,0.026572618633508682
1774789966702243800,18.166243896484374,-0.08689551800489426,0.19792018830776215,-0.03695731982588768
1774789966720769000,18.18476904296875,-0.08750637620687485,0.08063415437936783,0.09621120244264603
1774789966739294500,18.20329443359375,-0.09850194305181503,0.01893680728971958,0.21838416159152985
1774789966757820000,18.22181982421875,-0.13881902396678925,-0.027488915249705315,0.22815799713134766
1774789966776345000,18.240344970703124,-0.20418155193328857,-0.14477495849132538,0.0766635313630104
1774789966794870500,18.25887060546875,-0.2438877671957016,-0.2254091054201126,-0.15546508133411407
1774789966813396000,18.27739599609375,-0.26221370697021484,-0.1545487940311432,-0.3814850449562073
1774789966831921200,18.295921142578123,-0.2793179154396057,0.01893680728971958,-0.6166679859161377
1774789966850446600,18.314446533203125,-0.2603811025619507,0.17715078592300415,-0.8029817342758179
1774789966868971800,18.3329716796875,-0.23533566296100616,0.24312418699264526,-0.7870992422103882
1774789966887497200,18.351497314453123,-0.19562944769859314,0.0873536616563797,-0.5708531141281128
1774789966906022700,18.370022705078124,-0.16447533667087555,-0.14233149588108063,-0.31184646487236023
1774789966924547800,18.3885478515625,-0.1101083755493164,-0.2205221801996231,-0.09376774728298187
1774789966943073300,18.4070732421875,-0.016646064817905426,-0.18387030065059662,-0.00946840364485979
1774789966961598500,18.425598388671876,0.16905683279037476,-0.1594357043504715,0.03695731982588768
1774789966980124000,18.4441240234375,0.3254382014274597,-0.1178968995809555,0.11698060482740402
1774789966998649000,18.462649169921875,0.3620901107788086,-0.007941242307424545,0.2513708472251892
1774789967017174500,18.481174560546876,0.2551887631416321,-0.4043924808502197,0.1585194170475006
1774789967035700000,18.499699951171873,-0.0013744457392022014,-1.1997383832931519,-0.272751122713089
1774789967054225200,18.51822509765625,-0.24633121490478516,-1.508836030960083,-0.6356047987937927
1774789967072750600,18.53675048828125,-0.480903297662735,-0.8558215498924255,-0.5671879649162292
1774789967091276000,18.555276123046873,-0.5487092733383179,0.17776164412498474,-0.17134757339954376
1774789967109801200,18.57380126953125,-0.35323256254196167,0.6963858604431152,0.23976442217826843
1774789967128326700,18.59232666015625,-0.10216713696718216,0.45998117327690125,0.435241162776947
1774789967146852000,18.61085205078125,-0.13820815086364746,-0.23029601573944092,0.37171122431755066
1774789967165377300,18.629377197265626,-0.3929387629032135,-0.6108647584915161,0.21349723637104034
1774789967183902700,18.64790283203125,-0.5664243698120117,-0.4838049113750458,0.0974329337477684
1774789967202428200,18.66642822265625,-0.5633700489997864,-0.15210533142089844,0.018631376326084137
1774789967220953300,18.684953369140626,-0.4442514181137085,0.046425722539424896,-0.0204639695584774
1774789967239478800,18.703478759765623,-0.36422812938690186,0.12400554865598679,-0.0015271619195118546
1774789967258004200,18.722004150390624,-0.3422369956970215,0.06902772188186646,0.0204639695584774
1774789967276529400,18.740529296875,-0.2994764447212219,0.04825831577181816,0.032681263983249664
1774789967295054800,18.759054931640627,-0.28176137804985046,0.13927717506885529,0.04062250629067421
1774789967313580000,18.777580078125,-0.23716825246810913,0.18814635276794434,-0.005803215317428112
1774789967332105500,18.79610546875,-0.09239330142736435,0.20647229254245758,-0.07299833744764328
1774789967350631000,18.814630859375,0.004734201822429895,0.12522727251052856,-0.13041962683200836
1774789967369156400,18.83315625,0.028557928279042244,-0.006108647678047419,-0.16279546916484833
1774789967387681500,18.851681640625,0.03283398225903511,-0.0720820426940918,-0.15057817101478577
1774789967406207000,18.87020703125,0.024892739951610565,-0.0873536616563797,-0.12736530601978302
1774789967424732200,18.888732177734376,0.05299251899123192,0.08796452730894089,-0.06750056147575378
1774789967443257600,18.907257568359373,0.1305723488330841,0.1954767256975174,-0.008857538923621178
1774789967461783000,18.925782958984374,0.19043709337711334,0.17287473380565643,0.007635809946805239
1774789967480308500,18.94430859375,0.22769984602928162,0.06536252796649933,-0.08826996386051178
1774789967498833700,18.962833740234377,0.27779075503349304,-0.002443459117785096,-0.1701258420944214
1774789967517359000,18.981359130859374,0.3016144931316376,-0.02626718580722809,-0.0925460159778595
1774789967535884300,18.99988427734375,0.20387612283229828,0.053756099194288254,0.044898562133312225
1774789967554409700,19.01840966796875,0.14523309469223022,0.29443681240081787,0.1334739476442337
1774789967572935200,19.03693505859375,0.15378521382808685,0.5937605500221252,0.1340848207473755
1774789967591460600,19.055460693359375,0.21731515228748322,0.9841031432151794,0.12553271651268005
1774789967609985800,19.07398583984375,0.2655734717845917,0.9517273306846619,-0.019853105768561363
1774789967628511200,19.09251123046875,0.16844595968723297,0.13744457066059113,-0.4053087830543518
1774789967647036700,19.11103662109375,0.0798705667257309,-0.7000510096549988,-0.6954695582389832
1774789967665562000,19.12956201171875,0.20631958544254303,-0.29993459582328796,-0.35216355323791504
1774789967684087300,19.14808740234375,0.48792824149131775,0.9205732345581055,0.4761691093444824
1774789967702612700,19.16661279296875,0.7170025110244751,1.6169590950012207,1.1230748891830444
1774789967721138200,19.18513818359375,0.9436333775520325,1.351232886314392,1.267238974571228
1774789967739663400,19.203663330078125,1.0291544198989868,0.48930269479751587,0.9862411618232727
1774789967758188800,19.222188720703127,0.8862120509147644,-0.23762640357017517,0.5018253922462463
1774789967776714200,19.24071435546875,0.5581777095794678,-0.5247328281402588,-0.0015271619195118546
1774789967795239400,19.259239501953125,0.27717989683151245,-0.48013970255851746,-0.3454440236091614
1774789967813764900,19.277764892578126,0.23686282336711884,-0.1545487940311432,-0.39186975359916687
1774789967832290300,19.296290283203124,0.3400989770889282,0.23029601573944092,-0.231212317943573
1774789967850815700,19.314815673828125,0.3883572816848755,0.47097674012184143,0.032070402055978775
1774789967869341200,19.333341064453126,0.2845102846622467,0.4990765154361725,0.18906265497207642
1774789967887866400,19.351866455078124,0.14950916171073914,0.3347539007663727,0.19883649051189423
1774789967906391800,19.370391845703125,0.0334448479115963,0.11545344442129135,0.11026109009981155
1774789967924917200,19.388917236328126,0.0334448479115963,-0.05742128938436508,0.006414080038666725
1774789967943442400,19.4074423828125,0.14828743040561676,-0.0769689604640007,-0.03817904740571976
1774789967961967900,19.4259677734375,0.21975859999656677,0.034208428114652634,-0.024740023538470268
1774789967980493300,19.444493408203126,0.16294817626476288,0.11545344442129135,-0.02412915788590908
1774789967999018800,19.463018798828124,0.05177079141139984,0.13011419773101807,-0.06627883017063141
1774789968017544000,19.4815439453125,-0.08017600327730179,0.046425722539424896,-0.16707152128219604
1774789968036069400,19.5000693359375,-0.16508620977401733,-0.10323614627122879,-0.29474225640296936
1774789968054594800,19.5185947265625,-0.1467602699995041,-0.2003636509180069,-0.4150826036930084
1774789968073120300,19.537120361328125,-0.1406516134738922,-0.2761108875274658,-0.527481734752655
1774789968091645400,19.5556455078125,-0.1259908676147461,-0.33169957995414734,-0.5775726437568665
1774789968110171000,19.5741708984375,-0.03252854943275452,-0.2559523284435272,-0.5238165259361267
1774789968128696300,19.5926962890625,0.017562363296747208,-0.1386663019657135,-0.4266890585422516
1774789968147221500,19.611221435546874,-0.14859285950660706,0.053145237267017365,-0.3179551064968109
1774789968165747000,19.629746826171875,-0.5114465355873108,0.12705987691879272,-0.2922987937927246
1774789968184272400,19.6482724609375,-0.6592758297920227,0.07635809481143951,-0.33078327775001526
1774789968202797800,19.6667978515625,-0.48823368549346924,0.11178825795650482,-0.3857611119747162
1774789968221323300,19.6853232421875,-0.29886558651924133,-0.13011419773101807,-0.4761691093444824
1774789968239848700,19.7038486328125,-0.28176137804985046,-0.5442805290222168,-0.5965094566345215
1774789968258374000,19.722373779296873,-0.3874409794807434,-0.7709113359451294,-0.5977311730384827
1774789968276899300,19.7408994140625,-0.3917170464992523,-0.5259546041488647,-0.34605491161346436
1774789968295424500,19.759424560546876,-0.20906847715377808,0.0513126403093338,0.11514800786972046
1774789968313950000,19.777949951171873,0.053603384643793106,0.4563159942626953,0.5500837564468384
1774789968332475400,19.796475341796874,0.22647811472415924,0.3500255048274994,0.7070759534835815
1774789968351000800,19.815000732421876,0.20631958544254303,-0.18081597983837128,0.4944950342178345
1774789968369526300,19.8335263671875,0.06337722390890121,-0.6157516837120056,0.14508038759231567
1774789968388051700,19.8520517578125,-0.18402300775051117,-0.6841685771942139,-0.09865466505289078
1774789968406577000,19.870576904296875,-0.40576693415641785,-0.40317076444625854,-0.09987638890743256
1774789968425102300,19.889102294921877,-0.48823368549346924,-0.08857539296150208,0.03145953640341759
1774789968443627800,19.907627685546874,-0.4552469849586487,0.08307760953903198,0.1695149689912796
1774789968462153200,19.9261533203125,-0.43142324686050415,0.17898337543010712,0.23243404924869537
1774789968480678400,19.944678466796876,-0.388662725687027,0.18570289015769958,0.20616686344146729
1774789968499203800,19.963203857421874,-0.31780239939689636,0.10934479534626007,0.12431098520755768
1774789968517729300,19.981729248046875,-0.20051635801792145,0.012217295356094837,0.047952886670827866
1774789968536254700,20.000254638671876,-0.09666935354471207,-0.06047561392188072,-0.012522728182375431
1774789968554780200,20.0187802734375,-0.012370011769235134,-0.02871064469218254,-0.061391908675432205
1774789968573305300,20.037305419921875,-0.026419902220368385,0.08063415437936783,-0.08765909820795059
1774789968591830800,20.055830810546876,-0.042913250625133514,0.07513637095689774,-0.12553271651268005
1774789968610356200,20.074356201171874,0.013897174037992954,0.0360410213470459,-0.1340848207473755
1774789968628881700,20.092881591796875,0.008399390615522861,0.0054977829568088055,-0.11942406743764877
1774789968647407000,20.111406982421876,-0.08078686892986298,0.05558869615197182,-0.08460476994514465
1774789968665932500,20.1299326171875,-0.15225805342197418,0.1233946830034256,-0.09071341902017593
1774789968684457700,20.148457763671875,-0.11438442766666412,0.13194678723812103,-0.17073670029640198
1774789968702983200,20.166983154296876,0.007788525894284248,0.10506874322891235,-0.19394956529140472
1774789968721508600,20.185508544921873,0.046883873641490936,-0.01954767294228077,-0.15668681263923645
1774789968740034000,20.204033935546875,0.08353576064109802,0.036651886999607086,0.013744457624852657
1774789968758559200,20.222559326171876,0.1513417512178421,0.2510654330253601,0.24465134739875793
1774789968777084700,20.241084716796873,0.2228129357099533,0.5375609993934631,0.39675667881965637
1774789968795610000,20.259610107421874,0.3321577310562134,0.7977893948554993,0.41386088728904724
1774789968814135600,20.278135498046876,0.43600472807884216,0.9358448386192322,0.33505934476852417
1774789968832661000,20.296660888671877,0.42195484042167664,0.5595521330833435,0.1591302752494812
1774789968851186200,20.315186279296874,0.228921577334404,-0.3084867000579834,-0.16035200655460358
1774789968869711600,20.333711669921875,0.11713331937789917,-0.822834849357605,-0.3430005609989166
1774789968888237000,20.352237060546877,0.1715002804994583,-0.29993459582328796,-0.03634645417332649
1774789968906762500,20.370762451171874,0.25213444232940674,0.6041452884674072,0.4969384968280792
1774789968925288000,20.389287841796875,0.29794928431510925,0.9932661056518555,0.6960803866386414
1774789968943813400,20.4078134765625,0.46227192878723145,0.5540543794631958,0.448069304227829
1774789968962338600,20.426338623046874,0.5923861265182495,-0.25534147024154663,0.014966187067329884
1774789968980864000,20.444864013671875,0.5899426341056824,-0.7635809779167175,-0.2623664140701294
1774789968999389400,20.463389404296876,0.4549415409564972,-0.7287616729736328,-0.19700388610363007
1774789969017915000,20.481914794921874,0.22525638341903687,-0.2993237376213074,0.05222893878817558
1774789969036440300,20.5004404296875,0.037720900028944016,0.10384701192378998,0.22693626582622528
1774789969054965800,20.5189658203125,0.011453714221715927,0.31520622968673706,0.23365578055381775
1774789969073491200,20.5374912109375,0.037720900028944016,0.30115634202957153,0.129197895526886
1774789969092016400,20.556016357421875,0.04627300798892975,0.24923282861709595,0.06444623321294785
1774789969110541800,20.574541748046876,0.018784092739224434,0.2620609998703003,0.10170898586511612
1774789969129067300,20.5930673828125,-0.03130681812763214,0.31520622968673706,0.20738859474658966
1774789969147592700,20.6115927734375,-0.03741546720266342,0.33047783374786377,0.33505934476852417
1774789969166118100,20.6301181640625,-0.009315688163042068,0.24556763470172882,0.35705047845840454
1774789969184643600,20.6486435546875,0.0487164668738842,0.07086031138896942,0.23854269087314606
1774789969203168800,20.667168701171875,0.03527744114398956,-0.034208428114652634,0.035124726593494415
1774789969221694200,20.685694091796876,-0.07040216773748398,-0.10445787757635117,-0.1646280586719513
1774789969240219600,20.7042197265625,-0.13881902396678925,-0.12644900381565094,-0.324063777923584
1774789969258745000,20.7227451171875,-0.15836669504642487,-0.07147117704153061,-0.4456258714199066
1774789969277270500,20.7412705078125,-0.1455385386943817,-0.034208428114652634,-0.4712821841239929
1774789969295796000,20.7597958984375,-0.11743875592947006,-0.1545487940311432,-0.4364628791809082
1774789969314321200,20.778321044921874,-0.0691804364323616,-0.3756818473339081,-0.4370737373828888
1774789969332846600,20.7968466796875,0.003512472379952669,-0.4831940531730652,-0.4101957082748413
1774789969351372000,20.8153720703125,-0.052076224237680435,-0.40255987644195557,-0.29535311460494995
1774789969369897500,20.8338974609375,-0.1773035079240799,-0.2675587832927704,-0.19089524447917938
1774789969388423000,20.8524228515625,-0.16752967238426208,-0.1185077652335167,-0.13164135813713074
1774789969406948400,20.8709482421875,-0.012980876490473747,-0.06291907280683517,-0.04428769648075104
1774789969425473500,20.8894736328125,0.056657709181308746,-0.009773836471140385,0.09437860548496246
1774789969443999000,20.9079990234375,-0.07101303339004517,-0.287106454372406,0.1182023361325264
1774789969462524400,20.9265244140625,-0.32757624983787537,-0.7654135823249817,-0.04550942778587341
1774789969481049900,20.9450498046875,-0.5517635941505432,-1.0360267162322998,-0.2159406989812851
1774789969499575300,20.9635751953125,-0.5981893539428711,-0.6407971382141113,-0.17806708812713623
1774789969518100700,20.982100830078124,-0.388662725687027,0.08857539296150208,0.08765909820795059
1774789969536626200,21.000626220703126,-0.022754713892936707,0.3897317349910736,0.30451610684394836
1774789969555151400,21.0191513671875,0.23075416684150696,0.03176496922969818,0.30451610684394836
1774789969573676800,21.0376767578125,0.17944152653217316,-0.4563159942626953,0.18600831925868988
1774789969592202200,21.0562021484375,-0.10338886082172394,-0.574212908744812,0.10537417232990265
1774789969610727700,21.074727783203127,-0.4350884258747101,-0.45020735263824463,0.035735588520765305
1774789969629253000,21.093253173828124,-0.6085740327835083,-0.16310089826583862,-0.08093958348035812
1774789969647778600,21.111778564453125,-0.5963567495346069,0.02932151034474373,-0.28069236874580383
1774789969666304000,21.130303955078126,-0.4686860144138336,0.11972949653863907,-0.3704894781112671
1774789969684829200,21.1488291015625,-0.3568977415561676,0.1081230640411377,-0.2666424810886383
1774789969703354600,21.167354736328125,-0.2805396616458893,-0.000610864779446274,-0.0870482325553894
1774789969721880000,21.185880126953126,-0.17486004531383514,-0.09468404203653336,0.05283980444073677
1774789969740405500,21.204405517578124,-0.14309507608413696,-0.09162971377372742,0.10476330667734146
1774789969758931000,21.222930908203125,-0.1461493968963623,0.007941242307424545,0.1127045527100563
1774789969777456400,21.241456298828126,-0.07773254066705704,0.05070177838206291,0.14019346237182617
1774789969795981800,21.25998193359375,0.031612250953912735,-0.07269290834665298,0.15485422313213348
1774789969814507000,21.278507080078125,0.057268574833869934,-0.2211330533027649,0.14813470840454102
1774789969833032400,21.297032470703126,-0.028863361105322838,-0.17776164412498474,0.11453714966773987
1774789969851558000,21.315557861328124,-0.058795735239982605,0.036651886999607086,0.10720676928758621
1774789969870083300,21.334083251953125,0.009621120058000088,0.21441353857517242,0.1585194170475006
1774789969888608800,21.35260888671875,0.07742711156606674,0.2162461280822754,0.21838416159152985
1774789969907134200,21.37113427734375,0.10919208079576492,0.13622283935546875,0.20616686344146729
1774789969925659600,21.38965966796875,0.09636391699314117,0.02871064469218254,0.11575887352228165
1774789969944184800,21.408184814453126,0.07864884287118912,0.07024945318698883,0.04917461425065994
1774789969962710300,21.426710205078123,0.01695149764418602,0.1588248461484909,-0.022296564653515816
1774789969981235700,21.445235595703124,-0.009926552884280682,0.3194822669029236,-0.07788526266813278
1774789969999761200,21.46376123046875,0.018173227086663246,0.5815432667732239,-0.013744457624852657
1774789970018286600,21.48228662109375,0.14767655730247498,0.9584468603134155,0.1902843713760376
1774789970036812000,21.50081201171875,0.187382772564888,0.934623122215271,0.22999058663845062
1774789970055337200,21.519337158203125,0.04321868345141411,0.11423171311616898,-0.09071341902017593
1774789970073862700,21.537862548828127,-0.13881902396678925,-1.0311397314071655,-0.6362156867980957
1774789970092388000,21.55638818359375,-0.1314886510372162,-1.0836740732192993,-0.7785471677780151
1774789970110913500,21.57491357421875,-0.017867794260382652,0.10995566099882126,-0.25870123505592346
1774789970129439000,21.59343896484375,0.005955931730568409,1.056185245513916,0.3094030022621155
1774789970147964400,21.61196435546875,0.1623373180627823,1.12765634059906,0.499381959438324
1774789970166489900,21.63048974609375,0.39507678151130676,0.43982264399528503,0.2886336147785187
1774789970185015000,21.64901513671875,0.5630646347999573,-0.22418737411499023,-0.010690134018659592
1774789970203540500,21.66754052734375,0.5416843295097351,-0.4575377106666565,-0.09376774728298187
1774789970222066000,21.68606591796875,0.41462448239326477,-0.25350889563560486,0.0412333719432354
1774789970240591400,21.70459130859375,0.3657552897930145,0.002443459117785096,0.22999058663845062
1774789970259116800,21.72311669921875,0.32910341024398804,0.13133592903614044,0.3497200906276703
1774789970277642200,21.741642333984377,0.21609342098236084,0.20769402384757996,0.3851502537727356
1774789970296167700,21.760167724609374,0.08720094710588455,0.24495677649974823,0.31551164388656616
1774789970314693000,21.778693115234375,0.011453714221715927,0.19792018830776215,0.1536324918270111
1774789970333218600,21.797218505859377,0.005955931730568409,0.08979712426662445,-0.038789913058280945
1774789970351744000,21.815743896484374,0.04810560122132301,0.027488915249705315,-0.1542433500289917
1774789970370269200,21.834269287109375,0.10125083476305008,0.04581485688686371,-0.12675444781780243
1774789970388794600,21.852794677734376,0.208152174949646,-0.023823726922273636,0.015577051788568497
1774789970407320000,21.871320068359374,0.2796233594417572,-0.22235478460788727,0.11453714966773987
1774789970425845500,21.889845458984375,0.23564109206199646,-0.3805687427520752,0.08826996386051178
1774789970444371000,21.908370849609376,0.07498364895582199,-0.37690356373786926,-0.08582650125026703
1774789970462896400,21.926896484375,-0.12782345712184906,-0.21868959069252014,-0.3075704276561737
1774789970481421800,21.945421875,-0.25243985652923584,-0.09407317638397217,-0.39797839522361755
1774789970499947000,21.963947021484376,-0.22495095431804657,-0.0873536616563797,-0.34116798639297485
1774789970518472400,21.982472412109374,-0.11621702462434769,-0.2364046722650528,-0.22999058663845062
1774789970536998000,22.000997802734375,-0.05513054504990578,-0.34636032581329346,-0.10965022444725037
1774789970555523300,22.0195234375,-0.09056070446968079,-0.3023780584335327,-0.013744457624852657
1774789970574048800,22.038048828125,-0.16019928455352783,-0.06414080411195755,0.14508038759231567
1774789970592574200,22.05657421875,-0.19562944769859314,0.0720820426940918,0.35705047845840454
1774789970611099600,22.075099609375,-0.18646647036075592,-0.011606430634856224,0.5806269645690918
1774789970629624800,22.093624755859373,-0.1718057245016098,0.11423171311616898,0.7687733173370361
1774789970648150300,22.112150390625,-0.3196350038051605,0.1130099818110466,0.8628464937210083
1774789970666675700,22.13067578125,-0.6140718460083008,-0.7073814272880554,0.9080504775047302
1774789970685201200,22.149201171875,-0.8266527652740479,-1.4844014644622803,0.7608320713043213
1774789970703726600,22.1677265625,-1.0374010801315308,-1.2907572984695435,0.6026180982589722
1774789970722252000,22.186251953125,-1.0978766679763794,-0.8295543789863586,0.47983428835868835
1774789970740777500,22.204777587890625,-0.8510873317718506,-0.30543237924575806,0.4169152081012726
1774789970759303000,22.223302978515626,-0.5279398560523987,-0.20158538222312927,0.30634868144989014
1774789970777828400,22.241828369140624,-0.39599308371543884,-0.30970844626426697,0.1285870373249054
1774789970796353500,22.260353515625,-0.5193877816200256,-0.5137372612953186,-0.07238747924566269
1774789970814879000,22.27887890625,-0.6476693749427795,-0.45998117327690125,-0.2678641974925995
1774789970833404400,22.297404296875,-0.5755873322486877,-0.24434591829776764,-0.37110036611557007
1774789970851929900,22.315929931640625,-0.35995206236839294,-0.15760311484336853,-0.36804601550102234
1774789970870455300,22.334455322265626,-0.17424917221069336,0.007941242307424545,-0.2868010103702545
1774789970888980700,22.352980712890623,-0.2231183648109436,0.12705987691879272,-0.10170898586511612
1774789970907506200,22.371506103515625,-0.38560840487480164,0.08857539296150208,0.06811141967773438
1774789970926031600,22.390031494140626,-0.4045451879501343,0.023212861269712448,0.08888082206249237
1774789970944556800,22.408556884765623,-0.29825472831726074,0.05925388261675835,0.024740023538470268
1774789970963082200,22.427082275390624,-0.1308777779340744,0.1899789422750473,0.003359756199643016
1774789970981607700,22.445607666015626,0.027947064489126205,0.2467893660068512,0.0021380267571657896
1774789971000133000,22.464133056640627,0.08353576064109802,0.21197007596492767,-0.008246674202382565
1774789971018658600,22.482658447265624,0.12140937149524689,0.06352993845939636,-0.10170898586511612
1774789971037184000,22.50118408203125,0.040775224566459656,-0.04459312930703163,-0.19944734871387482
1774789971055709200,22.519709228515627,-0.09728021919727325,-0.01893680728971958,-0.2629773020744324
1774789971074234600,22.538234619140624,-0.14431680738925934,0.13133592903614044,-0.2813032269477844
1774789971092760000,22.556760009765625,-0.05085449293255806,0.23273947834968567,-0.2562577724456787
1774789971111285500,22.575285400390626,0.1104138121008873,0.2809978127479553,-0.18356487154960632
1774789971129811000,22.59381103515625,0.20509785413742065,0.29077163338661194,-0.12736530601978302
1774789971148336400,22.61233642578125,0.2435823380947113,0.3341430425643921,-0.05100720748305321
1774789971166861800,22.63086181640625,0.24297146499156952,0.30054548382759094,0.06505709886550903
1774789971185387000,22.649386962890624,0.28267768025398254,0.23823726177215576,0.1585194170475006
1774789971203912400,22.667912353515625,0.3309359848499298,0.2211330533027649,0.15790854394435883
1774789971231700200,22.6957001953125,0.27290382981300354,0.5595521330833435,0.17623448371887207
1774789971250226200,22.71422607421875,0.22953243553638458,0.8075632452964783,0.26908594369888306
1774789971268751600,22.732751708984374,0.2643517255783081,0.7434224486351013,0.25870123505592346
1774789971287276800,22.75127685546875,0.21975859999656677,0.06291907280683517,-0.05711585655808449
1774789971305802200,22.76980224609375,0.09941824525594711,-0.6597339510917664,-0.6001746654510498
1774789971324327700,22.78832763671875,0.012675444595515728,-0.6860011219978333,-0.8799507021903992
