time,seconds_elapsed,z,y,x
1774789948667543600,0.13154345703125,-42.243751525878906,-3.6750001907348633,17.4375
1774789948677543700,0.141543701171875,-40.96875,-3.918750047683716,13.106250762939453
1774789948697543700,0.161543701171875,-40.63125228881836,-4.162500381469727,9.80625057220459
1774789948717543700,0.181543701171875,-47.962501525878906,-3.5250000953674316,14.925000190734863
1774789948727543600,0.19154345703125,-45.88125228881836,-2.4937500953674316,9.99375057220459
1774789948737543700,0.201543701171875,-51.16875076293945,-3.543750047683716,15.581250190734863
1774789948747543600,0.21154345703125,-51.16875076293945,-3.543750047683716,15.581250190734863
1774789948757543700,0.221543701171875,-51.41250228881836,-1.7812501192092896,15.768750190734863
1774789948767543600,0.23154345703125,-52.781253814697266,-2.3625001907348633,14.287500381469727
1774789948777543700,0.241543701171875,-52.44375228881836,-1.2937500476837158,14.77500057220459
1774789948787543600,0.25154345703125,-52.57500076293945,-1.1437500715255737,13.237500190734863
1774789948797543700,0.261543701171875,-50.28750228881836,-1.3687500953674316,11.737500190734863
1774789948807543600,0.27154345703125,-51.63750076293945,-2.1000001430511475,9.225000381469727
1774789948817543700,0.281543701171875,-50.250003814697266,-1.40625,8.90625
1774789948827543600,0.29154345703125,-52.05000305175781,-0.9750000238418579,8.475000381469727
1774789948837543700,0.301543701171875,-54.187503814697266,0.20625001192092896,12.281250953674316
1774789948847543600,0.31154345703125,-54.656253814697266,-1.0125000476837158,10.65000057220459
1774789948857543700,0.321543701171875,-55.25625228881836,0.581250011920929,13.93125057220459
1774789948867543600,0.33154345703125,-54.73125076293945,1.6125000715255737,12.412500381469727
1774789948877543700,0.341543701171875,-53.681251525878906,-0.01875000074505806,8.11875057220459
1774789948887543600,0.35154345703125,-53.45625305175781,-1.6687500476837158,10.481250762939453
1774789948897543700,0.361543701171875,-51.562503814697266,-0.39375001192092896,8.137500762939453
1774789948907543600,0.37154345703125,-52.63125228881836,-1.03125,6.356250286102295
1774789948917543700,0.381543701171875,-51.67500305175781,0.6187500357627869,8.193750381469727
1774789948927543600,0.39154345703125,-52.33125305175781,-0.8812500238418579,7.368750095367432
1774789948937543700,0.401543701171875,-53.062503814697266,0.7312500476837158,9.80625057220459
1774789948947543600,0.41154345703125,-53.118751525878906,-0.48750001192092896,9.99375057220459
1774789948957543700,0.421543701171875,-53.85000228881836,-0.11250000447034836,10.08750057220459
1774789948967543600,0.43154345703125,-52.95000076293945,-0.39375001192092896,9.881250381469727
1774789948977543700,0.441543701171875,-52.968753814697266,-1.7062500715255737,6.806250095367432
1774789948987543600,0.45154345703125,-51.41250228881836,-0.6000000238418579,8.381250381469727
1774789948997543700,0.461543701171875,-52.91250228881836,-0.01875000074505806,8.100000381469727
1774789949007543600,0.47154345703125,-52.23750305175781,-1.6687500476837158,9.600000381469727
1774789949017543700,0.481543701171875,-52.51875305175781,-2.34375,6.656250476837158
1774789949027543600,0.49154345703125,-53.13750076293945,-2.1937501430511475,6.843750476837158
1774789949037543700,0.501543701171875,-52.61250305175781,-0.16875000298023224,7.931250095367432
1774789949047543600,0.51154345703125,-50.962501525878906,-1.5750000476837158,6.056250095367432
1774789949057543700,0.521543701171875,-52.500003814697266,-1.6687500476837158,7.068750381469727
1774789949067543600,0.53154345703125,-53.400001525878906,-1.125,7.350000381469727
1774789949077543700,0.541543701171875,-50.587501525878906,0.11250000447034836,4.818750381469727
1774789949087543600,0.55154345703125,-52.312503814697266,-0.6375000476837158,6.412500381469727
1774789949097543700,0.561543701171875,-51.26250076293945,-0.8812500238418579,7.331250190734863
1774789949107543600,0.57154345703125,-51.712501525878906,-1.1437500715255737,6.450000286102295
1774789949117543700,0.581543701171875,-50.19375228881836,-0.7875000238418579,7.181250095367432
1774789949127543600,0.59154345703125,-53.36250305175781,0.11250000447034836,7.293750286102295
1774789949137543700,0.601543701171875,-52.650001525878906,0.09375,11.512500762939453
1774789949147543600,0.61154345703125,-54.000003814697266,0.30000001192092896,10.3125
1774789949157543700,0.621543701171875,-54.000003814697266,0.4687500298023224,11.475000381469727
1774789949167543600,0.63154345703125,-54.16875076293945,-0.09375,10.106250762939453
1774789949177543700,0.641543701171875,-56.13750076293945,0.9750000238418579,13.18125057220459
1774789949187543600,0.65154345703125,-53.98125076293945,0.5437500476837158,9.375
1774789949197543700,0.661543701171875,-54.60000228881836,0.09375,9.731250762939453
1774789949207543600,0.67154345703125,-53.681251525878906,0.9375000596046448,10.425000190734863
1774789949217543700,0.681543701171875,-54.41250228881836,1.537500023841858,10.27500057220459
1774789949227543600,0.69154345703125,-54.431251525878906,1.443750023841858,11.25
1774789949237543700,0.701543701171875,-54.60000228881836,0.6375000476837158,10.96875
1774789949247543600,0.71154345703125,-54.60000228881836,0.6375000476837158,10.96875
1774789949257543700,0.721543701171875,-55.42500305175781,2.7750000953674316,10.125
1774789949267543600,0.73154345703125,-53.962501525878906,1.3312500715255737,10.5
1774789949277543700,0.741543701171875,-55.14375305175781,2.1937501430511475,10.425000190734863
1774789949287543600,0.75154345703125,-54.58125305175781,1.1812500953674316,10.350000381469727
1774789949297543700,0.761543701171875,-54.562503814697266,1.9875000715255737,11.643750190734863
1774789949307543600,0.77154345703125,-52.29375076293945,1.5937501192092896,11.49375057220459
1774789949317543700,0.781543701171875,-54.54375076293945,2.1187500953674316,10.818750381469727
1774789949327543600,0.79154345703125,-53.98125076293945,1.537500023841858,11.96250057220459
1774789949337543700,0.801543701171875,-54.88125228881836,1.6125000715255737,11.568750381469727
1774789949347543600,0.81154345703125,-53.66250228881836,1.4250000715255737,11.231250762939453
1774789949357543700,0.821543701171875,-55.44375228881836,3.0375001430511475,12
1774789949367543600,0.83154345703125,-53.83125305175781,1.7437500953674316,12.562500953674316
1774789949377543700,0.841543701171875,-53.306251525878906,2.606250047683716,9.881250381469727
1774789949387543600,0.85154345703125,-54.07500076293945,2.4562501907348633,10.59375
1774789949397543700,0.861543701171875,-53.025001525878906,2.0062501430511475,10.050000190734863
1774789949407543600,0.87154345703125,-53.04375076293945,1.256250023841858,9.206250190734863
1774789949417543700,0.881543701171875,-53.306251525878906,2.4000000953674316,10.125
1774789949427543600,0.89154345703125,-55.85625076293945,4.012500286102295,11.77500057220459
1774789949437543700,0.901543701171875,-54.31875228881836,3.187500238418579,8.756250381469727
1774789949447543600,0.91154345703125,-56.17500305175781,2.3625001907348633,9.075000762939453
1774789949457543700,0.921543701171875,-55.80000305175781,4.181250095367432,8.700000762939453
1774789949467543600,0.93154345703125,-55.500003814697266,4.368750095367432,9.15000057220459
1774789949477543700,0.941543701171875,-55.44375228881836,2.1937501430511475,10.425000190734863
1774789949487543600,0.95154345703125,-53.23125076293945,4.106250286102295,9.037500381469727
1774789949497543700,0.961543701171875,-54.656253814697266,3.2062501907348633,10.612500190734863
1774789949507543600,0.97154345703125,-53.118751525878906,2.887500047683716,8.381250381469727
1774789949517543700,0.981543701171875,-55.23750305175781,3.5812501907348633,9.693750381469727
1774789949527543600,0.99154345703125,-55.57500076293945,2.512500047683716,9.225000381469727
1774789949537543700,1.001543701171875,-54.07500076293945,1.537500023841858,8.568750381469727
1774789949547543600,1.01154345703125,-54.806251525878906,3.0375001430511475,10.293750762939453
1774789949557543700,1.021543701171875,-55.25625228881836,3.0375001430511475,10.3125
1774789949567543600,1.03154345703125,-54.76875305175781,4.425000190734863,11.268750190734863
1774789949577543700,1.041543701171875,-53.868751525878906,3.187500238418579,8.737500190734863
1774789949587543600,1.05154345703125,-55.10625076293945,3.1125001907348633,9.881250381469727
1774789949597543700,1.061543701171875,-55.25625228881836,2.793750047683716,8.568750381469727
1774789949607543600,1.07154345703125,-55.38750076293945,4.050000190734863,10.36875057220459
1774789949617543700,1.081543701171875,-53.23125076293945,4.537500381469727,10.256250381469727
1774789949627543600,1.09154345703125,-52.781253814697266,3.937500238418579,9.5625
1774789949637543700,1.101543701171875,-54.60000228881836,4.650000095367432,10.162500381469727
1774789949647543600,1.11154345703125,-52.20000076293945,2.9250001907348633,7.800000190734863
1774789949657543700,1.121543701171875,-56.00625228881836,3.6937501430511475,10.443750381469727
1774789949667543600,1.13154345703125,-53.718753814697266,2.4562501907348633,6.337500095367432
1774789949677543700,1.141543701171875,-53.118751525878906,3,9.112500190734863
1774789949687543600,1.15154345703125,-54.35625076293945,3.6187500953674316,11.662500381469727
1774789949697543700,1.161543701171875,-51.30000305175781,3.0187501907348633,9.356250762939453
1774789949707543600,1.17154345703125,-54.01875305175781,3.5250000953674316,9.375
1774789949717543700,1.181543701171875,-54.01875305175781,3.5250000953674316,9.375
1774789949727543600,1.19154345703125,-53.55000305175781,4.387500286102295,10.08750057220459
1774789949737543700,1.201543701171875,-53.55000305175781,4.387500286102295,10.08750057220459
1774789949747543600,1.21154345703125,-53.85000228881836,3.9937500953674316,10.03125
1774789949757543700,1.221543701171875,-53.250003814697266,3.356250047683716,8.193750381469727
1774789949767543600,1.23154345703125,-55.087501525878906,3.356250047683716,9.9375
1774789949777543700,1.241543701171875,-53.56875228881836,3.750000238418579,9.975000381469727
1774789949787543600,1.25154345703125,-53.19375228881836,5.006250381469727,9.206250190734863
1774789949797543700,1.261543701171875,-53.587501525878906,2.137500047683716,7.556250095367432
1774789949807543600,1.27154345703125,-54.78750228881836,2.71875,8.11875057220459
1774789949817543700,1.281543701171875,-53.26875305175781,3.2437500953674316,10.012500762939453
1774789949827543600,1.29154345703125,-53.55000305175781,3.9937500953674316,10.012500762939453
1774789949837543700,1.301543701171875,-53.75625228881836,3.2062501907348633,11.418750762939453
1774789949847543600,1.31154345703125,-53.92500305175781,1.7625000476837158,9.168750762939453
1774789949857543700,1.321543701171875,-54.76875305175781,4.387500286102295,10.96875
1774789949867543600,1.33154345703125,-53.587501525878906,3.3937501907348633,10.18125057220459
1774789949877543700,1.341543701171875,-55.031253814697266,4.96875,9.825000762939453
1774789949887543600,1.35154345703125,-53.962501525878906,5.118750095367432,9.956250190734863
1774789949897543700,1.361543701171875,-53.868751525878906,3.637500047683716,9.24375057220459
1774789949907543600,1.37154345703125,-55.53750228881836,2.9437501430511475,7.893750190734863
1774789949917543700,1.381543701171875,-51.375003814697266,5.100000381469727,9.881250381469727
1774789949927543600,1.39154345703125,-55.05000305175781,4.331250190734863,9.693750381469727
1774789949937543700,1.401543701171875,-51.86250305175781,5.006250381469727,11.006250381469727
1774789949947543600,1.41154345703125,-52.500003814697266,3.8812501430511475,10.106250762939453
1774789949957543700,1.421543701171875,-53.681251525878906,4.912500381469727,10.331250190734863
1774789949967543600,1.43154345703125,-54.78750228881836,3.5812501907348633,9.693750381469727
1774789949977543700,1.441543701171875,-52.16250228881836,4.350000381469727,9.05625057220459
1774789949987543600,1.45154345703125,-54.01875305175781,2.981250047683716,8.137500762939453
1774789949997543700,1.461543701171875,-53.587501525878906,3.0375001430511475,9.412500381469727
1774789950007543600,1.47154345703125,-54.056251525878906,2.4375,8.756250381469727
1774789950017543700,1.481543701171875,-53.75625228881836,2.6437501907348633,10.200000762939453
1774789950027543600,1.49154345703125,-54.35625076293945,3.5812501907348633,11.362500190734863
1774789950037543700,1.501543701171875,-53.88750076293945,3.1500000953674316,10.143750190734863
1774789950047543600,1.51154345703125,-54.525001525878906,3.375000238418579,12.600000381469727
1774789950057543700,1.521543701171875,-53.718753814697266,4.106250286102295,11.58750057220459
1774789950067543600,1.53154345703125,-54.03750228881836,3.918750047683716,12
1774789950077543700,1.541543701171875,-54.60000228881836,5.231250286102295,11.700000762939453
1774789950087543600,1.55154345703125,-52.312503814697266,4.575000286102295,9.675000190734863
1774789950097543700,1.561543701171875,-52.80000305175781,4.6875,12.24375057220459
1774789950107543600,1.57154345703125,-54.50625228881836,3.1500000953674316,11.006250381469727
1774789950117543700,1.581543701171875,-53.212501525878906,6.131250381469727,12.675000190734863
1774789950127543600,1.59154345703125,-54.03750228881836,3.356250047683716,10.762500762939453
1774789950137543700,1.601543701171875,-54.45000076293945,5.193750381469727,12.24375057220459
1774789950147543600,1.61154345703125,-55.875003814697266,3.262500047683716,10.93125057220459
1774789950157543700,1.621543701171875,-55.57500076293945,3.637500047683716,12.693750381469727
1774789950167543600,1.63154345703125,-54.806251525878906,2.9437501430511475,9.5625
1774789950177543700,1.641543701171875,-52.35000228881836,3.937500238418579,11.381250381469727
1774789950187543600,1.65154345703125,-53.94375228881836,1.9687501192092896,10.631250381469727
1774789950197543700,1.661543701171875,-53.94375228881836,1.9687501192092896,10.631250381469727
1774789950207543600,1.67154345703125,-52.500003814697266,3.918750047683716,10.40625
1774789950217543700,1.681543701171875,-52.95000076293945,4.537500381469727,12.075000762939453
1774789950227543600,1.69154345703125,-54.337501525878906,3.5062501430511475,10.93125057220459
1774789950237543700,1.701543701171875,-53.625003814697266,2.8125,12.187500953674316
1774789950247543600,1.71154345703125,-53.625003814697266,2.2875001430511475,11.100000381469727
1774789950257543700,1.721543701171875,-54.86250305175781,1.4812500476837158,10.706250190734863
1774789950267543600,1.73154345703125,-53.775001525878906,2.6625001430511475,12.037500381469727
1774789950277543700,1.741543701171875,-53.92500305175781,3.0375001430511475,11.96250057220459
1774789950287543600,1.75154345703125,-53.64375305175781,1.21875,9.768750190734863
1774789950297543700,1.761543701171875,-53.36250305175781,1.537500023841858,11.100000381469727
1774789950307543600,1.77154345703125,-51.656253814697266,2.0250000953674316,11.006250381469727
1774789950317543700,1.781543701171875,-53.17500305175781,2.2125000953674316,10.65000057220459
1774789950327543600,1.79154345703125,-54.843753814697266,1.7625000476837158,10.050000190734863
1774789950337543700,1.801543701171875,-55.29375076293945,2.5687501430511475,11.34375
1774789950347543600,1.81154345703125,-54.525001525878906,3.4875001907348633,13.331250190734863
1774789950357543700,1.821543701171875,-53.41875076293945,0.05625000223517418,11.231250762939453
1774789950367543600,1.83154345703125,-53.625003814697266,2.1750001907348633,10.387500762939453
1774789950377543700,1.841543701171875,-53.19375228881836,1.1812500953674316,9.46875
1774789950387543600,1.85154345703125,-53.66250228881836,0.8437500596046448,9.693750381469727
1774789950397543700,1.861543701171875,-54.900001525878906,1.068750023841858,12.187500953674316
1774789950407543600,1.87154345703125,-53.062503814697266,1.350000023841858,11.475000381469727
1774789950417543700,1.881543701171875,-52.95000076293945,0.15000000596046448,10.96875
1774789950427543600,1.89154345703125,-53.66250228881836,1.8937500715255737,12.731250762939453
1774789950437543700,1.901543701171875,-54.750003814697266,0.9000000357627869,11.86875057220459
1774789950447543600,1.91154345703125,-54.45000076293945,1.1062500476837158,11.606250762939453
1774789950457543700,1.921543701171875,-52.462501525878906,1.5937501192092896,12.356250762939453
1774789950467543600,1.93154345703125,-51.712501525878906,0.24375000596046448,9.956250190734863
1774789950477543700,1.941543701171875,-52.48125076293945,0.35625001788139343,10.706250190734863
1774789950487543600,1.95154345703125,-53.73750305175781,-0.48750001192092896,10.856250762939453
1774789950497543700,1.961543701171875,-53.85000228881836,1.1812500953674316,12.881250381469727
1774789950507543600,1.97154345703125,-52.63125228881836,0.75,11.625
1774789950517543700,1.981543701171875,-53.26875305175781,0.4312500059604645,12.862500190734863
1774789950527543600,1.99154345703125,-54.525001525878906,-1.0125000476837158,11.49375057220459
1774789950537543700,2.001543701171875,-54.150001525878906,1.7062500715255737,13.968750953674316
1774789950547543600,2.01154345703125,-54.07500076293945,-0.9187500476837158,12.206250190734863
1774789950557543700,2.021543701171875,-53.906253814697266,-1.1812500953674316,11.30625057220459
1774789950567543600,2.03154345703125,-54.150001525878906,0.581250011920929,10.518750190734863
1774789950577543700,2.041543701171875,-53.13750076293945,-0.3187500238418579,12.843750953674316
1774789950587543600,2.05154345703125,-52.687503814697266,-0.07500000298023224,12.881250381469727
1774789950597543700,2.061543701171875,-52.743751525878906,-1.40625,14.043750762939453
1774789950607543600,2.07154345703125,-52.70625305175781,-1.7437500953674316,10.03125
1774789950617543700,2.081543701171875,-52.687503814697266,-0.8250000476837158,12.037500381469727
1774789950627543600,2.09154345703125,-53.04375076293945,-0.9937500357627869,14.268750190734863
1774789950637543700,2.101543701171875,-53.025001525878906,-0.7125000357627869,13.631250381469727
1774789950647543600,2.11154345703125,-53.79375076293945,-0.9187500476837158,14.737500190734863
1774789950657543700,2.121543701171875,-51.843753814697266,-1.9312500953674316,13.781250953674316
1774789950667543600,2.13154345703125,-51.69375228881836,-2.25,12.450000762939453
1774789950677543700,2.141543701171875,-53.212501525878906,-2.0812501907348633,13.65000057220459
1774789950687543600,2.15154345703125,-53.212501525878906,-2.0812501907348633,13.65000057220459
1774789950697543700,2.161543701171875,-52.275001525878906,-1.1437500715255737,13.237500190734863
1774789950707543600,2.17154345703125,-52.087501525878906,-1.1812500953674316,11.25
1774789950717543700,2.181543701171875,-52.16250228881836,-2.8312501907348633,12.768750190734863
1774789950727543600,2.19154345703125,-51.806251525878906,-1.256250023841858,12.506250381469727
1774789950737543700,2.201543701171875,-51.35625076293945,-1.3687500953674316,12.600000381469727
1774789950747543600,2.21154345703125,-53.306251525878906,-0.6000000238418579,12.656250953674316
1774789950757543700,2.221543701171875,-52.63125228881836,-2.4750001430511475,14.40000057220459
1774789950767543600,2.23154345703125,-52.593753814697266,-1.8937500715255737,12.393750190734863
1774789950777543700,2.241543701171875,-52.72500228881836,-1.4625000953674316,11.925000190734863
1774789950787543600,2.25154345703125,-53.531253814697266,-2.6812500953674316,12.131250381469727
1774789950797543700,2.261543701171875,-52.57500076293945,-1.5750000476837158,12.037500381469727
1774789950807543600,2.27154345703125,-53.025001525878906,-1.1062500476837158,13.55625057220459
1774789950817543700,2.281543701171875,-52.42500305175781,-1.40625,12.33750057220459
1774789950827543600,2.29154345703125,-52.406253814697266,-0.5062500238418579,14.21250057220459
1774789950837543700,2.301543701171875,-52.312503814697266,-1.7812501192092896,14.812500953674316
1774789950847543600,2.31154345703125,-52.556251525878906,-0.7125000357627869,13.612500190734863
1774789950857543700,2.321543701171875,-52.781253814697266,-1.8750001192092896,15.093750953674316
1774789950867543600,2.33154345703125,-51.86250305175781,-1.4250000715255737,15.581250190734863
1774789950877543700,2.341543701171875,-50.60625076293945,-0.30000001192092896,15.61875057220459
1774789950887543600,2.35154345703125,-49.312503814697266,-3.0187501907348633,14.925000190734863
1774789950897543700,2.361543701171875,-52.35000228881836,-1.8937500715255737,16.631250381469727
1774789950907543600,2.37154345703125,-50.79375076293945,-2.2875001430511475,13.968750953674316
1774789950917543700,2.381543701171875,-51.562503814697266,-2.1187500953674316,15.15000057220459
1774789950927543600,2.39154345703125,-51.431251525878906,-2.3625001907348633,15.937500953674316
1774789950937543700,2.401543701171875,-50.64375305175781,-1.631250023841858,15.075000762939453
1774789950947543600,2.41154345703125,-51.58125305175781,-2.3625001907348633,15.093750953674316
1774789950957543700,2.421543701171875,-52.14375305175781,-0.768750011920929,16.6875
1774789950967543600,2.43154345703125,-52.66875076293945,-3,15.018750190734863
1774789950977543700,2.441543701171875,-51.806251525878906,-0.15000000596046448,15.80625057220459
1774789950987543600,2.45154345703125,-50.775001525878906,-1.162500023841858,14.887500762939453
1774789950997543700,2.461543701171875,-52.275001525878906,-1.350000023841858,13.481250762939453
1774789951007543600,2.47154345703125,-51.67500305175781,-2.4750001430511475,10.987500190734863
1774789951017543700,2.481543701171875,-48.67500305175781,-1.3125,5.34375
1774789951027543600,2.49154345703125,-51.39375305175781,-0.3375000059604645,7.725000381469727
1774789951037543700,2.501543701171875,-50.775001525878906,-0.45000001788139343,5.981250286102295
1774789951047543600,2.51154345703125,-52.181251525878906,-0.5062500238418579,9.131250381469727
1774789951057543700,2.521543701171875,-53.437503814697266,-0.4312500059604645,12.131250381469727
1774789951067543600,2.53154345703125,-54.000003814697266,0.4125000238418579,11.043750762939453
1774789951077543700,2.541543701171875,-53.212501525878906,0.9375000596046448,10.40625
1774789951087543600,2.55154345703125,-53.73750305175781,-0.5250000357627869,10.575000762939453
1774789951097543700,2.561543701171875,-52.087501525878906,1.8562500476837158,8.15625
1774789951107543600,2.57154345703125,-51.54375076293945,-0.45000001788139343,6.018750190734863
1774789951117543700,2.581543701171875,-51.937503814697266,0.6187500357627869,4.818750381469727
1774789951127543600,2.59154345703125,-52.087501525878906,0.35625001788139343,3.918750047683716
1774789951137543700,2.601543701171875,-46.85625076293945,0.375,-1.0125000476837158
1774789951147543600,2.61154345703125,-45.28125,-0.3187500238418579,-5.850000381469727
1774789951157543700,2.621543701171875,-46.05000305175781,-0.6187500357627869,-6.168750286102295
1774789951167543600,2.63154345703125,-46.05000305175781,-0.6187500357627869,-6.168750286102295
1774789951177543700,2.641543701171875,-47.51250076293945,-0.35625001788139343,1.537500023841858
1774789951187543600,2.65154345703125,-48.45000076293945,3.0187501907348633,0.8062500357627869
1774789951197543700,2.661543701171875,-51.95625305175781,0.675000011920929,6.937500476837158
1774789951207543600,2.67154345703125,-52.01250076293945,0.4687500298023224,9.731250762939453
1774789951217543700,2.681543701171875,-55.14375305175781,1.818750023841858,9.65625
1774789951227543600,2.69154345703125,-52.42500305175781,1.3125,8.77500057220459
1774789951237543700,2.701543701171875,-54.056251525878906,2.137500047683716,8.40000057220459
1774789951247543600,2.71154345703125,-52.087501525878906,2.0062501430511475,9.168750762939453
1774789951257543700,2.721543701171875,-52.42500305175781,0.9000000357627869,7.556250095367432
1774789951267543600,2.73154345703125,-53.98125076293945,0.05625000223517418,8.568750381469727
1774789951277543700,2.741543701171875,-53.79375076293945,1.818750023841858,10.46250057220459
1774789951287543600,2.75154345703125,-54.54375076293945,1.0125000476837158,7.500000476837158
1774789951297543700,2.761543701171875,-53.962501525878906,0.26250001788139343,7.481250286102295
1774789951307543600,2.77154345703125,-53.00625228881836,1.4250000715255737,7.818750381469727
1774789951317543700,2.781543701171875,-54.82500076293945,1.5937501192092896,7.200000286102295
1774789951327543600,2.79154345703125,-53.13750076293945,1.6500000953674316,6.731250286102295
1774789951337543700,2.801543701171875,-53.32500076293945,1.0500000715255737,7.762500286102295
1774789951347543600,2.81154345703125,-53.92500305175781,1.21875,8.081250190734863
1774789951357543700,2.821543701171875,-55.61250305175781,1.6125000715255737,9.05625057220459
1774789951367543600,2.83154345703125,-53.17500305175781,1.7062500715255737,8.86875057220459
1774789951377543700,2.841543701171875,-52.837501525878906,1.7437500953674316,7.462500095367432
1774789951387543600,2.85154345703125,-52.38750076293945,1.5,7.387500286102295
1774789951397543700,2.861543701171875,-52.42500305175781,0.4125000238418579,6.768750190734863
1774789951407543600,2.87154345703125,-53.73750305175781,2.8312501907348633,8.8125
1774789951417543700,2.881543701171875,-53.64375305175781,0.5250000357627869,7.518750190734863
1774789951427543600,2.89154345703125,-51.243751525878906,-0.28125,7.162500381469727
1774789951437543700,2.901543701171875,-51.525001525878906,-0.9187500476837158,4.518750190734863
1774789951447543600,2.91154345703125,-52.89375305175781,0.5062500238418579,7.500000476837158
1774789951457543700,2.921543701171875,-52.14375305175781,-0.24375000596046448,6.637500286102295
1774789951467543600,2.93154345703125,-54.78750228881836,-0.48750001192092896,10.893750190734863
1774789951477543700,2.941543701171875,-52.98750305175781,-2.7375001907348633,6.600000381469727
1774789951487543600,2.95154345703125,-53.118751525878906,-1.5187500715255737,7.256250381469727
1774789951497543700,2.961543701171875,-53.45625305175781,-2.1937501430511475,8.550000190734863
1774789951507543600,2.97154345703125,-52.125003814697266,-3.6000001430511475,7.537500381469727
1774789951517543700,2.981543701171875,-53.00625228881836,-2.4750001430511475,8.34375
1774789951527543600,2.99154345703125,-52.275001525878906,-3.1312501430511475,8.193750381469727
1774789951537543700,3.001543701171875,-53.79375076293945,-2.4562501907348633,10.200000762939453
1774789951547543600,3.01154345703125,-52.275001525878906,-2.53125,9.731250762939453
1774789951557543700,3.021543701171875,-52.44375228881836,-3.4312500953674316,8.71875
1774789951567543600,3.03154345703125,-53.98125076293945,-3.0375001430511475,11.362500190734863
1774789951577543700,3.041543701171875,-52.743751525878906,-2.4000000953674316,11.456250190734863
1774789951587543600,3.05154345703125,-53.94375228881836,-2.3625001907348633,9.9375
1774789951597543700,3.061543701171875,-52.57500076293945,-2.418750047683716,10.46250057220459
1774789951607543600,3.07154345703125,-52.61250305175781,-3.656250238418579,8.8125
1774789951617543700,3.081543701171875,-51.525001525878906,-3.7687501907348633,8.0625
1774789951627543600,3.09154345703125,-53.36250305175781,-4.162500381469727,7.050000190734863
1774789951637543700,3.101543701171875,-53.062503814697266,-3.918750047683716,8.77500057220459
1774789951647543600,3.11154345703125,-53.062503814697266,-3.918750047683716,8.77500057220459
1774789951657543700,3.121543701171875,-53.98125076293945,-3.5250000953674316,10.575000762939453
1774789951667543600,3.13154345703125,-53.23125076293945,-3.9562501907348633,9.33750057220459
1774789951677543700,3.141543701171875,-53.36250305175781,-3.543750047683716,9.5625
1774789951687543600,3.15154345703125,-52.29375076293945,-3.0562500953674316,10.331250190734863
1774789951697543700,3.161543701171875,-53.79375076293945,-3.375000238418579,8.193750381469727
1774789951707543600,3.17154345703125,-52.76250076293945,-3.1500000953674316,10.612500190734863
1774789951717543700,3.181543701171875,-53.08125305175781,-3.6000001430511475,10.950000762939453
1774789951727543600,3.19154345703125,-52.76250076293945,-3.7687501907348633,8.943750381469727
1774789951737543700,3.201543701171875,-52.14375305175781,-3.281250238418579,9.731250762939453
1774789951747543600,3.21154345703125,-53.343753814697266,-3.0187501907348633,8.96250057220459
1774789951757543700,3.221543701171875,-52.275001525878906,-3.0562500953674316,8.643750190734863
1774789951767543600,3.23154345703125,-53.118751525878906,-5.137500286102295,8.96250057220459
1774789951777543700,3.241543701171875,-52.462501525878906,-3.6937501430511475,9.375
1774789951787543600,3.25154345703125,-51.000003814697266,-5.25,9.037500381469727
1774789951797543700,3.261543701171875,-53.250003814697266,-4.650000095367432,8.77500057220459
1774789951807543600,3.27154345703125,-53.38125228881836,-4.706250190734863,7.650000095367432
1774789951817543700,3.281543701171875,-53.212501525878906,-4.275000095367432,7.162500381469727
1774789951827543600,3.29154345703125,-52.38750076293945,-7.068750381469727,6.750000476837158
1774789951837543700,3.301543701171875,-50.88750076293945,-7.987500190734863,4.837500095367432
1774789951847543600,3.31154345703125,-52.23750305175781,-7.443750381469727,5.118750095367432
1774789951857543700,3.321543701171875,-52.51875305175781,-5.90625,7.106250286102295
1774789951867543600,3.33154345703125,-49.556251525878906,-8.77500057220459,6.206250190734863
1774789951877543700,3.341543701171875,-50.437503814697266,-7.875000476837158,5.550000190734863
1774789951887543600,3.35154345703125,-46.95000076293945,-9.225000381469727,3.2250001430511475
1774789951897543700,3.361543701171875,-49.61250305175781,-9.09375,8.268750190734863
1774789951907543600,3.37154345703125,-51.000003814697266,-9.05625057220459,10.27500057220459
1774789951917543700,3.381543701171875,-53.41875076293945,-8.512500762939453,10.59375
1774789951927543600,3.39154345703125,-51.750003814697266,-8.662500381469727,10.36875057220459
1774789951937543700,3.401543701171875,-52.06875228881836,-8.943750381469727,11.043750762939453
1774789951947543600,3.41154345703125,-52.031253814697266,-8.40000057220459,10.425000190734863
1774789951957543700,3.421543701171875,-52.06875228881836,-9.206250190734863,10.987500190734863
1774789951967543600,3.43154345703125,-52.837501525878906,-8.943750381469727,11.0625
1774789951977543700,3.441543701171875,-51.000003814697266,-8.456250190734863,11.8125
1774789951987543600,3.45154345703125,-51.11250305175781,-8.418750762939453,8.71875
1774789951997543700,3.461543701171875,-51.900001525878906,-9.46875,8.25
1774789952007543600,3.47154345703125,-51.60000228881836,-8.456250190734863,10.96875
1774789952017543700,3.481543701171875,-53.73750305175781,-8.662500381469727,11.287500381469727
1774789952027543600,3.49154345703125,-53.41875076293945,-8.512500762939453,10.59375
1774789952037543700,3.501543701171875,-51.86250305175781,-8.456250190734863,8.4375
1774789952047543600,3.51154345703125,-52.80000305175781,-8.568750381469727,9.300000190734863
1774789952057543700,3.521543701171875,-51.993751525878906,-7.706250190734863,8.456250190734863
1774789952067543600,3.53154345703125,-51.993751525878906,-7.706250190734863,8.456250190734863
1774789952077543700,3.541543701171875,-51.712501525878906,-8.793750762939453,7.818750381469727
1774789952087543600,3.55154345703125,-52.61250305175781,-7.275000095367432,10.518750190734863
1774789952097543700,3.561543701171875,-52.63125228881836,-8.231250762939453,9.918750762939453
1774789952107543600,3.57154345703125,-51.843753814697266,-7.443750381469727,9.33750057220459
1774789952117543700,3.581543701171875,-51.86250305175781,-8.34375,9.168750762939453
1774789952127543600,3.59154345703125,-53.212501525878906,-8.49375057220459,7.200000286102295
1774789952137543700,3.601543701171875,-53.212501525878906,-8.49375057220459,7.200000286102295
1774789952147543600,3.61154345703125,-52.931251525878906,-8.40000057220459,8.756250381469727
1774789952157543700,3.621543701171875,-52.031253814697266,-9.581250190734863,6.675000190734863
1774789952167543600,3.63154345703125,-53.36250305175781,-8.34375,7.368750095367432
1774789952177543700,3.641543701171875,-51.54375076293945,-8.77500057220459,6.262500286102295
1774789952187543600,3.65154345703125,-51.562503814697266,-8.512500762939453,8.006250381469727
1774789952197543700,3.661543701171875,-51.562503814697266,-9.412500381469727,6.131250381469727
1774789952207543600,3.67154345703125,-53.718753814697266,-9.881250381469727,7.087500095367432
1774789952217543700,3.681543701171875,-52.81875228881836,-10.537500381469727,6.093750476837158
1774789952227543600,3.69154345703125,-54.30000305175781,-8.662500381469727,8.606250762939453
1774789952237543700,3.701543701171875,-52.500003814697266,-9.43125057220459,7.706250190734863
1774789952247543600,3.71154345703125,-53.400001525878906,-9.075000762939453,8.362500190734863
1774789952257543700,3.721543701171875,-51.30000305175781,-10.65000057220459,5.325000286102295
1774789952267543600,3.73154345703125,-51.86250305175781,-9.356250762939453,6.431250095367432
1774789952277543700,3.741543701171875,-51.13125228881836,-10.106250762939453,5.568750381469727
1774789952287543600,3.75154345703125,-50.85000228881836,-11.287500381469727,4.350000381469727
1774789952297543700,3.761543701171875,-52.01250076293945,-9.75,5.512500286102295
1774789952307543600,3.77154345703125,-50.812503814697266,-10.762500762939453,3.750000238418579
1774789952317543700,3.781543701171875,-51.88125228881836,-10.21875,4.856250286102295
1774789952327543600,3.79154345703125,-52.931251525878906,-9.99375057220459,4.650000095367432
1774789952337543700,3.801543701171875,-51.843753814697266,-7.912500381469727,7.837500095367432
1774789952347543600,3.81154345703125,-51.11250305175781,-8.90625,7.912500381469727
1774789952357543700,3.821543701171875,-53.681251525878906,-9.393750190734863,6.187500476837158
1774789952367543600,3.83154345703125,-52.462501525878906,-9.09375,5.662500381469727
1774789952377543700,3.841543701171875,-51.093753814697266,-9.112500190734863,6.468750476837158
1774789952387543600,3.85154345703125,-51.712501525878906,-8.887500762939453,7.087500095367432
1774789952397543700,3.861543701171875,-52.743751525878906,-8.606250762939453,6.468750476837158
1774789952407543600,3.87154345703125,-52.81875228881836,-10.27500057220459,6.150000095367432
1774789952417543700,3.881543701171875,-52.66875076293945,-10.74375057220459,5.493750095367432
1774789952427543600,3.89154345703125,-52.48125076293945,-9.581250190734863,6.693750381469727
1774789952437543700,3.901543701171875,-52.81875228881836,-9.581250190734863,8.40000057220459
1774789952447543600,3.91154345703125,-52.087501525878906,-10.96875,7.406250476837158
1774789952457543700,3.921543701171875,-51.26250076293945,-9.15000057220459,7.031250476837158
1774789952467543600,3.93154345703125,-52.06875228881836,-10.856250762939453,6.431250095367432
1774789952477543700,3.941543701171875,-51.150001525878906,-10.59375,6.600000381469727
1774789952487543600,3.95154345703125,-52.743751525878906,-12.037500381469727,7.781250476837158
1774789952497543700,3.961543701171875,-52.05000305175781,-10.18125057220459,6.843750476837158
1774789952507543600,3.97154345703125,-52.38750076293945,-10.331250190734863,8.381250381469727
1774789952517543700,3.981543701171875,-52.38750076293945,-10.012500762939453,8.86875057220459
1774789952527543600,3.99154345703125,-52.650001525878906,-9.52500057220459,7.837500095367432
1774789952537543700,4.001543701171875,-50.531253814697266,-9.52500057220459,8.77500057220459
1774789952547543600,4.01154345703125,-54.20625305175781,-10.350000381469727,8.137500762939453
1774789952557543700,4.021543701171875,-52.687503814697266,-10.46250057220459,7.368750095367432
1774789952567543600,4.03154345703125,-52.35000228881836,-10.050000190734863,6.037500381469727
1774789952577543700,4.041543701171875,-51.86250305175781,-8.550000190734863,7.725000381469727
1774789952587543600,4.05154345703125,-52.91250228881836,-8.606250762939453,7.312500476837158
1774789952597543700,4.061543701171875,-51.88125228881836,-10.050000190734863,6.018750190734863
1774789952607543600,4.07154345703125,-54.056251525878906,-11.100000381469727,6.450000286102295
1774789952617543700,4.081543701171875,-50.55000305175781,-10.08750057220459,7.537500381469727
1774789952627543600,4.09154345703125,-50.55000305175781,-10.08750057220459,7.537500381469727
1774789952637543700,4.101543701171875,-52.72500228881836,-10.83750057220459,9.15000057220459
1774789952647543600,4.11154345703125,-52.53750228881836,-10.65000057220459,7.912500381469727
1774789952657543700,4.121543701171875,-52.51875305175781,-10.068750381469727,7.593750476837158
1774789952667543600,4.13154345703125,-52.81875228881836,-9.506250381469727,8.831250190734863
1774789952677543700,4.141543701171875,-53.775001525878906,-10.706250190734863,8.34375
1774789952687543600,4.15154345703125,-50.400001525878906,-10.387500762939453,8.043750762939453
1774789952697543700,4.161543701171875,-52.48125076293945,-12.881250381469727,7.893750190734863
1774789952707543600,4.17154345703125,-51.95625305175781,-10.96875,8.25
1774789952717543700,4.181543701171875,-51.843753814697266,-11.606250762939453,9.825000762939453
1774789952727543600,4.19154345703125,-52.72500228881836,-10.83750057220459,9.15000057220459
1774789952737543700,4.201543701171875,-52.10625076293945,-11.287500381469727,7.762500286102295
1774789952747543600,4.21154345703125,-51.22500228881836,-11.34375,9.99375057220459
1774789952757543700,4.221543701171875,-51.97500228881836,-11.362500190734863,8.175000190734863
1774789952767543600,4.23154345703125,-51.69375228881836,-12.300000190734863,7.706250190734863
1774789952777543700,4.241543701171875,-51.69375228881836,-12.187500953674316,8.4375
1774789952787543600,4.25154345703125,-51.11250305175781,-12.61875057220459,8.90625
1774789952797543700,4.261543701171875,-51.41250228881836,-12.61875057220459,8.90625
1774789952807543600,4.27154345703125,-50.400001525878906,-12.90000057220459,11.231250762939453
1774789952817543700,4.281543701171875,-52.20000076293945,-12.787500381469727,10.3125
1774789952827543600,4.29154345703125,-49.81875228881836,-14.700000762939453,8.325000762939453
1774789952837543700,4.301543701171875,-50.962501525878906,-12.300000190734863,10.21875
1774789952847543600,4.31154345703125,-50.681251525878906,-12.862500190734863,9.825000762939453
1774789952857543700,4.321543701171875,-51.150001525878906,-13.893750190734863,8.662500381469727
1774789952867543600,4.33154345703125,-51.243751525878906,-11.831250190734863,9.1875
1774789952877543700,4.341543701171875,-50.92500305175781,-12.90000057220459,6.168750286102295
1774789952887543600,4.35154345703125,-51.07500076293945,-13.218750953674316,4.837500095367432
1774789952897543700,4.361543701171875,-49.89375305175781,-13.537500381469727,6.862500190734863
1774789952907543600,4.37154345703125,-50.70000076293945,-14.343750953674316,8.137500762939453
1774789952917543700,4.381543701171875,-49.181251525878906,-14.475000381469727,7.368750095367432
1774789952927543600,4.39154345703125,-50.718753814697266,-13.687500953674316,10.08750057220459
1774789952937543700,4.401543701171875,-50.98125076293945,-12.52500057220459,10.46250057220459
1774789952947543600,4.41154345703125,-51.26250076293945,-13.74375057220459,6.281250476837158
1774789952957543700,4.421543701171875,-51.22500228881836,-12.037500381469727,7.743750095367432
1774789952967543600,4.43154345703125,-48.281253814697266,-11.100000381469727,6.581250190734863
1774789952977543700,4.441543701171875,-52.57500076293945,-11.081250190734863,9.225000381469727
1774789952987543600,4.45154345703125,-50.868751525878906,-10.762500762939453,7.968750476837158
1774789952997543700,4.461543701171875,-50.38125228881836,-9.731250762939453,8.15625
1774789953007543600,4.47154345703125,-49.781253814697266,-10.481250762939453,6.450000286102295
1774789953017543700,4.481543701171875,-51.88125228881836,-9.09375,8.325000762939453
1774789953027543600,4.49154345703125,-51.281253814697266,-9.787500381469727,6.900000095367432
1774789953037543700,4.501543701171875,-51.91875076293945,-9.412500381469727,10.387500762939453
1774789953047543600,4.51154345703125,-51.63750076293945,-11.287500381469727,6.056250095367432
1774789953057543700,4.521543701171875,-50.41875076293945,-11.287500381469727,6.037500381469727
1774789953067543600,4.53154345703125,-49.66875076293945,-11.793750762939453,5.212500095367432
1774789953077543700,4.541543701171875,-50.08125305175781,-10.331250190734863,6.618750095367432
1774789953087543600,4.55154345703125,-50.250003814697266,-10.387500762939453,7.181250095367432
1774789953097543700,4.561543701171875,-50.250003814697266,-10.387500762939453,7.181250095367432
1774789953107543600,4.57154345703125,-51.35625076293945,-11.287500381469727,7.743750095367432
1774789953117543700,4.581543701171875,-51.16875076293945,-10.818750381469727,7.556250095367432
1774789953127543600,4.59154345703125,-50.400001525878906,-10.65000057220459,6.150000095367432
1774789953137543700,4.601543701171875,-50.55000305175781,-10.36875057220459,7.200000286102295
1774789953147543600,4.61154345703125,-48.82500076293945,-10.012500762939453,4.537500381469727
1774789953157543700,4.621543701171875,-51.281253814697266,-10.856250762939453,3.8812501430511475
1774789953167543600,4.63154345703125,-49.44375228881836,-10.012500762939453,5.400000095367432
1774789953177543700,4.641543701171875,-49.61250305175781,-10.55625057220459,5.15625
1774789953187543600,4.65154345703125,-50.41875076293945,-11.231250762939453,6.468750476837158
1774789953197543700,4.661543701171875,-50.23125076293945,-10.762500762939453,4.575000286102295
1774789953207543600,4.67154345703125,-50.062503814697266,-10.012500762939453,6.262500286102295
1774789953217543700,4.681543701171875,-51.01875305175781,-10.612500190734863,8.15625
1774789953227543600,4.69154345703125,-49.76250076293945,-10.293750762939453,6.056250095367432
1774789953237543700,4.701543701171875,-51.60000228881836,-10.800000190734863,5.175000190734863
1774789953247543600,4.71154345703125,-49.63125228881836,-10.65000057220459,6.131250381469727
1774789953257543700,4.721543701171875,-49.23750305175781,-9.168750762939453,3.5812501907348633
1774789953267543600,4.73154345703125,-50.36250305175781,-10.706250190734863,4.012500286102295
1774789953277543700,4.741543701171875,-51.712501525878906,-9.862500190734863,4.78125
1774789953287543600,4.75154345703125,-50.45625305175781,-9.487500190734863,2.981250047683716
1774789953297543700,4.761543701171875,-50.70000076293945,-6.768750190734863,5.493750095367432
1774789953307543600,4.77154345703125,-50.025001525878906,-9.731250762939453,3.918750047683716
1774789953317543700,4.781543701171875,-50.118751525878906,-8.475000381469727,3.168750047683716
1774789953327543600,4.79154345703125,-50.118751525878906,-8.34375,4.050000190734863
1774789953337543700,4.801543701171875,-50.437503814697266,-8.71875,3.9750001430511475
1774789953347543600,4.81154345703125,-49.72500228881836,-9.112500190734863,5.587500095367432
1774789953357543700,4.821543701171875,-47.681251525878906,-9.33750057220459,0.6937500238418579
1774789953367543600,4.83154345703125,-48.76875305175781,-9.90000057220459,1.03125
1774789953377543700,4.841543701171875,-47.681251525878906,-8.418750762939453,2.700000047683716
1774789953387543600,4.85154345703125,-49.95000076293945,-8.68125057220459,0.862500011920929
1774789953397543700,4.861543701171875,-49.406253814697266,-9.637500762939453,3.7875001430511475
1774789953407543600,4.87154345703125,-51.76875305175781,-8.006250381469727,2.887500047683716
1774789953417543700,4.881543701171875,-49.500003814697266,-7.987500190734863,3.1125001907348633
1774789953427543600,4.89154345703125,-50.718753814697266,-7.912500381469727,3.5812501907348633
1774789953437543700,4.901543701171875,-50.36250305175781,-6.937500476837158,3.468750238418579
1774789953447543600,4.91154345703125,-50.41875076293945,-8.475000381469727,3.187500238418579
1774789953457543700,4.921543701171875,-49.218753814697266,-8.512500762939453,3.7125000953674316
1774789953467543600,4.93154345703125,-50.23125076293945,-8.193750381469727,1.6687500476837158
1774789953477543700,4.941543701171875,-49.66875076293945,-8.512500762939453,2.8687500953674316
1774789953487543600,4.95154345703125,-50.85000228881836,-7.968750476837158,2.3062500953674316
1774789953497543700,4.961543701171875,-49.462501525878906,-7.593750476837158,1.4812500476837158
1774789953507543600,4.97154345703125,-50.812503814697266,-6.656250476837158,2.8312501907348633
1774789953517543700,4.981543701171875,-52.48125076293945,-6.825000286102295,2.418750047683716
1774789953527543600,4.99154345703125,-50.156253814697266,-6.018750190734863,2.0812501907348633
1774789953537543700,5.001543701171875,-50.812503814697266,-6.693750381469727,2.5500001907348633
1774789953547543600,5.01154345703125,-51.562503814697266,-7.181250095367432,1.7625000476837158
1774789953557543700,5.021543701171875,-51.41250228881836,-7.537500381469727,0.13125000894069672
1774789953567543600,5.03154345703125,-51.11250305175781,-7.143750190734863,2.043750047683716
1774789953577543700,5.041543701171875,-51.11250305175781,-7.143750190734863,2.043750047683716
1774789953587543600,5.05154345703125,-49.53750228881836,-6.112500190734863,0.5062500238418579
1774789953597543700,5.061543701171875,-49.42500305175781,-7.125000476837158,0.45000001788139343
1774789953607543600,5.07154345703125,-50.062503814697266,-8.006250381469727,0.4312500059604645
1774789953617543700,5.081543701171875,-50.10000228881836,-8.71875,1.4250000715255737
1774789953627543600,5.09154345703125,-49.89375305175781,-7.406250476837158,1.1062500476837158
1774789953637543700,5.101543701171875,-52.181251525878906,-7.743750095367432,0.39375001192092896
1774789953647543600,5.11154345703125,-50.98125076293945,-7.331250190734863,3.262500047683716
1774789953657543700,5.121543701171875,-49.931251525878906,-8.193750381469727,1.6687500476837158
1774789953667543600,5.13154345703125,-50.64375305175781,-6.543750286102295,2.700000047683716
1774789953677543700,5.141543701171875,-50.32500076293945,-6.712500095367432,0.6937500238418579
1774789953687543600,5.15154345703125,-50.681251525878906,-7.125000476837158,3.0187501907348633
1774789953697543700,5.161543701171875,-51.58125305175781,-7.387500286102295,2.0062501430511475
1774789953707543600,5.17154345703125,-49.91250228881836,-7.481250286102295,2.231250047683716
1774789953717543700,5.181543701171875,-50.64375305175781,-7.500000476837158,0.4125000238418579
1774789953727543600,5.19154345703125,-50.98125076293945,-8.043750762939453,1.0125000476837158
1774789953737543700,5.201543701171875,-53.13750076293945,-8.700000762939453,1.5187500715255737
1774789953747543600,5.21154345703125,-50.718753814697266,-9.318750381469727,0.768750011920929
1774789953757543700,5.221543701171875,-50.26875305175781,-9.581250190734863,0.7125000357627869
1774789953767543600,5.23154345703125,-49.33125305175781,-8.90625,0.24375000596046448
1774789953777543700,5.241543701171875,-48.73125076293945,-8.737500190734863,0.5437500476837158
1774789953787543600,5.25154345703125,-48.88125228881836,-8.4375,1.7437500953674316
1774789953797543700,5.261543701171875,-50.88750076293945,-10.068750381469727,-0.9187500476837158
1774789953807543600,5.27154345703125,-51.13125228881836,-8.456250190734863,-1.03125
1774789953817543700,5.281543701171875,-50.118751525878906,-9.637500762939453,-0.581250011920929
1774789953827543600,5.29154345703125,-49.275001525878906,-7.725000381469727,-0.24375000596046448
1774789953837543700,5.301543701171875,-49.33125305175781,-9.43125057220459,-0.8437500596046448
1774789953847543600,5.31154345703125,-47.8125,-10.46250057220459,-3.6187500953674316
1774789953857543700,5.321543701171875,-49.89375305175781,-8.625,-3.075000047683716
1774789953867543600,5.33154345703125,-48.618751525878906,-6.806250095367432,-1.631250023841858
1774789953877543700,5.341543701171875,-47.92500305175781,-8.793750762939453,-2.4562501907348633
1774789953887543600,5.35154345703125,-47.025001525878906,-10.08750057220459,-5.268750190734863
1774789953897543700,5.361543701171875,-46.57500076293945,-9.862500190734863,-3.825000047683716
1774789953907543600,5.37154345703125,-49.91250228881836,-9.581250190734863,-3.543750047683716
1774789953917543700,5.381543701171875,-47.13750076293945,-9.75,-6.468750476837158
1774789953927543600,5.39154345703125,-48.11250305175781,-10.706250190734863,-5.362500190734863
1774789953937543700,5.401543701171875,-49.14375305175781,-8.793750762939453,-2.418750047683716
1774789953947543600,5.41154345703125,-51.618751525878906,-9.375,-0.48750001192092896
1774789953957543700,5.421543701171875,-50.19375228881836,-8.006250381469727,-1.3875000476837158
1774789953967543600,5.43154345703125,-49.218753814697266,-10.21875,-1.1437500715255737
1774789953977543700,5.441543701171875,-48.86250305175781,-9.112500190734863,-1.21875
1774789953987543600,5.45154345703125,-50.118751525878906,-9.543750762939453,0.15000000596046448
1774789953997543700,5.461543701171875,-50.41875076293945,-9.52500057220459,0.15000000596046448
1774789954007543600,5.47154345703125,-49.53750228881836,-10.012500762939453,0.3187500238418579
1774789954017543700,5.481543701171875,-50.73750305175781,-9.506250381469727,1.162500023841858
1774789954027543600,5.49154345703125,-50.681251525878906,-8.512500762939453,-0.48750001192092896
1774789954037543700,5.501543701171875,-51.468753814697266,-9.075000762939453,-0.15000000596046448
1774789954047543600,5.51154345703125,-49.35000228881836,-10.350000381469727,-2.8500001430511475
1774789954057543700,5.521543701171875,-49.35000228881836,-10.350000381469727,-2.8500001430511475
1774789954067543600,5.53154345703125,-50.23125076293945,-9.112500190734863,-2.0250000953674316
1774789954077543700,5.541543701171875,-49.275001525878906,-7.612500190734863,-1.2000000476837158
1774789954087543600,5.55154345703125,-48.093753814697266,-8.86875057220459,-1.1812500953674316
1774789954097543700,5.561543701171875,-50.212501525878906,-8.550000190734863,-0.7875000238418579
1774789954107543600,5.57154345703125,-48.78750228881836,-6.862500190734863,-0.375
1774789954117543700,5.581543701171875,-49.44375228881836,-8.30625057220459,-0.768750011920929
1774789954127543600,5.59154345703125,-49.48125076293945,-9.637500762939453,-1.443750023841858
1774789954137543700,5.601543701171875,-51.375003814697266,-7.500000476837158,-2.1187500953674316
1774789954147543600,5.61154345703125,-48.07500076293945,-8.625,-2.137500047683716
1774789954157543700,5.621543701171875,-50.19375228881836,-8.006250381469727,-1.3875000476837158
1774789954167543600,5.63154345703125,-49.10625076293945,-7.387500286102295,-1.3125
1774789954177543700,5.641543701171875,-48.78750228881836,-7.293750286102295,-1.5750000476837158
1774789954187543600,5.65154345703125,-48.806251525878906,-7.987500190734863,-1.9875000715255737
1774789954197543700,5.661543701171875,-49.593753814697266,-8.71875,-2.8125
1774789954207543600,5.67154345703125,-50.32500076293945,-8.081250190734863,-2.6812500953674316
1774789954217543700,5.681543701171875,-49.462501525878906,-9.037500381469727,-1.6125000715255737
1774789954227543600,5.69154345703125,-51.60000228881836,-9.037500381469727,-0.7125000357627869
1774789954237543700,5.701543701171875,-48.07500076293945,-7.781250476837158,-0.5625
1774789954247543600,5.71154345703125,-49.53750228881836,-6.487500190734863,-0.28125
1774789954257543700,5.721543701171875,-48.67500305175781,-8.02500057220459,-1.443750023841858
1774789954267543600,5.73154345703125,-50.19375228881836,-7.556250095367432,0.11250000447034836
1774789954277543700,5.741543701171875,-50.94375228881836,-7.125000476837158,0.48750001192092896
1774789954287543600,5.75154345703125,-49.14375305175781,-8.625,-1.256250023841858
1774789954297543700,5.761543701171875,-49.406253814697266,-8.287500381469727,-3.3000001907348633
1774789954307543600,5.77154345703125,-50.10000228881836,-6,-2.137500047683716
1774789954317543700,5.781543701171875,-50.681251525878906,-3.6937501430511475,1.7062500715255737
1774789954327543600,5.79154345703125,-49.48125076293945,-5.362500190734863,-1.2000000476837158
1774789954337543700,5.801543701171875,-50.062503814697266,-3.8062500953674316,0.11250000447034836
1774789954347543600,5.81154345703125,-50.70000076293945,-5.043750286102295,-0.675000011920929
1774789954357543700,5.821543701171875,-50.212501525878906,-4.40625,-0.5625
1774789954367543600,5.83154345703125,-48.58125305175781,-5.100000381469727,-0.16875000298023224
1774789954377543700,5.841543701171875,-50.26875305175781,-5.53125,0.20625001192092896
1774789954387543600,5.85154345703125,-49.500003814697266,-5.193750381469727,-0.03750000149011612
1774789954397543700,5.861543701171875,-47.98125076293945,-6.131250381469727,-2.0812501907348633
1774789954407543600,5.87154345703125,-51.056251525878906,-5.25,2.1187500953674316
1774789954417543700,5.881543701171875,-51.01875305175781,-5.15625,0.30000001192092896
1774789954427543600,5.89154345703125,-50.04375076293945,-6.806250095367432,1.8000000715255737
1774789954437543700,5.901543701171875,-48,-4.78125,2.8312501907348633
1774789954447543600,5.91154345703125,-51.50625228881836,-5.15625,2.8500001430511475
1774789954457543700,5.921543701171875,-51.35625076293945,-5.362500190734863,2.25
1774789954467543600,5.93154345703125,-49.218753814697266,-4.893750190734863,2.137500047683716
1774789954477543700,5.941543701171875,-49.275001525878906,-5.587500095367432,4.125
1774789954487543600,5.95154345703125,-50.00625228881836,-5.868750095367432,2.25
1774789954497543700,5.961543701171875,-47.75625228881836,-6.525000095367432,2.0625
1774789954507543600,5.97154345703125,-49.98750305175781,-5.231250286102295,2.3812501430511475
1774789954517543700,5.981543701171875,-48.01875305175781,-6.450000286102295,-0.01875000074505806
1774789954527543600,5.99154345703125,-50.32500076293945,-6.225000381469727,1.4812500476837158
1774789954537543700,6.001543701171875,-50.32500076293945,-6.225000381469727,1.4812500476837158
1774789954547543600,6.01154345703125,-49.556251525878906,-5.90625,1.9500000476837158
1774789954557543700,6.021543701171875,-50.19375228881836,-6.656250476837158,1.9687501192092896
1774789954567543600,6.03154345703125,-50.13750076293945,-5.775000095367432,1.1437500715255737
1774789954577543700,6.041543701171875,-48.48750305175781,-6.168750286102295,1.8750001192092896
1774789954587543600,6.05154345703125,-49.275001525878906,-5.90625,3.637500047683716
1774789954597543700,6.061543701171875,-51.54375076293945,-6.056250095367432,2.6812500953674316
1774789954607543600,6.07154345703125,-50.17500305175781,-6.168750286102295,2.7750000953674316
1774789954617543700,6.081543701171875,-50.17500305175781,-6.862500190734863,0.5250000357627869
1774789954627543600,6.09154345703125,-49.125003814697266,-6.693750381469727,1.6500000953674316
1774789954637543700,6.101543701171875,-51.843753814697266,-6.112500190734863,2.25
1774789954647543600,6.11154345703125,-48.843753814697266,-7.143750190734863,1.9875000715255737
1774789954657543700,6.121543701171875,-49.875003814697266,-6.656250476837158,1.9687501192092896
1774789954667543600,6.13154345703125,-49.85625076293945,-6.487500190734863,0.581250011920929
1774789954677543700,6.141543701171875,-48.843753814697266,-8.043750762939453,0.11250000447034836
1774789954687543600,6.15154345703125,-49.875003814697266,-6.262500286102295,2.0250000953674316
1774789954697543700,6.161543701171875,-51.60000228881836,-7.218750476837158,3.168750047683716
1774789954707543600,6.17154345703125,-50.681251525878906,-7.087500095367432,3.3187501430511475
1774789954717543700,6.181543701171875,-50.10000228881836,-7.931250095367432,2.5687501430511475
1774789954727543600,6.19154345703125,-50.32500076293945,-6.056250095367432,2.6437501907348633
1774789954737543700,6.201543701171875,-48.806251525878906,-6.131250381469727,2.1750001907348633
1774789954747543600,6.21154345703125,-50.343753814697266,-6.300000190734863,3.6000001430511475
1774789954757543700,6.221543701171875,-49.57500076293945,-6.056250095367432,2.625
1774789954767543600,6.23154345703125,-49.57500076293945,-6.862500190734863,1.350000023841858
1774789954777543700,6.241543701171875,-49.57500076293945,-6.618750095367432,1.3875000476837158
1774789954787543600,6.25154345703125,-49.63125228881836,-7.687500476837158,2.606250047683716
1774789954797543700,6.261543701171875,-49.35000228881836,-8.268750190734863,2.90625
1774789954807543600,6.27154345703125,-48.78750228881836,-5.868750095367432,2.231250047683716
1774789954817543700,6.281543701171875,-50.812503814697266,-7.293750286102295,1.0125000476837158
1774789954827543600,6.29154345703125,-50.156253814697266,-5.512500286102295,2.887500047683716
1774789954837543700,6.301543701171875,-50.92500305175781,-5.418750286102295,3.637500047683716
1774789954847543600,6.31154345703125,-49.968753814697266,-4.837500095367432,2.4562501907348633
1774789954857543700,6.321543701171875,-49.968753814697266,-4.481250286102295,3.2250001430511475
1774789954867543600,6.33154345703125,-50.025001525878906,-5.756250381469727,2.981250047683716
1774789954877543700,6.341543701171875,-51.843753814697266,-5.793750286102295,2.7375001907348633
1774789954887543600,6.35154345703125,-51.48750305175781,-4.012500286102295,3.7687501907348633
1774789954897543700,6.361543701171875,-50.306251525878906,-5.043750286102295,3.543750047683716
1774789954907543600,6.37154345703125,-51.056251525878906,-5.418750286102295,2.793750047683716
1774789954917543700,6.381543701171875,-50.92500305175781,-5.34375,4.068750381469727
1774789954927543600,6.39154345703125,-51.01875305175781,-4.237500190734863,2.3062500953674316
1774789954937543700,6.401543701171875,-50.775001525878906,-5.90625,1.9875000715255737
1774789954947543600,6.41154345703125,-49.80000305175781,-3.9937500953674316,3.168750047683716
1774789954957543700,6.421543701171875,-51.618751525878906,-4.96875,0.6375000476837158
1774789954967543600,6.43154345703125,-50.062503814697266,-3.1125001907348633,2.3625001907348633
1774789954977543700,6.441543701171875,-49.931251525878906,-4.443750381469727,0.8250000476837158
1774789954987543600,6.45154345703125,-49.80000305175781,-4.875,1.3125
1774789954997543700,6.461543701171875,-50.26875305175781,-5.081250190734863,0.7125000357627869
1774789955007543600,6.47154345703125,-49.275001525878906,-2.53125,2.0250000953674316
1774789955017543700,6.481543701171875,-52.743751525878906,-5.606250286102295,2.231250047683716
1774789955027543600,6.49154345703125,-52.743751525878906,-5.606250286102295,2.231250047683716
1774789955037543700,6.501543701171875,-50.906253814697266,-5.362500190734863,2.231250047683716
1774789955047543600,6.51154345703125,-49.35000228881836,-5.850000381469727,-1.0125000476837158
1774789955057543700,6.521543701171875,-50.08125305175781,-4.556250095367432,-0.7312500476837158
1774789955067543600,6.53154345703125,-48,-5.90625,-0.6375000476837158
1774789955077543700,6.541543701171875,-47.681251525878906,-5.700000286102295,-0.8812500238418579
1774789955087543600,6.55154345703125,-50.26875305175781,-5.15625,0.28125
1774789955097543700,6.561543701171875,-50.85000228881836,-4.800000190734863,-0.768750011920929
1774789955107543600,6.57154345703125,-50.55000305175781,-5.625,-2.0625
1774789955117543700,6.581543701171875,-50.66250228881836,-3.656250238418579,0.30000001192092896
1774789955127543600,6.59154345703125,-52.20000076293945,-4.350000381469727,-0.22500000894069672
1774789955137543700,6.601543701171875,-52.20000076293945,-3.750000238418579,1.3125
1774789955147543600,6.61154345703125,-53.306251525878906,-4.012500286102295,3.825000047683716
1774789955157543700,6.621543701171875,-50.88750076293945,-4.181250095367432,3.5812501907348633
1774789955167543600,6.63154345703125,-49.48125076293945,-3.3937501907348633,3.843750238418579
1774789955177543700,6.641543701171875,-51.562503814697266,-2.418750047683716,2.8125
1774789955187543600,6.65154345703125,-51.60000228881836,-3.543750047683716,1.8937500715255737
1774789955197543700,6.661543701171875,-52.05000305175781,-2.887500047683716,3.8625001907348633
1774789955207543600,6.67154345703125,-49.462501525878906,-3.656250238418579,1.9500000476837158
1774789955217543700,6.681543701171875,-49.06875228881836,-1.1062500476837158,2.4375
1774789955227543600,6.69154345703125,-50.83125305175781,-3,3.1125001907348633
1774789955237543700,6.701543701171875,-50.88750076293945,-4.762500286102295,2.0625
1774789955247543600,6.71154345703125,-52.98750305175781,-3.825000047683716,3.4312500953674316
1774789955257543700,6.721543701171875,-50.718753814697266,-4.125,3.0375001430511475
1774789955267543600,6.73154345703125,-50.66250228881836,-2.90625,2.8312501907348633
1774789955277543700,6.741543701171875,-50.94375228881836,-2.90625,1.1437500715255737
1774789955287543600,6.75154345703125,-51.30000305175781,-3.843750238418579,1.537500023841858
1774789955297543700,6.761543701171875,-49.312503814697266,-3.450000047683716,2.5500001907348633
1774789955307543600,6.77154345703125,-50.83125305175781,-3.843750238418579,1.537500023841858
1774789955317543700,6.781543701171875,-51.76875305175781,-3.8625001907348633,3.1125001907348633
1774789955327543600,6.79154345703125,-50.85000228881836,-4.200000286102295,1.7437500953674316
1774789955337543700,6.801543701171875,-50.66250228881836,-3.543750047683716,1.0125000476837158
1774789955347543600,6.81154345703125,-51.45000076293945,-3.5812501907348633,2.4375
1774789955357543700,6.821543701171875,-49.181251525878906,-4.162500381469727,1.1437500715255737
1774789955367543600,6.83154345703125,-49.76250076293945,-3.9562501907348633,0.768750011920929
1774789955377543700,6.841543701171875,-51.39375305175781,-2.15625,2.0062501430511475
1774789955387543600,6.85154345703125,-50.868751525878906,-3.9750001430511475,3.2062501907348633
1774789955397543700,6.861543701171875,-52.218753814697266,-3.918750047683716,2.6812500953674316
1774789955407543600,6.87154345703125,-52.35000228881836,-3.4312500953674316,2.6437501907348633
1774789955417543700,6.881543701171875,-52.031253814697266,-2.90625,2.0250000953674316
1774789955427543600,6.89154345703125,-52.218753814697266,-4.143750190734863,1.2375000715255737
1774789955437543700,6.901543701171875,-53.13750076293945,-5.025000095367432,0.24375000596046448
1774789955447543600,6.91154345703125,-52.181251525878906,-3.9000000953674316,0.28125
1774789955457543700,6.921543701171875,-50.51250076293945,-1.8937500715255737,4.725000381469727
1774789955467543600,6.93154345703125,-51.337501525878906,-4.987500190734863,2.325000047683716
1774789955477543700,6.941543701171875,-51.76875305175781,-4.237500190734863,2.325000047683716
1774789955487543600,6.95154345703125,-51.806251525878906,-4.762500286102295,2.9437501430511475
1774789955497543700,6.961543701171875,-51.806251525878906,-4.762500286102295,2.9437501430511475
1774789955507543600,6.97154345703125,-50.868751525878906,-4.237500190734863,3.1500000953674316
1774789955517543700,6.981543701171875,-50.868751525878906,-4.237500190734863,3.1500000953674316
1774789955527543600,6.99154345703125,-53.156253814697266,-3.8625001907348633,3.9937500953674316
1774789955537543700,7.001543701171875,-52.125003814697266,-4.331250190734863,5.006250381469727
1774789955547543600,7.01154345703125,-51.67500305175781,-5.15625,3.7125000953674316
1774789955557543700,7.021543701171875,-51.50625228881836,-4.293750286102295,4.425000190734863
1774789955567543600,7.03154345703125,-51.03750228881836,-3.9750001430511475,4.050000190734863
1774789955577543700,7.041543701171875,-51.35625076293945,-4.818750381469727,3.4875001907348633
1774789955587543600,7.05154345703125,-51.76875305175781,-3.4312500953674316,3.468750238418579
1774789955597543700,7.061543701171875,-53.156253814697266,-3.8625001907348633,3.9937500953674316
1774789955607543600,7.07154345703125,-52.368751525878906,-3.6937501430511475,2.5875000953674316
1774789955617543700,7.081543701171875,-52.650001525878906,-2.5875000953674316,4.21875
1774789955627543600,7.09154345703125,-51.41250228881836,-2.0625,4.425000190734863
1774789955637543700,7.101543701171875,-51.30000305175781,-2.8500001430511475,4.143750190734863
1774789955647543600,7.11154345703125,-51.000003814697266,-4.331250190734863,1.5937501192092896
1774789955657543700,7.121543701171875,-52.06875228881836,-3.4875001907348633,4.03125
1774789955667543600,7.13154345703125,-49.05000305175781,-3.7125000953674316,5.043750286102295
1774789955677543700,7.141543701171875,-50.66250228881836,-6.225000381469727,4.893750190734863
1774789955687543600,7.15154345703125,-52.48125076293945,-5.512500286102295,5.493750095367432
1774789955697543700,7.161543701171875,-51.78750228881836,-3.843750238418579,4.950000286102295
1774789955707543600,7.17154345703125,-50.906253814697266,-4.443750381469727,4.237500190734863
1774789955717543700,7.181543701171875,-50.73750305175781,-4.368750095367432,3.9750001430511475
1774789955727543600,7.19154345703125,-51.69375228881836,-6,2.137500047683716
1774789955737543700,7.201543701171875,-50.23125076293945,-4.200000286102295,0.8812500238418579
1774789955747543600,7.21154345703125,-49.48125076293945,-5.006250381469727,-0.4125000238418579
1774789955757543700,7.221543701171875,-51.35625076293945,-6.525000095367432,-1.5
1774789955767543600,7.23154345703125,-50.718753814697266,-6.112500190734863,-2.0062501430511475
1774789955777543700,7.241543701171875,-49.218753814697266,-6.337500095367432,-0.956250011920929
1774789955787543600,7.25154345703125,-49.218753814697266,-6.693750381469727,-1.7437500953674316
1774789955797543700,7.261543701171875,-48.31875228881836,-5.962500095367432,-0.05625000223517418
1774789955807543600,7.27154345703125,-51.806251525878906,-4.650000095367432,3.656250238418579
1774789955817543700,7.281543701171875,-50.025001525878906,-4.893750190734863,6.393750190734863
1774789955827543600,7.29154345703125,-51.656253814697266,-3.8062500953674316,6.075000286102295
1774789955837543700,7.301543701171875,-49.95000076293945,-4.200000286102295,2.5687501430511475
1774789955847543600,7.31154345703125,-51.50625228881836,-4.762500286102295,2.9250001907348633
1774789955857543700,7.321543701171875,-51.03750228881836,-4.462500095367432,3.262500047683716
1774789955867543600,7.33154345703125,-51.54375076293945,-4.668750286102295,6.187500476837158
1774789955877543700,7.341543701171875,-50.92500305175781,-5.100000381469727,4.125
1774789955887543600,7.35154345703125,-50.94375228881836,-5.981250286102295,3.9562501907348633
1774789955897543700,7.361543701171875,-50.28750228881836,-4.78125,2.887500047683716
1774789955907543600,7.37154345703125,-52.14375305175781,-5.043750286102295,4.443750381469727
1774789955917543700,7.381543701171875,-51.86250305175781,-6.318750381469727,3.3375000953674316
1774789955927543600,7.39154345703125,-50.85000228881836,-3.5250000953674316,3.7125000953674316
1774789955937543700,7.401543701171875,-50.28750228881836,-4.631250381469727,3.918750047683716
1774789955947543600,7.41154345703125,-52.087501525878906,-3.375000238418579,4.762500286102295
1774789955957543700,7.421543701171875,-50.868751525878906,-3.8812501430511475,3.937500238418579
1774789955967543600,7.43154345703125,-51.73125076293945,-2.6437501907348633,2.90625
1774789955977543700,7.441543701171875,-51.73125076293945,-2.6437501907348633,2.90625
1774789955987543600,7.45154345703125,-52.10625076293945,-4.012500286102295,4.631250381469727
1774789955997543700,7.461543701171875,-51.01875305175781,-4.03125,3.7687501907348633
1774789956007543600,7.47154345703125,-52.23750305175781,-4.087500095367432,3.356250047683716
1774789956017543700,7.481543701171875,-52.23750305175781,-4.087500095367432,3.356250047683716
1774789956027543600,7.49154345703125,-52.23750305175781,-4.125,3.075000047683716
1774789956037543700,7.501543701171875,-51.30000305175781,-3.3375000953674316,3.3375000953674316
1774789956047543600,7.51154345703125,-51.281253814697266,-3.9562501907348633,0.8250000476837158
1774789956057543700,7.521543701171875,-52.05000305175781,-3.375000238418579,3.075000047683716
1774789956067543600,7.53154345703125,-52.368751525878906,-3.6937501430511475,2.5875000953674316
1774789956077543700,7.541543701171875,-52.06875228881836,-3.168750047683716,4.518750190734863
1774789956087543600,7.55154345703125,-51.30000305175781,-2.7375001907348633,4.856250286102295
1774789956097543700,7.561543701171875,-51.431251525878906,-3.6000001430511475,0.6000000238418579
1774789956107543600,7.57154345703125,-50.04375076293945,-3.9750001430511475,-1.0500000715255737
1774789956117543700,7.581543701171875,-52.61250305175781,-2.625,1.3875000476837158
1774789956127543600,7.59154345703125,-52.98750305175781,-4.03125,1.9875000715255737
1774789956137543700,7.601543701171875,-51.431251525878906,-1.9875000715255737,4.875
1774789956147543600,7.61154345703125,-52.087501525878906,-3.9750001430511475,3.2437500953674316
1774789956157543700,7.621543701171875,-52.650001525878906,-3.0562500953674316,2.71875
1774789956167543600,7.63154345703125,-52.16250228881836,-2.8500001430511475,1.4812500476837158
1774789956177543700,7.641543701171875,-51.76875305175781,-3.4312500953674316,3.468750238418579
1774789956187543600,7.65154345703125,-49.80000305175781,-3.543750047683716,3.6750001907348633
1774789956197543700,7.661543701171875,-51.58125305175781,-3.0562500953674316,2.700000047683716
1774789956207543600,7.67154345703125,-51.431251525878906,-3.0187501907348633,2.137500047683716
1774789956217543700,7.681543701171875,-52.593753814697266,-2.0250000953674316,1.21875
1774789956227543600,7.69154345703125,-53.025001525878906,-1.2375000715255737,2.3812501430511475
1774789956237543700,7.701543701171875,-52.275001525878906,-1.162500023841858,2.793750047683716
1774789956247543600,7.71154345703125,-53.08125305175781,-2.4562501907348633,2.5687501430511475
1774789956257543700,7.721543701171875,-50.493751525878906,-2.4562501907348633,2.4937500953674316
1774789956267543600,7.73154345703125,-51.45000076293945,-4.181250095367432,0.9187500476837158
1774789956277543700,7.741543701171875,-49.91250228881836,-3.6187500953674316,0.5625
1774789956287543600,7.75154345703125,-50.66250228881836,-3.656250238418579,0.30000001192092896
1774789956297543700,7.761543701171875,-51.45000076293945,-4.143750190734863,1.21875
1774789956307543600,7.77154345703125,-51.281253814697266,-3.093750238418579,2.4000000953674316
1774789956317543700,7.781543701171875,-50.118751525878906,-4.78125,2.043750047683716
1774789956327543600,7.79154345703125,-53.062503814697266,-2.3062500953674316,1.8937500715255737
1774789956337543700,7.801543701171875,-50.60625076293945,-2.5875000953674316,-0.9187500476837158
1774789956347543600,7.81154345703125,-49.81875228881836,-2.4750001430511475,-2.7562501430511475
1774789956357543700,7.821543701171875,-50.868751525878906,-1.7625000476837158,-2.15625
1774789956367543600,7.83154345703125,-50.587501525878906,-2.793750047683716,-2.3625001907348633
1774789956377543700,7.841543701171875,-50.13750076293945,-2.1000001430511475,-0.13125000894069672
1774789956387543600,7.85154345703125,-52.031253814697266,-2.34375,3.262500047683716
1774789956397543700,7.861543701171875,-50.45625305175781,-2.0250000953674316,1.162500023841858
1774789956407543600,7.87154345703125,-50.64375305175781,-2.418750047683716,1.9500000476837158
1774789956417543700,7.881543701171875,-49.70625305175781,-1.8937500715255737,2.15625
1774789956427543600,7.89154345703125,-51.712501525878906,-2.2687501907348633,2.981250047683716
1774789956437543700,7.901543701171875,-52.14375305175781,-1.725000023841858,2.4000000953674316
1774789956447543600,7.91154345703125,-50.92500305175781,-2.15625,2.0062501430511475
1774789956457543700,7.921543701171875,-50.92500305175781,-2.15625,2.0062501430511475
1774789956467543600,7.93154345703125,-52.29375076293945,-1.9875000715255737,1.5
1774789956477543700,7.941543701171875,-50.60625076293945,-1.8750001192092896,1.3312500715255737
1774789956487543600,7.95154345703125,-52.14375305175781,-2.512500047683716,1.256250023841858
1774789956497543700,7.961543701171875,-52.05000305175781,-2.9437501430511475,3.4312500953674316
1774789956507543600,7.97154345703125,-51.281253814697266,-2.887500047683716,3.843750238418579
1774789956517543700,7.981543701171875,-52.312503814697266,-2.043750047683716,3.6187500953674316
1774789956527543600,7.99154345703125,-53.08125305175781,-2.15625,2.90625
1774789956537543700,8.001543701171874,-50.83125305175781,-2.700000047683716,3.450000047683716
1774789956547543600,8.01154345703125,-50.83125305175781,-3.6937501430511475,0.862500011920929
1774789956557543700,8.021543701171876,-50.212501525878906,-3.918750047683716,0.22500000894069672
1774789956567543600,8.03154345703125,-49.312503814697266,-4.875,-1.2375000715255737
1774789956577543700,8.041543701171875,-48.750003814697266,-5.475000381469727,0.6000000238418579
1774789956587543600,8.05154345703125,-50.118751525878906,-4.875,1.3125
1774789956607543600,8.07154345703125,-49.462501525878906,-3.2437500953674316,3.168750047683716
1774789956617543700,8.081543701171874,-50.212501525878906,-3.4125001430511475,2.0250000953674316
1774789956627543600,8.09154345703125,-50.531253814697266,-2.9625000953674316,3.3937501907348633
1774789956637543700,8.101543701171876,-51.30000305175781,-2.7750000953674316,4.575000286102295
1774789956647543600,8.11154345703125,-49.875003814697266,-2.0625,2.700000047683716
1774789956657543700,8.121543701171875,-51.618751525878906,-3.5812501907348633,3.3000001907348633
1774789956667543600,8.13154345703125,-50.28750228881836,-4.668750286102295,3.6187500953674316
1774789956677543700,8.141543701171875,-50.531253814697266,-3.375000238418579,3.0187501907348633
1774789956687543600,8.15154345703125,-51.656253814697266,-4.443750381469727,4.256250381469727
1774789956697543700,8.161543701171874,-50.10000228881836,-3.3937501907348633,4.706250190734863
1774789956707543600,8.17154345703125,-50.85000228881836,-3.1312501430511475,4.78125
1774789956717543700,8.181543701171876,-49.500003814697266,-3.8812501430511475,3.0375001430511475
1774789956727543600,8.19154345703125,-49.81875228881836,-4.068750381469727,4.293750286102295
1774789956737543700,8.201543701171875,-50.88750076293945,-4.556250095367432,3.5250000953674316
1774789956747543600,8.21154345703125,-49.06875228881836,-4.03125,4.556250095367432
1774789956757543700,8.221543701171875,-50.60625076293945,-5.100000381469727,4.106250286102295
1774789956767543600,8.23154345703125,-49.20000076293945,-4.200000286102295,2.5500001907348633
1774789956777543700,8.241543701171874,-47.73750305175781,-6.075000286102295,2.5875000953674316
1774789956787543600,8.25154345703125,-51.806251525878906,-4.181250095367432,5.15625
1774789956797543700,8.261543701171876,-50.025001525878906,-5.587500095367432,4.143750190734863
1774789956807543600,8.27154345703125,-47.60625076293945,-5.643750190734863,4.631250381469727
1774789956817543700,8.281543701171875,-50.60625076293945,-4.556250095367432,5.193750381469727
1774789956827543600,8.29154345703125,-51.11250305175781,-5.268750190734863,6.356250286102295
1774789956837543700,8.301543701171875,-52.125003814697266,-4.331250190734863,5.006250381469727
1774789956847543600,8.31154345703125,-49.837501525878906,-4.78125,3.731250047683716
1774789956857543700,8.321543701171874,-48.656253814697266,-5.8125,3.5062501430511475
1774789956867543600,8.33154345703125,-48.45000076293945,-4.856250286102295,2.4000000953674316
1774789956877543700,8.341543701171876,-48.656253814697266,-5.737500190734863,3.937500238418579
1774789956887543600,8.35154345703125,-49.25625228881836,-5.137500286102295,4.631250381469727
1774789956897543700,8.361543701171875,-48.01875305175781,-5.231250286102295,2.325000047683716
1774789956907543600,8.37154345703125,-49.125003814697266,-5.643750190734863,4.668750286102295
1774789956917543700,8.381543701171875,-50.812503814697266,-6.056250095367432,5.212500095367432
1774789956927543600,8.39154345703125,-51.618751525878906,-6.375000476837158,7.275000095367432
1774789956937543700,8.401543701171875,-51.618751525878906,-6.375000476837158,7.275000095367432
1774789956947543600,8.41154345703125,-52.500003814697266,-5.456250190734863,7.631250381469727
1774789956957543700,8.421543701171874,-48.712501525878906,-6.168750286102295,6.956250190734863
1774789956967543600,8.43154345703125,-49.500003814697266,-7.443750381469727,5.043750286102295
1774789956977543700,8.441543701171875,-49.312503814697266,-6.318750381469727,5.118750095367432
1774789956987543600,8.45154345703125,-50.250003814697266,-6.112500190734863,7.443750381469727
1774789956997543700,8.461543701171875,-52.20000076293945,-5.418750286102295,7.912500381469727
1774789957007543600,8.47154345703125,-50.41875076293945,-7.087500095367432,6.693750381469727
1774789957017543700,8.481543701171875,-50.400001525878906,-7.762500286102295,3.731250047683716
1774789957027543600,8.49154345703125,-49.51875305175781,-6.637500286102295,8.02500057220459
1774789957037543700,8.501543701171874,-48.54375076293945,-6.281250476837158,5.381250381469727
1774789957047543600,8.51154345703125,-50.343753814697266,-5.775000095367432,4.537500381469727
1774789957057543700,8.521543701171876,-49.33125305175781,-6.918750286102295,5.287500381469727
1774789957067543600,8.53154345703125,-47.775001525878906,-6.037500381469727,5.418750286102295
1774789957077543700,8.541543701171875,-49.462501525878906,-7.031250476837158,3.7125000953674316
1774789957087543600,8.55154345703125,-49.29375076293945,-6.131250381469727,4.725000381469727
1774789957097543700,8.561543701171875,-48.150001525878906,-7.500000476837158,5.568750381469727
1774789957107543600,8.57154345703125,-48.712501525878906,-6.393750190734863,5.512500286102295
1774789957127543600,8.59154345703125,-49.91250228881836,-6.281250476837158,4.575000286102295
1774789957137543700,8.601543701171876,-49.16250228881836,-6.881250381469727,4.725000381469727
1774789957147543600,8.61154345703125,-51.60000228881836,-6.581250190734863,5.831250190734863
1774789957157543700,8.621543701171875,-49.63125228881836,-7.612500190734863,3.0375001430511475
1774789957167543600,8.63154345703125,-47.85000228881836,-8.362500190734863,3.9750001430511475
1774789957177543700,8.641543701171875,-47.962501525878906,-7.837500095367432,2.3812501430511475
1774789957187543600,8.65154345703125,-46.837501525878906,-6.225000381469727,2.3812501430511475
1774789957197543700,8.661543701171874,-47.73750305175781,-6.675000190734863,1.0500000715255737
1774789957207543600,8.67154345703125,-47.775001525878906,-7.087500095367432,2.3812501430511475
1774789957217543700,8.681543701171876,-48.41250228881836,-8.137500762939453,2.0625
1774789957227543600,8.69154345703125,-48.60000228881836,-8.53125,2.8312501907348633
1774789957237543700,8.701543701171875,-48.58125305175781,-8.625,2.1187500953674316
1774789957247543600,8.71154345703125,-46.53750228881836,-6.637500286102295,1.3125
1774789957257543700,8.721543701171875,-46.96875,-6.356250286102295,0.675000011920929
1774789957267543600,8.73154345703125,-47.56875228881836,-6.487500190734863,0.5250000357627869
1774789957277543700,8.741543701171874,-47.90625,-6.675000190734863,1.912500023841858
1774789957287543600,8.75154345703125,-46.40625,-7.350000381469727,1.443750023841858
1774789957297543700,8.761543701171876,-50.025001525878906,-6.056250095367432,2.6437501907348633
1774789957307543600,8.77154345703125,-48.78750228881836,-6.018750190734863,1.2000000476837158
1774789957317543700,8.781543701171875,-48.056251525878906,-6.918750286102295,1.0125000476837158
1774789957327543600,8.79154345703125,-48.03750228881836,-6.281250476837158,1.1437500715255737
1774789957337543700,8.801543701171875,-48.78750228881836,-6.487500190734863,-0.30000001192092896
1774789957347543600,8.81154345703125,-48.78750228881836,-5.981250286102295,1.5
1774789957357543700,8.821543701171874,-46.76250076293945,-5.53125,-1.443750023841858
1774789957367543600,8.83154345703125,-46.89375305175781,-5.587500095367432,-2.71875
1774789957377543700,8.841543701171876,-49.01250076293945,-4.631250381469727,-1.2000000476837158
1774789957387543600,8.85154345703125,-48.41250228881836,-5.0625,-0.7312500476837158
1774789957397543700,8.861543701171875,-49.25625228881836,-7.237500190734863,-1.125
1774789957407543600,8.87154345703125,-49.781253814697266,-4.59375,0.65625
1774789957417543700,8.881543701171875,-49.781253814697266,-4.59375,0.65625
1774789957427543600,8.89154345703125,-48.48750305175781,-6.375000476837158,0.4312500059604645
1774789957437543700,8.901543701171875,-49.01250076293945,-4.875,-1.256250023841858
1774789957447543600,8.91154345703125,-47.94375228881836,-4.518750190734863,-1.350000023841858
1774789957457543700,8.921543701171874,-47.47500228881836,-4.912500381469727,-3.1312501430511475
1774789957467543600,8.93154345703125,-46.70625305175781,-4.256250381469727,-1.2000000476837158
1774789957477543700,8.941543701171875,-47.493751525878906,-4.950000286102295,-1.725000023841858
1774789957487543600,8.95154345703125,-49.48125076293945,-4.200000286102295,0.862500011920929
1774789957497543700,8.961543701171875,-49.743751525878906,-3.8062500953674316,0.09375
1774789957507543600,8.97154345703125,-49.743751525878906,-3.4875001907348633,-0.26250001788139343
1774789957517543700,8.981543701171875,-49.29375076293945,-3.918750047683716,-0.6375000476837158
1774789957527543600,8.99154345703125,-49.29375076293945,-4.837500095367432,-2.6437501907348633
1774789957537543700,9.001543701171874,-50.66250228881836,-4.125,-1.2000000476837158
1774789957547543600,9.01154345703125,-48.54375076293945,-4.631250381469727,-1.21875
1774789957557543700,9.021543701171876,-46.743751525878906,-4.462500095367432,-0.11250000447034836
1774789957567543600,9.03154345703125,-46.85625076293945,-5.100000381469727,-3.6187500953674316
1774789957577543700,9.041543701171875,-49.14375305175781,-4.518750190734863,-1.3125
1774789957587543600,9.05154345703125,-47.45625305175781,-3.3937501907348633,0.39375001192092896
1774789957597543700,9.061543701171875,-48.97500228881836,-3.9750001430511475,-1.0875000953674316
1774789957607543600,9.07154345703125,-50.025001525878906,-3.6000001430511475,-0.9750000238418579
1774789957617543700,9.081543701171874,-49.125003814697266,-3.281250238418579,0.3187500238418579
1774789957627543600,9.09154345703125,-51.30000305175781,-3.637500047683716,3
1774789957637543700,9.101543701171876,-49.781253814697266,-4.350000381469727,0.7125000357627869
1774789957647543600,9.11154345703125,-51.41250228881836,-2.7562501430511475,2.1750001907348633
1774789957657543700,9.121543701171875,-50.025001525878906,-2.6812500953674316,1.03125
1774789957667543600,9.13154345703125,-48.54375076293945,-3.9750001430511475,0.75
1774789957677543700,9.141543701171875,-51.41250228881836,-3.168750047683716,1.1062500476837158
1774789957687543600,9.15154345703125,-49.42500305175781,-4.050000190734863,-2.34375
1774789957697543700,9.161543701171874,-50.88750076293945,-2.1937501430511475,-0.8250000476837158
1774789957707543600,9.17154345703125,-50.75625228881836,-2.25,-0.28125
1774789957717543700,9.181543701171876,-49.218753814697266,-1.40625,1.256250023841858
1774789957727543600,9.19154345703125,-49.406253814697266,-2.8500001430511475,-0.9937500357627869
1774789957737543700,9.201543701171875,-49.406253814697266,-2.2687501907348633,1.2375000715255737
1774789957747543600,9.21154345703125,-50.681251525878906,-4.256250381469727,0.4687500298023224
1774789957757543700,9.221543701171875,-48.937503814697266,-2.043750047683716,1.125
1774789957767543600,9.23154345703125,-49.72500228881836,-3.168750047683716,0.22500000894069672
1774789957777543700,9.241543701171874,-48.993751525878906,-3.8812501430511475,-0.35625001788139343
1774789957787543600,9.25154345703125,-48.993751525878906,-4.068750381469727,0.03750000149011612
1774789957797543700,9.261543701171876,-50.10000228881836,-4.987500190734863,0.6000000238418579
1774789957807543600,9.27154345703125,-50.531253814697266,-3.843750238418579,1.5187500715255737
1774789957817543700,9.281543701171875,-51.60000228881836,-3.843750238418579,1.5562500953674316
1774789957827543600,9.29154345703125,-50.83125305175781,-3.543750047683716,1.8750001192092896
1774789957837543700,9.301543701171875,-50.681251525878906,-3.656250238418579,1.9875000715255737
1774789957847543600,9.31154345703125,-49.89375305175781,-3.1312501430511475,1.3687500953674316
1774789957857543700,9.321543701171874,-48.562503814697266,-3.450000047683716,2.53125
1774789957867543600,9.33154345703125,-48.73125076293945,-4.256250381469727,2.25
1774789957877543700,9.341543701171876,-50.10000228881836,-4.087500095367432,2.4562501907348633
1774789957887543600,9.35154345703125,-49.181251525878906,-3.937500238418579,2.606250047683716
1774789957897543700,9.361543701171875,-49.48125076293945,-3.9937500953674316,2.325000047683716
1774789957907543600,9.37154345703125,-49.48125076293945,-3.9937500953674316,2.325000047683716
1774789957917543700,9.381543701171875,-50.212501525878906,-3.5062501430511475,1.2937500476837158
1774789957927543600,9.39154345703125,-49.48125076293945,-3.2062501907348633,3.450000047683716
1774789957937543700,9.401543701171875,-49.462501525878906,-3.450000047683716,1.7062500715255737
1774789957947543600,9.41154345703125,-48.63750076293945,-5.268750190734863,2.887500047683716
1774789957957543700,9.421543701171874,-49.031253814697266,-4.5,1.3687500953674316
1774789957967543600,9.43154345703125,-48.22500228881836,-3.0375001430511475,1.2000000476837158
1774789957977543700,9.441543701171875,-48.73125076293945,-4.837500095367432,0.7312500476837158
1774789957987543600,9.45154345703125,-49.95000076293945,-4.237500190734863,2.2875001430511475
1774789957997543700,9.461543701171875,-48.67500305175781,-6.918750286102295,1.8750001192092896
1774789958007543600,9.47154345703125,-46.368751525878906,-6.037500381469727,1.9875000715255737
1774789958017543700,9.481543701171875,-49.368751525878906,-4.987500190734863,2.2687501907348633
1774789958027543600,9.49154345703125,-48.48750305175781,-5.868750095367432,2.2125000953674316
1774789958037543700,9.501543701171874,-49.087501525878906,-5.53125,2.8687500953674316
1774789958047543600,9.51154345703125,-47.83125305175781,-3.3937501907348633,4.650000095367432
1774789958057543700,9.521543701171876,-48.45000076293945,-3.7687501907348633,5.587500095367432
1774789958067543600,9.53154345703125,-46.01250076293945,-4.256250381469727,3.0187501907348633
1774789958077543700,9.541543701171875,-49.087501525878906,-5.175000190734863,3.637500047683716
1774789958087543600,9.55154345703125,-46.96875,-5.025000095367432,3.750000238418579
1774789958097543700,9.561543701171875,-49.51875305175781,-4.3125,4.368750095367432
1774789958107543600,9.57154345703125,-48.03750228881836,-5.8125,2.6437501907348633
1774789958117543700,9.581543701171874,-47.73750305175781,-5.118750095367432,4.875
1774789958127543600,9.59154345703125,-47.775001525878906,-6.131250381469727,4.6875
1774789958137543700,9.601543701171876,-47.625,-6.600000381469727,4.03125
1774789958147543600,9.61154345703125,-47.92500305175781,-6.712500095367432,3.3000001907348633
1774789958157543700,9.621543701171875,-45.69375228881836,-7.087500095367432,5.006250381469727
1774789958167543600,9.63154345703125,-47.00625228881836,-5.700000286102295,5.175000190734863
1774789958177543700,9.641543701171875,-46.10625076293945,-6.300000190734863,4.462500095367432
1774789958187543600,9.65154345703125,-45.97500228881836,-6.787500381469727,4.518750190734863
1774789958197543700,9.661543701171874,-47.36250305175781,-7.893750190734863,2.9250001907348633
1774789958207543600,9.67154345703125,-46.42500305175781,-7.106250286102295,3.187500238418579
1774789958217543700,9.681543701171876,-47.00625228881836,-6.618750095367432,3.168750047683716
1774789958227543600,9.69154345703125,-47.19375228881836,-7.781250476837158,2.8125
1774789958237543700,9.701543701171875,-46.125,-6.993750095367432,3.918750047683716
1774789958247543600,9.71154345703125,-46.40625,-6.243750095367432,4.762500286102295
1774789958257543700,9.721543701171875,-47.38125228881836,-7.462500095367432,5.831250190734863
1774789958267543600,9.73154345703125,-47.025001525878906,-6.825000286102295,4.256250381469727
1774789958277543700,9.741543701171874,-47.38125228881836,-7.500000476837158,5.550000190734863
1774789958287543600,9.75154345703125,-46.181251525878906,-7.481250286102295,6.637500286102295
1774789958297543700,9.761543701171876,-47.32500076293945,-6.281250476837158,5.34375
1774789958307543600,9.77154345703125,-47.13750076293945,-9.131250381469727,5.512500286102295
1774789958317543700,9.781543701171875,-48.01875305175781,-8.15625,6.281250476837158
1774789958327543600,9.79154345703125,-47.08125305175781,-6.993750095367432,7.331250190734863
1774789958337543700,9.801543701171875,-45.712501525878906,-7.518750190734863,6.337500095367432
1774789958347543600,9.81154345703125,-44.775001525878906,-7.368750095367432,4.800000190734863
1774789958357543700,9.821543701171874,-46.59375,-7.706250190734863,2.512500047683716
1774789958367543600,9.83154345703125,-45.97500228881836,-7.050000190734863,4.462500095367432
1774789958377543700,9.841543701171876,-45.97500228881836,-7.050000190734863,4.462500095367432
1774789958387543600,9.85154345703125,-44.66250228881836,-8.381250381469727,4.743750095367432
1774789958397543700,9.861543701171875,-46.59375,-7.950000286102295,2.4750001430511475
1774789958407543600,9.87154345703125,-46.59375,-7.950000286102295,2.4750001430511475
1774789958417543700,9.881543701171875,-46.181251525878906,-9.037500381469727,2.8125
1774789958427543600,9.89154345703125,-46.29375076293945,-6.937500476837158,5.193750381469727
1774789958437544000,9.9015439453125,-46.3125,-7.687500476837158,4.350000381469727
1774789958447544000,9.9115439453125,-47.962501525878906,-7.068750381469727,5.081250190734863
1774789958457544000,9.9215439453125,-45.30000305175781,-8.756250381469727,5.53125
1774789958467544000,9.9315439453125,-47.08125305175781,-7.950000286102295,5.025000095367432
1774789958477544000,9.9415439453125,-46.59375,-6.881250381469727,5.643750190734863
1774789958487544000,9.9515439453125,-46.087501525878906,-9.43125057220459,5.137500286102295
1774789958497544000,9.9615439453125,-46.95000076293945,-7.856250286102295,6.600000381469727
1774789958507544000,9.9715439453125,-44.681251525878906,-7.875000476837158,6.525000095367432
1774789958517544000,9.9815439453125,-45.54375076293945,-6.881250381469727,5.606250286102295
1774789958527544000,9.9915439453125,-47.962501525878906,-6.187500476837158,6.937500476837158
1774789958537544000,10.0015439453125,-46.275001525878906,-6.675000190734863,5.25
1774789958547544000,10.0115439453125,-45.48750305175781,-5.700000286102295,5.137500286102295
1774789958557544000,10.0215439453125,-45.20625305175781,-6.956250190734863,3.3375000953674316
1774789958567544000,10.0315439453125,-45.375,-7.200000286102295,4.275000095367432
1774789958577544000,10.0415439453125,-47.34375,-5.756250381469727,7.293750286102295
1774789958587544000,10.0515439453125,-44.625,-7.593750476837158,4.181250095367432
1774789958597544000,10.0615439453125,-46.556251525878906,-5.550000190734863,6.168750286102295
1774789958607544000,10.0715439453125,-45.67500305175781,-7.200000286102295,4.293750286102295
1774789958617544000,10.0815439453125,-46.462501525878906,-6.881250381469727,6.487500190734863
1774789958627544000,10.0915439453125,-45.22500228881836,-7.425000190734863,4.368750095367432
1774789958637544000,10.1015439453125,-45.993751525878906,-7.368750095367432,4.818750381469727
1774789958647544000,10.1115439453125,-44.775001525878906,-6.618750095367432,5.643750190734863
1774789958657544000,10.1215439453125,-45.97500228881836,-5.981250286102295,7.481250286102295
1774789958667544000,10.1315439453125,-47.025001525878906,-5.981250286102295,5.831250190734863
1774789958677544000,10.1415439453125,-42.63750076293945,-7.312500476837158,3.468750238418579
1774789958687544000,10.1515439453125,-45.97500228881836,-6.243750095367432,5.756250381469727
1774789958697544000,10.1615439453125,-45.525001525878906,-5.887500286102295,8.21250057220459
1774789958707544000,10.1715439453125,-45.375,-6.731250286102295,5.775000095367432
1774789958717544000,10.1815439453125,-45.22500228881836,-6.881250381469727,5.606250286102295
1774789958727544000,10.1915439453125,-44.775001525878906,-8.40000057220459,2.0625
1774789958737544000,10.2015439453125,-42.91875076293945,-7.443750381469727,1.7625000476837158
1774789958747544000,10.2115439453125,-44.0625,-9.675000190734863,1.8000000715255737
1774789958757544000,10.2215439453125,-43.275001525878906,-9.262500762939453,0.45000001788139343
1774789958767544000,10.2315439453125,-44.98125076293945,-9.300000190734863,2.7375001907348633
1774789958777544000,10.2415439453125,-42.337501525878906,-8.662500381469727,1.0875000953674316
1774789958787544000,10.2515439453125,-44.868751525878906,-7.050000190734863,1.0500000715255737
1774789958797544000,10.2615439453125,-42.45000076293945,-7.650000095367432,0.30000001192092896
1774789958807544000,10.2715439453125,-42.54375076293945,-7.612500190734863,-4.481250286102295
1774789958817544000,10.2815439453125,-45.337501525878906,-6.300000190734863,4.443750381469727
1774789958827544000,10.2915439453125,-45.525001525878906,-6.525000095367432,6.393750190734863
1774789958837544000,10.3015439453125,-45.337501525878906,-6.412500381469727,3.731250047683716
1774789958847544000,10.3115439453125,-44.13750076293945,-6.675000190734863,3.637500047683716
1774789958857544000,10.3215439453125,-44.13750076293945,-6.675000190734863,3.637500047683716
1774789958867544000,10.3315439453125,-45.48750305175781,-5.8125,4.40625
1774789958877544000,10.3415439453125,-43.650001525878906,-5.887500286102295,3.918750047683716
1774789958887544000,10.3515439453125,-45.65625,-6.300000190734863,4.462500095367432
1774789958897544000,10.3615439453125,-44.55000305175781,-5.381250381469727,3.9000000953674316
1774789958907544000,10.3715439453125,-45.1875,-6.037500381469727,5.34375
1774789958917544000,10.3815439453125,-45.46875,-5.0625,5.25
1774789958927544000,10.3915439453125,-47.00625228881836,-5.400000095367432,5.512500286102295
1774789958937544000,10.4015439453125,-45.97500228881836,-6.187500476837158,6.037500381469727
1774789958947544000,10.4115439453125,-44.868751525878906,-5.512500286102295,5.568750381469727
1774789958957544000,10.4215439453125,-44.868751525878906,-5.981250286102295,4.068750381469727
1774789958967544000,10.4315439453125,-45.63750076293945,-5.775000095367432,5.550000190734863
1774789958977544000,10.4415439453125,-47.15625,-4.912500381469727,7.162500381469727
1774789958987544000,10.4515439453125,-45.63750076293945,-4.950000286102295,6.825000286102295
1774789958997544000,10.4615439453125,-46.087501525878906,-5.025000095367432,6.412500381469727
1774789959007544000,10.4715439453125,-44.868751525878906,-5.550000190734863,5.287500381469727
1774789959017544000,10.4815439453125,-46.23750305175781,-5.34375,5.925000190734863
1774789959027544000,10.4915439453125,-45.30000305175781,-4.125,6.562500476837158
1774789959037544000,10.5015439453125,-49.087501525878906,-4.612500190734863,4.875
1774789959047544000,10.5115439453125,-46.23750305175781,-5.512500286102295,4.762500286102295
1774789959057544000,10.5215439453125,-44.025001525878906,-3.4312500953674316,4.537500381469727
1774789959067544000,10.5315439453125,-44.38125228881836,-4.068750381469727,6.112500190734863
1774789959077544000,10.5415439453125,-42.50625228881836,-4.293750286102295,2.9250001907348633
1774789959087544000,10.5515439453125,-44.66250228881836,-4.875,2.3062500953674316
1774789959097544000,10.5615439453125,-43.76250076293945,-5.868750095367432,0.5437500476837158
1774789959107544000,10.5715439453125,-45.09375,-5.193750381469727,0.13125000894069672
1774789959117544000,10.5815439453125,-45.31875228881836,-5.868750095367432,3.1125001907348633
1774789959127544000,10.5915439453125,-44.8125,-5.868750095367432,0.5625
1774789959137544000,10.6015439453125,-43.89375305175781,-4.612500190734863,2.325000047683716
1774789959147544000,10.6115439453125,-42.806251525878906,-5.193750381469727,0.07500000298023224
1774789959157544000,10.6215439453125,-44.775001525878906,-4.331250190734863,0.862500011920929
1774789959177544000,10.6415439453125,-43.89375305175781,-4.875,2.2875001430511475
1774789959187544000,10.6515439453125,-44.28750228881836,-2.887500047683716,3.093750238418579
1774789959197544000,10.6615439453125,-45.337501525878906,-6.356250286102295,4.012500286102295
1774789959207544000,10.6715439453125,-46.368751525878906,-4.368750095367432,6.543750286102295
1774789959217544000,10.6815439453125,-44.41875076293945,-4.706250190734863,7.687500476837158
1774789959227544000,10.6915439453125,-45.60000228881836,-4.125,6.562500476837158
1774789959237544000,10.7015439453125,-42.28125,-4.96875,6.731250286102295
1774789959247544000,10.7115439453125,-46.05000305175781,-4.481250286102295,5.793750286102295
1774789959257544000,10.7215439453125,-44.587501525878906,-5.775000095367432,5.512500286102295
1774789959267544000,10.7315439453125,-43.743751525878906,-3.9562501907348633,5.137500286102295
1774789959277544000,10.7415439453125,-45.82500076293945,-2.34375,5.081250190734863
1774789959287544000,10.7515439453125,-45.39375305175781,-3.6937501430511475,4.387500286102295
1774789959297544000,10.7615439453125,-44.775001525878906,-1.537500023841858,8.86875057220459
1774789959307544000,10.7715439453125,-45.993751525878906,-2.1937501430511475,6.937500476837158
1774789959317544000,10.7815439453125,-45.375,-2.0250000953674316,7.237500190734863
1774789959327544000,10.7915439453125,-45.09375,-2.1750001907348633,7.912500381469727
1774789959337544000,10.8015439453125,-45.09375,-2.1750001907348633,7.912500381469727
1774789959347544000,10.8115439453125,-44.8125,-3,7.462500095367432
1774789959357544000,10.8215439453125,-44.56875228881836,-4.5,8.30625057220459
1774789959367544000,10.8315439453125,-43.95000076293945,-4.612500190734863,6.712500095367432
1774789959377544000,10.8415439453125,-45.22500228881836,-6.468750476837158,6.675000190734863
1774789959387544000,10.8515439453125,-43.80000305175781,-4.96875,6.787500381469727
1774789959397544000,10.8615439453125,-44.400001525878906,-4.668750286102295,6.281250476837158
1774789959407544000,10.8715439453125,-45.46875,-4.706250190734863,6.018750190734863
1774789959417544000,10.8815439453125,-44.88750076293945,-5.775000095367432,5.53125
1774789959427544000,10.8915439453125,-45.31875228881836,-5.268750190734863,4.650000095367432
1774789959437544000,10.9015439453125,-45.618751525878906,-4.21875,7.668750286102295
1774789959447544000,10.9115439453125,-43.66875076293945,-5.212500095367432,6.862500190734863
1774789959457544000,10.9215439453125,-44.15625,-5.400000095367432,8.11875057220459
1774789959467544000,10.9315439453125,-45.97500228881836,-5.831250190734863,6.806250095367432
1774789959477544000,10.9415439453125,-44.90625,-6.150000095367432,5.456250190734863
1774789959487544000,10.9515439453125,-45.337501525878906,-4.856250286102295,7.556250095367432
1774789959497544000,10.9615439453125,-45.1875,-5.493750095367432,6.581250190734863
1774789959507544000,10.9715439453125,-44.587501525878906,-5.193750381469727,7.743750095367432
1774789959517544000,10.9815439453125,-43.98750305175781,-5.34375,7.556250095367432
1774789959527544000,10.9915439453125,-46.125,-5.081250190734863,8.512500762939453
1774789959537544000,11.0015439453125,-46.40625,-4.443750381469727,8.643750190734863
1774789959547544000,11.0115439453125,-46.53750228881836,-3.4875001907348633,10.106250762939453
1774789959557544000,11.0215439453125,-46.85625076293945,-4.331250190734863,9.375
1774789959567544000,11.0315439453125,-47.00625228881836,-3.562500238418579,11.231250762939453
1774789959577544000,11.0415439453125,-45.48750305175781,-3.6750001907348633,10.46250057220459
1774789959587544000,11.0515439453125,-46.81875228881836,-3.093750238418579,9.33750057220459
1774789959597544000,11.0615439453125,-46.53750228881836,-3.9562501907348633,8.606250762939453
1774789959607544000,11.0715439453125,-46.53750228881836,-4.537500381469727,7.068750381469727
1774789959617544000,11.0815439453125,-46.556251525878906,-4.275000095367432,8.96250057220459
1774789959627544000,11.0915439453125,-45.50625228881836,-4.987500190734863,8.381250381469727
1774789959637544000,11.1015439453125,-46.35000228881836,-3.637500047683716,7.387500286102295
1774789959647544000,11.1115439453125,-44.85000228881836,-3.843750238418579,8.4375
1774789959657544000,11.1215439453125,-46.35000228881836,-3.562500238418579,7.818750381469727
1774789959667544000,11.1315439453125,-46.98750305175781,-4.443750381469727,7.818750381469727
1774789959677544000,11.1415439453125,-45.993751525878906,-2.4562501907348633,6.900000095367432
1774789959687544000,11.1515439453125,-44.53125,-4.068750381469727,6.975000381469727
1774789959697544000,11.1615439453125,-46.5,-3.2062501907348633,7.743750095367432
1774789959707544000,11.1715439453125,-47.08125305175781,-3.0187501907348633,7.237500190734863
1774789959717544000,11.1815439453125,-45.28125,-3.731250047683716,6.637500286102295
1774789959727544000,11.1915439453125,-46.931251525878906,-2.8687500953674316,7.406250476837158
1774789959737544000,11.2015439453125,-48.618751525878906,-3.825000047683716,6
1774789959747544000,11.2115439453125,-47.53125,-2.34375,7.668750286102295
1774789959757544000,11.2215439453125,-46.80000305175781,-4.425000190734863,4.425000190734863
1774789959767544000,11.2315439453125,-47.08125305175781,-3.7875001430511475,4.556250095367432
1774789959777544000,11.2415439453125,-48.41250228881836,-2.1750001907348633,6.168750286102295
1774789959787544000,11.2515439453125,-47.4375,-0.6375000476837158,6.581250190734863
1774789959797544000,11.2615439453125,-49.14375305175781,-2.1187500953674316,4.087500095367432
1774789959807544000,11.2715439453125,-49.14375305175781,-2.1187500953674316,4.087500095367432
1774789959817544000,11.2815439453125,-47.775001525878906,-1.6875001192092896,6.093750476837158
1774789959827544000,11.2915439453125,-49.35000228881836,-3.0375001430511475,5.456250190734863
1774789959837544000,11.3015439453125,-49.70625305175781,-0.6187500357627869,4.950000286102295
1774789959847544000,11.3115439453125,-46.25625228881836,-1.8750001192092896,4.893750190734863
1774789959857544000,11.3215439453125,-45.88125228881836,-0.05625000223517418,4.518750190734863
1774789959867544000,11.3315439453125,-47.17500305175781,-1.9500000476837158,5.193750381469727
1774789959877544000,11.3415439453125,-49.72500228881836,-2.2125000953674316,2.53125
1774789959887544000,11.3515439453125,-44.64375305175781,-1.3875000476837158,-0.28125
1774789959897544000,11.3615439453125,-47.625,-2.6812500953674316,2.793750047683716
1774789959907544000,11.3715439453125,-47.47500228881836,-2.15625,4.59375
1774789959917544000,11.3815439453125,-48.993751525878906,-2.1187500953674316,4.912500381469727
1774789959927544000,11.3915439453125,-47.98125076293945,-3.750000238418579,4.012500286102295
1774789959937544000,11.4015439453125,-47.25,-4.743750095367432,3.093750238418579
1774789959947544000,11.4115439453125,-48.41250228881836,-3.2437500953674316,3.1312501430511475
1774789959957544000,11.4215439453125,-46.16250228881836,-5.081250190734863,0.9000000357627869
1774789959967544000,11.4315439453125,-47.625,-3.562500238418579,0.9375000596046448
1774789959977544000,11.4415439453125,-47.15625,-3.2437500953674316,0.5625
1774789959987544000,11.4515439453125,-46.23750305175781,-3.0375001430511475,1.1437500715255737
1774789959997544000,11.4615439453125,-47.15625,-3.7875001430511475,-0.5250000357627869
1774789960007544000,11.4715439453125,-47.90625,-3.356250047683716,-0.15000000596046448
1774789960017544000,11.4815439453125,-49.06875228881836,-1.256250023841858,1.4250000715255737
1774789960027544000,11.4915439453125,-49.125003814697266,-2.418750047683716,1.8937500715255737
1774789960037544000,11.5015439453125,-47.60625076293945,-2.4375,1.8562500476837158
1774789960047544000,11.5115439453125,-47.71875,-2.1187500953674316,0.65625
1774789960057544000,11.5215439453125,-47.025001525878906,-2.8312501907348633,2.606250047683716
1774789960067544000,11.5315439453125,-48.375003814697266,-2.1750001907348633,3.6187500953674316
1774789960077544000,11.5415439453125,-50.812503814697266,-2.25,3.9562501907348633
1774789960087544000,11.5515439453125,-49.181251525878906,-3.5062501430511475,3.1125001907348633
1774789960097544000,11.5615439453125,-48.750003814697266,-4.106250286102295,3.262500047683716
1774789960107544000,11.5715439453125,-47.83125305175781,-4.181250095367432,3.5062501430511475
1774789960117544000,11.5815439453125,-47.70000076293945,-5.231250286102295,2.3062500953674316
1774789960127544000,11.5915439453125,-47.25,-4.21875,5.043750286102295
1774789960137544000,11.6015439453125,-49.031253814697266,-3.7125000953674316,2.4937500953674316
1774789960147544000,11.6115439453125,-47.19375228881836,-4.068750381469727,1.818750023841858
1774789960157544000,11.6215439453125,-46.95000076293945,-5.25,2.2875001430511475
1774789960167544000,11.6315439453125,-48.48750305175781,-5.268750190734863,3.731250047683716
1774789960177544000,11.6415439453125,-47.98125076293945,-5.100000381469727,0.65625
1774789960187544000,11.6515439453125,-49.05000305175781,-3.8812501430511475,3.8812501430511475
1774789960197544000,11.6615439453125,-49.181251525878906,-3.356250047683716,4.125
1774789960207544000,11.6715439453125,-47.90625,-5.643750190734863,4.650000095367432
1774789960217544000,11.6815439453125,-49.61250305175781,-6.375000476837158,4.6875
1774789960227544000,11.6915439453125,-48.337501525878906,-4.612500190734863,4.856250286102295
1774789960237544000,11.7015439453125,-50.26875305175781,-4.518750190734863,2.9437501430511475
1774789960247544000,11.7115439453125,-49.23750305175781,-4.950000286102295,4.237500190734863
1774789960257544000,11.7215439453125,-48.48750305175781,-4.78125,5.381250381469727
1774789960267544000,11.7315439453125,-48.48750305175781,-5.325000286102295,3.450000047683716
1774789960277544000,11.7415439453125,-49.06875228881836,-4.462500095367432,4.200000286102295
1774789960287544000,11.7515439453125,-47.83125305175781,-3.937500238418579,3.562500238418579
1774789960297544000,11.7615439453125,-47.83125305175781,-3.937500238418579,3.562500238418579
1774789960307544000,11.7715439453125,-49.23750305175781,-5.0625,3.5250000953674316
1774789960317544000,11.7815439453125,-47.60625076293945,-6.075000286102295,3.4312500953674316
1774789960327544000,11.7915439453125,-48.54375076293945,-6.993750095367432,3.1312501430511475
1774789960337544000,11.8015439453125,-48.337501525878906,-4.950000286102295,5.0625
1774789960347544000,11.8115439453125,-47.32500076293945,-6.131250381469727,4.668750286102295
1774789960357544000,11.8215439453125,-48.67500305175781,-5.643750190734863,4.668750286102295
1774789960367544000,11.8315439453125,-48.11250305175781,-7.631250381469727,3
1774789960377544000,11.8415439453125,-47.71875,-5.175000190734863,2.7562501430511475
1774789960387544000,11.8515439453125,-50.343753814697266,-5.418750286102295,5.306250095367432
1774789960397544000,11.8615439453125,-47.60625076293945,-5.606250286102295,4.931250095367432
1774789960407544000,11.8715439453125,-49.33125305175781,-6.956250190734863,4.987500190734863
1774789960417544000,11.8815439453125,-48.54375076293945,-6.393750190734863,4.650000095367432
1774789960427544000,11.8915439453125,-48.45000076293945,-7.706250190734863,4.96875
1774789960437544000,11.9015439453125,-50.28750228881836,-7.387500286102295,7.200000286102295
1774789960447544000,11.9115439453125,-46.63125228881836,-7.800000190734863,6.168750286102295
1774789960457544000,11.9215439453125,-47.41875076293945,-8.381250381469727,6.356250286102295
1774789960467544000,11.9315439453125,-48.95625305175781,-9.131250381469727,5.550000190734863
1774789960477544000,11.9415439453125,-47.04375076293945,-6.618750095367432,5.700000286102295
1774789960487544000,11.9515439453125,-49.556251525878906,-8.887500762939453,5.475000381469727
1774789960497544000,11.9615439453125,-47.118751525878906,-8.793750762939453,5.287500381469727
1774789960507544000,11.9715439453125,-47.70000076293945,-8.175000190734863,4.443750381469727
1774789960517544000,11.9815439453125,-47.38125228881836,-7.500000476837158,5.550000190734863
1774789960527544000,11.9915439453125,-48.11250305175781,-11.193750381469727,5.006250381469727
1774789960537544000,12.0015439453125,-46.70625305175781,-10.74375057220459,3.075000047683716
1774789960547544000,12.0115439453125,-46.40625,-10.575000762939453,4.21875
1774789960557544000,12.0215439453125,-45.806251525878906,-10.78125,3.6000001430511475
1774789960567544000,12.0315439453125,-47.98125076293945,-10.78125,7.050000190734863
1774789960577544000,12.0415439453125,-46.743751525878906,-10.575000762939453,5.925000190734863
1774789960587544000,12.0515439453125,-46.181251525878906,-11.49375057220459,6.450000286102295
1774789960597544000,12.0615439453125,-47.400001525878906,-11.49375057220459,7.331250190734863
1774789960607544000,12.0715439453125,-48.91875076293945,-10.987500190734863,8.15625
1774789960617544000,12.0815439453125,-46.3125,-10.74375057220459,8.137500762939453
1774789960627544000,12.0915439453125,-47.23125076293945,-9.975000381469727,10.012500762939453
1774789960637544000,12.1015439453125,-48.13125228881836,-9.975000381469727,9.1875
1774789960647544000,12.1115439453125,-48.13125228881836,-9.918750762939453,9.46875
1774789960657544000,12.1215439453125,-45.84375,-9.131250381469727,10.6875
1774789960667544000,12.1315439453125,-47.36250305175781,-9.225000381469727,10.012500762939453
1774789960677544000,12.1415439453125,-47.868751525878906,-11.30625057220459,8.49375057220459
1774789960687544000,12.1515439453125,-47.0625,-10.143750190734863,7.987500190734863
1774789960697544000,12.1615439453125,-46.78125,-10.725000381469727,9.15000057220459
1774789960707544000,12.1715439453125,-48.01875305175781,-11.418750762939453,8.625
1774789960717544000,12.1815439453125,-47.53125,-10.46250057220459,9.225000381469727
1774789960727544000,12.1915439453125,-46.16250228881836,-11.043750762939453,6.956250190734863
1774789960737544000,12.2015439453125,-45.431251525878906,-10.6875,9.393750190734863
1774789960747544000,12.2115439453125,-48.187503814697266,-10.5,11.475000381469727
1774789960757544000,12.2215439453125,-47.400001525878906,-10.818750381469727,9.28125
1774789960767544000,12.2315439453125,-47.400001525878906,-10.818750381469727,9.28125
1774789960777544000,12.2415439453125,-48.01875305175781,-11.100000381469727,9.112500190734863
1774789960787544000,12.2515439453125,-46.61250305175781,-9.9375,9.43125057220459
1774789960797544000,12.2615439453125,-47.4375,-11.96250057220459,8.362500190734863
1774789960807544000,12.2715439453125,-47.88750076293945,-11.850000381469727,9.09375
1774789960817544000,12.2815439453125,-47.0625,-10.5,7.218750476837158
1774789960827544000,12.2915439453125,-47.38125228881836,-10.293750762939453,8.68125057220459
1774789960837544000,12.3015439453125,-47.25,-10.6875,9.450000762939453
1774789960847544000,12.3115439453125,-47.98125076293945,-10.18125057220459,8.568750381469727
1774789960857544000,12.3215439453125,-46.10625076293945,-9.5625,6.806250095367432
1774789960867544000,12.3315439453125,-47.775001525878906,-9.71250057220459,6.693750381469727
1774789960877544000,12.3415439453125,-48.60000228881836,-9.975000381469727,10.893750190734863
1774789960887544000,12.3515439453125,-47.15625,-9.768750190734863,5.381250381469727
1774789960897544000,12.3615439453125,-47.36250305175781,-10.46250057220459,7.518750190734863
1774789960907544000,12.3715439453125,-47.88750076293945,-8.175000190734863,7.837500095367432
1774789960917544000,12.3815439453125,-47.45625305175781,-8.850000381469727,7.406250476837158
1774789960927544000,12.3915439453125,-48.07500076293945,-8.96250057220459,7.537500381469727
1774789960937544000,12.4015439453125,-47.88750076293945,-9.52500057220459,4.462500095367432
1774789960947544000,12.4115439453125,-46.06875228881836,-9.600000381469727,3.9750001430511475
1774789960957544000,12.4215439453125,-45.76875305175781,-9.356250762939453,4.856250286102295
1774789960967544000,12.4315439453125,-48.22500228881836,-9.206250190734863,6.656250476837158
1774789960977544000,12.4415439453125,-48.03750228881836,-8.643750190734863,5.493750095367432
1774789960987544000,12.4515439453125,-46.462501525878906,-7.425000190734863,5.25
1774789960997544000,12.4615439453125,-47.88750076293945,-9.168750762939453,5.231250286102295
1774789961007544000,12.4715439453125,-48.806251525878906,-9.225000381469727,5.681250095367432
1774789961017544000,12.4815439453125,-47.13750076293945,-9.43125057220459,5.175000190734863
1774789961027544000,12.4915439453125,-46.25625228881836,-10.293750762939453,4.425000190734863
1774789961037544000,12.5015439453125,-45.76875305175781,-8.793750762939453,6.093750476837158
1774789961047544000,12.5115439453125,-45.78750228881836,-9.99375057220459,4.743750095367432
1774789961057544000,12.5215439453125,-46.6875,-10.293750762939453,3.5812501907348633
1774789961067544000,12.5315439453125,-46.6875,-10.293750762939453,3.5812501907348633
1774789961077544000,12.5415439453125,-47.34375,-11.53125,2.793750047683716
1774789961087544000,12.5515439453125,-45.806251525878906,-11.137500762939453,2.8312501907348633
1774789961097544000,12.5615439453125,-45,-10.46250057220459,1.5187500715255737
1774789961107544000,12.5715439453125,-47.868751525878906,-9.918750762939453,1.8562500476837158
1774789961117544000,12.5815439453125,-47.212501525878906,-8.850000381469727,1.4625000953674316
1774789961127544000,12.5915439453125,-48.16875076293945,-8.96250057220459,4.162500381469727
1774789961137544000,12.6015439453125,-45.58125305175781,-9.637500762939453,2.1187500953674316
1774789961147544000,12.6115439453125,-46.03125,-9.881250381469727,0.39375001192092896
1774789961157544000,12.6215439453125,-44.45625305175781,-8.662500381469727,0.16875000298023224
1774789961167544000,12.6315439453125,-45.75,-10.74375057220459,-0.3375000059604645
1774789961177544000,12.6415439453125,-47.025001525878906,-8.006250381469727,0.35625001788139343
1774789961187544000,12.6515439453125,-46.57500076293945,-8.21250057220459,0.7312500476837158
1774789961197544000,12.6615439453125,-47.04375076293945,-8.550000190734863,0.956250011920929
1774789961207544000,12.6715439453125,-47.83125305175781,-8.700000762939453,1.6500000953674316
1774789961217544000,12.6815439453125,-48.431251525878906,-9.05625057220459,0.05625000223517418
1774789961227544000,12.6915439453125,-46.89375305175781,-9.206250190734863,-1.0125000476837158
1774789961237544000,12.7015439453125,-47.17500305175781,-8.30625057220459,-0.8250000476837158
1774789961247544000,12.7115439453125,-47.17500305175781,-8.30625057220459,-0.8250000476837158
1774789961257544000,12.7215439453125,-49.368751525878906,-9.075000762939453,1.631250023841858
1774789961267544000,12.7315439453125,-48.76875305175781,-9.112500190734863,2.1750001907348633
1774789961277544000,12.7415439453125,-47.212501525878906,-9.487500190734863,-0.3375000059604645
1774789961287544000,12.7515439453125,-47.66250228881836,-8.625,1.2375000715255737
1774789961297544000,12.7615439453125,-47.400001525878906,-9.28125,1.9500000476837158
1774789961307544000,12.7715439453125,-48.45000076293945,-9.637500762939453,0.375
1774789961317544000,12.7815439453125,-48.20625305175781,-11.043750762939453,0.9375000596046448
1774789961327544000,12.7915439453125,-47.38125228881836,-8.981250762939453,2.3062500953674316
1774789961337544000,12.8015439453125,-47.71875,-9.65625,2.7375001907348633
1774789961347544000,12.8115439453125,-45.712501525878906,-9.75,-0.4312500059604645
1774789961357544000,12.8215439453125,-46.95000076293945,-10.387500762939453,-0.5250000357627869
1774789961367544000,12.8315439453125,-46.931251525878906,-10.200000762939453,-0.9187500476837158
1774789961377544000,12.8415439453125,-47.25,-9.975000381469727,0.5437500476837158
1774789961387544000,12.8515439453125,-47.400001525878906,-9.24375057220459,2.25
1774789961397544000,12.8615439453125,-45.69375228881836,-9,0.4125000238418579
1774789961407544000,12.8715439453125,-46.91250228881836,-9,0.45000001788139343
1774789961417544000,12.8815439453125,-47.23125076293945,-9.28125,1.1062500476837158
1774789961427544000,12.8915439453125,-46.03125,-10.200000762939453,-0.09375
1774789961437544000,12.9015439453125,-46.3125,-9.300000190734863,0.09375
1774789961447544000,12.9115439453125,-47.26875305175781,-10.18125057220459,0.9375000596046448
1774789961457544000,12.9215439453125,-46.650001525878906,-10.08750057220459,0.65625
1774789961467544000,12.9315439453125,-45.375,-8.8125,0.01875000074505806
1774789961477544000,12.9415439453125,-46.875,-8.268750190734863,-0.5437500476837158
1774789961487544000,12.9515439453125,-48.150001525878906,-9.075000762939453,1.5937501192092896
1774789961497544000,12.9615439453125,-47.962501525878906,-8.21250057220459,1.6125000715255737
1774789961507544000,12.9715439453125,-46.03125,-9.28125,1.912500023841858
1774789961517544000,12.9815439453125,-47.88750076293945,-9.80625057220459,2.5687501430511475
1774789961527544000,12.9915439453125,-47.70000076293945,-8.96250057220459,3.3000001907348633
1774789961537544000,13.0015439453125,-47.70000076293945,-8.175000190734863,4.443750381469727
1774789961547544000,13.0115439453125,-44.25,-10.612500190734863,2.1750001907348633
1774789961557544000,13.0215439453125,-46.6875,-10.55625057220459,1.6875001192092896
1774789961567544000,13.0315439453125,-45.78750228881836,-11.15625,0.9937500357627869
1774789961577544000,13.0415439453125,-47.13750076293945,-11.006250381469727,1.2000000476837158
1774789961587544000,13.0515439453125,-46.53750228881836,-10.237500190734863,3.0187501907348633
1774789961597544000,13.0615439453125,-47.025001525878906,-11.02500057220459,3.5812501907348633
1774789961607544000,13.0715439453125,-47.32500076293945,-11.02500057220459,3.6000001430511475
1774789961617544000,13.0815439453125,-46.70625305175781,-10.668750762939453,3.5062501430511475
1774789961627544000,13.0915439453125,-45.618751525878906,-9.99375057220459,3.9000000953674316
1774789961637544000,13.1015439453125,-47.15625,-10.83750057220459,2.3625001907348633
1774789961647544000,13.1115439453125,-46.38750076293945,-11.30625057220459,0.8437500596046448
1774789961657544000,13.1215439453125,-44.681251525878906,-10.143750190734863,1.162500023841858
1774789961667544000,13.1315439453125,-45.28125,-10.950000762939453,-0.956250011920929
1774789961677544000,13.1415439453125,-45.73125076293945,-10.237500190734863,0.4687500298023224
1774789961687544000,13.1515439453125,-44.73750305175781,-10.96875,2.418750047683716
1774789961697544000,13.1615439453125,-45.63750076293945,-10.256250381469727,3.843750238418579
1774789961707544000,13.1715439453125,-45.31875228881836,-10.425000190734863,2.6812500953674316
1774789961717544000,13.1815439453125,-45.31875228881836,-10.425000190734863,2.6812500953674316
1774789961727544000,13.1915439453125,-45.26250076293945,-9.84375,0.65625
1774789961737544000,13.2015439453125,-44.26875305175781,-10.893750190734863,2.8312501907348633
1774789961747544000,13.2115439453125,-45.45000076293945,-10.03125,1.912500023841858
1774789961757544000,13.2215439453125,-45.35625076293945,-11.737500190734863,2.137500047683716
1774789961767544000,13.2315439453125,-45.01875305175781,-10.725000381469727,1.4812500476837158
1774789961777544000,13.2415439453125,-46.556251525878906,-9.99375057220459,4.762500286102295
1774789961787544000,13.2515439453125,-46.125,-11.21250057220459,4.087500095367432
1774789961797544000,13.2615439453125,-46.72500228881836,-10.46250057220459,4.96875
1774789961807544000,13.2715439453125,-45.03750228881836,-10.78125,3.5812501907348633
1774789961817544000,13.2815439453125,-44.868751525878906,-9.90000057220459,4.59375
1774789961827544000,13.2915439453125,-43.21875,-11.756250381469727,1.2375000715255737
1774789961837544000,13.3015439453125,-44.56875228881836,-10.96875,1.5562500953674316
1774789961847544000,13.3115439453125,-45.09375,-12.99375057220459,1.3312500715255737
1774789961857544000,13.3215439453125,-44.73750305175781,-10.74375057220459,3.8625001907348633
1774789961867544000,13.3315439453125,-45.54375076293945,-12.393750190734863,2.8687500953674316
1774789961877544000,13.3415439453125,-46.42500305175781,-11.381250381469727,2.9437501430511475
