time,seconds_elapsed,z,y,x
1774789948687701800,0.15170166015625,8.93240737915039,4.833501815795898,0.06939185410737991
1774789948715489000,0.179489013671875,8.894122123718262,5.07517671585083,-0.1052841991186142
1774789948734013700,0.198013671875,8.561519622802734,4.924428939819336,-0.31824541091918945
1774789948752538600,0.21653857421875,8.133204460144043,4.689932346343994,-0.6747759580612183
1774789948771063300,0.235063232421875,9.198010444641113,4.297509670257568,-0.9332008361816406
1774789948789588200,0.253588134765625,9.56650447845459,4.1036906242370605,-0.8542376756668091
1774789948808113200,0.272113037109375,10.080962181091309,4.264009952545166,-0.6532405614852905
1774789948826637800,0.290637939453125,9.767501831054688,4.42193603515625,-0.24885354936122894
1774789948845162800,0.309162841796875,9.93260669708252,4.773681163787842,-0.007178467698395252
1774789948863687400,0.3276875,9.41336441040039,4.460221290588379,-0.30149564146995544
1774789948882212400,0.34621240234375,8.872586250305176,4.242474555969238,-0.5862415432929993
1774789948900737300,0.3647373046875,8.652446746826172,4.369294166564941,-0.550349235534668
1774789948919262000,0.383261962890625,8.571090698242188,4.6061835289001465,-0.2919243574142456
1774789948937787000,0.401786865234375,8.551948547363281,4.783252239227295,0.13639089465141296
1774789948956311600,0.4203115234375,9.083154678344727,4.895715236663818,0.22971096634864807
1774789948974836500,0.43883642578125,9.200403213500977,4.735395908355713,0.17228323221206665
1774789948993361200,0.457361083984375,8.798408508300781,4.697110652923584,-0.035892341285943985
1774789949011886000,0.475885986328125,8.513663291931152,4.634897232055664,-0.12203395366668701
1774789949030411000,0.494410888671875,8.451449394226074,4.764110088348389,0.11006984114646912
1774789949048935700,0.512935791015625,8.676374435424805,4.835894584655762,0.4163511395454407
1774789949067460600,0.531460693359375,8.86780071258545,4.778466701507568,0.3852444589138031
1774789949085985500,0.549985595703125,8.585447311401367,4.742574691772461,0.2392822653055191
1774789949104510200,0.56851025390625,8.420342445373535,4.673182487487793,0.13160525262355804
1774789949123035100,0.58703515625,9.025727272033691,4.412364959716797,0.32542386651039124
1774789949141559800,0.605559814453125,9.186046600341797,4.488935470581055,0.5359922647476196
1774789949160084700,0.624084716796875,8.724231719970703,4.599005222320557,0.41156548261642456
1774789949178609400,0.642609375,8.200202941894531,4.398007869720459,0.34217363595962524
1774789949197134300,0.66113427734375,8.468199729919434,4.409972190856934,0.5407779216766357
1774789949215659300,0.6796591796875,8.702695846557617,4.390829563140869,0.4618147611618042
1774789949234184000,0.698183837890625,8.528019905090332,4.34536600112915,0.40677985548973083
1774789949252708900,0.716708984375,8.755337715148926,4.338187217712402,0.23449662327766418
1774789949271233500,0.735233642578125,8.61176872253418,4.591826438903809,0.6556333899497986
1774789949289758500,0.753758544921875,8.516056060791016,4.721039295196533,0.6149554252624512
1774789949308283100,0.772283203125,8.755337715148926,4.4961137771606445,0.19142581522464752
1774789949326808000,0.79080810546875,8.93958568572998,4.2592244148254395,0.08614161610603333
1774789949345332700,0.809332763671875,8.949156761169434,4.2209391593933105,0.02632104977965355
1774789949363857700,0.827857666015625,8.647661209106445,4.204189300537109,0.15074782073497772
1774789949382382600,0.846382568359375,8.671588897705078,4.388436794281006,0.26560330390930176
1774789949400907300,0.8649072265625,9.011369705200195,4.42193603515625,0.3684946894645691
1774789949419432200,0.88343212890625,9.087940216064453,4.051048755645752,0.24167509377002716
1774789949437956900,0.901956787109375,9.107083320617676,4.082155227661133,0.14835500717163086
1774789949456481800,0.920481689453125,9.667003631591797,4.216153621673584,0.2392822653055191
1774789949475006500,0.93900634765625,9.365508079528809,4.060619831085205,0.48574298620224
1774789949493531400,0.957531494140625,8.97787094116211,4.096512317657471,0.4426721930503845
1774789949512056000,0.97605615234375,9.020941734313965,4.338187217712402,0.6747759580612183
1774789949530581000,0.9945810546875,9.018548965454102,4.429114818572998,0.5886343717575073
1774789949549106000,1.01310595703125,8.963513374328613,4.06540584564209,0.11485548317432404
1774789949567630600,1.031630615234375,8.834300994873047,3.761517286300659,-0.1866401731967926
1774789949586155500,1.050155517578125,8.949156761169434,3.81655216217041,-0.14356936514377594
1774789949604680400,1.068680419921875,9.1716890335083,4.036691665649414,0.44027936458587646
1774789949623205000,1.087205078125,9.535398483276367,4.314259052276611,0.7034898400306702
1774789949641729800,1.105729736328125,9.253045082092285,4.01037073135376,0.7034898400306702
1774789949660254700,1.124254638671875,8.745766639709473,3.7974095344543457,0.35413774847984314
1774789949678779400,1.142779296875,8.451449394226074,3.9792640209198,-0.09571290761232376
1774789949697304300,1.16130419921875,8.71226692199707,4.175475597381592,0.01196411345154047
1774789949715829200,1.179829345703125,8.83669376373291,4.122833251953125,0.2679961323738098
1774789949734354000,1.19835400390625,9.104690551757812,3.91705060005188,0.36610186100006104
1774789949752878800,1.21687890625,9.212367057800293,3.9768712520599365,0.4378865361213684
1774789949771403800,1.23540380859375,9.114261627197266,4.139583110809326,0.397208571434021
1774789949789928400,1.253928466796875,8.865407943725586,4.1036906242370605,0.3158525824546814
1774789949808453000,1.272453125,8.700303077697754,4.130012035369873,0.24646073579788208
1774789949826978000,1.29097802734375,8.865407943725586,3.9912281036376953,0.3158525824546814
1774789949845503000,1.3095029296875,9.18843936920166,4.1036906242370605,0.15314064919948578
1774789949864027600,1.328027587890625,9.013762474060059,3.9601213932037354,0.24646073579788208
1774789949882552600,1.346552490234375,8.982656478881836,3.845266103744507,0.2727817893028259
1774789949901077200,1.3650771484375,8.841479301452637,3.9672999382019043,0.23449662327766418
1774789949919602200,1.383602294921875,8.748159408569336,4.192225456237793,0.31824541091918945
1774789949938127000,1.402127197265625,8.85344409942627,4.101297855377197,0.33499518036842346
1774789949956651800,1.42065185546875,9.190832138061523,4.01754903793335,0.2799602448940277
1774789949975176400,1.439176513671875,9.293723106384277,3.955335855484009,0.2967100143432617
1774789949993701400,1.457701416015625,8.772088050842285,4.12761926651001,0.35892340540885925
1774789950012226300,1.476226318359375,8.173882484436035,4.342973232269287,0.33020952343940735
1774789950030751000,1.4947509765625,8.35573673248291,4.376472473144531,0.21774685382843018
1774789950049276000,1.51327587890625,8.458627700805664,4.405186653137207,0.24646073579788208
1774789950067800800,1.53180078125,8.508877754211426,4.510470867156982,0.2225325107574463
1774789950086325500,1.550325439453125,8.987442016601562,4.412364959716797,-0.05742774158716202
1774789950104850400,1.568850341796875,9.291330337524414,3.9768712520599365,-0.27038896083831787
1774789950123375000,1.587375,9.279366493225098,4.024727821350098,-0.13639089465141296
1774789950141900000,1.605900146484375,9.394221305847168,4.402793884277344,0.37806597352027893
1774789950160424700,1.6244248046875,9.279366493225098,4.735395908355713,0.4498506486415863
1774789950178949600,1.64294970703125,9.169296264648438,4.811966419219971,-0.007178467698395252
1774789950197474600,1.661474609375,9.17886734008789,4.4961137771606445,-0.17228323221206665
1774789950215999200,1.679999267578125,9.10229778289795,4.039084434509277,0.02632104977965355
1774789950234524200,1.698524169921875,9.001798629760742,4.1491546630859375,-0.24885354936122894
1774789950253048800,1.717048828125,8.949156761169434,4.295116424560547,-0.0933200865983963
1774789950271573800,1.73557373046875,9.193224906921387,3.9314076900482178,0.13160525262355804
1774789950290098400,1.754098388671875,9.470791816711426,3.634697675704956,0.004785645287483931
1774789950308623400,1.772623291015625,9.068798065185547,4.051048755645752,-0.15314064919948578
1774789950327148300,1.791148193359375,8.571090698242188,4.5391845703125,-0.5814558863639832
1774789950345673000,1.8096728515625,8.73619556427002,4.575077056884766,-0.5335994362831116
1774789950364198000,1.828197998046875,9.020941734313965,4.42193603515625,0.04307080805301666
1774789950382722800,1.846722900390625,8.956335067749023,4.187439441680908,-0.019142581149935722
1774789950401247500,1.86524755859375,8.638090133666992,4.412364959716797,-0.2632105052471161
1774789950419772400,1.8837724609375,8.86780071258545,4.790431022644043,-0.4331009089946747
1774789950438297000,1.902297119140625,8.422736167907715,4.709074974060059,-0.4259224236011505
1774789950456822000,1.920822021484375,8.49452018737793,4.8502516746521,0.04785645380616188
1774789950475346700,1.9393466796875,8.980263710021973,4.802394866943359,-0.04546362906694412
1774789950493871600,1.95787158203125,8.96112060546875,4.431507587432861,-0.5000999569892883
1774789950512396500,1.976396484375,8.568697929382324,4.287938117980957,-0.7106683254241943
1774789950530921200,1.994921142578125,8.317451477050781,4.6372904777526855,-0.3445664644241333
1774789950549446100,2.013446044921875,8.58066177368164,4.869394302368164,-0.35413774847984314
1774789950567971000,2.03197119140625,8.7505521774292,4.730610370635986,-0.7393822073936462
1774789950586495700,2.050495849609375,8.571090698242188,4.563112735748291,-0.9379864931106567
1774789950605020400,2.0690205078125,8.260024070739746,4.701896667480469,-0.8709874153137207
1774789950623545300,2.08754541015625,8.513663291931152,4.620540618896484,-1.0767701864242554
1774789950642070300,2.1060703125,8.535198211669922,4.6540398597717285,-1.428515076637268
1774789950660595200,2.12459521484375,7.812565803527832,4.9435715675354,-1.3232308626174927
1774789950679120000,2.143119873046875,7.408178806304932,4.914857864379883,-1.2705888748168945
1774789950697644800,2.161644775390625,7.628318786621094,5.027320384979248,-0.8398807644844055
1774789950716169500,2.18016943359375,8.62612533569336,5.398207664489746,-0.6747759580612183
1774789950734694400,2.1986943359375,9.114261627197266,4.955535888671875,-1.3399807214736938
1774789950753219000,2.217218994140625,8.461020469665527,4.718646049499512,-1.545763373374939
1774789950771744000,2.235743896484375,8.197810173034668,4.9363932609558105,-1.3567304611206055
1774789950790269000,2.25426904296875,8.748159408569336,4.919643402099609,-0.7872386574745178
1774789950808793900,2.2727939453125,9.090332984924316,4.986642360687256,-0.9690931439399719
1774789950827318500,2.291318603515625,9.221938133239746,4.644468784332275,-1.4644074440002441
1774789950845843500,2.309843505859375,9.17886734008789,4.386044025421143,-1.9405791759490967
1774789950864368000,2.3283681640625,8.903693199157715,4.599005222320557,-1.5194423198699951
1774789950882893000,2.34689306640625,6.903293132781982,5.173282623291016,-0.9595218896865845
1774789950901418000,2.36541796875,5.458028316497803,6.489335060119629,-0.8949156403541565
1774789950919942700,2.383942626953125,7.714460372924805,5.3934221267700195,-1.2131611108779907
1774789950938467600,2.402467529296875,8.72901725769043,5.2043890953063965,-1.3878371715545654
1774789950956992500,2.420992431640625,8.14516830444336,4.948357105255127,-1.8759729862213135
1774789950975517200,2.43951708984375,8.429914474487305,4.342973232269287,-1.0911271572113037
1774789950994042000,2.4580419921875,8.556734085083008,4.811966419219971,-0.4570291340351105
1774789951012566800,2.47656689453125,8.489734649658203,4.811966419219971,-0.8303094506263733
1774789951031091700,2.495091796875,8.640482902526855,4.632504463195801,-1.3782658576965332
1774789951049616600,2.51361669921875,9.004191398620605,4.216153621673584,-1.4333007335662842
1774789951068141600,2.5321416015625,9.023334503173828,4.311866283416748,-0.914058268070221
1774789951086666200,2.550666259765625,9.712467193603516,5.285745143890381,-0.05024927482008934
1774789951105191200,2.569191162109375,9.45164966583252,5.015356063842773,-0.11964113265275955
1774789951123715800,2.5877158203125,9.513862609863281,4.768895626068115,-0.5718846321105957
1774789951142240800,2.60624072265625,8.657232284545898,4.436293125152588,-1.098305583000183
1774789951160765700,2.624765625,8.492127418518066,4.223331928253174,-1.1318050622940063
1774789951179290600,2.64329052734375,8.879764556884766,4.493721008300781,-0.6364908218383789
1774789951197815300,2.661815185546875,8.764909744262695,4.742574691772461,-0.17706887423992157
1774789951216340200,2.68034033203125,8.623732566833496,4.960321426391602,0.06699903309345245
1774789951234865000,2.698864990234375,8.343772888183594,5.051248550415039,0.15074782073497772
1774789951253389800,2.717389892578125,8.073383331298828,4.759324073791504,-0.2105683982372284
1774789951271914800,2.735914794921875,8.673981666564941,4.517649173736572,-0.6652047038078308
1774789951290439700,2.754439697265625,9.353543281555176,4.264009952545166,-0.6652047038078308
1774789951308964400,2.77296435546875,9.150154113769531,4.4410786628723145,-0.040677983313798904
1774789951327489300,2.7914892578125,8.772088050842285,4.66361141204834,0.12442677468061447
1774789951346014200,2.81001416015625,8.343772888183594,4.7234320640563965,-0.02632104977965355
1774789951364539000,2.828538818359375,8.441878318786621,4.587040901184082,-0.43549370765686035
1774789951383063800,2.847063720703125,8.678768157958984,4.445864677429199,-0.3852444589138031
1774789951401588700,2.865588623046875,9.011369705200195,4.488935470581055,-0.1459621787071228
1774789951420113700,2.88411376953125,9.114261627197266,4.443471431732178,-0.16031911969184875
1774789951438638300,2.902638427734375,8.884550094604492,4.625326156616211,-0.27038896083831787
1774789951457163300,2.921163330078125,8.614161491394043,4.874179840087891,-0.4211367964744568
1774789951475688200,2.939688232421875,8.13798999786377,4.41475772857666,-0.6915257573127747
1774789951494212900,2.958212890625,8.00638484954834,4.666004180908203,-0.35413774847984314
1774789951512737800,2.97673779296875,8.13081169128418,5.474778175354004,-0.29431718587875366
1774789951531262700,2.9952626953125,8.128418922424316,5.568098068237305,-0.6221339106559753
1774789951549787400,3.013787353515625,7.781459331512451,5.864808082580566,-0.35892340540885925
1774789951568312300,3.032312255859375,7.300501823425293,5.891129493713379,-0.49292147159576416
1774789951586837200,3.050837158203125,7.599604606628418,5.678168296813965,-0.7920243144035339
1774789951605362200,3.069362060546875,8.824729919433594,5.402993679046631,-0.7393822073936462
1774789951623887000,3.08788720703125,8.958727836608887,5.245067119598389,-0.4019941985607147
1774789951642411800,3.106411865234375,8.394021987915039,5.4173502922058105,-0.16510476171970367
1774789951660936700,3.124936767578125,8.164310455322266,5.706881999969482,-0.1986042857170105
1774789951679461600,3.143461669921875,8.164310455322266,5.649454116821289,-0.6460621356964111
1774789951697986300,3.161986328125,8.518448829650879,5.3455657958984375,-0.9882357716560364
1774789951716511200,3.18051123046875,8.717052459716797,5.197210788726807,-0.7561319470405579
1774789951735036200,3.1990361328125,8.008777618408203,5.391029357910156,-0.27038896083831787
1774789951753560800,3.217560791015625,7.982456207275391,5.656632900238037,-0.02871387079358101
1774789951772085800,3.236085693359375,8.214560508728027,5.714060306549072,-0.07178468257188797
1774789951790610700,3.254610595703125,8.872586250305176,5.66620397567749,-0.5383850932121277
1774789951809135600,3.273135498046875,8.97787094116211,5.175675392150879,-0.7824530005455017
1774789951827660500,3.29166064453125,7.802994728088379,5.309673309326172,-0.3613162338733673
1774789951846185200,3.310185302734375,7.03489875793457,6.534798622131348,-0.1579262912273407
1774789951864710100,3.328710205078125,6.403193473815918,6.515655994415283,-0.2392822653055191
1774789951883235000,3.347235107421875,6.235695838928223,5.812166213989258,-0.36610186100006104
1774789951901760000,3.365760009765625,6.209374904632568,6.580262184143066,0.02153540402650833
1774789951920285000,3.384284912109375,7.087540626525879,6.544369697570801,-0.4450650215148926
1774789951938809600,3.4028095703125,6.096911907196045,5.446064472198486,-0.3613162338733673
1774789951957334500,3.42133447265625,6.135197162628174,6.151947021484375,-1.4811571836471558
1774789951975859500,3.439859375,8.520841598510742,6.747759819030762,-1.301695466041565
1774789951994384400,3.45838427734375,9.437292098999023,6.032305717468262,-1.0145567655563354
1774789952012909000,3.476908935546875,8.647661209106445,5.910272121429443,-0.9308080077171326
1774789952031434000,3.49543408203125,8.286344528198242,6.252445697784424,-0.9858429431915283
1774789952049959000,3.513958984375,7.8556365966796875,6.25723123550415,-0.9667003750801086
1774789952068483800,3.53248388671875,8.118846893310547,6.417550563812256,-0.9044869542121887
1774789952087008800,3.5510087890625,8.48734188079834,6.302694797515869,-0.43549370765686035
1774789952105533400,3.569533447265625,8.21695327758789,5.84566593170166,-0.8159525394439697
1774789952124058400,3.588058349609375,7.322037220001221,6.025127410888672,-0.9355936646461487
1774789952142583300,3.606583251953125,7.054041385650635,6.675975322723389,-0.5359922647476196
1774789952161108200,3.625108154296875,7.554141044616699,6.439085960388184,-0.08135596662759781
1774789952179633200,3.643633056640625,7.18086051940918,6.429514408111572,0.16271193325519562
1774789952198157800,3.66215771484375,6.31944465637207,6.616154670715332,0.02632104977965355
1774789952216682800,3.680682861328125,6.309873104095459,6.5874409675598145,0.12203395366668701
1774789952235207700,3.699207763671875,6.697510719299316,6.766902446746826,0.0023928226437419653
1774789952253732600,3.717732666015625,6.781259536743164,6.948757171630859,0.040677983313798904
1774789952272257500,3.736257568359375,5.848058700561523,6.654439926147461,0.16271193325519562
1774789952290782200,3.7547822265625,5.757131099700928,7.080362319946289,-0.16749759018421173
1774789952309307100,3.77330712890625,6.446264266967773,7.3052873611450195,0.0933200865983963
1774789952327832000,3.79183203125,6.927221775054932,6.999006271362305,0.13160525262355804
1774789952346357000,3.81035693359375,7.700103282928467,6.63769006729126,-0.5000999569892883
1774789952364882000,3.8288818359375,7.846065521240234,6.750152587890625,-0.729810893535614
1774789952383406800,3.84740673828125,8.200202941894531,7.264609336853027,-0.24406790733337402
1774789952401931800,3.865931884765625,7.310073375701904,6.685546398162842,0.1339980661869049
1774789952420456400,3.88445654296875,7.152146816253662,6.946363925933838,-0.08135596662759781
1774789952438981400,3.9029814453125,7.719245910644531,7.70967435836792,0.3852444589138031
1774789952457506300,3.92150634765625,6.879364967346191,7.168896675109863,0.15553347766399384
1774789952476031200,3.94003125,6.920042991638184,7.293323516845703,-0.10289137065410614
1774789952494556200,3.95855615234375,6.563512325286865,6.786045074462891,-0.8949156403541565
1774789952513080800,3.977080810546875,6.31944465637207,6.9104719161987305,-1.3040883541107178
1774789952531605800,3.995605712890625,6.144768714904785,7.544569969177246,-0.6245267391204834
1774789952550130700,4.014130615234375,6.484549522399902,7.671389579772949,0.41156548261642456
1774789952568655600,4.032655517578125,7.140182971954346,7.020541667938232,0.11246266216039658
1774789952587180500,4.0511806640625,7.676175117492676,6.434299945831299,-0.6340979933738708
1774789952605705500,4.06970556640625,7.22871732711792,6.764509677886963,-0.7322037220001221
1774789952624230400,4.08823046875,6.91765022277832,7.525427341461182,0.01196411345154047
1774789952642755300,4.10675537109375,6.994220733642578,7.362715244293213,0.20578274130821228
1774789952661280000,4.125280029296875,6.429514408111572,7.080362319946289,-0.09571290761232376
1774789952679805000,4.143804931640625,6.338587284088135,7.36032247543335,-0.24646073579788208
1774789952698329900,4.162329833984375,6.932007312774658,7.6666035652160645,0.20099709928035736
1774789952716854800,4.180854736328125,7.164111137390137,7.511070251464844,0.7992027401924133
1774789952735379700,4.199379638671875,7.810173034667969,7.558926582336426,0.31824541091918945
1774789952753904600,4.217904541015625,7.735995769500732,7.36032247543335,-0.1746760457754135
1774789952772429600,4.2364296875,8.508877754211426,7.436892986297607,-0.26081767678260803
1774789952790954500,4.25495458984375,8.14516830444336,8.559126853942871,0.5886343717575073
1774789952809479400,4.2734794921875,-0.3038884699344635,8.338987350463867,-2.7278177738189697
1774789952828004400,4.29200439453125,4.60139799118042,9.016156196594238,-0.23210379481315613
1774789952846529300,4.310529296875,11.576476097106934,8.647661209106445,-0.29431718587875366
1774789952865054000,4.329053955078125,12.832707405090332,7.460821151733398,-0.9786644577980042
1774789952883579000,4.347578857421875,11.248659133911133,6.8171515464782715,-1.1030912399291992
1774789952902103800,4.366103759765625,6.065805435180664,6.216553211212158,-1.5912270545959473
1774789952920628700,4.384628662109375,3.871587038040161,7.137789726257324,-2.2396819591522217
1774789952939153700,4.403153564453125,5.029713153839111,7.219145774841309,-1.581655740737915
1774789952957678600,4.4216787109375,7.456035137176514,5.678168296813965,-0.7322037220001221
1774789952976203500,4.44020361328125,10.097711563110352,4.867001056671143,-0.8997012972831726
1774789952994728400,4.458728515625,9.736394882202148,4.438685894012451,-2.1774685382843018
1774789953013253400,4.47725341796875,9.389435768127441,4.644468784332275,-3.10109806060791
1774789953031778300,4.4957783203125,8.434700012207031,5.319244861602783,-2.4885356426239014
1774789953050303200,4.51430322265625,6.721438884735107,6.10169792175293,-0.5048855543136597
1774789953068828200,4.532828125,6.187839508056641,6.441478729248047,0.2679961323738098
1774789953087353000,4.55135302734375,7.546962738037109,6.068198204040527,-0.4331009089946747
1774789953105878000,4.5698779296875,7.735995769500732,5.1804609298706055,-1.6582261323928833
1774789953124403000,4.58840283203125,7.491927623748779,5.175675392150879,-2.00518536567688
1774789953142927600,4.606927734375,6.960721015930176,5.034498691558838,-1.9645073413848877
1774789953161452800,4.625452880859375,6.491727828979492,5.419743061065674,-1.1653046607971191
1774789953179977700,4.643977783203125,5.86002254486084,6.010770320892334,-0.5072783827781677
1774789953198502400,4.66250244140625,5.704489231109619,6.692724704742432,-0.2392822653055191
1774789953217027300,4.68102734375,5.539384365081787,6.714260101318359,-0.7441678643226624
1774789953235552500,4.699552490234375,6.333801746368408,5.848058700561523,-1.5792629718780518
1774789953254077200,4.7180771484375,8.059026718139648,5.292923450469971,-1.5625132322311401
1774789953272602000,4.73660205078125,8.097311973571777,5.711667537689209,-1.184447169303894
1774789953291127000,4.755126953125,7.824530124664307,6.32662296295166,-1.2945170402526855
1774789953309652000,4.77365185546875,7.037291526794434,6.527620315551758,-0.9547362327575684
1774789953328177000,4.792177001953125,6.716653347015381,6.309873104095459,-1.0049854516983032
1774789953346701800,4.810701904296875,6.606583118438721,5.953342914581299,-1.0241280794143677
1774789953365226800,4.829226806640625,6.996613502502441,6.089733600616455,-0.7441678643226624
1774789953383751700,4.847751708984375,7.829315662384033,6.618547439575195,-0.3732803463935852
1774789953402276600,4.866276611328125,8.23848819732666,6.723831653594971,-0.031106693670153618
1774789953420801500,4.884801513671875,7.594819068908691,6.288337707519531,-1.0217353105545044
1774789953439326500,4.903326416015625,7.35314416885376,6.175875186920166,-1.7324036359786987
1774789953457851400,4.921851318359375,7.271788120269775,6.147161483764648,-1.5194423198699951
1774789953476376300,4.940376220703125,7.523034572601318,6.448657035827637,-0.849452018737793
1774789953494901200,4.9589013671875,8.427521705627441,6.903293132781982,0.17706887423992157
1774789953513426200,4.97742626953125,9.384650230407715,7.113861560821533,0.5814558863639832
1774789953531951000,4.995951171875,9.798608779907227,6.276373863220215,-0.004785645287483931
1774789953550476000,5.01447607421875,9.559326171875,5.857629776000977,-0.9379864931106567
1774789953569001000,5.0330009765625,9.274580955505371,6.570691108703613,-0.9284151792526245
1774789953587526000,5.05152587890625,8.48016357421875,6.984649181365967,-0.34217363595962524
1774789953606051000,5.070051025390625,8.133204460144043,7.183253765106201,0.6915257573127747
1774789953624575700,5.08857568359375,8.702695846557617,6.888936519622803,1.4021940231323242
1774789953643100700,5.1071005859375,9.872786521911621,5.649454116821289,0.5335994362831116
1774789953661625900,5.1256259765625,10.308279991149902,4.6540398597717285,-0.7178468108177185
1774789953680150500,5.144150634765625,10.068997383117676,4.6301116943359375,-0.7968099117279053
1774789953698675700,5.16267578125,9.652647018432617,4.924428939819336,0.07417750358581543
1774789953717200600,5.18120068359375,8.539983749389648,5.252245903015137,0.5575276613235474
1774789953735725300,5.199725341796875,7.10429048538208,5.3216376304626465,0.21774685382843018
1774789953754250500,5.21825048828125,6.819544315338135,5.560919761657715,-0.019142581149935722
1774789953772775400,5.236775390625,7.324429988861084,5.560919761657715,0.4259224236011505
1774789953791300400,5.25530029296875,7.654639720916748,5.575276851654053,0.8111668825149536
1774789953809825300,5.2738251953125,7.95134973526001,5.711667537689209,1.098305583000183
1774789953828350200,5.29235009765625,8.02074146270752,5.285745143890381,0.8159525394439697
1774789953846875100,5.310875244140625,7.8795647621154785,4.852644443511963,0.15553347766399384
1774789953865400000,5.329400146484375,7.322037220001221,4.656432628631592,-0.16031911969184875
1774789953883925000,5.347925048828125,6.8554368019104,4.890929698944092,-0.20817556977272034
1774789953902450000,5.366449951171875,6.716653347015381,5.134997367858887,-0.275174617767334
1774789953930237400,5.394237548828125,6.45822811126709,5.465207099914551,0.22013968229293823
1774789953948762400,5.412762451171875,6.297909259796143,5.5106706619262695,0.02153540402650833
1774789953967287300,5.431287353515625,6.530013084411621,5.670989513397217,-0.22013968229293823
1774789953985812200,5.449812255859375,6.989434719085693,5.663811206817627,0.275174617767334
1774789954004337200,5.468337158203125,7.137789726257324,5.635097503662109,0.6819544434547424
1774789954022862000,5.486862060546875,7.149754047393799,5.7547383308410645,0.6245267391204834
1774789954041387000,5.505386962890625,7.154539585113525,5.72123908996582,0.1579262912273407
1774789954059912000,5.523911865234375,7.046862602233887,5.443671703338623,-0.31345975399017334
1774789954078436900,5.542436767578125,7.211967468261719,5.61116886138916,-0.397208571434021
1774789954096961800,5.5609619140625,7.575676441192627,5.776273727416992,-0.02153540402650833
1774789954115487000,5.579487060546875,8.221738815307617,5.936593055725098,0.28953152894973755
1774789954134012000,5.598011962890625,8.059026718139648,5.927021503448486,-0.2153540402650833
1774789954152536800,5.616536865234375,8.176275253295898,6.125626087188721,-0.5742774605751038
1774789954171061800,5.635061767578125,8.652446746826172,6.209374904632568,-0.3397808074951172
1774789954189586700,5.653586669921875,8.963513374328613,6.321837425231934,-0.4450650215148926
1774789954208111600,5.672111572265625,8.944371223449707,6.472585201263428,-0.8327022790908813
1774789954226636500,5.690636474609375,8.645268440246582,7.135396957397461,-1.277767300605774
1774789954245161500,5.709161376953125,7.781459331512451,7.362715244293213,-1.9334007501602173
1774789954263686400,5.727686279296875,7.980063438415527,7.046862602233887,-2.148754835128784
1774789954282211600,5.746211669921875,10.430314064025879,6.096911907196045,-1.4093725681304932
1774789954300736500,5.764736572265625,13.445270538330078,5.024927616119385,-0.5144568681716919
1774789954319261400,5.783261474609375,14.47896957397461,3.627519130706787,-0.9882357716560364
1774789954337786400,5.801786376953125,12.983455657958984,3.081955671310425,-1.954936146736145
1774789954356311300,5.820311279296875,10.901700019836426,3.893122434616089,-2.2061824798583984
1774789954374836200,5.838836181640625,8.922835350036621,4.54636287689209,-1.9142581224441528
1774789954393361200,5.857361083984375,7.798209190368652,4.242474555969238,-1.801795482635498
1774789954411886000,5.875885986328125,7.788637638092041,4.347758769989014,-1.5696916580200195
1774789954430411300,5.894411376953125,8.14516830444336,4.505684852600098,-1.1509476900100708
1774789954448936200,5.912936279296875,8.248059272766113,4.2209391593933105,-0.9595218896865845
1774789954467461000,5.931461181640625,7.994420528411865,3.988835334777832,-0.9068797826766968
1774789954485986000,5.949986083984375,7.9250288009643555,4.273581027984619,-0.31345975399017334
1774789954504511000,5.968510986328125,8.346165657043457,4.280759811401367,0.23210379481315613
1774789954523036000,5.987035888671875,8.317451477050781,3.8763725757598877,0.1818545162677765
1774789954541560800,6.005560791015625,8.334200859069824,3.737588882446289,0.064606212079525
1774789954560086000,6.0240859375,8.078168869018555,3.706482172012329,-0.019142581149935722
1774789954578611000,6.04261083984375,7.130611419677734,3.845266103744507,-0.3517449200153351
1774789954597136000,6.061135986328125,6.687939167022705,4.292723655700684,-0.607776939868927
1774789954615660800,6.079660888671875,6.247660160064697,4.445864677429199,-0.24646073579788208
1774789954634185700,6.098185791015625,6.106483459472656,4.60139799118042,-0.16271193325519562
1774789954652710700,6.116710693359375,6.293123722076416,5.032105922698975,-0.363709032535553
1774789954671235800,6.13523583984375,6.716653347015381,5.13739013671875,-0.5264210104942322
1774789954689760800,6.1537607421875,6.884150981903076,4.967499732971191,-0.5096712112426758
1774789954708285700,6.17228564453125,7.64028263092041,5.166104316711426,-0.39960137009620667
1774789954726810600,6.190810546875,7.941778182983398,5.350351333618164,-0.4570291340351105
1774789954745335600,6.20933544921875,7.858029365539551,5.587240695953369,-0.8398807644844055
1774789954763860500,6.227860595703125,7.724031448364258,5.434100151062012,-1.0289137363433838
1774789954782385400,6.246385498046875,7.800601959228516,5.802595138549805,-0.882951557636261
1774789954800910600,6.26491064453125,8.420342445373535,6.089733600616455,-0.5623133182525635
1774789954819435500,6.283435546875,9.281759262084961,5.855237007141113,-0.2392822653055191
1774789954837960400,6.30196044921875,9.719645500183105,5.623133182525635,-0.3397808074951172
1774789954856485400,6.3204853515625,10.533205032348633,5.699703693389893,-0.31345975399017334
1774789954875010300,6.33901025390625,11.145768165588379,5.7164530754089355,-0.26081767678260803
1774789954893535500,6.357535400390625,10.743773460388184,6.38883638381958,-0.0023928226437419653
1774789954912060400,6.376060302734375,9.748359680175781,6.166304111480713,0.7752745151519775
1774789954930585300,6.39458544921875,9.796216011047363,5.649454116821289,1.6582261323928833
1774789954949110300,6.4131103515625,10.449456214904785,4.730610370635986,1.4141582250595093
1774789954967635200,6.43163525390625,10.63370418548584,3.9912281036376953,0.8638089895248413
1774789954986160400,6.450160400390625,10.29153060913086,3.728017568588257,0.3278166949748993
1774789955004685300,6.468685302734375,9.042476654052734,4.170690059661865,0.20338992774486542
1774789955023210200,6.487210205078125,7.625925540924072,5.0703911781311035,0.5790630578994751
1774789955041735200,6.505735107421875,7.109076023101807,4.9292144775390625,0.42831525206565857
1774789955060260000,6.524260009765625,7.750352382659912,4.5200419425964355,0.6819544434547424
1774789955078785300,6.542785400390625,9.346364974975586,4.462614059448242,1.0887342691421509
1774789955097310200,6.561310302734375,9.937392234802246,4.110869407653809,1.2251251935958862
1774789955115835100,6.579835205078125,9.56889820098877,4.2209391593933105,0.916451096534729
1774789955134360000,6.598360107421875,8.781659126281738,3.9840497970581055,0.32542386651039124
1774789955152885000,6.616885009765625,8.317451477050781,3.460021495819092,-0.04307080805301666
1774789955171410200,6.63541015625,8.176275253295898,3.359523057937622,-0.24406790733337402
1774789955189935000,6.65393505859375,7.8077802658081055,3.486342668533325,-0.48813581466674805
1774789955208460000,6.6724599609375,7.348358154296875,3.6083765029907227,-0.4977070987224579
1774789955226985200,6.690985107421875,6.63769006729126,3.9529430866241455,-0.32542386651039124
1774789955245510000,6.709510009765625,6.056233882904053,4.431507587432861,-0.1698904037475586
1774789955264035000,6.72803515625,6.534798622131348,4.67078971862793,-0.035892341285943985
1774789955282560000,6.74656005859375,6.522834300994873,4.7473602294921875,0.09810572862625122
1774789955301085000,6.7650849609375,7.152146816253662,5.089533805847168,0.11964113265275955
1774789955319610000,6.783610107421875,7.69531774520874,5.010570526123047,0.48574298620224
1774789955338135000,6.802135009765625,7.920242786407471,4.752145767211914,0.32542386651039124
1774789955356660000,6.820659912109375,8.097311973571777,4.843072891235352,-0.20817556977272034
1774789955375185000,6.839184814453125,8.551948547363281,5.254638671875,-0.4618147611618042
1774789955393709800,6.857709716796875,8.846264839172363,5.367101192474365,-0.576670229434967
1774789955412235000,6.876235107421875,9.300901412963867,5.532206058502197,-0.6628118753433228
1774789955430760000,6.894760009765625,9.829715728759766,5.687739372253418,-0.45942193269729614
1774789955449284900,6.913284912109375,9.858428955078125,5.505885124206543,-0.28953152894973755
1774789955467809800,6.931809814453125,9.846465110778809,5.539384365081787,-0.42352959513664246
1774789955486335000,6.9503349609375,10.241280555725098,5.706881999969482,-0.3852444589138031
1774789955504860000,6.96885986328125,10.372885704040527,5.9437713623046875,-0.9523434042930603
1774789955523384800,6.987384765625,9.159725189208984,6.6592254638671875,-2.3497519493103027
1774789955541910000,7.005909912109375,7.750352382659912,7.238288402557373,-2.7517459392547607
1774789955560435000,7.02443505859375,9.475577354431152,6.209374904632568,-1.4883357286453247
1774789955578960000,7.0429599609375,13.344772338867188,4.426722049713135,-0.48813581466674805
1774789955597484800,7.06148486328125,14.431113243103027,2.7732813358306885,-1.1940184831619263
1774789955616009700,7.080009765625,12.983455657958984,2.1774685382843018,-2.5674986839294434
1774789955634535000,7.098534912109375,9.956535339355469,3.438486099243164,-2.612962245941162
1774789955653059800,7.117059814453125,7.558926582336426,4.610969066619873,-1.8352949619293213
1774789955671584800,7.135584716796875,6.915257453918457,4.510470867156982,-1.3806586265563965
1774789955690109700,7.154109619140625,7.685746192932129,4.175475597381592,-1.00259268283844
1774789955708635000,7.172634765625,8.537590980529785,4.0319061279296875,-0.7345965504646301
1774789955727159800,7.191159912109375,8.848658561706543,3.84765887260437,-0.2392822653055191
1774789955745684700,7.209684814453125,8.97787094116211,3.8189449310302734,0.32542386651039124
1774789955764210000,7.2282099609375,8.61894702911377,3.7806596755981445,0.7537391185760498
1774789955782734800,7.24673486328125,7.81974458694458,3.926621913909912,0.8638089895248413
1774789955801259800,7.265259765625,6.695117950439453,4.115654945373535,0.4498506486415863
1774789955819784700,7.28378466796875,5.874379634857178,3.8333017826080322,-0.15074782073497772
1774789955838310000,7.302309814453125,5.912664890289307,3.5676984786987305,-0.6125625967979431
1774789955856834800,7.320834716796875,6.065805435180664,3.4432718753814697,-0.698704183101654
1774789955875359700,7.33935986328125,6.647261142730713,3.830909013748169,-0.5479564070701599
1774789955893885000,7.357885009765625,6.5419769287109375,4.338187217712402,-0.11485548317432404
1774789955912409900,7.376409912109375,6.501298904418945,4.864608287811279,0.16749759018421173
1774789955930934800,7.394934814453125,5.9916276931762695,5.034498691558838,-0.13878370821475983
1774789955949459700,7.413459716796875,6.448657035827637,5.173282623291016,-0.30149564146995544
1774789955967984600,7.431984619140625,7.2335028648376465,5.027320384979248,-0.059820566326379776
1774789955986509800,7.450509765625,7.936992645263672,5.259424209594727,-0.2799602448940277
1774789956005034800,7.46903466796875,8.422736167907715,5.292923450469971,-0.6580262184143066
1774789956023559700,7.4875595703125,9.324830055236816,5.350351333618164,-0.8111668825149536
1774789956042084600,7.506084716796875,9.671789169311523,5.749952793121338,-0.380458801984787
1774789956060609800,7.52460986328125,9.879964828491211,5.946164131164551,-0.1818545162677765
1774789956079134700,7.543134765625,9.621540069580078,5.79063081741333,-0.2105683982372284
1774789956097659600,7.56165966796875,9.970891952514648,5.623133182525635,-0.5934200286865234
1774789956116184600,7.5801845703125,10.849058151245117,5.2115678787231445,-0.42831525206565857
1774789956134709800,7.598709716796875,10.822736740112305,5.223531723022461,-0.39481574296951294
1774789956153234700,7.617234619140625,9.243474006652832,5.7547383308410645,-0.7369893789291382
1774789956171759600,7.635759521484375,8.583054542541504,5.173282623291016,0.1818545162677765
1774789956190284800,7.654284912109375,10.444670677185059,4.3070807456970215,1.588834285736084
1774789956208809700,7.672809814453125,12.715459823608398,3.7184464931488037,2.1774685382843018
1774789956227334700,7.691334716796875,12.557533264160156,2.885744094848633,1.2562319040298462
1774789956245859600,7.709859619140625,10.588240623474121,3.046063184738159,-0.1746760457754135
1774789956264384800,7.728384765625,7.786244869232178,4.218546390533447,-0.5383850932121277
1774789956282909700,7.74690966796875,7.255038261413574,4.867001056671143,0.10767702013254166
1774789956301434600,7.7654345703125,8.678768157958984,4.563112735748291,1.404586911201477
1774789956319959800,7.783959716796875,10.226923942565918,3.9792640209198,1.5002998113632202
1774789956338484700,7.802484619140625,10.686346054077148,3.1800613403320312,0.3397808074951172
1774789956357009700,7.821009765625,10.126425743103027,2.871387243270874,-0.6029912829399109
1774789956375534800,7.839534912109375,8.86062240600586,3.4002010822296143,-0.48095735907554626
1774789956394059800,7.858059814453125,7.791030406951904,3.7806596755981445,-0.12203395366668701
1774789956412584700,7.876584716796875,7.288537979125977,3.7232320308685303,-0.016749758273363113
1774789956431110000,7.89510986328125,7.245467185974121,3.570091485977173,-0.20817556977272034
1774789956449634800,7.913634765625,7.11146879196167,3.3236305713653564,-0.7369893789291382
1774789956468159700,7.93215966796875,6.912864685058594,3.493520975112915,-0.9427721500396729
1774789956486685000,7.950684814453125,6.714260101318359,3.9050865173339844,-0.6556333899497986
1774789956505209900,7.9692099609375,6.747759819030762,4.213760852813721,-0.24167509377002716
1774789956523734800,7.98773486328125,6.922435760498047,4.6301116943359375,0.24167509377002716
1774789956542259700,8.006259765625,7.317251682281494,4.926821708679199,0.5455635786056519
1774789956560785000,8.024784912109375,7.743174076080322,4.878965377807617,0.641276478767395
1774789956579309800,8.043309814453124,7.929814338684082,4.4650068283081055,0.26560330390930176
1774789956597834800,8.061834716796875,8.118846893310547,4.084548473358154,-0.2153540402650833
1774789956616359700,8.080359619140625,8.13798999786377,4.108476638793945,-0.5623133182525635
1774789956634884900,8.098884765625,8.104490280151367,4.776073932647705,-0.44745782017707825
1774789956653409800,8.117409912109375,8.080561637878418,5.656632900238037,-0.0933200865983963
1774789956671934700,8.135934814453124,8.343772888183594,5.867201328277588,-0.05742774158716202
1774789956690460000,8.1544599609375,8.898907661437988,5.412564754486084,-0.32542386651039124
1774789956708984800,8.17298486328125,9.688538551330566,5.154139995574951,-0.12921242415905
1774789956727510000,8.191510009765626,10.325029373168945,5.163711071014404,-0.031106693670153618
1774789956746035000,8.210034912109375,10.681560516357422,5.484349727630615,-0.380458801984787
1774789956764560000,8.228559814453124,10.365707397460938,6.080162525177002,-1.3184453248977661
1774789956783084800,8.247084716796875,9.509077072143555,6.503692150115967,-2.3258235454559326
1774789956801610000,8.26560986328125,9.760323524475098,6.317051887512207,-1.7682958841323853
1774789956820135000,8.284135009765626,11.686545372009277,5.527420520782471,-0.26560330390930176
1774789956838659800,8.302659912109375,13.579268455505371,4.130012035369873,-0.1818545162677765
1774789956857185000,8.32118505859375,13.167702674865723,2.706282377243042,-1.2921242713928223
1774789956875710000,8.3397099609375,11.935399055480957,2.5746772289276123,-2.287538528442383
1774789956894235000,8.35823486328125,9.56889820098877,3.4408788681030273,-2.3162522315979004
1774789956912760000,8.376760009765626,7.9250288009643555,4.1970109939575195,-1.8376877307891846
1774789956931285000,8.395284912109375,7.800601959228516,4.326223373413086,-1.1341979503631592
1774789956949810000,8.413809814453124,8.484949111938477,4.077369689941406,-0.6221339106559753
1774789956968335000,8.432335205078125,8.97787094116211,3.7112679481506348,-0.363709032535553
1774789956986860000,8.450860107421875,8.93958568572998,3.321237802505493,-0.11724831163883209
1774789957005385000,8.469385009765626,9.152546882629395,3.562912940979004,0.519242525100708
1774789957023910000,8.487909912109375,9.45882797241211,3.627519130706787,1.1174482107162476
1774789957042435000,8.50643505859375,8.94676399230957,3.390629768371582,1.2705888748168945
1774789957060960000,8.5249599609375,7.599604606628418,3.3714871406555176,0.9188438653945923
1774789957079485200,8.543485107421875,6.597012042999268,3.4432718753814697,0.3900300860404968
1774789957098010000,8.562010009765626,5.929414749145508,3.359523057937622,-0.064606212079525
1774789957116535000,8.58053515625,6.1088762283325195,3.2590243816375732,-0.4785645306110382
1774789957135060200,8.599060302734374,6.020341873168945,3.5437703132629395,-0.48574298620224
1774789957153585200,8.617585205078125,5.960521221160889,4.249652862548828,-0.031106693670153618
1774789957172110300,8.6361103515625,6.003592014312744,4.838287353515625,0.05024927482008934
1774789957190635300,8.65463525390625,5.883950710296631,4.993820667266846,-0.2919243574142456
1774789957209160200,8.67316015625,5.934200286865234,5.144568920135498,-0.6029912829399109
1774789957227685000,8.69168505859375,6.690331935882568,5.225924491882324,-0.7106683254241943
1774789957246210300,8.710210205078125,7.953742504119873,5.245067119598389,-0.5264210104942322
1774789957264735200,8.7287353515625,9.19561767578125,5.096712112426758,-0.3397808074951172
1774789957283260400,8.747260498046876,9.54496955871582,5.185246467590332,-0.30628129839897156
1774789957301785300,8.765785400390625,9.650253295898438,5.6590256690979,-0.638883650302887
1774789957320310300,8.784310302734376,10.107282638549805,5.757131099700928,-0.763310432434082
1774789957338835500,8.80283544921875,10.372885704040527,5.587240695953369,-0.2967100143432617
1774789957357360400,8.8213603515625,11.255837440490723,5.560919761657715,0.10289137065410614
1774789957375885300,8.83988525390625,11.660224914550781,5.788238048553467,-0.1746760457754135
1774789957394410500,8.858410400390625,10.700702667236328,5.5106706619262695,-0.5312066078186035
1774789957412935400,8.876935302734376,10.631311416625977,4.802394866943359,0.2225325107574463
1774789957431460600,8.895460693359375,12.035898208618164,4.199403762817383,1.1102696657180786
1774789957449985500,8.913985595703124,12.32542896270752,3.28773832321167,0.9978070259094238
1774789957468510500,8.932510498046875,11.054841041564941,2.967100143432617,-0.26560330390930176
1774789957487035600,8.95103564453125,9.81535816192627,3.689732551574707,-0.9332008361816406
1774789957505560600,8.969560546875,9.013762474060059,4.232903480529785,-0.18424734473228455
1774789957524085800,8.988085693359375,9.372686386108398,4.316651821136475,0.7585247755050659
1774789957542610700,9.006610595703124,9.851250648498535,4.426722049713135,1.3184453248977661
1774789957561135600,9.025135498046875,9.93260669708252,4.381258487701416,1.2921242713928223
1774789957579660800,9.043660888671875,9.126225471496582,3.924229145050049,0.7728816866874695
1774789957598185700,9.062185791015626,8.171489715576172,3.9936211109161377,0.3756731450557709
1774789957616711000,9.0807109375,6.305087566375732,4.074976921081543,0.09571290761232376
1774789957635235800,9.09923583984375,5.898307800292969,4.0797624588012695,0.4163511395454407
1774789957653760800,9.1177607421875,6.58265495300293,3.601198196411133,0.48813581466674805
1774789957672286000,9.136285888671875,7.056434154510498,2.9216363430023193,0.3278166949748993
1774789957690811000,9.154810791015626,7.623532772064209,2.548356056213379,-0.15074782073497772
1774789957709336000,9.173336181640625,7.9585280418396,2.6943182945251465,-0.5072783827781677
1774789957727861000,9.191861083984374,7.369893550872803,3.2470602989196777,-0.32542386651039124
1774789957746386200,9.21038623046875,6.498906135559082,3.864408493041992,0.10767702013254166
1774789957764911000,9.2289111328125,6.233303070068359,4.560719966888428,0.5527420043945312
1774789957783436000,9.24743603515625,6.391229152679443,4.668396949768066,0.9451649188995361
1774789957801961200,9.265961181640625,7.066005229949951,4.821537494659424,0.3158525824546814
1774789957820486100,9.284486083984374,8.054241180419922,5.015356063842773,0.031106693670153618
1774789957839011300,9.30301123046875,7.9728851318359375,4.764110088348389,-0.19381862878799438
1774789957857536300,9.321536376953125,7.779066562652588,4.862215518951416,-0.7824530005455017
1774789957876061200,9.340061279296876,8.439485549926758,5.259424209594727,-1.25144624710083
1774789957894586400,9.35858642578125,9.181260108947754,5.678168296813965,-0.9595218896865845
1774789957913111300,9.377111328125,9.681360244750977,5.723631858825684,-0.009571290574967861
1774789957931636500,9.395636474609375,10.569097518920898,5.529813289642334,0.11006984114646912
1774789957950161400,9.414161376953125,11.547761917114258,5.608776092529297,-0.16271193325519562
1774789957968686600,9.4326865234375,11.255837440490723,6.0849480628967285,-1.2131611108779907
1774789957987211500,9.45121142578125,8.882157325744629,6.6113691329956055,-2.344966173171997
1774789958005736400,9.469736328125,8.12123966217041,7.109076023101807,-2.5914268493652344
1774789958024261600,9.48826171875,10.164710998535156,6.647261142730713,-1.8664016723632812
1774789958042786600,9.50678662109375,13.777873039245605,4.701896667480469,0.07417750358581543
1774789958061311700,9.525311767578126,14.993426322937012,3.596412420272827,0.33738797903060913
1774789958079836700,9.543836669921875,11.882757186889648,3.6394832134246826,-1.3112667798995972
1774789958098361900,9.56236181640625,8.288737297058105,4.053441524505615,-2.5363919734954834
1774789958116886800,9.58088671875,7.386643409729004,4.524827480316162,-2.6081767082214355
1774789958135412000,9.599411865234375,8.525627136230469,4.548755645751953,-1.179661512374878
1774789958153937000,9.61793701171875,9.564111709594727,4.170690059661865,-0.04546362906694412
1774789958172462000,9.636462158203125,9.403793334960938,3.507878065109253,-0.14356936514377594
1774789958190987000,9.654987060546874,8.350951194763184,3.34995174407959,-0.3206382393836975
1774789958209512200,9.67351220703125,8.274380683898926,3.603590965270996,0.038285162299871445
1774789958228037000,9.692037109375,7.89631462097168,3.87876558303833,0.6317051649093628
1774789958246562300,9.710562255859376,7.109076023101807,4.086941242218018,0.5623133182525635
1774789958265087200,9.729087158203125,6.460621356964111,4.12761926651001,0.2225325107574463
1774789958283612400,9.7476123046875,5.723631858825684,4.084548473358154,-0.062213387340307236
1774789958302137300,9.766137451171875,5.419743061065674,4.034298896789551,-0.6891329288482666
1774789958320662500,9.78466259765625,5.625525951385498,4.237689018249512,-1.0049854516983032
1774789958339187500,9.8031875,6.410371780395508,4.73300313949585,-0.8231309652328491
1774789958357712600,9.821712646484375,6.647261142730713,5.194818019866943,-0.45942193269729614
1774789958376237800,9.84023779296875,6.305087566375732,5.630311489105225,0.07417750358581543
1774789958394762800,9.8587626953125,6.269195556640625,5.876772403717041,0.0526420995593071
1774789958413288000,9.877287841796875,6.616154670715332,5.8097734451293945,-0.4019941985607147
1774789958431812900,9.895812744140626,7.025327205657959,6.056233882904053,-0.6675975322723389
1774789958450338300,9.91433837890625,7.657032489776611,6.357729911804199,-0.9667003750801086
1774789958468863200,9.93286328125,8.312665939331055,6.573083877563477,-1.1126625537872314
1774789958487388400,9.951388427734376,8.874979019165039,6.553941249847412,-1.1581261157989502
1774789958505913300,9.969913330078125,9.128618240356445,6.556334018707275,-1.0504491329193115
1774789958524438500,9.9884384765625,9.518648147583008,6.477370738983154,-1.1030912399291992
1774789958542963500,10.00696337890625,9.949356079101562,6.080162525177002,-1.5122638940811157
1774789958561488600,10.025488525390625,10.169496536254883,5.938985824584961,-1.667797327041626
1774789958580013800,10.044013916015626,10.930414199829102,6.3361945152282715,-0.8566305041313171
1774789958598538800,10.062538818359375,10.688738822937012,7.087540626525879,-0.09810572862625122
1774789958617064000,10.08106396484375,8.874979019165039,7.377072334289551,-0.3278166949748993
1774789958635588900,10.0995888671875,8.260024070739746,6.585047721862793,0.09092725813388824
1774789958654114000,10.118114013671875,10.497312545776367,5.1804609298706055,0.9571290612220764
1774789958672639000,10.136638916015626,12.217752456665039,3.926621913909912,0.9523434042930603
1774789958691164200,10.1551640625,11.205588340759277,3.8907296657562256,0.1459621787071228
1774789958709689300,10.173689453125,8.69791030883789,4.8813581466674805,-0.6173482537269592
1774789958728214300,10.19221435546875,6.5491557121276855,5.78345251083374,-0.29431718587875366
1774789958746739500,10.210739501953125,5.955735683441162,5.86002254486084,0.44027936458587646
1774789958765264400,10.229264404296876,6.929614543914795,5.2043890953063965,0.607776939868927
1774789958783789600,10.24778955078125,8.315058708190918,4.704289436340332,0.19381862878799438
1774789958802314500,10.266314453125,9.533005714416504,4.156332969665527,0.031106693670153618
1774789958820839700,10.284839599609375,9.360722541809082,4.144368648529053,0.02153540402650833
1774789958839364900,10.30336474609375,8.6907320022583,4.42193603515625,-0.1052841991186142
1774789958857889800,10.321889892578126,7.618747234344482,4.247260093688965,-0.2273181527853012
1774789958876415000,10.3404150390625,6.553941249847412,4.024727821350098,-0.5048855543136597
1774789958894940000,10.35893994140625,5.86002254486084,4.058227062225342,-0.9212366938591003
1774789958913465000,10.377465087890625,5.589633464813232,4.419543266296387,-1.0145567655563354
1774789958931990300,10.395990234375,5.938985824584961,4.689932346343994,-0.638883650302887
1774789958950515200,10.41451513671875,6.226124286651611,4.919643402099609,-0.23210379481315613
1774789958969040400,10.433040283203125,6.690331935882568,5.197210788726807,0.009571290574967861
1774789958987565600,10.451565673828124,6.781259536743164,5.527420520782471,0.31106695532798767
1774789959006090500,10.470090576171875,6.994220733642578,5.4867424964904785,0.4259224236011505
1774789959024615700,10.48861572265625,7.408178806304932,5.434100151062012,0.1746760457754135
1774789959043140600,10.507140625,7.970492362976074,5.443671703338623,-0.18424734473228455
1774789959061665800,10.525665771484375,7.712067604064941,5.4795637130737305,-0.45224347710609436
1774789959080191000,10.54419091796875,7.534998416900635,5.795416355133057,-0.6604190468788147
1774789959098716000,10.5627158203125,7.654639720916748,6.321837425231934,-0.760917603969574
1774789959117241000,10.581240966796875,8.037490844726562,6.561119556427002,-1.074377417564392
1774789959135766300,10.599766357421874,9.013762474060059,6.429514408111572,-1.5649060010910034
1774789959154291500,10.61829150390625,10.3681001663208,6.273981094360352,-1.4572290182113647
1774789959172816400,10.63681640625,11.600403785705566,6.386443614959717,-0.8255237936973572
1774789959191341600,10.655341552734376,10.77248764038086,7.470392227172852,-1.153340458869934
1774789959209866500,10.673866455078125,7.817351341247559,8.566305160522461,-2.3856441974639893
1774789959228391700,10.6923916015625,6.049055576324463,8.642875671386719,-3.438486099243164
1774789959246916900,10.710916748046875,9.446864128112793,7.0995049476623535,-2.706282377243042
1774789959265441800,10.72944189453125,15.720845222473145,4.1419758796691895,-0.25363919138908386
1774789959283967000,10.747967041015626,17.039289474487305,2.3976082801818848,-0.16031911969184875
1774789959302492200,10.7664921875,12.77767276763916,2.902493953704834,-1.8759729862213135
1774789959321017000,10.78501708984375,8.003992080688477,4.161118507385254,-2.8043880462646484
1774789959339542300,10.803542236328125,6.027520179748535,5.13021183013916,-2.4287149906158447
1774789959358067500,10.8220673828125,6.932007312774658,4.701896667480469,-1.222732424736023
1774789959376592600,10.840592529296876,8.365307807922363,3.91705060005188,-0.0526420995593071
1774789959395117800,10.859117919921875,9.095118522644043,4.039084434509277,0.5958128571510315
1774789959413642800,10.877642822265624,8.602197647094727,4.338187217712402,1.0863415002822876
1774789959432168000,10.89616796875,7.726424217224121,4.548755645751953,1.3782658576965332
1774789959450693000,10.914693115234375,6.965506553649902,4.481756687164307,1.2418749332427979
1774789959469218000,10.933218017578126,6.664011001586914,4.642076015472412,1.1150553226470947
1774789959487743200,10.9517431640625,6.252445697784424,4.4650068283081055,0.9068797826766968
1774789959506268400,10.970268310546874,5.66620397567749,4.015156269073486,0.3732803463935852
1774789959524793300,10.98879345703125,5.465207099914551,3.955335855484009,-0.2105683982372284
1774789959543318500,11.007318603515625,5.6446685791015625,4.041477680206299,-0.28235307335853577
1774789959561843700,11.02584375,6.235695838928223,4.41475772857666,0.17228323221206665
1774789959580369000,11.044368896484375,6.740581512451172,5.032105922698975,0.37806597352027893
1774789959598893800,11.062893798828124,6.69990348815918,5.338387489318848,0.275174617767334
1774789959617419000,11.0814189453125,6.750152587890625,5.438885688781738,-0.04307080805301666
1774789959635944200,11.099944091796875,7.168896675109863,5.465207099914551,-0.3900300860404968
1774789959654469400,11.118469482421874,7.57806921005249,5.426921844482422,-0.5647061467170715
1774789959672994300,11.136994384765625,8.111668586730957,5.4867424964904785,-0.6891329288482666
1774789959691519500,11.15551953125,8.970691680908203,5.60399055480957,-0.7345965504646301
1774789959710044700,11.174044677734376,9.489934921264648,5.548955917358398,-0.8638089895248413
1774789959728569900,11.19256982421875,9.944570541381836,5.6925249099731445,-0.7393822073936462
1774789959747094800,11.2110947265625,10.552348136901855,5.627918720245361,-0.45942193269729614
1774789959765620000,11.229619873046875,11.425727844238281,5.8719868659973145,-0.14117653667926788
1774789959784145200,11.248145263671875,10.849058151245117,6.826723098754883,0.06699903309345245
1774789959802670300,11.26667041015625,9.432506561279297,7.168896675109863,0.26560330390930176
1774789959821195500,11.285195556640625,10.152746200561523,6.0370917320251465,1.2179467678070068
1774789959839720700,11.303720703125,11.861222267150879,5.096712112426758,1.7778671979904175
1774789959858245600,11.32224560546875,12.215359687805176,4.2592244148254395,1.1102696657180786
1774789959876770800,11.340770751953125,10.992627143859863,4.029513359069824,0.10289137065410614
1774789959895296000,11.3592958984375,8.566305160522461,4.596612453460693,-0.4905286431312561
1774789959913821200,11.3778212890625,6.680760860443115,5.213960647583008,-0.6245267391204834
1774789959932346000,11.39634619140625,6.585047721862793,5.424529075622559,-0.019142581149935722
1774789959950871300,11.414871337890625,7.8388872146606445,5.048855781555176,0.6317051649093628
1774789959969396500,11.433396484375,8.910871505737305,4.72582483291626,0.6771687865257263
1774789959987921700,11.451921630859376,9.387042999267578,4.40757942199707,0.3565305769443512
1774789960006446800,11.47044677734375,9.401400566101074,4.302295207977295,0.09571290761232376
1774789960024972000,11.488971923828124,8.910871505737305,4.194618225097656,-0.12203395366668701
1774789960043497000,11.5074970703125,8.056633949279785,4.084548473358154,-0.3924229145050049
1774789960062022100,11.526022216796875,7.336394309997559,4.309473514556885,-0.42831525206565857
1774789960080547300,11.54454736328125,6.742974281311035,4.4243292808532715,-0.4713860750198364
1774789960099072500,11.563072509765625,6.307480335235596,4.551148891448975,-0.5240281820297241
1774789960117597700,11.58159765625,5.8719868659973145,4.804787635803223,-0.5048855543136597
1774789960136123000,11.600122802734376,5.749952793121338,5.216353416442871,-0.31824541091918945
1774789960154647800,11.618647705078125,5.816951751708984,5.381458282470703,-0.02632104977965355
1774789960173173000,11.637173095703124,6.223731517791748,5.376672267913818,0.26560330390930176
1774789960191698200,11.6556982421875,6.719046115875244,5.312066078186035,0.28235307335853577
1774789960210223400,11.674223388671875,6.829115867614746,5.357530117034912,-0.07657032459974289
1774789960228748500,11.69274853515625,6.989434719085693,5.225924491882324,-0.49292147159576416
1774789960247273700,11.711273681640625,7.448856830596924,5.201996326446533,-0.4043870270252228
1774789960265799000,11.729798828125,8.068597793579102,5.539384365081787,-0.37088751792907715
1774789960284324000,11.748323974609375,8.219346046447754,5.819344520568848,-0.7082754969596863
1774789960302849300,11.766849365234375,8.367700576782227,6.199803352355957,-0.7082754969596863
1774789960321374500,11.78537451171875,8.518448829650879,6.434299945831299,-0.4426721930503845
1774789960339899400,11.8038994140625,9.104690551757812,6.726224422454834,-0.6029912829399109
1774789960358424600,11.822424560546875,10.16710376739502,6.687939167022705,-1.0552347898483276
1774789960376949800,11.84094970703125,10.825129508972168,6.348158359527588,-1.4763715267181396
1774789960395475000,11.859474853515625,10.767702102661133,7.29810905456543,-2.1128623485565186
1774789960414000000,11.878000244140624,9.578469276428223,8.319844245910645,-3.294916868209839
1774789960432525300,11.896525390625,9.954142570495605,7.987242221832275,-2.6273193359375
1774789960451050500,11.915050537109375,12.468998908996582,7.089933395385742,-0.37088751792907715
1774789960469575700,11.93357568359375,14.304293632507324,5.91505765914917,0.7417750358581543
1774789960488100600,11.9521005859375,12.91645622253418,4.316651821136475,-0.5982056856155396
1774789960506626000,11.9706259765625,9.872786521911621,3.82373046875,-2.3186452388763428
1774789960525151000,11.98915087890625,7.599604606628418,4.8813581466674805,-2.00518536567688
1774789960543676200,12.00767626953125,7.276573657989502,6.008377552032471,-0.4307080805301666
1774789960562201300,12.026201416015626,7.898707389831543,6.099305152893066,0.9475577473640442
1774789960580726500,12.0447265625,7.680960655212402,5.580062389373779,1.6031911373138428
1774789960599251700,12.063251708984374,7.061219692230225,4.984249591827393,1.3615161180496216
1774789960617777000,12.08177685546875,6.680760860443115,4.560719966888428,0.9762716293334961
1774789960636302000,12.100302001953125,6.324230194091797,4.18983268737793,0.3445664644241333
1774789960654827300,12.1188271484375,5.879165172576904,3.682554006576538,-0.24167509377002716
1774789960673352400,12.1373525390625,5.821737289428711,3.445664644241333,-0.4163511395454407
1774789960691877600,12.155877685546875,5.788238048553467,3.9194436073303223,-0.35413774847984314
1774789960710402800,12.17440283203125,5.515456199645996,4.426722049713135,0.004785645287483931
1774789960728928000,12.192927978515625,5.154139995574951,4.644468784332275,0.22971096634864807
1774789960747453200,12.211453125,5.1182475090026855,4.840680122375488,0.01196411345154047
1774789960765978400,12.229978271484375,5.103890895843506,5.063212871551514,-0.035892341285943985
1774789960784503600,12.248503662109375,5.383851051330566,5.630311489105225,-0.038285162299871445
1774789960803028700,12.26702880859375,5.876772403717041,6.2189459800720215,0.0526420995593071
1774789960821554000,12.285553955078125,6.7070817947387695,6.857829570770264,0.47617170214653015
1774789960840079000,12.3040791015625,7.429714202880859,7.1473612785339355,0.6221339106559753
1774789960858604000,12.32260400390625,7.22871732711792,7.16650390625,0.1052841991186142
1774789960877129500,12.34112939453125,7.156932353973389,7.345965385437012,-0.6532405614852905
1774789960895654700,12.359654541015624,7.527820110321045,7.491927623748779,-0.9667003750801086
1774789960914179800,12.378179931640625,8.63330364227295,7.4847493171691895,-0.8087740540504456
1774789960932704800,12.396704833984375,10.085747718811035,7.3675007820129395,-0.6867401003837585
1774789960951230200,12.415230224609376,10.693524360656738,6.580262184143066,-0.5694918036460876
1774789960969755400,12.43375537109375,10.829915046691895,6.537191390991211,-0.24646073579788208
1774789960988280600,12.452280517578124,10.638489723205566,6.616154670715332,-0.5000999569892883
1774789961006805800,12.4708056640625,9.743574142456055,6.723831653594971,-1.1509476900100708
1774789961025331000,12.4893310546875,7.611568927764893,7.008577346801758,-1.0887342691421509
1774789961043856100,12.507856201171874,6.857829570770264,7.539783954620361,0.727418065071106
1774789961062381300,12.52638134765625,8.724231719970703,7.2813591957092285,2.3401806354522705
1774789961080906500,12.544906494140625,10.353743553161621,5.929414749145508,2.117648124694824
1774789961099431700,12.563431640625,10.593026161193848,4.859822750091553,0.727418065071106
1774789961117956900,12.581956787109375,9.34157943725586,4.709074974060059,-0.1579262912273407
1774789961145744600,12.60974462890625,7.085147857666016,5.737988471984863,0.3732803463935852
1774789961164269800,12.628269775390624,7.6043901443481445,5.9676995277404785,1.0600204467773438
1774789961182795000,12.646794921875,8.762516975402832,4.828716278076172,0.6508477330207825
1774789961201320200,12.6653203125,9.198010444641113,3.7016966342926025,-0.19142581522464752
1774789961219845400,12.683845458984376,9.001798629760742,3.610769271850586,-0.7848458290100098
1774789961238370600,12.70237060546875,8.09970474243164,3.8835511207580566,-0.8063812255859375
1774789961256895700,12.720895751953124,6.996613502502441,4.575077056884766,-0.29431718587875366
1774789961275421000,12.7394208984375,5.972485542297363,5.058426856994629,-0.014356935396790504
1774789961293946000,12.757946044921875,5.0225348472595215,5.230710506439209,-0.23210379481315613
1774789961312471300,12.77647119140625,4.926821708679199,5.048855781555176,-0.6819544434547424
1774789961330996500,12.79499658203125,5.3934221267700195,4.790431022644043,-0.9068797826766968
1774789961349521700,12.813521728515624,5.855237007141113,4.668396949768066,-0.9284151792526245
1774789961368046800,12.832046875,6.398407936096191,5.400600910186768,-0.4737788736820221
1774789961386572300,12.850572265625,6.606583118438721,6.25723123550415,0.1986042857170105
1774789961405097500,12.869097412109374,6.589833736419678,6.5874409675598145,0.5910272002220154
1774789961423622700,12.88762255859375,6.853044033050537,6.197410583496094,0.20578274130821228
1774789961442147800,12.90614794921875,7.707281589508057,5.836094379425049,-0.519242525100708
1774789961460673000,12.924673095703126,8.458627700805664,5.5106706619262695,-1.0097711086273193
1774789961479198200,12.9431982421875,8.542376518249512,6.065805435180664,-1.0719845294952393
1774789961497723400,12.961723388671874,8.37966537475586,6.9822564125061035,-0.7704889178276062
1774789961516248600,12.98024853515625,8.042277336120605,7.527820110321045,-0.33020952343940735
1774789961534773800,12.998773681640625,7.989634990692139,7.9657063484191895,-0.10767702013254166
1774789961553299000,13.017298828125,8.338987350463867,7.848458290100098,-0.33020952343940735
1774789961571824400,13.035824462890625,9.580862045288086,7.671389579772949,-1.038485050201416
1774789961590349600,13.054349609375,9.884750366210938,7.83410120010376,-2.383251428604126
1774789961608874800,13.072874755859376,7.75753116607666,8.38684368133545,-3.0891339778900146
1774789961627400000,13.09139990234375,7.3746795654296875,9.066405296325684,-2.179861545562744
1774789961645925000,13.109925048828124,10.52363395690918,7.795815944671631,-1.0336993932724
1774789961664450300,13.1284501953125,13.320843696594238,4.852644443511963,-0.641276478767395
1774789961682975500,13.1469755859375,13.634303092956543,3.414557933807373,-1.3351950645446777
1774789961701500700,13.165500732421876,11.808579444885254,3.5844483375549316,-3.06999135017395
1774789961720025900,13.18402587890625,9.18843936920166,4.661218643188477,-3.4719855785369873
1774789961738551000,13.202551025390624,8.408378601074219,5.694917678833008,-2.4502503871917725
1774789961757076500,13.221076416015626,8.717052459716797,5.804987907409668,-0.7417750358581543
1774789961775601700,13.2396015625,9.044869422912598,5.714060306549072,0.3445664644241333
1774789961794126800,13.258126953125,9.243474006652832,5.290530681610107,0.4737788736820221
1774789961812652000,13.276652099609375,8.563912391662598,4.639683246612549,0.4953143000602722
1774789961831177200,13.29517724609375,7.1856465339660645,4.319045066833496,0.4618147611618042
1774789961849702400,13.313702392578126,5.998806476593018,4.4721856117248535,0.3900300860404968
1774789961868227600,13.3322275390625,5.460421085357666,4.639683246612549,0.4498506486415863
1774789961886753000,13.3507529296875,5.31685209274292,4.383651256561279,0.11724831163883209
1774789961905278200,13.3692783203125,5.242674350738525,4.063013076782227,-0.4043870270252228
1774789961923803400,13.387803466796875,5.249852657318115,3.9625144004821777,-0.8111668825149536
1774789961942328600,13.40632861328125,4.955535888671875,4.070191383361816,-0.8063812255859375
1774789961960853800,13.424853759765625,5.19960355758667,4.855037212371826,-0.7968099117279053
1774789961979379000,13.44337890625,5.426921844482422,5.391029357910156,-0.6532405614852905
1774789961997904400,13.461904296875,5.280959606170654,5.769095420837402,-0.4570291340351105
1774789962016429600,13.4804296875,5.718846321105957,6.199803352355957,-0.5383850932121277
1774789962034954800,13.498954833984374,6.601797580718994,6.7692952156066895,-0.3684946894645691
1774789962053480000,13.51747998046875,7.080362319946289,7.018148899078369,-0.23449662327766418
1774789962072005000,13.536005126953125,7.963313579559326,7.3986077308654785,-0.4953143000602722
1774789962090530300,13.5545302734375,8.532805442810059,7.250252723693848,-0.9475577473640442
1774789962109055500,13.573055419921875,9.075976371765137,6.927221775054932,-1.0839486122131348
1774789962127581000,13.591580810546875,9.951749801635742,6.735795974731445,-1.124626636505127
1774789962146106000,13.610106201171876,10.693524360656738,6.905686378479004,-0.5264210104942322
1774789962164631300,13.62863134765625,10.973484992980957,6.927221775054932,-0.38763725757598877
1774789962183156500,13.647156494140624,10.403992652893066,7.410571575164795,-0.8662018179893494
1774789962201681700,13.665681640625,8.714659690856934,7.802994728088379,-1.3878371715545654
1774789962220206800,13.684206787109375,6.771687984466553,7.762316703796387,-0.550349235534668
1774789962238732300,13.702732177734376,7.812565803527832,6.697510719299316,0.01196411345154047
1774789962257257500,13.721257568359375,10.588240623474121,5.2737812995910645,0.014356935396790504
1774789962275782700,13.73978271484375,12.579068183898926,3.4432718753814697,-0.07657032459974289
1774789962294307800,13.758307861328126,12.232109069824219,3.067598581314087,0.11964113265275955
1774789962312833000,13.7768330078125,9.753145217895508,4.5822553634643555,0.6628118753433228
1774789962331358500,13.7953583984375,7.523034572601318,6.072983741760254,1.5146567821502686
1774789962349883600,13.813883544921875,6.530013084411621,7.039684295654297,2.242074728012085
1774789962368408800,13.832408935546875,7.441678524017334,6.620940208435059,2.1918256282806396
1774789962386934000,13.85093408203125,7.908278942108154,5.436492919921875,1.7802600860595703
1774789962405459500,13.86945947265625,7.661818027496338,4.955535888671875,1.1318050622940063
1774789962423984600,13.887984619140624,6.652047157287598,4.914857864379883,0.6125625967979431
1774789962442509800,13.906509765625,5.718846321105957,5.223531723022461,0.33020952343940735
1774789962461035000,13.925034912109375,5.508277893066406,5.106283664703369,0.16749759018421173
1774789962479560200,13.943560302734374,5.697310924530029,4.852644443511963,-0.059820566326379776
1774789962498085600,13.962085693359375,6.130411624908447,4.766502857208252,-0.33499518036842346
1774789962516610800,13.98061083984375,5.946164131164551,4.742574691772461,-0.5694918036460876
1774789962535136000,13.999135986328126,5.654240131378174,4.730610370635986,-1.0671988725662231
1774789962553661200,14.0176611328125,5.280959606170654,5.108676433563232,-1.0121639966964722
1774789962572186400,14.036186279296874,5.694917678833008,5.481956481933594,-0.5551348328590393
1774789962590711600,14.054711669921875,6.561119556427002,5.938985824584961,0.29431718587875366
1774789962609237000,14.073237060546875,7.197610378265381,6.45822811126709,0.6364908218383789
1774789962627762200,14.09176220703125,7.317251682281494,6.491727828979492,0.2512463629245758
1774789962646287400,14.110287353515625,7.037291526794434,6.104090690612793,-0.6317051649093628
1774789962664812800,14.128812744140625,6.939185619354248,6.1088762283325195,-1.2538390159606934
1774789962683338000,14.147337890625,6.664011001586914,6.754938125610352,-1.4715858697891235
1774789962701863200,14.16586328125,7.542177200317383,7.70249605178833,-1.160519003868103
1774789962720388400,14.184388427734374,8.784051895141602,8.054241180419922,-0.46420758962631226
1774789962738913500,14.20291357421875,10.090533256530762,7.977670669555664,-0.1459621787071228
1774789962757438700,14.221438720703125,11.064412117004395,7.829315662384033,-0.8398807644844055
1774789962775964200,14.239964111328124,10.569097518920898,8.070990562438965,-2.2396819591522217
1774789962794489300,14.2584892578125,8.676374435424805,8.941978454589844,-3.0867412090301514
1774789962813014500,14.2770146484375,7.434499740600586,9.93978500366211,-2.4406790733337402
1774789962831540000,14.2955400390625,10.372885704040527,9.353543281555176,-0.8207381963729858
1774789962850065200,14.314065185546875,14.445469856262207,7.018148899078369,0.24406790733337402
1774789962868590300,14.33259033203125,15.562918663024902,4.567898273468018,-0.18424734473228455
1774789962887115500,14.351115478515625,11.784651756286621,3.2781670093536377,-1.9453648328781128
1774789962905640700,14.369640625,7.252645492553711,3.728017568588257,-3.81655216217041
1774789962924166100,14.388166259765624,5.326423168182373,4.855037212371826,-4.34536600112915
1774789962942691300,14.40669140625,5.989234924316406,5.3216376304626465,-2.8833513259887695
1774789962961216500,14.425216552734375,7.680960655212402,5.079962253570557,-0.7489534616470337
1774789962979741700,14.44374169921875,8.37009334564209,4.924428939819336,0.2512463629245758
1774789962998267100,14.46226708984375,8.324629783630371,4.996213912963867,0.2153540402650833
1774789963016792300,14.480792236328124,7.992027759552002,4.8191447257995605,0.25363919138908386
1774789963035317500,14.4993173828125,7.396214962005615,4.613361835479736,0.5168496966362
1774789963053842700,14.5178427734375,6.379265308380127,4.438685894012451,0.5000999569892883
1774789963072368000,14.5363681640625,5.740381717681885,4.266402721405029,-0.13160525262355804
1774789963090893300,14.554893310546875,4.874179840087891,4.096512317657471,-0.5910272002220154
1774789963109418500,14.57341845703125,4.527220249176025,4.07258415222168,-0.9762716293334961
1774789963127944000,14.59194384765625,4.9124650955200195,4.357329845428467,-1.0217353105545044
1774789963146469000,14.61046923828125,5.312066078186035,4.843072891235352,-0.7010970115661621
1774789963164994300,14.628994384765624,4.965106964111328,5.426921844482422,-0.5335994362831116
1774789963183519500,14.64751953125,5.245067119598389,5.996413707733154,-0.519242525100708
1774789963202044700,14.666044677734375,5.357530117034912,6.235695838928223,-0.7393822073936462
1774789963220570000,14.684570068359376,5.414957523345947,6.412764549255371,-1.129412293434143
1774789963239095300,14.70309521484375,6.448657035827637,6.738188743591309,-1.2945170402526855
1774789963257620700,14.721620849609375,7.5086774826049805,6.853044033050537,-1.1724830865859985
1774789963276146000,14.74014599609375,8.293522834777832,6.98704195022583,-1.155733346939087
1774789963294671000,14.758671142578125,8.817551612854004,7.190432071685791,-1.2969099283218384
1774789963313196300,14.7771962890625,9.032905578613281,7.573283672332764,-1.0241280794143677
1774789963331721500,14.795721435546875,9.116654396057129,7.829315662384033,-0.8135597109794617
1774789963350247000,14.814246826171875,9.131011009216309,7.824530124664307,-0.763310432434082
1774789963368772000,14.832772216796876,9.731609344482422,7.551748275756836,-0.7896314859390259
1774789963387297300,14.85129736328125,9.844072341918945,7.609176158905029,-0.7369893789291382
1774789963405822700,14.86982275390625,8.848658561706543,8.183453559875488,-0.6532405614852905
1774789963424348000,14.888347900390626,7.692924976348877,8.078168869018555,0.07178468257188797
1774789963442873000,14.906873046875,8.781659126281738,7.4464640617370605,0.9068797826766968
1774789963461398500,14.9253984375,10.932806968688965,6.197410583496094,1.399801254272461
1774789963479923700,14.943923828125,12.181859970092773,4.498506546020508,1.098305583000183
1774789963498449000,14.962448974609375,11.294122695922852,3.500699520111084,-0.07417750358581543
1774789963516974000,14.98097412109375,9.281759262084961,4.153940200805664,-0.8901300430297852
1774789963535499500,14.99949951171875,7.3986077308654785,5.247459888458252,-0.4163511395454407
1774789963554024700,15.018024658203124,6.580262184143066,6.240481376647949,0.7776673436164856
1774789963572550000,15.0365498046875,7.190432071685791,6.235695838928223,1.4117653369903564
1774789963591075000,15.055074951171875,7.752745151519775,5.458028316497803,1.1653046607971191
1774789963609600500,15.0736005859375,8.10688304901123,4.816751956939697,0.672383189201355
1774789963628125700,15.092125732421875,7.657032489776611,4.541577339172363,0.380458801984787
1774789963646651100,15.110651123046875,6.92482852935791,4.565505504608154,0.11485548317432404
1774789963665176300,15.12917626953125,6.166304111480713,4.433900356292725,-0.2273181527853012
1774789963683701500,15.147701416015625,5.745167255401611,4.342973232269287,-0.5288137793540955
1774789963702226700,15.166226806640625,5.936593055725098,4.41475772857666,-0.3565305769443512
1774789963720752000,15.184752197265626,6.003592014312744,4.575077056884766,-0.10049854964017868
1774789963739277300,15.20327734375,5.697310924530029,4.855037212371826,-0.39481574296951294
1774789963757802500,15.221802490234374,5.283352375030518,5.458028316497803,-0.5407779216766357
1774789963776327700,15.24032763671875,5.19242525100708,6.070590972900391,-0.519242525100708
1774789963794853000,15.25885302734375,5.355136871337891,6.25723123550415,-0.23688943684101105
1774789963813378300,15.27737841796875,6.276373863220215,6.56829833984375,0.0526420995593071
1774789963831903700,15.29590380859375,7.101897716522217,6.826723098754883,-0.10767702013254166
1774789963850429000,15.314428955078125,7.628318786621094,6.888936519622803,-0.38763725757598877
1774789963868954000,15.3329541015625,8.085348129272461,6.7692952156066895,-1.0097711086273193
1774789963887479300,15.351479248046875,8.69791030883789,6.896114826202393,-1.399801254272461
1774789963906004700,15.370004638671874,9.365508079528809,7.03489875793457,-1.196411371231079
1774789963924530000,15.388530029296875,9.870393753051758,7.109076023101807,-0.8207381963729858
1774789963943055000,15.40705517578125,10.076175689697266,7.178467750549316,-0.6580262184143066
1774789963961580500,15.42558056640625,10.887343406677246,7.326822757720947,-0.5479564070701599
1774789963980105700,15.444105712890625,10.564311981201172,7.5708909034729,-0.7130611538887024
1774789963998631000,15.462630859375,9.250652313232422,8.257631301879883,-1.7826528549194336
1774789964017156400,15.48115625,7.219145774841309,8.834300994873047,-2.2229323387145996
1774789964035681500,15.499681640625,7.939385414123535,8.80798053741455,-1.301695466041565
1774789964054207000,15.51820703125,11.68175983428955,7.18086051940918,0.18903298676013947
1774789964072732200,15.536732177734375,14.510076522827148,4.828716278076172,0.39481574296951294
1774789964091257300,15.55525732421875,13.476377487182617,3.2685956954956055,-0.8805587291717529
1774789964109782500,15.573782470703126,10.138389587402344,3.366701364517212,-2.2468605041503906
1774789964128308000,15.592307861328125,7.518248558044434,4.388436794281006,-2.407179594039917
1774789964146833200,15.610833251953125,6.503692150115967,5.319244861602783,-1.1676974296569824
1774789964165358300,15.6293583984375,7.073183536529541,5.5106706619262695,0.09810572862625122
1774789964183883800,15.6478837890625,7.891529083251953,4.931607246398926,0.6699903607368469
1774789964202409000,15.666408935546874,8.353343963623047,4.716253280639648,1.007378339767456
1774789964220934100,15.68493408203125,8.133204460144043,4.59421968460083,1.0289137363433838
1774789964239459600,15.70345947265625,6.984649181365967,4.302295207977295,0.7824530005455017
1774789964257984800,15.72198486328125,5.9509501457214355,4.024727821350098,0.3158525824546814
1774789964276510200,15.74051025390625,5.161318302154541,3.957728624343872,-0.2991028428077698
1774789964295035400,15.759035400390625,5.084748268127441,4.132404804229736,-0.7010970115661621
1774789964313560600,15.777560546875,5.115854740142822,4.108476638793945,-1.00259268283844
1774789964332086000,15.7960859375,5.065605640411377,4.3310089111328125,-0.9451649188995361
1774789964350611200,15.814611083984374,4.730610370635986,4.766502857208252,-0.7441678643226624
1774789964369136400,15.833136474609375,5.113461971282959,5.225924491882324,-0.7680960893630981
1774789964387661800,15.851661865234375,5.773880958557129,5.496313571929932,-0.9116654396057129
1774789964406187000,15.87018701171875,6.154339790344238,5.979663848876953,-0.8183453679084778
1774789964424712200,15.888712158203125,6.778866767883301,6.3840508460998535,-0.8255237936973572
1774789964443237600,15.907237548828125,7.599604606628418,6.515655994415283,-0.8303094506263733
1774789964461762800,15.9257626953125,8.257631301879883,6.740581512451172,-0.9667003750801086
1774789964480288000,15.9442880859375,8.999405860900879,6.943971157073975,-1.1413763761520386
1774789964498813400,15.9628134765625,9.686145782470703,7.04207706451416,-0.9499505758285522
1774789964517338600,15.981338623046875,10.418350219726562,7.197610378265381,-0.6364908218383789
1774789964535864000,15.999864013671875,10.104889869689941,7.197610378265381,-0.5910272002220154
1774789964554389200,16.01838916015625,9.789037704467773,7.240681171417236,-0.6101697683334351
1774789964572914400,16.03691455078125,9.810572624206543,7.247859954833984,-0.3613162338733673
1774789964591440000,16.05543994140625,9.875179290771484,7.8388872146606445,-0.07657032459974289
1774789964609965000,16.073965087890624,8.891729354858398,8.508877754211426,0.24406790733337402
1774789964628490500,16.092490478515625,7.475177764892578,8.257631301879883,1.4333007335662842
1774789964647015700,16.111015625,7.824530124664307,7.482356548309326,2.2372891902923584
1774789964665540900,16.129540771484375,10.231709480285645,6.056233882904053,2.297109842300415
1774789964693329000,16.157328857421874,12.06221866607666,3.675375461578369,1.0791629552841187
1774789964711854000,16.17585400390625,10.205389022827148,3.2709884643554688,-0.0526420995593071
1774789964730379500,16.194379638671876,7.5086774826049805,4.1659040451049805,-0.47617170214653015
1774789964748904700,16.21290478515625,6.020341873168945,5.685346603393555,0.3445664644241333
1774789964767430000,16.231429931640626,5.690132141113281,6.616154670715332,1.2490534782409668
1774789964785955300,16.249955322265624,6.831508636474609,5.874379634857178,1.179661512374878
1774789964804480500,16.26848046875,7.846065521240234,4.744967460632324,0.5048855543136597
1774789964823006000,16.287005859375,8.401200294494629,3.8811583518981934,-0.2679961323738098
1774789964841531100,16.30553125,8.24566650390625,3.5988051891326904,-0.4905286431312561
1774789964860056300,16.324056396484377,7.518248558044434,4.12761926651001,-0.15553347766399384
1774789964878581800,16.342581787109374,6.833901405334473,4.445864677429199,0.1339980661869049
1774789964897107000,16.36110693359375,6.065805435180664,4.402793884277344,0.11006984114646912
1774789964915632400,16.37963232421875,5.3694939613342285,4.338187217712402,-0.20817556977272034
1774789964934157600,16.398157470703126,4.649254322052002,4.543970108032227,-0.349352091550827
1774789964952683000,16.41668310546875,4.005585193634033,5.111069202423096,-0.2392822653055191
1774789964971208200,16.435208251953124,4.398007869720459,6.017949104309082,0.31345975399017334
1774789964989733400,16.4537333984375,5.443671703338623,6.405586242675781,1.1365907192230225
1774789965008258800,16.4722587890625,6.372086524963379,6.553941249847412,1.3256237506866455
1774789965026784000,16.490783935546876,6.999006271362305,6.5252275466918945,0.641276478767395
1774789965045309400,16.509309326171874,7.499105930328369,6.415157318115234,-0.22013968229293823
1774789965063834600,16.527834716796875,8.34138011932373,6.5419769287109375,-0.8733802437782288
1774789965082359800,16.54635986328125,9.332008361816406,6.704689025878906,-0.9044869542121887
1774789965100885200,16.56488525390625,10.176674842834473,6.594619274139404,-0.8135597109794617
1774789965119410400,16.583410400390626,10.595418930053711,6.666403770446777,-0.7657032608985901
1774789965137936000,16.601935791015624,10.698309898376465,6.738188743591309,-0.8255237936973572
1774789965156461000,16.6204609375,10.75813102722168,6.967899322509766,-0.9451649188995361
1774789965174986200,16.638986328125,10.305887222290039,7.939385414123535,-1.1581261157989502
1774789965193511700,16.65751171875,8.583054542541504,8.896514892578125,-1.8137595653533936
1774789965212036900,16.676036865234376,7.106683254241943,9.073583602905273,-1.765903115272522
1774789965230562300,16.694562255859374,9.513862609863281,7.554141044616699,-1.4715858697891235
1774789965249087500,16.71308740234375,13.564911842346191,5.257031440734863,-0.97148597240448
1774789965267613000,16.731613037109376,14.622539520263672,3.4743785858154297,-1.0408778190612793
1774789965286138000,16.75013818359375,11.176874160766602,3.744767427444458,-2.1415762901306152
1774789965304663600,16.76866357421875,7.259823799133301,5.2354960441589355,-3.0484559535980225
1774789965323188700,16.787188720703124,5.0703911781311035,6.640082836151123,-2.871387243270874
1774789965341714200,16.805714111328125,5.838487148284912,7.288537979125977,-1.3878371715545654
1774789965360239400,16.8242392578125,7.7455668449401855,6.5419769287109375,0.3326023519039154
1774789965378764800,16.842764892578124,9.626325607299805,5.927021503448486,0.9882357716560364
1774789965397290000,16.8612900390625,10.738987922668457,5.333601474761963,1.1868400573730469
1774789965415815400,16.8798154296875,10.095318794250488,4.264009952545166,0.9523434042930603
1774789965434340600,16.898340576171876,8.405985832214355,3.759124279022217,0.4953143000602722
1774789965452865800,16.91686572265625,6.427121639251709,3.603590965270996,0.17706887423992157
1774789965480653800,16.94465380859375,4.381258487701416,3.6299118995666504,-0.5120640397071838
1774789965499179300,16.96317919921875,4.4721856117248535,3.4552359580993652,-1.0169496536254883
1774789965517704400,16.981704345703125,4.541577339172363,3.665804386138916,-1.1820544004440308
1774789965536229600,17.000229736328127,4.156332969665527,4.402793884277344,-1.093519926071167
1774789965554755000,17.018755126953124,4.2592244148254395,4.833501815795898,-1.1724830865859985
1774789965573280300,17.0372802734375,4.706682205200195,5.099104881286621,-1.2586246728897095
1774789965591805700,17.0558056640625,5.26181697845459,5.627918720245361,-1.1653046607971191
1774789965610331000,17.074330810546876,6.034698486328125,6.340980052947998,-1.0193424224853516
1774789965628856300,17.092856201171877,6.628118515014648,6.915257453918457,-0.7250252366065979
1774789965647381500,17.111381591796874,7.451249599456787,7.295716285705566,-0.5623133182525635
1774789965665907000,17.129906982421875,8.693124771118164,7.302894592285156,-0.6915257573127747
1774789965684432100,17.14843212890625,9.877572059631348,6.97986364364624,-0.8183453679084778
1774789965702957600,17.16695751953125,10.561919212341309,6.960721015930176,-0.698704183101654
1774789965721482800,17.185482666015623,10.080962181091309,7.080362319946289,-0.5359922647476196
1774789965740008200,17.20400830078125,9.248259544372559,7.432106971740723,-0.5670989751815796
1774789965758533400,17.222533447265626,9.260223388671875,7.671389579772949,-0.7058826684951782
1774789965786321400,17.2503212890625,8.37966537475586,7.953742504119873,-0.638883650302887
1774789965804846600,17.2688466796875,7.499105930328369,8.073383331298828,0.7441678643226624
1774789965823372000,17.2873720703125,8.458627700805664,7.3986077308654785,1.4979069232940674
1774789965841897200,17.305897216796875,10.698309898376465,5.412564754486084,1.2394821643829346
1774789965860422700,17.324422607421877,12.710674285888672,3.5748770236968994,0.9068797826766968
1774789965878947800,17.34294775390625,12.598211288452148,3.0963125228881836,0.5742774605751038
1774789965897473300,17.361473388671875,10.408778190612793,4.510470867156982,0.4713860750198364
1774789965915998500,17.37999853515625,8.054241180419922,6.044270038604736,0.9643075466156006
1774789965934524000,17.39852392578125,6.532405853271484,6.948757171630859,1.7515461444854736
1774789965953049000,17.417049072265623,6.592226505279541,6.98704195022583,2.163111686706543
1774789965971574500,17.435574462890624,8.233702659606934,5.953342914581299,1.7635103464126587
1774789965990099700,17.454099609375,9.107083320617676,4.599005222320557,0.8303094506263733
1774789966017887700,17.4818876953125,7.824530124664307,3.895515203475952,-0.13639089465141296
1774789966036413200,17.5004130859375,6.592226505279541,4.077369689941406,-0.4953143000602722
1774789966054938400,17.5189384765625,5.589633464813232,4.110869407653809,-0.6580262184143066
1774789966073463800,17.5374638671875,4.965106964111328,4.335794448852539,-0.6508477330207825
1774789966091989000,17.555989013671876,4.8502516746521,4.625326156616211,-0.7513462901115417
1774789966110514400,17.574514404296874,5.032105922698975,4.6301116943359375,-0.7106683254241943
1774789966129039600,17.59303955078125,5.252245903015137,4.883750915527344,-0.5575276613235474
1774789966147565000,17.61156494140625,5.615954875946045,5.209175109863281,-0.3517449200153351
1774789966166090200,17.63009033203125,5.974878311157227,5.467599868774414,-0.059820566326379776
1774789966184615700,17.64861572265625,6.6113691329956055,5.917450428009033,0.13160525262355804
1774789966203140900,17.667140869140624,7.161718368530273,6.278766632080078,0.4139583110809326
1774789966221666300,17.685666259765625,7.36032247543335,6.532405853271484,0.5216353535652161
1774789966240191500,17.70419140625,7.357929706573486,6.833901405334473,0.1986042857170105
1774789966258717000,17.722717041015624,7.5565338134765625,7.063612461090088,-0.13639089465141296
1774789966277242000,17.7412421875,7.860422611236572,7.125825881958008,-0.5814558863639832
1774789966295767600,17.759767578125,8.542376518249512,7.247859954833984,-0.7082754969596863
1774789966314293000,17.77829296875,9.284152030944824,7.307680130004883,-0.5742774605751038
1774789966332818200,17.796818115234377,9.745966911315918,7.408178806304932,-0.4163511395454407
1774789966351343600,17.815343505859374,10.293923377990723,7.767102241516113,-0.44027936458587646
1774789966369868800,17.833868896484375,10.01156997680664,7.898707389831543,-1.2251251935958862
1774789966388394200,17.852394287109377,8.901300430297852,8.300702095031738,-2.5770699977874756
1774789966406919400,17.87091943359375,7.135396957397461,8.97787094116211,-3.3332018852233887
1774789966425444900,17.88944482421875,8.073383331298828,8.791230201721191,-2.4023938179016113
1774789966443970300,17.90797021484375,12.050254821777344,6.955935478210449,-0.5910272002220154
1774789966462495500,17.92649560546875,16.532011032104492,5.374279499053955,0.8350951075553894
1774789966481021000,17.94502099609375,15.859628677368164,4.125226020812988,0.37088751792907715
1774789966499546000,17.963546142578124,10.652846336364746,4.587040901184082,-1.031306505203247
1774789966518071600,17.982071533203126,6.209374904632568,5.733202934265137,-2.076970100402832
1774789966536596700,18.0005966796875,4.161118507385254,6.455835342407227,-2.117648124694824
1774789966555122200,18.0191220703125,5.367101192474365,5.764309883117676,-0.97148597240448
1774789966573647400,18.0376474609375,7.355536937713623,4.902893543243408,0.39481574296951294
1774789966592172800,18.0561728515625,8.748159408569336,4.383651256561279,1.1437692642211914
1774789966610698200,18.0746982421875,8.913264274597168,4.048655986785889,1.5409778356552124
1774789966629223400,18.093223388671873,8.14516830444336,3.88594388961792,1.4859428405761719
1774789966647748900,18.111748779296875,6.479763507843018,4.012763500213623,0.9260223507881165
1774789966666274000,18.130274169921876,5.304887771606445,4.01037073135376,0.31345975399017334
1774789966684799500,18.148799560546873,4.840680122375488,4.043870449066162,-0.1579262912273407
1774789966703324700,18.16732470703125,4.843072891235352,4.101297855377197,-0.349352091550827
1774789966721850000,18.18585009765625,4.945964336395264,4.366901397705078,-0.4737788736820221
1774789966740375600,18.20437548828125,4.73300313949585,4.862215518951416,-0.4019941985607147
1774789966758900700,18.222900634765626,4.400400638580322,5.216353416442871,-0.44027936458587646
1774789966777426200,18.24142626953125,4.4650068283081055,5.7858452796936035,-0.6101697683334351
1774789966795951400,18.259951416015625,5.350351333618164,6.149554252624512,-0.8446664214134216
1774789966814476800,18.278476806640626,6.25723123550415,6.305087566375732,-0.8303094506263733
1774789966833002200,18.297002197265623,7.152146816253662,6.561119556427002,-0.885344386100769
1774789966851527400,18.31552734375,8.12123966217041,6.7310099601745605,-0.9284151792526245
1774789966870052900,18.334052978515626,8.764909744262695,6.654439926147461,-1.0289137363433838
1774789966888578300,18.352578369140623,9.05444049835205,6.790830612182617,-1.2610175609588623
1774789966907103500,18.371103515625,9.506684303283691,7.032505512237549,-1.332802176475525
1774789966925629000,18.38962890625,9.561718940734863,6.836294174194336,-1.0959128141403198
1774789966944154400,18.408154296875,9.387042999267578,6.738188743591309,-0.97148597240448
1774789966962679600,18.426679443359376,9.305686950683594,7.051648139953613,-0.576670229434967
1774789966981205000,18.445205078125,9.274580955505371,7.417750358581543,-0.4139583110809326
1774789966999730200,18.463730224609375,7.920242786407471,7.9489569664001465,-0.4618147611618042
1774789967018255600,18.482255615234376,6.372086524963379,8.312665939331055,0.3326023519039154
1774789967036780800,18.50078076171875,8.21695327758789,7.975277900695801,2.139183521270752
1774789967055306200,18.51930615234375,12.217752456665039,6.821937561035156,3.6155550479888916
1774789967073831700,18.537831787109376,14.723037719726562,5.146961688995361,3.586841106414795
1774789967092356900,18.55635693359375,13.509876251220703,3.9625144004821777,1.7467604875564575
1774789967110882300,18.57488232421875,10.315458297729492,4.106083869934082,0.16510476171970367
1774789967129407700,18.59340771484375,7.405786037445068,4.996213912963867,0.14117653667926788
1774789967147933000,18.611932861328125,6.573083877563477,5.800201892852783,0.9260223507881165
1774789967166458400,18.630458251953126,7.317251682281494,5.505885124206543,1.332802176475525
1774789967184983800,18.64898388671875,7.680960655212402,4.895715236663818,0.7680960893630981
1774789967203509000,18.667509033203125,7.159325122833252,4.4482574462890625,-0.05742774158716202
1774789967222034400,18.686034423828126,6.463014125823975,4.417150497436523,-0.4546363055706024
1774789967240559900,18.704559814453123,5.781059741973877,4.587040901184082,-0.4905286431312561
1774789967259085000,18.7230849609375,5.529813289642334,4.48414945602417,-0.5623133182525635
1774789967277610500,18.741610595703126,5.527420520782471,4.689932346343994,-0.5479564070701599
1774789967296136000,18.760135986328127,5.374279499053955,4.768895626068115,-0.7680960893630981
1774789967314661000,18.7786611328125,5.173282623291016,4.864608287811279,-1.0504491329193115
1774789967333186600,18.7971865234375,5.2115678787231445,5.072783946990967,-0.9475577473640442
1774789967351711700,18.815711669921875,5.2043890953063965,5.469992637634277,-0.6317051649093628
1774789967370237200,18.8342373046875,5.893522262573242,5.730810165405273,-0.20099709928035736
1774789967388762600,18.8527626953125,6.558726787567139,5.79063081741333,0.16271193325519562
1774789967407287800,18.871287841796875,7.458428382873535,5.979663848876953,0.23210379481315613
1774789967425813200,18.889813232421876,7.755138397216797,6.022734642028809,0.09092725813388824
1774789967444338700,18.908338623046873,7.475177764892578,6.300302028656006,-0.33020952343940735
1774789967462864100,18.926864013671874,7.188039302825928,6.920042991638184,-0.4307080805301666
1774789967481389300,18.945389404296876,7.704888820648193,7.278966426849365,-0.3278166949748993
1774789967499914800,18.963914794921877,8.592626571655273,7.3914289474487305,-0.2632105052471161
1774789967518440200,18.982440185546874,9.710074424743652,7.487142086029053,-0.059820566326379776
1774789967536965400,19.00096533203125,10.315458297729492,7.6043901443481445,0.1818545162677765
1774789967555490800,19.01949072265625,10.612168312072754,7.685746192932129,-0.15553347766399384
1774789967574016300,19.038016357421874,10.576275825500488,8.015955924987793,-0.9068797826766968
1774789967592541400,19.05654150390625,9.856036186218262,8.34138011932373,-2.038684844970703
1774789967611067000,19.07506689453125,8.185846328735352,8.949156761169434,-2.799602508544922
1774789967629592300,19.09359228515625,8.93958568572998,8.681160926818848,-2.115255117416382
1774789967648117500,19.112117431640623,13.26102352142334,6.589833736419678,-0.6508477330207825
1774789967666643000,19.130642822265624,16.553546905517578,3.761517286300659,-0.363709032535553
1774789967685168400,19.14916845703125,14.285151481628418,2.691925525665283,-1.1389836072921753
1774789967703693800,19.16769384765625,9.131011009216309,3.6849467754364014,-2.4263222217559814
1774789967722219000,19.186218994140624,5.362315654754639,5.309673309326172,-2.6009981632232666
1774789967740744400,19.204744384765625,4.342973232269287,6.6113691329956055,-1.3878371715545654
1774789967759270000,19.223269775390627,5.077569484710693,6.580262184143066,0.36610186100006104
1774789967777795000,19.241795166015624,6.532405853271484,5.800201892852783,1.0552347898483276
1774789967796320500,19.260320556640625,8.157132148742676,4.816751956939697,0.6149554252624512
1774789967814846000,19.278845947265626,8.975478172302246,3.87876558303833,0.3278166949748993
1774789967833371100,19.29737109375,8.757730484008789,3.617947816848755,0.4546363055706024
1774789967851896600,19.315896484375,7.408178806304932,3.9433717727661133,0.7010970115661621
1774789967870422000,19.334422119140626,5.917450428009033,4.342973232269287,0.6221339106559753
1774789967888947500,19.352947509765624,4.9363932609558105,4.692325115203857,0.2679961323738098
1774789967907473000,19.371472900390625,4.596612453460693,4.462614059448242,-0.17706887423992157
1774789967925998000,19.389998046875,4.852644443511963,4.201796531677246,-0.5982056856155396
1774789967944523500,19.4085234375,5.410171985626221,4.4482574462890625,-0.6364908218383789
1774789967963049000,19.427049072265625,5.458028316497803,4.979464054107666,-0.26560330390930176
1774789967981574100,19.44557421875,5.1804609298706055,5.525027275085449,0.014356935396790504
1774789968000099600,19.464099609375,5.06082010269165,6.185446739196777,-0.10767702013254166
1774789968018625000,19.482625,5.0943193435668945,6.673582553863525,-0.4570291340351105
1774789968037150500,19.501150390625,5.465207099914551,6.6831536293029785,-0.8350951075553894
1774789968055675600,19.519675537109375,6.350551128387451,6.573083877563477,-0.8422735929489136
1774789968074201000,19.538201171875,7.125825881958008,6.8171515464782715,-0.8422735929489136
1774789968092726500,19.5567265625,8.310273170471191,6.893722057342529,-0.8949156403541565
1774789968111252000,19.575251953125,9.078369140625,7.118647575378418,-0.5168496966362
1774789968129777200,19.593777099609376,9.827322959899902,7.865208148956299,0.014356935396790504
1774789968148302600,19.612302490234374,9.68375301361084,8.525627136230469,0.6364908218383789
1774789968166828000,19.630828125,9.375079154968262,8.317451477050781,0.2632105052471161
1774789968185353500,19.649353515625,9.839286804199219,7.599604606628418,-1.00259268283844
1774789968203878700,19.667878662109374,9.628718376159668,7.513463020324707,-1.5146567821502686
1774789968222404000,19.686404052734375,9.623932838439941,6.975078105926514,-0.7034898400306702
1774789968240929500,19.704929443359376,10.590633392333984,6.826723098754883,0.6843472719192505
1774789968259455000,19.723455078125,12.689138412475586,6.10169792175293,1.210768222808838
1774789968277980400,19.74198046875,13.51705551147461,4.388436794281006,0.9786644577980042
1774789968296505600,19.760505615234376,12.418749809265137,3.445664644241333,-0.04785645380616188
1774789968315031000,19.779031005859373,9.674181938171387,3.9314076900482178,-0.7537391185760498
1774789968333556500,19.797556396484374,6.967899322509766,4.847858905792236,-0.5168496966362
1774789968352082000,19.81608203125,6.168696880340576,5.60399055480957,0.3278166949748993
1774789968370607000,19.834607177734377,7.2813591957092285,5.874379634857178,1.4859428405761719
1774789968389132500,19.853132568359374,8.654839515686035,5.474778175354004,1.7826528549194336
1774789968407658000,19.871657958984375,9.272188186645508,4.802394866943359,1.2275179624557495
1774789968426183400,19.890183349609377,8.764909744262695,4.47697114944458,0.3924229145050049
1774789968444708900,19.908708984375,7.645068168640137,4.3549370765686035,0.019142581149935722
1774789968463234000,19.927234130859375,6.592226505279541,3.900300979614258,-0.13160525262355804
1774789968481759500,19.945759521484376,5.560919761657715,3.845266103744507,-0.41874396800994873
1774789968500285000,19.964284912109374,5.065605640411377,3.8428730964660645,-0.8183453679084778
1774789968518810400,19.982810302734375,4.967499732971191,4.067798614501953,-0.9786644577980042
1774789968537335600,20.00133544921875,5.2043890953063965,4.311866283416748,-0.7513462901115417
1774789968555861000,20.019861083984374,5.79780912399292,4.709074974060059,-0.3038884699344635
1774789968574386400,20.038386474609375,5.838487148284912,5.07517671585083,-0.15314064919948578
1774789968592912000,20.056911865234376,6.151947021484375,5.254638671875,-0.17946170270442963
1774789968611437000,20.07543701171875,6.640082836151123,5.3934221267700195,0.038285162299871445
1774789968639225300,20.103225341796875,7.142575740814209,6.144768714904785,0.2273181527853012
1774789968657750800,20.121750732421877,7.140182971954346,6.410371780395508,-0.19621145725250244
1774789968676276000,20.14027587890625,7.389036178588867,6.597012042999268,-0.6867401003837585
1774789968694801400,20.158801513671875,7.992027759552002,6.608976364135742,-1.0265209674835205
1774789968713326800,20.177326904296876,8.595019340515137,6.790830612182617,-0.9020941257476807
1774789968731852300,20.195852294921874,10.04267692565918,6.936792850494385,-0.9068797826766968
1774789968750377500,20.21437744140625,10.782058715820312,6.876972198486328,-0.8925228714942932
1774789968768903000,20.23290283203125,10.64806079864502,7.118647575378418,-1.0552347898483276
1774789968787428400,20.251428466796874,10.01874828338623,7.501499176025391,-1.222732424736023
1774789968805953800,20.269953857421875,9.095118522644043,8.410771369934082,-1.7132610082626343
1774789968824479200,20.288479248046876,7.992027759552002,9.54496955871582,-1.770688772201538
1774789968843004700,20.307004638671874,8.078168869018555,9.4061861038208,-0.38763725757598877
1774789968861530000,20.325530029296875,10.853843688964844,7.915457248687744,0.4091726839542389
1774789968880055300,20.34405517578125,13.713266372680664,5.840879917144775,0.2392822653055191
1774789968898580700,20.362580810546874,12.949955940246582,4.338187217712402,-0.6340979933738708
1774789968917106200,20.381106201171875,9.370293617248535,4.54636287689209,-2.062613010406494
1774789968935631600,20.399631591796876,6.228517532348633,5.096712112426758,-3.187239646911621
1774789968954157000,20.418156982421873,5.577669620513916,5.290530681610107,-2.7421748638153076
1774789968972682500,20.4366826171875,7.683353424072266,5.039284706115723,-1.0671988725662231
1774789968991207700,20.455207763671876,10.009177207946777,4.742574691772461,-0.014356935396790504
1774789969009733000,20.473733154296873,10.98305606842041,4.438685894012451,0.6532405614852905
1774789969028258600,20.492258544921874,10.145567893981934,4.194618225097656,0.5264210104942322
1774789969046784000,20.510783935546876,8.475378036499023,3.988835334777832,-0.02153540402650833
1774789969065309400,20.529309326171877,7.109076023101807,3.768695592880249,-0.12681959569454193
1774789969083835000,20.5478349609375,6.537191390991211,3.7878382205963135,-0.19621145725250244
1774789969102360000,20.566360107421875,6.314659118652344,3.82373046875,-0.1339980661869049
1774789969120885500,20.584885498046877,5.893522262573242,3.7806596755981445,-0.10289137065410614
1774789969139411000,20.603410888671874,5.2283172607421875,3.759124279022217,-0.46420758962631226
1774789969157936400,20.621936279296875,4.398007869720459,3.9840497970581055,-0.760917603969574
1774789969176461800,20.6404619140625,3.9625144004821777,4.577469825744629,-0.851844847202301
1774789969194987000,20.658987060546874,4.07258415222168,5.225924491882324,-0.5910272002220154
1774789969213512400,20.677512451171875,4.374079704284668,5.618347644805908,-0.48095735907554626
1774789969232038000,20.696037841796876,4.984249591827393,5.78345251083374,-0.7800601720809937
1774789969250563300,20.714563232421874,5.953342914581299,6.056233882904053,-0.8901300430297852
1774789969269088800,20.7330888671875,6.573083877563477,6.252445697784424,-1.2299108505249023
1774789969287614200,20.7516142578125,6.9822564125061035,6.4701924324035645,-1.3878371715545654
1774789969306139400,20.770139404296874,7.5637125968933105,6.9344000816345215,-1.3782658576965332
1774789969324664800,20.788664794921875,9.016156196594238,7.314858913421631,-1.007378339767456
1774789969343190300,20.807190185546876,10.095318794250488,7.664210796356201,-0.38285163044929504
1774789969361715700,20.8257158203125,10.571490287780762,7.846065521240234,-0.0933200865983963
1774789969380241200,20.8442412109375,10.717453002929688,7.441678524017334,-0.09092725813388824
1774789969398766600,20.8627666015625,10.490134239196777,7.252645492553711,-0.34695929288864136
1774789969417291800,20.881291748046873,10.114460945129395,8.197810173034668,-0.45942193269729614
1774789969435817200,20.899817138671875,8.96112060546875,8.360522270202637,0.064606212079525
1774789969463605500,20.92760546875,9.396614074707031,7.22871732711792,1.3351950645446777
1774789969482131000,20.946130859375,11.58843994140625,5.649454116821289,1.4739787578582764
1774789969500656000,20.96465625,12.77767276763916,3.8907296657562256,0.9690931439399719
1774789969519181600,20.983181640625,11.554940223693848,2.957528829574585,-0.21296121180057526
1774789969537707000,21.00170703125,8.793622970581055,3.610769271850586,-0.7369893789291382
1774789969556232400,21.020232421875,7.276573657989502,4.878965377807617,0.16510476171970367
1774789969574758000,21.0387578125,7.623532772064209,5.79063081741333,1.765903115272522
1774789969593283300,21.057283447265625,8.123632431030273,5.726024627685547,2.3234307765960693
1774789969611808500,21.07580859375,7.936992645263672,5.675775527954102,1.7060825824737549
1774789969630334000,21.094333984375,7.302894592285156,5.254638671875,0.6436693072319031
1774789969648859400,21.112859375,6.8482584953308105,4.816751956939697,0.016749758273363113
1774789969667384800,21.131384765625,6.7621169090271,4.565505504608154,-0.44027936458587646
1774789969685910300,21.14991015625,6.530013084411621,4.512863636016846,-0.5647061467170715
1774789969704435700,21.168435791015625,6.240481376647949,4.610969066619873,-0.6867401003837585
1774789969722961200,21.186961181640626,6.142375946044922,5.015356063842773,-0.6029912829399109
1774789969741486300,21.205486328125,6.278766632080078,5.249852657318115,-0.33738797903060913
1774789969760011800,21.22401171875,6.252445697784424,5.276174068450928,-0.43549370765686035
1774789969778537200,21.242537109375,5.946164131164551,5.1876397132873535,-0.7441678643226624
1774789969797062700,21.261062744140624,5.8097734451293945,5.434100151062012,-0.5623133182525635
1774789969815588000,21.279588134765625,6.561119556427002,5.886343479156494,0.19381862878799438
1774789969834113500,21.298113525390626,7.401000499725342,5.819344520568848,0.5216353535652161
1774789969852638700,21.316638671875,7.920242786407471,5.391029357910156,0.4091726839542389
1774789969871164200,21.3351640625,7.501499176025391,5.635097503662109,-0.05503492057323456
1774789969889689600,21.353689697265626,6.953542709350586,6.087340831756592,-0.24167509377002716
1774789969908215000,21.372215087890623,6.922435760498047,6.415157318115234,0.016749758273363113
1774789969926740500,21.390740478515625,7.590033531188965,6.908079147338867,0.14835500717163086
1774789969945266000,21.409265869140626,8.350951194763184,6.836294174194336,0.2991028428077698
1774789969963791400,21.427791259765623,8.898907661437988,6.9104719161987305,0.44027936458587646
1774789969982316800,21.44631689453125,9.748359680175781,6.833901405334473,0.17706887423992157
1774789970000842200,21.46484228515625,10.219745635986328,6.891329288482666,-0.5599204897880554
1774789970019367400,21.483367431640627,9.047262191772461,7.750352382659912,-1.8855443000793457
1774789970037892900,21.501892822265624,6.64486837387085,8.944371223449707,-2.6321048736572266
1774789970056418300,21.520418212890625,6.089733600616455,8.922835350036621,-1.7922241687774658
1774789970074943700,21.53894384765625,9.863214492797852,7.317251682281494,-0.23449662327766418
1774789970093469200,21.55746923828125,14.904891967773438,5.309673309326172,0.30149564146995544
1774789970111994600,21.57599462890625,15.02453327178955,3.737588882446289,-0.31106695532798767
1774789970130520000,21.59452001953125,11.26062297821045,4.252045631408691,-1.856830358505249
1774789970149045500,21.61304541015625,7.802994728088379,5.209175109863281,-3.012563705444336
1774789970167571000,21.631571044921873,6.601797580718994,5.632704734802246,-2.6703901290893555
1774789970186096000,21.65009619140625,7.499105930328369,5.099104881286621,-1.552941918373108
1774789970204621600,21.66862158203125,9.265008926391602,5.034498691558838,-0.2871387302875519
1774789970223147000,21.68714697265625,9.963713645935059,4.776073932647705,0.21774685382843018
1774789970241672400,21.70567236328125,9.193224906921387,4.689932346343994,0.4426721930503845
1774789970260198000,21.724197998046876,8.037490844726562,4.910071849822998,0.7154539823532104
1774789970278723300,21.742723388671877,6.857829570770264,4.826323509216309,0.7513462901115417
1774789970297248500,21.76124853515625,5.711667537689209,4.639683246612549,0.2560320198535919
1774789970315774000,21.77977392578125,4.902893543243408,4.390829563140869,-0.46899324655532837
1774789970334299400,21.79829931640625,4.9531426429748535,4.347758769989014,-0.8638089895248413
1774789970352824800,21.816824951171874,5.4556355476379395,4.321437835693359,-0.7345965504646301
1774789970371350300,21.835350341796875,5.697310924530029,4.1970109939575195,-0.882951557636261
1774789970389875700,21.853875732421876,5.489135265350342,4.596612453460693,-1.0767701864242554
1774789970408401200,21.872401123046874,5.343173027038574,5.429314613342285,-0.849452018737793
1774789970426926300,21.89092626953125,5.670989513397217,6.168696880340576,-0.1866401731967926
1774789970445451800,21.90945166015625,6.613761901855469,6.740581512451172,0.397208571434021
1774789970463977200,21.927977294921874,7.223931789398193,6.831508636474609,0.33499518036842346
1774789970482502700,21.946502685546875,7.901100158691406,6.44387149810791,-0.3158525824546814
1774789970501028000,21.965028076171876,8.267202377319336,6.199803352355957,-0.9547362327575684
1774789970519553500,21.983553466796874,8.623732566833496,6.4941205978393555,-1.0241280794143677
1774789970538079000,22.002078857421875,9.281759262084961,6.788437843322754,-0.4546363055706024
1774789970556604400,22.0206044921875,10.03549861907959,6.920042991638184,0.09092725813388824
1774789970575129600,22.039129638671874,10.224531173706055,6.589833736419678,0.22971096634864807
1774789970593655000,22.057655029296875,9.382257461547852,6.463014125823975,-0.019142581149935722
1774789970612180500,22.076180419921876,9.090332984924316,7.094718933105469,-0.040677983313798904
1774789970630706000,22.094705810546873,8.396414756774902,7.893921852111816,-0.15074782073497772
1774789970649231400,22.1132314453125,6.436692714691162,8.322237014770508,0.17946170270442963
1774789970667756800,22.1317568359375,6.410371780395508,8.267202377319336,1.2251251935958862
1774789970686282200,22.1502822265625,9.05444049835205,7.860422611236572,2.7326035499572754
1774789970704807700,22.1688076171875,10.411170959472656,6.082555294036865,2.933600664138794
1774789970723333000,22.1873330078125,10.39920711517334,5.0943193435668945,1.373480200767517
1774789970741858300,22.2058583984375,9.20279598236084,5.221138954162598,-0.34217363595962524
1774789970760383700,22.2243837890625,7.8795647621154785,5.749952793121338,-0.48574298620224
1774789970778909200,22.2429091796875,7.3914289474487305,6.135197162628174,0.5647061467170715
1774789970797434600,22.2614345703125,7.927421569824219,6.173482418060303,1.2921242713928223
1774789970815960000,22.2799599609375,8.563912391662598,5.491528034210205,0.7728816866874695
1774789970834485500,22.298485595703124,8.2695951461792,4.807180881500244,-0.29431718587875366
1774789970853011000,22.317010986328125,8.176275253295898,5.058426856994629,-0.6508477330207825
1774789970871536000,22.3355361328125,8.042277336120605,5.4556355476379395,0.10767702013254166
1774789970890061600,22.3540615234375,6.8865437507629395,5.575276851654053,0.5288137793540955
1774789970908587000,22.3725869140625,5.831308841705322,5.498706340789795,0.02392822690308094
1774789970927112400,22.391112548828126,5.350351333618164,5.07517671585083,-0.6819544434547424
1774789970945638000,22.409637939453123,5.525027275085449,4.840680122375488,-0.916451096534729
1774789970964163300,22.428163330078124,5.508277893066406,4.962714195251465,-1.184447169303894
1774789970982688500,22.4466884765625,5.3934221267700195,5.558526992797852,-1.100698471069336
1774789971001214000,22.4652138671875,5.151747226715088,6.168696880340576,-1.0863415002822876
1774789971019739400,22.483739501953124,5.3694939613342285,6.5419769287109375,-0.5048855543136597
1774789971038264800,22.502264892578125,6.094519138336182,6.740581512451172,0.11485548317432404
1774789971056790300,22.520790283203127,6.888936519622803,6.6113691329956055,-0.11006984114646912
1774789971075315700,22.539315673828124,7.264609336853027,6.281159400939941,-0.5551348328590393
1774789971093841200,22.557841064453125,7.240681171417236,6.075376510620117,-1.0049854516983032
1774789971112366600,22.57636669921875,7.286144733428955,6.474977970123291,-1.1940184831619263
1774789971130892000,22.59489208984375,7.451249599456787,7.020541667938232,-0.8757730722427368
1774789971149417500,22.61341748046875,7.566105365753174,7.23589563369751,-0.6819544434547424
1774789971167943000,22.63194287109375,7.601997375488281,7.436892986297607,-0.7345965504646301
1774789971186468000,22.650468017578124,7.692924976348877,7.458428382873535,-0.7657032608985901
1774789971204993500,22.66899365234375,8.329415321350098,7.908278942108154,-0.4378865361213684
1774789971223519000,22.68751904296875,8.922835350036621,8.291130065917969,-0.38285163044929504
1774789971251307000,22.71530712890625,7.726424217224121,8.48734188079834,-1.6534404754638672
1774789971269832400,22.73383251953125,6.027520179748535,8.989834785461426,-2.4502503871917725
1774789971288358000,22.75235791015625,5.91505765914917,9.76989459991455,-2.117648124694824
1774789971306883300,22.77088330078125,9.1716890335083,9.059226989746094,-1.222732424736023
1774789971325408800,22.78940869140625,12.775279998779297,7.051648139953613,-0.9475577473640442
1774789971343934200,22.807934326171875,13.87358570098877,5.2737812995910645,-1.6055840253829956
1774789971362459400,22.82645947265625,11.657832145690918,4.907679080963135,-2.469393014907837
1774789971380984800,22.84498486328125,8.46580696105957,5.453242778778076,-2.4909284114837646
1774789971399510300,22.86351025390625,7.056434154510498,6.013163089752197,-1.7730815410614014
1774789971418035700,22.88203564453125,7.501499176025391,5.592026710510254,-1.153340458869934
1774789971436561200,22.90056103515625,8.319844245910645,5.285745143890381,-0.7369893789291382
1774789971455086600,22.919086669921874,8.207381248474121,5.120640277862549,-0.8638089895248413
1774789971473612000,22.937612060546876,7.350750923156738,4.957928657531738,-0.9978070259094238
1774789971492137500,22.956137451171877,6.865008354187012,4.919643402099609,-0.8327022790908813
1774789971510663000,22.974662841796874,7.032505512237549,5.024927616119385,-0.2273181527853012
1774789971529188000,22.99318798828125,7.195217609405518,5.0225348472595215,0.26081767678260803
1774789971547713500,23.011713623046877,6.642475605010986,5.125426292419434,0.3900300860404968
1774789971566239000,23.030239013671874,5.544169902801514,5.034498691558838,-0.009571290574967861
1774789971584764400,23.048764404296875,4.984249591827393,4.804787635803223,-0.45224347710609436
1774789971603289900,23.067289794921876,5.044070243835449,5.221138954162598,-0.43549370765686035
1774789971621815300,23.085815185546874,5.290530681610107,5.505885124206543,-0.10767702013254166
1774789971640340700,23.1043408203125,6.010770320892334,5.592026710510254,0.09092725813388824
1774789971658866000,23.122865966796876,6.223731517791748,5.520241737365723,0.016749758273363113
1774789971677391400,23.141391357421874,6.238088607788086,5.824130535125732,-0.09092725813388824
1774789971695916800,23.159916748046875,6.0610198974609375,5.812166213989258,-0.34695929288864136
1774789971714442200,23.178442138671876,5.864808082580566,6.135197162628174,-0.3852444589138031
1774789971732967700,23.1969677734375,6.283552169799805,6.750152587890625,-0.48813581466674805
1774789971751493000,23.2154931640625,6.721438884735107,6.680760860443115,-0.5886343717575073
1774789971770018300,23.234018310546876,6.91765022277832,6.599404811859131,-0.8973084688186646
1774789971788543700,23.252543701171874,7.51585578918457,6.893722057342529,-1.1485549211502075
1774789971807069200,23.271069091796875,8.310273170471191,7.013363361358643,-1.0815558433532715
1774789971825594600,23.2895947265625,8.709874153137207,7.192824840545654,-0.729810893535614
1774789971844120000,23.3081201171875,9.501898765563965,7.69531774520874,-0.2799602448940277
1774789971862645500,23.3266455078125,9.588040351867676,7.549355506896973,-0.10049854964017868
1774789971881171000,23.3451708984375,7.89631462097168,7.221538543701172,-0.5312066078186035
1774789971899696000,23.363696044921873,7.276573657989502,7.3914289474487305,-0.5120640397071838
1774789971918221600,23.3822216796875,9.934999465942383,6.606583118438721,0.5479564070701599
1774789971936747000,23.4007470703125,12.401999473571777,5.840879917144775,1.1940184831619263
1774789971955272400,23.4192724609375,13.24427318572998,5.584847927093506,0.9308080077171326
1774789971973798000,23.4377978515625,11.959327697753906,5.737988471984863,1.0169496536254883
1774789971992323300,23.4563232421875,9.856036186218262,6.063412666320801,1.093519926071167
1774789972010848800,23.474848876953125,8.551948547363281,6.252445697784424,1.2993026971817017
1774789972029374000,23.4933740234375,9.162117958068848,6.0777692794799805,1.5696916580200195
1774789972047899400,23.5118994140625,9.91825008392334,5.1182475090026855,1.2203395366668701
1774789972066424800,23.5304248046875,9.990034103393555,4.204189300537109,0.5814558863639832
1774789972084950300,23.5489501953125,9.19561767578125,4.027120590209961,0.26560330390930176
1774789972103475700,23.567475830078124,7.9728851318359375,4.467400074005127,0.23449662327766418
1774789972122001200,23.586001220703125,6.503692150115967,4.603790760040283,-0.009571290574967861
1774789972140526600,23.604526611328126,5.4556355476379395,4.522434711456299,-0.40677985548973083
1774789972159052000,23.623052001953123,5.266602516174316,4.716253280639648,-0.46899324655532837
1774789972177577500,23.641577392578125,6.056233882904053,4.893322467803955,-0.17946170270442963
1774789972196103000,23.66010302734375,6.329015731811523,5.010570526123047,0.10767702013254166
1774789972214628000,23.678628173828123,6.527620315551758,5.285745143890381,0.17946170270442963
1774789972233153500,23.697153564453124,6.561119556427002,5.556134223937988,0.09571290761232376
1774789972251679000,23.715678955078126,6.716653347015381,5.757131099700928,0.014356935396790504
1774789972270204400,23.734204345703127,7.130611419677734,5.86002254486084,0.01196411345154047
1774789972288729900,23.752729736328124,7.69531774520874,5.625525951385498,-0.17706887423992157
1774789972307255000,23.771255126953125,7.573283672332764,5.532206058502197,-0.5216353535652161
1774789972325780700,23.78978076171875,7.417750358581543,5.793023586273193,-0.727418065071106
1774789972344306000,23.808305908203124,7.080362319946289,5.814558982849121,-0.5144568681716919
1774789972362831400,23.826831298828125,6.829115867614746,6.288337707519531,-0.6364908218383789
1774789972381356800,23.845356689453126,6.652047157287598,7.618747234344482,-1.0049854516983032
1774789972399882200,23.86388232421875,7.164111137390137,8.532805442810059,-0.8638089895248413
1774789972418407700,23.88240771484375,8.676374435424805,8.190631866455078,-0.5670989751815796
1774789972436933000,23.90093310546875,9.877572059631348,7.657032489776611,-0.4331009089946747
1774789972455458300,23.919458251953124,10.504491806030273,7.590033531188965,-0.42831525206565857
1774789972473983700,23.937983642578125,10.06421184539795,7.668996810913086,-0.9020941257476807
1774789972492509200,23.95650927734375,9.07119083404541,8.025527000427246,-1.3902299404144287
1774789972511034600,23.97503466796875,7.0301127433776855,8.561519622802734,-2.1894326210021973
