time,seconds_elapsed,z,y,x
1774789947552964400,-0.98303564453125,-0.33518823981285095,-0.14365209639072418,0.2561795711517334
1774789947563004700,-0.972995361328125,8.635885238647461,12.428300857543945,-3.2752678394317627
1774789947582646300,-0.953353759765625,-0.45250412821769714,-0.035913024097681046,0.42856210470199585
1774789947592456200,-0.943543701171875,-0.48602294921875,0.28730419278144836,0.7015010714530945
1774789947602366000,-0.933634033203125,-0.5386953949928284,0.5746083855628967,0.7972691655158997
1774789947612406000,-0.923593994140625,-0.6344634294509888,0.7158663272857666,0.6607996821403503
1774789947622476800,-0.913523193359375,-0.44771572947502136,0.608127236366272,0.45010992884635925
1774789947632547800,-0.9034521484375,-0.43335050344467163,0.3495534360408783,0.19393034279346466
1774789947642588000,-0.893412109375,-0.2801215946674347,0.12928688526153564,0.10534487664699554
1774789947652658700,-0.88334130859375,-0.23942017555236816,0.019153613597154617,0.2082955539226532
1774789947692942000,-0.843057861328125,-0.2753331959247589,-0.023942016065120697,0.4572925269603729
1774789947713022500,-0.8229775390625,-0.031124621629714966,-0.07900865375995636,-0.043095629662275314
1774789947723093500,-0.812906494140625,-0.12210428714752197,-0.19153612852096558,-0.1843535304069519
1774789947733164300,-0.802835693359375,-0.19871874153614044,-0.1628057211637497,-0.13168109953403473
1774789947743204400,-0.792795654296875,-0.22026655077934265,-0.11971008777618408,-0.011971008032560349
1774789947753244700,-0.78275537109375,-0.10055647045373917,-0.20111294090747833,0.1843535304069519
1774789947763315500,-0.7726845703125,-0.07661445438861847,-0.08619125932455063,0.2777273952960968
1774789947813669600,-0.722330322265625,-0.07900865375995636,-0.31124621629714966,0.07900865375995636
1774789947823710000,-0.7122900390625,-0.05506663769483566,-0.4620809257030487,0.05027823522686958
1774789947833780700,-0.70221923828125,-0.21308395266532898,-0.3974374830722809,0.18914192914962769
1774789947853952800,-0.682047119140625,-0.24660277366638184,-0.047884032130241394,0.4668693244457245
1774789947864023600,-0.6719765625,-0.20111294090747833,0,0.3878606855869293
1774789947884104200,-0.651895751953125,-0.10773907601833344,-0.23702596127986908,-0.014365210197865963
1774789947894205400,-0.641794677734375,-0.18914192914962769,-0.16998831927776337,-0.035913024097681046
1774789947904276200,-0.631723876953125,-0.21547815203666687,-0.09816227108240128,0.08140286058187485
1774789947914377500,-0.62162255859375,-0.16519992053508759,-0.019153613597154617,0.22026655077934265
1774789947924448300,-0.6115517578125,-0.15801730751991272,-0.10295066982507706,0.33518823981285095
1774789947934519000,-0.60148095703125,-0.17956513166427612,-0.19632454216480255,0.26815059781074524
1774789947944590000,-0.591409912109375,-0.24181437492370605,-0.3734954595565796,0.15562310814857483
1774789947954660900,-0.581339111328125,-0.31124621629714966,-0.3998316824436188,0.0454898327589035
1774789947964731600,-0.571268310546875,-0.22744916379451752,-0.4381389021873474,0.035913024097681046
1774789947974802400,-0.561197509765625,-0.2753331959247589,-0.2944868206977844,-0.009576806798577309
1774789947994974500,-0.541025634765625,-0.27054479718208313,-0.028730420395731926,-0.10773907601833344
1774789948005075700,-0.53092431640625,-0.23942017555236816,0.011971008032560349,-0.12928688526153564
1774789948015146500,-0.520853515625,-0.12449848651885986,0.0454898327589035,-0.1628057211637497
1774789948025217300,-0.51078271484375,-0.12449848651885986,-0.08858546614646912,-0.13168109953403473
1774789948035257600,-0.500742431640625,-0.06224924325942993,-0.16519992053508759,-0.2513911724090576
1774789948045359000,-0.490640869140625,-0.1388636976480484,-0.10295066982507706,-0.33039984107017517
1774789948055460400,-0.48053955078125,-0.15322890877723694,-0.033518824726343155,-0.22744916379451752
1774789948065561600,-0.4704384765625,-0.17717093229293823,-0.033518824726343155,-0.19632454216480255
1774789948115976700,-0.420023193359375,0.05506663769483566,-0.08140286058187485,-0.035913024097681046
1774789948126047500,-0.409952392578125,-0.0933738648891449,-0.08379705995321274,-0.09816227108240128
1774789948136148700,-0.399851318359375,-0.10295066982507706,-0.016759412363171577,-0.1628057211637497
1774789948146250200,-0.389749755859375,-0.13168109953403473,-0.09576806426048279,-0.10534487664699554
1774789948156321000,-0.379678955078125,-0.17717093229293823,-0.016759412363171577,-0.023942016065120697
1774789948166391800,-0.369608154296875,-0.16998831927776337,0.1412578970193863,-0.009576806798577309
1774789948176462600,-0.359537353515625,-0.24660277366638184,0.14365209639072418,0.019153613597154617
1774789948206675000,-0.329324951171875,-0.05985504388809204,-0.07661445438861847,-0.031124621629714966
1774789948216776200,-0.319223876953125,-0.07422025501728058,-0.1628057211637497,0.026336219161748886
1774789948226847000,-0.309153076171875,-0.2059013396501541,-0.1843535304069519,0.05027823522686958
1774789948236917800,-0.299082275390625,-0.14365209639072418,-0.20111294090747833,0.08140286058187485
1774789948246988500,-0.289011474609375,-0.17956513166427612,-0.002394201699644327,0.016759412363171577
1774789948257090000,-0.278909912109375,-0.17956513166427612,0.0694318488240242,-0.0694318488240242
1774789948267160800,-0.268839111328125,-0.16998831927776337,0.004788403399288654,-0.11013327538967133
1774789948277201200,-0.258798828125,-0.12928688526153564,0.08379705995321274,-0.05027823522686958
1774789948317453800,-0.218546142578125,-0.1867477297782898,-0.12449848651885986,-0.014365210197865963
1774789948327524600,-0.208475341796875,-0.0933738648891449,-0.2777273952960968,-0.11252748221158981
1774789948337625900,-0.1983740234375,-0.15083470940589905,-0.26575639843940735,-0.033518824726343155
1774789948347727000,-0.18827294921875,-0.12449848651885986,-0.23702596127986908,0.038307227194309235
1774789948357798000,-0.1782021484375,-0.1604115068912506,-0.24899697303771973,0.0933738648891449
1774789948367838200,-0.168161865234375,-0.20350714027881622,-0.2753331959247589,0.06703764945268631
1774789948377939500,-0.158060546875,-0.181959331035614,-0.27054479718208313,0.12210428714752197
1774789948388041000,-0.147958984375,-0.13407529890537262,-0.2849099934101105,0.028730420395731926
1774789948428385000,-0.107614990234375,-0.05746084079146385,-0.08140286058187485,0.011971008032560349
1774789948438455800,-0.097544189453125,-0.014365210197865963,-0.1412578970193863,0.019153613597154617
1774789948448557300,-0.087442626953125,0.019153613597154617,-0.1867477297782898,0.06464344263076782
1774789948458628000,-0.077371826171875,-0.0454898327589035,-0.26096799969673157,-0.014365210197865963
1774789948468729300,-0.067270751953125,-0.0933738648891449,-0.24660277366638184,-0.021547814831137657
1774789948478739200,-0.0572607421875,-0.035913024097681046,-0.21308395266532898,0.0071826050989329815
1774789948488779500,-0.047220458984375,0.10295066982507706,-0.19632454216480255,0.035913024097681046
1774789948518961400,-0.01703857421875,-0.21308395266532898,-0.2298433631658554,-0.13407529890537262
1774789948529032200,-0.0069677734375,-0.2753331959247589,-0.13407529890537262,0
1774789948539072300,0.003072265625,-0.22266076505184174,-0.016759412363171577,0.12689268589019775
1774789948549173800,0.013173828125,-0.20111294090747833,0.031124621629714966,0.1388636976480484
1774789948559183400,0.023183349609375,-0.1388636976480484,-0.06703764945268631,0.15801730751991272
1774789948569223700,0.0332236328125,-0.16519992053508759,-0.22744916379451752,0.08858546614646912
1774789948579264000,0.043263916015625,-0.1364694982767105,-0.3447650372982025,0.05267243832349777
1774789948589334800,0.053334716796875,-0.1628057211637497,-0.5530605912208557,0.16519992053508759
1774789948599405600,0.063405517578125,-0.08619125932455063,-0.4572925269603729,0.1628057211637497
1774789948609446000,0.07344580078125,-0.16998831927776337,-0.2801215946674347,0.29209262132644653
1774789948639689000,0.10368896484375,-0.22266076505184174,0.17238251864910126,0.1149216815829277
1774789948649790200,0.113790283203125,-0.20350714027881622,0.20350714027881622,0.09816227108240128
1774789948659861000,0.123861083984375,-0.1843535304069519,0.16759411990642548,0.047884032130241394
1774789948669931800,0.133931884765625,-0.09816227108240128,0.10055647045373917,0.08140286058187485
1774789948679941600,0.143941650390625,-0.05027823522686958,-0.05506663769483566,0.14604631066322327
1774789948690012400,0.154012451171875,0.028730420395731926,-0.2106897532939911,0.08619125932455063
1774789948700083200,0.164083251953125,0.011971008032560349,-0.2944868206977844,0.12928688526153564
1774789948710154000,0.174154052734375,-0.16519992053508759,-0.31603461503982544,0.10295066982507706
1774789948750406700,0.21440673828125,-0.12210428714752197,0.2082955539226532,-0.0071826050989329815
1774789948760477400,0.2244775390625,-0.07900865375995636,0.24899697303771973,0.026336219161748886
1774789948770578700,0.23457861328125,-0.15322890877723694,0.13407529890537262,0.09816227108240128
1774789948780680000,0.244679931640625,-0.20111294090747833,0.13407529890537262,0.18914192914962769
1774789948790750700,0.254750732421875,-0.22744916379451752,0.028730420395731926,0.08619125932455063
1774789948800821800,0.26482177734375,-0.1412578970193863,-0.13168109953403473,0.08858546614646912
1774789948810892500,0.274892578125,-0.21308395266532898,-0.15083470940589905,0.06464344263076782
1774789948820993800,0.284993896484375,-0.2537853717803955,-0.13168109953403473,0.038307227194309235
1774789948841105000,0.30510498046875,-0.15322890877723694,0.05506663769483566,0.1604115068912506
1774789948861246500,0.32524658203125,-0.31124621629714966,0.15322890877723694,0.09576806426048279
1774789948871286800,0.335286865234375,-0.3687070608139038,0.16519992053508759,0.090979665517807
1774789948881388000,0.345387939453125,-0.3734954595565796,0.0933738648891449,0.15322890877723694
1774789948891489300,0.3554892578125,-0.38546648621559143,0.031124621629714966,0.13168109953403473
1774789948901560000,0.36556005859375,-0.3687070608139038,0.016759412363171577,0.19153612852096558
1774789948911661600,0.37566162109375,-0.2322375625371933,-0.043095629662275314,0.1628057211637497
1774789948921732400,0.385732421875,-0.2753331959247589,-0.18914192914962769,0.1628057211637497
1774789948952005600,0.416005615234375,-0.1628057211637497,-0.19871874153614044,0.14844051003456116
1774789948962046000,0.4260458984375,-0.2825157940387726,-0.11252748221158981,0.08858546614646912
1774789948972116700,0.43611669921875,-0.3064578175544739,-0.08619125932455063,0.1149216815829277
1774789948982187500,0.4461875,-0.22744916379451752,0.011971008032560349,0.14604631066322327
1774789948992289000,0.4562890625,-0.21308395266532898,-0.040701430290937424,0.10534487664699554
1774789949002329000,0.4663291015625,-0.11971008777618408,-0.0071826050989329815,0.0933738648891449
1774789949012430600,0.4764306640625,-0.05267243832349777,-0.06464344263076782,0.06464344263076782
1774789949022471000,0.486470947265625,0.0694318488240242,-0.15083470940589905,0.10055647045373917
1774789949032541700,0.496541748046875,0.13407529890537262,-0.304063618183136,0.13168109953403473
1774789949052683300,0.516683349609375,0.10534487664699554,-0.31603461503982544,0.033518824726343155
1774789949062754000,0.526754150390625,0.07422025501728058,-0.19153612852096558,0.08379705995321274
1774789949072855300,0.536855224609375,-0.026336219161748886,-0.14604631066322327,0.08619125932455063
1774789949082895600,0.5468955078125,-0.014365210197865963,-0.06224924325942993,0.15083470940589905
1774789949092996900,0.556996826171875,0.08619125932455063,-0.05985504388809204,0.05506663769483566
1774789949103067600,0.567067626953125,0.19153612852096558,-0.2801215946674347,-0.0071826050989329815
1774789949113138400,0.577138427734375,0.21787235140800476,-0.4644751250743866,-0.043095629662275314
1774789949123209200,0.587209228515625,0.11013327538967133,-0.45010992884635925,0
1774789949173593900,0.63759375,-0.06703764945268631,0.07900865375995636,-0.026336219161748886
1774789949183695000,0.647695068359375,-0.09576806426048279,-0.1149216815829277,-0.05506663769483566
1774789949193766000,0.657765869140625,-0.12928688526153564,-0.14604631066322327,-0.07661445438861847
1774789949203806200,0.66780615234375,-0.17477671802043915,-0.14365209639072418,-0.011971008032560349
1774789949213907700,0.67790771484375,-0.1867477297782898,-0.17717093229293823,-0.011971008032560349
1774789949224009000,0.688009033203125,-0.22505496442317963,-0.028730420395731926,0.07661445438861847
1774789949254221300,0.71822119140625,-0.1628057211637497,0.011971008032560349,-0.11252748221158981
1774789949274363000,0.73836279296875,-0.22505496442317963,0.090979665517807,-0.021547814831137657
1774789949284433700,0.74843359375,-0.13168109953403473,0.06464344263076782,-0.0454898327589035
1774789949294504400,0.75850439453125,-0.1628057211637497,0.08140286058187485,-0.12449848651885986
1774789949304606000,0.76860595703125,-0.19871874153614044,0.08379705995321274,-0.12689268589019775
1774789949314676700,0.7786767578125,-0.07661445438861847,0.11252748221158981,-0.040701430290937424
1774789949324747500,0.78874755859375,-0.05267243832349777,0.07182604819536209,0.026336219161748886
1774789949334818300,0.798818359375,-0.0933738648891449,-0.002394201699644327,0.009576806798577309
1774789949385263900,0.849263916015625,-0.19871874153614044,-0.021547814831137657,-0.12689268589019775
1774789949395365000,0.859365234375,-0.22266076505184174,-0.06464344263076782,-0.13407529890537262
1774789949405405400,0.869405517578125,-0.22026655077934265,-0.1388636976480484,-0.09576806426048279
1774789949415506700,0.879506591796875,-0.20111294090747833,-0.12449848651885986,0.043095629662275314
1774789949425577500,0.889577392578125,-0.20350714027881622,-0.20111294090747833,0.021547814831137657
1774789949435648300,0.899648193359375,-0.21547815203666687,-0.26815059781074524,0.05267243832349777
1774789949445688600,0.9096884765625,-0.26336219906806946,-0.3711012601852417,0.016759412363171577
1774789949475931400,0.939931396484375,-0.36152446269989014,0.0933738648891449,0.09576806426048279
1774789949496103700,0.960103759765625,-0.3711012601852417,0.09816227108240128,0.08858546614646912
1774789949506174500,0.970174560546875,-0.3280056416988373,0.15322890877723694,0.16519992053508759
1774789949516245200,0.980245361328125,-0.3016694188117981,0.05267243832349777,0.1388636976480484
1774789949526316000,0.99031591796875,-0.2082955539226532,0.040701430290937424,0.15083470940589905
1774789949536386800,1.00038671875,-0.19632454216480255,-0.09816227108240128,0.15562310814857483
1774789949546457600,1.01045751953125,-0.13168109953403473,-0.14844051003456116,0.14844051003456116
1774789949566599200,1.03059912109375,-0.1149216815829277,-0.2561795711517334,0.11252748221158981
1774789949576700700,1.04070068359375,-0.20350714027881622,-0.05746084079146385,0.15083470940589905
1774789949586771500,1.050771484375,-0.20350714027881622,-0.06464344263076782,0.23702596127986908
1774789949596842200,1.06084228515625,-0.2106897532939911,0.033518824726343155,0.1843535304069519
1774789949606943500,1.070943603515625,-0.07182604819536209,0.033518824726343155,0.1412578970193863
1774789949617044700,1.081044677734375,-0.07182604819536209,-0.004788403399288654,0.07661445438861847
1774789949627115500,1.091115478515625,0.028730420395731926,-0.14604631066322327,0.08858546614646912
1774789949647287800,1.111287841796875,0.038307227194309235,-0.26336219906806946,0.08379705995321274
1774789949687601400,1.151601318359375,-0.15562310814857483,-0.06464344263076782,0.0933738648891449
1774789949697702700,1.16170263671875,-0.090979665517807,-0.043095629662275314,0.10295066982507706
1774789949707773400,1.1717734375,-0.2082955539226532,0.040701430290937424,0.12210428714752197
1774789949717875000,1.181875,-0.20350714027881622,0.12210428714752197,0.12449848651885986
1774789949727945700,1.19194580078125,-0.19393034279346466,0.06464344263076782,0.07661445438861847
1774789949737986000,1.201986083984375,-0.13168109953403473,-0.033518824726343155,0.05027823522686958
1774789949748056800,1.212056884765625,-0.05027823522686958,-0.1628057211637497,-0.07182604819536209
1774789949758097200,1.22209716796875,-0.10295066982507706,-0.11013327538967133,-0.05985504388809204
1774789949818521900,1.28252197265625,-0.23942017555236816,-0.05985504388809204,-0.07661445438861847
1774789949828592600,1.292592529296875,-0.23702596127986908,-0.11252748221158981,-0.009576806798577309
1774789949838663400,1.302663330078125,-0.181959331035614,-0.1412578970193863,-0.047884032130241394
1774789949848764700,1.3127646484375,-0.17956513166427612,-0.1388636976480484,-0.033518824726343155
1774789949858866200,1.3228662109375,-0.18914192914962769,-0.07422025501728058,-0.038307227194309235
1774789949868937000,1.33293701171875,-0.28969839215278625,-0.06464344263076782,0.043095629662275314
1774789949879007700,1.3430078125,-0.19632454216480255,0.016759412363171577,-0.035913024097681046
1774789949889048000,1.353048095703125,-0.2059013396501541,-0.07661445438861847,-0.08619125932455063
1774789949899118800,1.363118896484375,-0.11252748221158981,-0.0454898327589035,-0.07900865375995636
1774789949909189600,1.373189697265625,-0.15083470940589905,-0.090979665517807,0.05746084079146385
1774789949919260400,1.383260498046875,-0.1843535304069519,-0.05267243832349777,0.0694318488240242
1774789949929300700,1.39330078125,-0.12689268589019775,-0.026336219161748886,0.019153613597154617
1774789949939371500,1.40337158203125,-0.10534487664699554,-0.14365209639072418,-0.028730420395731926
1774789949949442300,1.4134423828125,-0.11252748221158981,-0.12689268589019775,-0.05506663769483566
1774789949989786400,1.453786376953125,-0.11013327538967133,-0.10055647045373917,0.06464344263076782
1774789950009928200,1.47392822265625,-0.18914192914962769,-0.040701430290937424,0.07661445438861847
1774789950019968300,1.48396826171875,-0.17717093229293823,0,0.014365210197865963
1774789950030069800,1.49406982421875,-0.2585737705230713,-0.019153613597154617,0.05985504388809204
1774789950040171000,1.5041708984375,-0.15562310814857483,-0.021547814831137657,0.038307227194309235
1774789950050180900,1.514180908203125,-0.033518824726343155,-0.0694318488240242,0.035913024097681046
1774789950060251600,1.524251708984375,-0.038307227194309235,0.014365210197865963,0.07661445438861847
1774789950070322400,1.534322509765625,-0.10055647045373917,0.10773907601833344,0.1388636976480484
1774789950100534800,1.56453466796875,-0.10534487664699554,-0.05746084079146385,0.14365209639072418
1774789950110605600,1.57460546875,0.023942016065120697,-0.09576806426048279,0.10295066982507706
1774789950120706800,1.584706787109375,-0.035913024097681046,-0.08379705995321274,0.035913024097681046
1774789950130747100,1.5947470703125,0.021547814831137657,-0.09576806426048279,0.07422025501728058
1774789950140818000,1.60481787109375,0.031124621629714966,-0.12689268589019775,0.002394201699644327
1774789950150919400,1.61491943359375,0.026336219161748886,-0.13407529890537262,0.009576806798577309
1774789950160990200,1.624990234375,0.0071826050989329815,-0.2059013396501541,0.031124621629714966
1774789950171030300,1.6350302734375,0.06703764945268631,-0.22744916379451752,0.014365210197865963
1774789950191202600,1.65520263671875,0.06224924325942993,-0.2082955539226532,-0.011971008032560349
1774789950211374600,1.67537451171875,-0.014365210197865963,-0.17956513166427612,0.011971008032560349
1774789950221445400,1.6854453125,-0.11971008777618408,-0.11252748221158981,-0.021547814831137657
1774789950231546600,1.695546630859375,-0.09816227108240128,-0.13168109953403473,0.05985504388809204
1774789950241648000,1.705648193359375,-0.13407529890537262,-0.0933738648891449,-0.040701430290937424
1774789950251688400,1.7156884765625,-0.181959331035614,-0.13407529890537262,0.023942016065120697
1774789950261759200,1.72575927734375,-0.21308395266532898,-0.10055647045373917,0.019153613597154617
1774789950271860500,1.735860595703125,-0.2992752194404602,0.0071826050989329815,0.019153613597154617
1774789950292002000,1.756001953125,-0.3447650372982025,-0.002394201699644327,0.11252748221158981
1774789950312143600,1.7761435546875,-0.3687070608139038,-0.004788403399288654,0.043095629662275314
1774789950322214400,1.78621435546875,-0.3280056416988373,-0.0071826050989329815,0.07182604819536209
1774789950342417200,1.806417236328125,-0.31364041566848755,-0.05267243832349777,-0.002394201699644327
1774789950352488000,1.816488037109375,-0.2992752194404602,-0.22026655077934265,-0.1364694982767105
1774789950362589200,1.826589111328125,-0.3208230137825012,-0.2346317619085312,-0.14365209639072418
1774789950372690400,1.8366904296875,-0.2849099934101105,-0.17956513166427612,-0.09576806426048279
1774789950413034800,1.87703466796875,-0.22505496442317963,-0.07422025501728058,0.026336219161748886
1774789950423105500,1.88710546875,-0.22744916379451752,-0.14604631066322327,0.07661445438861847
1774789950433176300,1.89717626953125,-0.2322375625371933,-0.26096799969673157,0.06703764945268631
1774789950443216600,1.907216552734375,-0.2059013396501541,-0.19632454216480255,-0.040701430290937424
1774789950453318000,1.91731787109375,-0.272938996553421,-0.12689268589019775,0.023942016065120697
1774789950473459700,1.937459716796875,-0.16759411990642548,0.035913024097681046,0.06224924325942993
1774789950483469300,1.94746923828125,-0.10295066982507706,0.10055647045373917,0.014365210197865963
1774789950493540000,1.9575400390625,-0.20350714027881622,0.07900865375995636,0.0071826050989329815
1774789950513712400,1.97771240234375,-0.06224924325942993,-0.009576806798577309,0.07900865375995636
1774789950523722000,1.987721923828125,-0.12689268589019775,-0.05985504388809204,0.090979665517807
1774789950533792800,1.997792724609375,-0.10534487664699554,-0.011971008032560349,0.13168109953403473
1774789950543863600,2.007863525390625,-0.090979665517807,-0.10055647045373917,0.10534487664699554
1774789950553965000,2.017965087890625,-0.10534487664699554,-0.0071826050989329815,0.1364694982767105
1774789950563974700,2.027974609375,-0.0933738648891449,-0.08858546614646912,0.10295066982507706
1774789950574076200,2.038076171875,-0.09576806426048279,-0.15801730751991272,0.10055647045373917
1774789950594217700,2.0582177734375,-0.05027823522686958,-0.0933738648891449,0.09576806426048279
1774789950644541200,2.108541259765625,-0.1388636976480484,-0.2537853717803955,0.1412578970193863
1774789950654612000,2.118612060546875,-0.15562310814857483,-0.26575639843940735,0.17956513166427612
1774789950664682800,2.128682861328125,-0.12928688526153564,-0.1867477297782898,0.1843535304069519
1774789950674753500,2.13875341796875,-0.10534487664699554,-0.0071826050989329815,0.15083470940589905
1774789950684824300,2.14882421875,-0.16519992053508759,0.016759412363171577,0.12210428714752197
1774789950694925600,2.158925537109375,-0.2059013396501541,-0.05506663769483566,0.07422025501728058
1774789950704966000,2.1689658203125,-0.0933738648891449,0.040701430290937424,0.08619125932455063
1774789950715036700,2.17903662109375,-0.1867477297782898,-0.10773907601833344,0.10534487664699554
1774789950765482200,2.229482177734375,-0.21547815203666687,0.090979665517807,0.05027823522686958
1774789950775553000,2.239552978515625,-0.2801215946674347,0.047884032130241394,0.047884032130241394
1774789950785623800,2.249623779296875,-0.23942017555236816,0.090979665517807,0.033518824726343155
1774789950795725300,2.259725341796875,-0.17956513166427612,-0.12449848651885986,0.17717093229293823
1774789950805765400,2.269765380859375,-0.11013327538967133,-0.12928688526153564,0.10773907601833344
1774789950815867000,2.279866943359375,-0.07661445438861847,-0.2801215946674347,0.12689268589019775
1774789950825907200,2.2899072265625,-0.1412578970193863,-0.16519992053508759,0.07661445438861847
1774789950876322000,2.340322021484375,-0.2298433631658554,-0.1388636976480484,0.1149216815829277
1774789950886423600,2.350423583984375,-0.16759411990642548,-0.12689268589019775,0.26815059781074524
1774789950896494300,2.360494384765625,-0.19153612852096558,-0.10295066982507706,0.19632454216480255
1774789950906595600,2.370595703125,-0.2059013396501541,0.028730420395731926,0.181959331035614
1774789950916666400,2.380666259765625,-0.29209262132644653,-0.019153613597154617,0.15801730751991272
1774789950926737200,2.390737060546875,-0.42616790533065796,0.031124621629714966,0.23702596127986908
1774789950956949500,2.420949462890625,-0.2968810200691223,0.12449848651885986,0.4644751250743866
1774789950967051000,2.431051025390625,-0.31842881441116333,0.038307227194309235,0.47405192255973816
1774789950977121800,2.441121826171875,-0.31603461503982544,0,0.3878606855869293
1774789950987223000,2.45122314453125,-0.21787235140800476,-0.10773907601833344,0.35913026332855225
1774789950997293800,2.4612939453125,-0.1364694982767105,-0.12689268589019775,0.31124621629714966
1774789951007395000,2.47139501953125,-0.08140286058187485,-0.15083470940589905,0.2561795711517334
1774789951017465900,2.4814658203125,0.021547814831137657,-0.1364694982767105,0.21547815203666687
1774789951027567400,2.4915673828125,-0.038307227194309235,0.002394201699644327,0.2346317619085312
1774789951037638100,2.50163818359375,-0.05985504388809204,-0.026336219161748886,0.22505496442317963
1774789951078043400,2.54204345703125,-0.08140286058187485,-0.15322890877723694,0.2346317619085312
1774789951088114200,2.5521142578125,-0.08379705995321274,-0.2082955539226532,0.2825157940387726
1774789951098154500,2.562154541015625,0,-0.12689268589019775,0.26336219906806946
1774789951108225300,2.572225341796875,-0.10534487664699554,-0.031124621629714966,0.26096799969673157
1774789951128366800,2.592366943359375,-0.2513911724090576,0.23702596127986908,0.20350714027881622
1774789951138407200,2.6024072265625,-0.15562310814857483,0.2968810200691223,0.24660277366638184
1774789951158579200,2.6225791015625,-0.18914192914962769,0.22505496442317963,0.040701430290937424
1774789951168650000,2.63264990234375,-0.2106897532939911,0.24899697303771973,0.038307227194309235
1774789951178720800,2.642720703125,-0.14365209639072418,0.12928688526153564,0.08140286058187485
1774789951188791600,2.65279150390625,-0.2968810200691223,0.10055647045373917,0.035913024097681046
1774789951198862300,2.6628623046875,-0.3495534360408783,0.11013327538967133,0.09576806426048279
1774789951208933000,2.67293310546875,-0.4429273009300232,0.11971008777618408,0.07182604819536209
1774789951219004000,2.68300390625,-0.31842881441116333,0.26575639843940735,0.023942016065120697
1774789951229075000,2.693074951171875,-0.4189853072166443,0.3974374830722809,0
1774789951239176200,2.70317626953125,-0.43335050344467163,0.49799394607543945,0.035913024097681046
1774789951289560600,2.753560546875,-0.33279404044151306,-0.038307227194309235,0.004788403399288654
1774789951299662000,2.763662109375,-0.31603461503982544,0.031124621629714966,0.06703764945268631
1774789951309732900,2.77373291015625,-0.35673606395721436,0.1149216815829277,0.06464344263076782
1774789951319803600,2.7838037109375,-0.40701428055763245,0.07900865375995636,0.05746084079146385
1774789951329874400,2.79387451171875,-0.3663128614425659,0.021547814831137657,0.08619125932455063
1774789951339945200,2.8039453125,-0.26575639843940735,-0.07422025501728058,0.06464344263076782
1774789951350016000,2.81401611328125,-0.1388636976480484,-0.26096799969673157,0.07182604819536209
1774789951360056300,2.824056396484375,-0.12689268589019775,-0.3423708379268646,0.10773907601833344
1774789951390299100,2.854299072265625,-0.24181437492370605,-0.3064578175544739,0.1173158809542656
1774789951400370000,2.864369873046875,-0.19153612852096558,-0.21308395266532898,0.14844051003456116
1774789951410471400,2.874471435546875,-0.19632454216480255,-0.16998831927776337,0.15801730751991272
1774789951420572700,2.88457275390625,-0.19393034279346466,-0.0071826050989329815,0.20350714027881622
1774789951430643500,2.8946435546875,-0.10534487664699554,0.031124621629714966,0.21787235140800476
1774789951450846000,2.914845947265625,0.002394201699644327,-0.06464344263076782,0.2585737705230713
1774789951460916700,2.924916748046875,0.035913024097681046,-0.0071826050989329815,0.24660277366638184
1774789951501200100,2.9652001953125,-0.05506663769483566,0.11013327538967133,0.3663128614425659
1774789951511301400,2.97530126953125,0.004788403399288654,0.24899697303771973,0.38307225704193115
1774789951521372200,2.9853720703125,-0.16759411990642548,0.3687070608139038,0.21308395266532898
1774789951531443000,2.99544287109375,-0.08379705995321274,0.4429273009300232,0.24899697303771973
1774789951541513700,3.005513671875,-0.08379705995321274,0.47644615173339844,0.12210428714752197
1774789951551584500,3.01558447265625,-0.004788403399288654,0.3471592366695404,0.2059013396501541
1774789951561686000,3.02568603515625,0.08858546614646912,0.2513911724090576,0.14844051003456116
1774789951602030000,3.066030029296875,0.42377370595932007,-0.16998831927776337,-0.004788403399288654
1774789951612131600,3.076131591796875,0.48602294921875,-0.3687070608139038,-0.13407529890537262
1774789951622202400,3.086202392578125,0.6153098344802856,-0.45489832758903503,-0.15562310814857483
1774789951632273200,3.096273193359375,0.6512228846549988,-0.42856210470199585,-0.2346317619085312
1774789951642374400,3.10637451171875,0.7781155705451965,-0.35673606395721436,-0.2346317619085312
1774789951652414700,3.116414794921875,0.9648633003234863,-0.2825157940387726,-0.4141969084739685
1774789951662485500,3.126485595703125,0.9888052940368652,-0.3663128614425659,-0.3902548849582672
1774789951712809000,3.17680908203125,0.9313444495201111,-0.24420857429504395,-1.278503656387329
1774789951722879700,3.186879638671875,0.7733271718025208,-0.0933738648891449,-1.1779472827911377
1774789951732981000,3.19698095703125,0.7589619159698486,-0.1388636976480484,-1.1252747774124146
1774789951742990800,3.206990966796875,0.7805097699165344,-0.17238251864910126,-1.1013327836990356
1774789951753061600,3.2170615234375,0.6727706789970398,-0.33279404044151306,-1.1348515748977661
1774789951763163000,3.227162841796875,0.5506663918495178,-0.4692635238170624,-1.2066776752471924
1774789951773233700,3.237233642578125,0.26815059781074524,-0.3878606855869293,-1.3215993642807007
1774789951823679200,3.28767919921875,-0.4572925269603729,0.11971008777618408,-1.1228805780410767
1774789951833780700,3.29778076171875,-0.4908113479614258,-0.019153613597154617,-0.933738648891449
1774789951843882000,3.307882080078125,-0.40940847992897034,-0.23942017555236816,-0.7805097699165344
1774789951853952800,3.317952880859375,-0.2753331959247589,-0.4836287498474121,-0.6727706789970398
1774789951864023600,3.3280234375,-0.26336219906806946,-0.6751648783683777,-0.5003881454467773
1774789951874124800,3.338124755859375,-0.36152446269989014,-0.8020575642585754,-0.42377370595932007
1774789951884195600,3.348195556640625,-0.363918662071228,-0.7852981686592102,-0.35673606395721436
1774789951934519000,3.39851904296875,-0.790086567401886,-0.272938996553421,-0.12449848651885986
1774789951944590000,3.408590087890625,-0.8858546018600464,-0.304063618183136,0.035913024097681046
1774789951954691300,3.41869140625,-0.9385270476341248,-0.3998316824436188,0.2753331959247589
1774789951974833000,3.4388330078125,-1.0558429956436157,-0.40222588181495667,0.49559974670410156
1774789951984873200,3.448873291015625,-1.0773907899856567,-0.4381389021873474,0.4812345504760742
1774789952004953600,3.46895361328125,-1.0678139925003052,-0.27054479718208313,0.5674257874488831
1774789952015055000,3.47905517578125,-1.0989385843276978,-0.13407529890537262,0.689530074596405
1774789952025126000,3.4891259765625,-1.1899182796478271,0.040701430290937424,0.7733271718025208
1774789952035196700,3.49919677734375,-1.2282254695892334,0.19153612852096558,0.7493851184844971
1774789952045206500,3.50920654296875,-1.1971008777618408,0.37828385829925537,0.7254431247711182
1774789952055307800,3.519307861328125,-1.0797849893569946,0.5027823448181152,0.5937620401382446
1774789952065348000,3.52934814453125,-0.9624691009521484,0.49799394607543945,0.6153098344802856
1774789952075419000,3.5394189453125,-1.05105459690094,0.42377370595932007,0.4836287498474121
1774789952085428500,3.549428466796875,-1.05105459690094,0.37828385829925537,0.47884035110473633
1774789952125712000,3.5897119140625,-0.545877993106842,0.31603461503982544,0.6416460275650024
1774789952135782700,3.59978271484375,-0.5410895943641663,0.2513911724090576,0.6560112833976746
1774789952145853400,3.609853515625,-0.5434837937355042,0.3687070608139038,0.5674257874488831
1774789952155924200,3.61992431640625,-0.6392518281936646,0.5386953949928284,0.6871358752250671
1774789952165964500,3.629964599609375,-0.689530074596405,0.7182605266571045,0.7565677165985107
1774789952176065800,3.640065673828125,-0.7110779285430908,0.727837324142456,0.8020575642585754
1774789952186106000,3.650106201171875,-0.569819986820221,0.8762778043746948,0.8331822156906128
1774789952196177000,3.660177001953125,-0.6200982332229614,0.7924807667732239,0.8259995579719543
1774789952206247700,3.67024755859375,-0.5793967843055725,0.8738836050033569,0.8595184087753296
1774789952216349000,3.680348876953125,-0.6105214357376099,0.8547300100326538,0.8571242094039917
1774789952286844700,3.7508447265625,-0.0694318488240242,0.6967126727104187,0.4357447028160095
1774789952296915500,3.76091552734375,0.016759412363171577,0.5195417404174805,0.3280056416988373
1774789952327127800,3.7911279296875,0.33279404044151306,0.17717093229293823,0.2082955539226532
1774789952357279200,3.821279296875,0.6847416758537292,0.033518824726343155,0.1843535304069519
1774789952377481700,3.841481689453125,0.7948749661445618,0.11252748221158981,0.181959331035614
1774789952387552500,3.851552490234375,0.7757213711738586,0.23942017555236816,0.21787235140800476
1774789952397654000,3.861654052734375,0.7972691655158997,0.3495534360408783,0.10055647045373917
1774789952407724800,3.871724853515625,0.8092401623725891,0.3711012601852417,0.08858546614646912
1774789952417795600,3.881795654296875,0.811634361743927,0.21787235140800476,0.15322890877723694
1774789952468149500,3.9321494140625,2.0422539710998535,-1.1420341730117798,-0.2322375625371933
1774789952478250800,3.942250732421875,2.2026655673980713,-1.4915876388549805,-0.7613561153411865
1774789952488321500,3.952321533203125,2.10210919380188,-1.7549498081207275,-1.1468225717544556
1774789952498392600,3.962392578125,1.9728221893310547,-1.845929503440857,-1.1899182796478271
1774789952508493800,3.972493896484375,1.7501614093780518,-1.821987509727478,-1.1037269830703735
1774789952518595000,3.982594970703125,1.7381904125213623,-1.601720929145813,-1.1324573755264282
1774789952528635400,3.992635498046875,1.5418659448623657,-1.338358759880066,-1.0845733880996704
1774789952558817300,4.0228173828125,0.10295066982507706,-0.8092401623725891,-0.6631938815116882
1774789952568918500,4.03291845703125,-0.3447650372982025,-0.9026140570640564,-0.11252748221158981
1774789952579019800,4.043019775390625,-0.40462008118629456,-1.2186486721038818,0.3734954595565796
1774789952589090800,4.0530908203125,-0.31603461503982544,-1.5059528350830078,0.7326257228851318
1774789952599161600,4.06316162109375,-0.05267243832349777,-1.721431016921997,0.7038952708244324
1774789952609232400,4.073232421875,0.07422025501728058,-1.8914192914962769,0.42616790533065796
1774789952619303200,4.08330322265625,-0.08858546614646912,-2.0398597717285156,0.3280056416988373
1774789952649515500,4.113515625,-0.08379705995321274,-2.099714994430542,0.43335050344467163
1774789952669657000,4.133656982421875,0.20350714027881622,-2.10210919380188,-0.009576806798577309
1774789952679758300,4.14375830078125,0.3687070608139038,-2.1116859912872314,-0.11971008777618408
1774789952689829000,4.1538291015625,0.4405331015586853,-2.2577321529388428,-0.18914192914962769
1774789952699869400,4.163869384765625,0.45010992884635925,-2.2026655673980713,-0.27054479718208313
1774789952709909800,4.17390966796875,0.33039984107017517,-2.2242133617401123,-0.2992752194404602
1774789952750223600,4.2142236328125,-0.751779317855835,-1.0414776802062988,0.09576806426048279
1774789952770334500,4.23433447265625,-1.2090718746185303,-0.569819986820221,0.2106897532939911
1774789952780436000,4.24443603515625,-1.3000515699386597,-0.4381389021873474,0.3471592366695404
1774789952790506800,4.2545068359375,-1.3862427473068237,-0.3447650372982025,0.4405331015586853
1774789952800547000,4.264547119140625,-1.4676456451416016,-0.33997663855552673,0.5315127968788147
1774789952810556700,4.274556640625,-1.5322890281677246,-0.19153612852096558,0.6344634294509888
1774789952820658200,4.284658203125,-1.601720929145813,-0.21787235140800476,0.8164227604866028
1774789952830729000,4.29472900390625,-1.6376339197158813,-0.028730420395731926,0.9576807022094727
1774789952850931500,4.314931396484375,-1.8794482946395874,0.23942017555236816,1.0342950820922852
1774789952861032700,4.32503271484375,-1.7118542194366455,0.2944868206977844,1.0797849893569946
1774789952871103700,4.335103759765625,-1.6065093278884888,0.2537853717803955,0.9481038451194763
1774789952891275800,4.35527587890625,-0.9409212470054626,-0.2322375625371933,0.9361328482627869
1774789952901377000,4.365376953125,-0.6991068720817566,-0.31842881441116333,0.8164227604866028
1774789952911447800,4.37544775390625,-0.5482721924781799,-0.40701428055763245,0.6871358752250671
1774789952921518600,4.3855185546875,-0.4572925269603729,-0.35913026332855225,0.5937620401382446
1774789952931589400,4.39558935546875,-0.3495534360408783,-0.16519992053508759,0.5602431893348694
1774789952941691000,4.40569091796875,-0.2298433631658554,-0.09816227108240128,0.5171475410461426
1774789952971903200,4.4359033203125,0.26336219906806946,0.028730420395731926,0.2322375625371933
1774789952982004500,4.44600439453125,0.44532153010368347,-0.047884032130241394,0.24181437492370605
1774789952992075300,4.4560751953125,0.5554547905921936,-0.11971008777618408,0.2801215946674347
1774789953002146000,4.46614599609375,0.6272808313369751,-0.05985504388809204,0.22505496442317963
1774789953022318300,4.486318359375,0.5123591423034668,0.10295066982507706,0.19393034279346466
1774789953032389000,4.49638916015625,0.5626373887062073,0.21547815203666687,0.19393034279346466
1774789953042460000,4.5064599609375,0.6751648783683777,0.36152446269989014,0.10534487664699554
1774789953052530700,4.51653076171875,0.7829039692878723,0.42377370595932007,0.05027823522686958
1774789953092874800,4.556874755859375,1.742978811264038,0.07900865375995636,-0.47165772318840027
1774789953102945800,4.56694580078125,1.9560627937316895,0.10534487664699554,-0.7948749661445618
1774789953113047000,4.577047119140625,1.8363527059555054,0.0933738648891449,-1.4197616577148438
1774789953123148300,4.587148193359375,1.845929503440857,0.07422025501728058,-1.403002142906189
1774789953133219000,4.597218994140625,1.381454348564148,0.17717093229293823,-1.9057846069335938
1774789953143289900,4.607289794921875,1.381454348564148,0.181959331035614,-2.1356279850006104
1774789953153330200,4.617330078125,1.4269442558288574,0,-2.030282974243164
1774789953183512000,4.647511962890625,1.824381709098816,-1.436521053314209,-1.946485996246338
1774789953203623200,4.667623046875,1.048660397529602,-1.479616641998291,-2.0877439975738525
1774789953213694000,4.67769384765625,0.6033388376235962,-1.2186486721038818,-1.9823989868164062
1774789953223795200,4.687795166015625,0.24660277366638184,-0.8906430602073669,-1.7741034030914307
1774789953233866000,4.697865966796875,0.11013327538967133,-0.6105214357376099,-1.778891921043396
1774789953243936800,4.707936767578125,-0.07422025501728058,-0.4596867263317108,-1.764526605606079
1774789953253977000,4.71797705078125,-0.1843535304069519,-0.4836287498474121,-1.9081788063049316
1774789953294199300,4.75819921875,-0.7350199222564697,-0.9313444495201111,-1.4867992401123047
1774789953304300500,4.768300537109375,-0.8068459630012512,-0.828393816947937,-1.115697979927063
1774789953314371300,4.778371337890625,-0.6847416758537292,-0.7565677165985107,-0.730231523513794
1774789953324442400,4.7884423828125,-0.44771572947502136,-0.689530074596405,-0.40222588181495667
1774789953334513200,4.79851318359375,-0.40462008118629456,-0.5554547905921936,-0.13168109953403473
1774789953344584000,4.808583984375,-0.2777273952960968,-0.5530605912208557,0.0454898327589035
1774789953354654700,4.81865478515625,-0.29209262132644653,-0.629675030708313,0.11971008777618408
1774789953364756000,4.828755859375,-0.49799394607543945,-0.6224924325942993,0.12928688526153564
1774789953415140600,4.879140625,-1.1013327836990356,-0.08379705995321274,0.2992752194404602
1774789953425241900,4.889241943359375,-1.2617442607879639,0.05027823522686958,0.4381389021873474
1774789953435312600,4.899312744140625,-1.3096283674240112,-0.038307227194309235,0.5746083855628967
1774789953445414000,4.909413818359375,-1.4460978507995605,0.05985504388809204,0.6655880808830261
1774789953455484700,4.919484619140625,-1.577778935432434,0.21547815203666687,0.6799532771110535
1774789953465586200,4.929586181640625,-1.7310078144073486,0.30885201692581177,0.6560112833976746
1774789953475687400,4.9396875,-1.9033904075622559,0.37828385829925537,0.5985504388809204
1774789953505930200,4.96993017578125,-1.656787633895874,0.3519476354122162,0.6344634294509888
1774789953516001000,4.9800009765625,-1.6136919260025024,0.0933738648891449,0.5099649429321289
1774789953526041300,4.990041259765625,-1.5322890281677246,0.014365210197865963,0.5602431893348694
1774789953536142600,5.000142578125,-1.4772224426269531,-0.014365210197865963,0.6607996821403503
1774789953546244000,5.010244140625,-1.5107412338256836,0.1412578970193863,0.7158663272857666
1774789953556284400,5.020284423828125,-1.3335703611373901,0.20350714027881622,0.7374141216278076
1774789953566294000,5.0302939453125,-1.1204863786697388,0.3280056416988373,0.6488286852836609
1774789953606577200,5.0705771484375,-0.6057330369949341,0.689530074596405,0.7661445140838623
1774789953616678700,5.0806787109375,-0.3998316824436188,0.7398083209991455,0.9289502501487732
1774789953626719000,5.090718994140625,-0.1364694982767105,0.7876923680305481,0.8643068075180054
1774789953636759000,5.100759033203125,-0.06224924325942993,0.7493851184844971,0.8858546018600464
1774789953646769000,5.110768798828125,0.15801730751991272,0.768538773059845,0.8044517636299133
1774789953656870100,5.1208701171875,0.4213795065879822,0.7206547260284424,0.7134721279144287
1774789953666941000,5.13094091796875,0.6368576288223267,0.768538773059845,0.5434837937355042
1774789953677011700,5.14101171875,0.7445967197418213,0.6512228846549988,0.35434186458587646
1774789953707224300,5.171224365234375,0.933738648891449,0.6536170840263367,0.17717093229293823
1774789953717325600,5.18132568359375,0.9720458984375,0.6177040338516235,0.10773907601833344
1774789953727366000,5.191365966796875,1.0773907899856567,0.7805097699165344,0.23702596127986908
1774789953737436700,5.201436767578125,1.2234370708465576,0.7326257228851318,0.3495534360408783
1774789953747507500,5.211507568359375,1.4317326545715332,0.3758896589279175,0.5003881454467773
1774789953757547800,5.2215478515625,1.7118542194366455,0,0.6655880808830261
1774789953807901700,5.271901611328125,1.5538369417190552,-0.4141969084739685,-0.9792284965515137
1774789953818003000,5.2820029296875,1.4652514457702637,-0.304063618183136,-0.6009446382522583
1774789953828104400,5.2921044921875,1.400607943534851,-0.22266076505184174,-0.2537853717803955
1774789953838144800,5.302144775390625,1.0773907899856567,-0.28730419278144836,-0.011971008032560349
1774789953848215600,5.312215576171875,0.8571242094039917,-0.3878606855869293,0.06703764945268631
1774789953858286300,5.322286376953125,0.5841852426528931,-0.7326257228851318,0.21787235140800476
1774789953868357000,5.332357177734375,0.35434186458587646,-0.9983820915222168,0.6344634294509888
1774789953878428000,5.342427978515625,0.42377370595932007,-1.2545616626739502,0.8738836050033569
1774789953888498700,5.352498779296875,0.4620809257030487,-1.4221558570861816,0.9265560507774353
1774789953938852600,5.4028525390625,0.026336219161748886,-1.4844050407409668,0.13168109953403473
1774789953959025000,5.42302490234375,0.07422025501728058,-1.5729905366897583,-0.004788403399288654
1774789953969095700,5.433095703125,0.002394201699644327,-1.7166426181793213,-0.15083470940589905
1774789953979197000,5.443197021484375,-0.14365209639072418,-1.721431016921997,-0.21787235140800476
1774789953989267700,5.453267822265625,-0.06224924325942993,-1.7070658206939697,-0.19871874153614044
1774789953999308000,5.46330810546875,-0.1628057211637497,-1.4891934394836426,-0.20111294090747833
1774789954009348400,5.473348388671875,-0.3471592366695404,-1.455674648284912,-0.27054479718208313
1774789954029520400,5.493520263671875,-1.0654197931289673,-0.8212111592292786,-0.06464344263076782
1774789954039591200,5.503591064453125,-1.3263877630233765,-0.5434837937355042,0.05506663769483566
1774789954049631500,5.513631591796875,-1.4772224426269531,-0.43335050344467163,0.1867477297782898
1774789954059702300,5.523702392578125,-1.6424223184585571,-0.33279404044151306,0.24899697303771973
1774789954069773000,5.53377294921875,-1.6831238269805908,-0.17238251864910126,0.3687070608139038
1774789954079843800,5.54384375,-1.6543933153152466,-0.18914192914962769,0.569819986820221
1774789954089945000,5.553945068359375,-1.5921441316604614,-0.2777273952960968,0.6512228846549988
1774789954100015900,5.564015869140625,-1.680729627609253,-0.2825157940387726,0.7972691655158997
1774789954140329700,5.604329833984375,-1.6280571222305298,0.44532153010368347,1.1348515748977661
1774789954160501800,5.624501708984375,-1.6639702320098877,0.7326257228851318,1.0654197931289673
1774789954170603300,5.634603271484375,-1.4173674583435059,0.7158663272857666,1.1276689767837524
1774789954190805800,5.6548056640625,-0.7637503147125244,0.2849099934101105,1.0869675874710083
1774789954200907000,5.664906982421875,-0.6584054827690125,0.05506663769483566,0.9193734526634216
1774789954210977800,5.674977783203125,-0.5650315880775452,0.08619125932455063,0.7445967197418213
1774789954231180500,5.6951806640625,-0.2106897532939911,0.3758896589279175,0.6368576288223267
1774789954241190400,5.7051904296875,-0.06224924325942993,0.7422025203704834,0.6177040338516235
1774789954251261200,5.71526123046875,0.17956513166427612,0.8451532125473022,0.49559974670410156
1774789954261332000,5.72533203125,0.4429273009300232,0.871489405632019,0.3902548849582672
1774789954271402800,5.73540283203125,0.7445967197418213,0.7469909191131592,0.28730419278144836
1774789954281473500,5.7454736328125,0.9648633003234863,0.4620809257030487,0.17477671802043915
1774789954291544300,5.75554443359375,1.1492167711257935,0.24420857429504395,0.08858546614646912
1774789954301615000,5.765614990234375,1.1516109704971313,0.2585737705230713,-0.019153613597154617
1774789954341898200,5.805898193359375,1.6855180263519287,0.4644751250743866,-0.6392518281936646
1774789954351999700,5.815999755859375,1.766920804977417,0.5147533416748047,-0.8379706144332886
1774789954362039800,5.826039794921875,1.8267759084701538,0.6248866319656372,-0.9385270476341248
1774789954372080000,5.836080078125,2.070984363555908,0.5793967843055725,-0.9361328482627869
1774789954382151000,5.84615087890625,2.518700122833252,0.44532153010368347,-0.9385270476341248
1774789954392252400,5.85625244140625,2.5737667083740234,0.4118026793003082,-1.3072341680526733
1774789954402323200,5.8663232421875,2.2409727573394775,0.4405331015586853,-1.9728221893310547
1774789954412394000,5.87639404296875,1.6328455209732056,0.5770025849342346,-2.4205379486083984
1774789954422495200,5.8864951171875,1.434126853942871,0.5099649429321289,-2.4636335372924805
1774789954452738000,5.916738037109375,1.4053963422775269,-1.2210428714752197,-2.0685901641845703
1774789954462839600,5.926839599609375,1.2665326595306396,-1.6711528301239014,-1.9919757843017578
1774789954472910300,5.936910400390625,1.0414776802062988,-1.6424223184585571,-1.9297266006469727
1774789954482981000,5.946981201171875,0.47644615173339844,-1.2401964664459229,-1.6903064250946045
1774789954493082400,5.957082275390625,0.21787235140800476,-0.9002198576927185,-1.403002142906189
1774789954503122700,5.967122802734375,-0.031124621629714966,-0.524330198764801,-1.213860273361206
1774789954513224000,5.977223876953125,-0.17238251864910126,-0.22266076505184174,-1.2497732639312744
1774789954523294700,5.987294677734375,-0.49559974670410156,-0.05985504388809204,-1.2976573705673218
1774789954553568300,6.017568359375,-1.0773907899856567,0.08858546614646912,-0.811634361743927
1774789954563639000,6.02763916015625,-1.1755530834197998,0.043095629662275314,-0.5410895943641663
1774789954573740300,6.037740234375,-1.2976573705673218,-0.08858546614646912,-0.24899697303771973
1774789954583841800,6.047841796875,-1.4628572463989258,-0.22266076505184174,0.090979665517807
1774789954593943000,6.057943115234375,-1.4748282432556152,-0.2537853717803955,0.4381389021873474
1774789954604013800,6.068013916015625,-1.4915876388549805,-0.3974374830722809,0.7876923680305481
1774789954614084600,6.078084716796875,-1.534683346748352,-0.35913026332855225,0.9624691009521484
1774789954644297000,6.108296875,-1.6735470294952393,-0.272938996553421,0.6560112833976746
1774789954654367700,6.11836767578125,-1.742978811264038,-0.2825157940387726,0.5530605912208557
1774789954664469000,6.128468994140625,-1.7741034030914307,-0.16998831927776337,0.5171475410461426
1774789954674570500,6.138570556640625,-1.9800047874450684,-0.014365210197865963,0.4692635238170624
1774789954684671700,6.148671630859375,-1.98958158493042,0.05506663769483566,0.6248866319656372
1774789954694773000,6.15877294921875,-1.8698714971542358,0.040701430290937424,0.7422025203704834
1774789954704843800,6.16884375,-1.8148049116134644,-0.0071826050989329815,0.8259995579719543
1774789954724985300,6.1889853515625,-1.680729627609253,-0.15801730751991272,0.7781155705451965
1774789954765268700,6.229268798828125,-1.5131354331970215,0.689530074596405,0.6033388376235962
1774789954775309000,6.23930908203125,-1.4676456451416016,0.8954314589500427,0.3974374830722809
1774789954785379800,6.2493798828125,-1.3766659498214722,0.9385270476341248,0.3926490843296051
1774789954795450600,6.25945068359375,-1.2018892765045166,0.8259995579719543,0.24181437492370605
1774789954805551900,6.2695517578125,-1.0031704902648926,0.5650315880775452,0.13407529890537262
1774789954815653000,6.279653076171875,-0.7541735172271729,0.5793967843055725,0.1412578970193863
1774789954825693400,6.289693359375,-0.6392518281936646,0.8355764150619507,0.08140286058187485
1774789954855875300,6.319875244140625,-0.4596867263317108,1.1540051698684692,0.12449848651885986
1774789954865946000,6.329946044921875,-0.4596867263317108,1.1444283723831177,0.1149216815829277
1774789954876017000,6.340016845703125,-0.33997663855552673,1.3479355573654175,0.16998831927776337
1774789954886057200,6.35005712890625,-0.33758243918418884,1.3263877630233765,0.2825157940387726
1774789954896128000,6.3601279296875,0.033518824726343155,1.436521053314209,0.26096799969673157
1774789954906198800,6.37019873046875,0.35673606395721436,1.2737152576446533,0.40462008118629456
1774789954916239000,6.380239013671875,0.5841852426528931,1.1492167711257935,0.35913026332855225
1774789954926310000,6.390309814453125,0.8092401623725891,0.8451532125473022,0.2082955539226532
1774789954936411100,6.4004111328125,0.8762778043746948,0.5770025849342346,0.22266076505184174
1774789954966593000,6.430593017578125,0.933738648891449,0.5482721924781799,0.0454898327589035
1774789954996805600,6.4608056640625,1.316810965538025,0.7182605266571045,0.37828385829925537
1774789955006815200,6.470815185546875,1.6711528301239014,0.22026655077934265,0.6200982332229614
1774789955016855600,6.48085546875,2.2816741466522217,-0.38546648621559143,0.9193734526634216
1774789955026926300,6.49092626953125,3.1507694721221924,-0.8427590131759644,0.4836287498474121
1774789955037027600,6.501027587890625,3.375824451446533,-1.4915876388549805,-0.4908113479614258
1774789955047129000,6.511129150390625,2.7126305103302,-1.7549498081207275,-1.6112977266311646
1774789955077311000,6.54131103515625,0.395043283700943,0.07661445438861847,-0.7134721279144287
1774789955087290000,6.5512900390625,0.20350714027881622,0.3711012601852417,-0.15801730751991272
1774789955097391400,6.561391357421875,0.3663128614425659,0.09816227108240128,0.26815059781074524
1774789955107431700,6.571431640625,0.6272808313369751,-0.6153098344802856,0.49559974670410156
1774789955117533200,6.581533203125,0.7326257228851318,-1.6400281190872192,0.6703764796257019
1774789955127512300,6.59151220703125,0.8834604024887085,-2.6360161304473877,0.6153098344802856
1774789955137613600,6.601613525390625,0.9600749015808105,-3.3255462646484375,0.45489832758903503
1774789955167826000,6.631825927734375,0.6775590777397156,-2.5953147411346436,-0.2753331959247589
1774789955177927400,6.641927490234375,0.7206547260284424,-2.1308395862579346,-0.5913678407669067
1774789955187998200,6.651998291015625,0.6105214357376099,-1.5873557329177856,-0.8978256583213806
1774789955198099500,6.662099365234375,0.38307225704193115,-1.278503656387329,-1.216254472732544
1774789955208139800,6.672139892578125,0.27054479718208313,-1.1180921792984009,-1.2425906658172607
1774789955218241000,6.682240966796875,0.2106897532939911,-1.1252747774124146,-1.2186486721038818
1774789955228342300,6.69234228515625,0.11013327538967133,-1.2330138683319092,-0.9959878921508789
1774789955238413300,6.702413330078125,-0.043095629662275314,-1.5322890281677246,-0.7781155705451965
1774789955258555000,6.722554931640625,-0.3998316824436188,-1.534683346748352,-0.5506663918495178
1774789955308939300,6.772939208984375,-1.8842366933822632,0.35673606395721436,0.3232172429561615
1774789955319010000,6.783010009765625,-2.126051187515259,0.38546648621559143,0.4668693244457245
1774789955329050400,6.79305029296875,-2.279279947280884,0.4381389021873474,0.6224924325942993
1774789955339151600,6.803151611328125,-2.33913516998291,0.45250412821769714,0.7110779285430908
1774789955349222400,6.813222412109375,-2.2433669567108154,0.3495534360408783,0.6799532771110535
1774789955379404300,6.843404296875,-1.889025092124939,-0.11252748221158981,1.05105459690094
1774789955389505800,6.853505859375,-1.699883222579956,-0.2322375625371933,1.091755986213684
1774789955399607000,6.86360693359375,-1.5825673341751099,-0.1867477297782898,1.05105459690094
1774789955409677800,6.873677734375,-1.534683346748352,-0.07900865375995636,0.9193734526634216
1774789955419748600,6.88374853515625,-1.4173674583435059,0.023942016065120697,0.7589619159698486
1774789955439921000,6.9039208984375,-1.237802267074585,0.040701430290937424,0.7493851184844971
1774789955449961000,6.9139609375,-1.1300631761550903,0.08858546614646912,0.6631938815116882
1774789955490183200,6.95418310546875,-0.31124621629714966,-0.272938996553421,0.6392518281936646
1774789955500284400,6.964284423828125,-0.16519992053508759,-0.1843535304069519,0.7613561153411865
1774789955510355500,6.97435546875,0.031124621629714966,-0.14604631066322327,0.7110779285430908
1774789955520456700,6.984456787109375,0.11013327538967133,0.14365209639072418,0.5985504388809204
1774789955530558000,6.994557861328125,0.1412578970193863,0.3974374830722809,0.6488286852836609
1774789955540628700,7.004628662109375,0.3423708379268646,0.5171475410461426,0.5315127968788147
1774789955550699500,7.014699462890625,0.5530605912208557,0.4381389021873474,0.5099649429321289
1774789955570841000,7.034841064453125,0.7158663272857666,0.40701428055763245,0.3256114423274994
1774789955580911900,7.044911865234375,0.8882488012313843,0.2753331959247589,0.3711012601852417
1774789955591013400,7.055013427734375,1.0606313943862915,0.1604115068912506,0.42377370595932007
1774789955601114600,7.065114501953125,1.3934253454208374,0.14604631066322327,0.28730419278144836
1774789955611185400,7.075185302734375,1.6160861253738403,0.1173158809542656,0.15562310814857483
1774789955621256200,7.085256103515625,1.843535304069519,0.038307227194309235,-0.038307227194309235
1774789955631388200,7.09538818359375,2.0829553604125977,0.021547814831137657,-0.2944868206977844
1774789955651529700,7.11552978515625,2.3558945655822754,0.2513911724090576,-1.1875240802764893
1774789955661600500,7.1256005859375,2.078166961669922,0.35913026332855225,-1.8579005002975464
1774789955691843300,7.15584326171875,1.659181833267212,0.09816227108240128,-2.049436569213867
1774789955701914000,7.1659140625,1.900996208190918,-0.40222588181495667,-1.7717092037200928
1774789955711954400,7.175954345703125,1.8579005002975464,-1.0606313943862915,-1.5658079385757446
1774789955722025200,7.186025146484375,1.6400281190872192,-1.4484920501708984,-1.5418659448623657
1774789955732065500,7.1960654296875,1.2258312702178955,-1.5203180313110352,-1.4700398445129395
1774789955742166800,7.206166748046875,1.0558429956436157,-1.4077905416488647,-1.2976573705673218
1774789955752237600,7.216237548828125,0.8690952062606812,-1.1276689767837524,-1.1324573755264282
1774789955762339000,7.226339111328125,0.8595184087753296,-0.8571242094039917,-1.0079588890075684
1774789955782511000,7.246510986328125,0.22505496442317963,-0.31124621629714966,-1.2234370708465576
1774789955812754000,7.27675390625,-0.3974374830722809,-0.2537853717803955,-0.8236053586006165
1774789955822824700,7.28682470703125,-0.4165911078453064,-0.5506663918495178,-0.45250412821769714
1774789955832895700,7.296895751953125,-0.35673606395721436,-0.8236053586006165,-0.13168109953403473
1774789955842966500,7.306966552734375,-0.14365209639072418,-0.9911994934082031,0.20111294090747833
1774789955853006600,7.317006591796875,-0.14604631066322327,-1.0462661981582642,0.6320692300796509
1774789955863108000,7.327108154296875,-0.2346317619085312,-1.0749965906143188,0.871489405632019
1774789955873179000,7.337178955078125,-0.4429273009300232,-1.2018892765045166,1.0055646896362305
1774789955893320400,7.357320556640625,-0.9792284965515137,-0.7110779285430908,0.8379706144332886
1774789955913523000,7.37752294921875,-1.6328455209732056,0.07900865375995636,0.8044517636299133
1774789955923563300,7.387563232421875,-1.86508309841156,0.2777273952960968,0.8451532125473022
1774789955943735600,7.407735595703125,-2.1787235736846924,0.2753331959247589,1.072602391242981
1774789955953836800,7.4178369140625,-2.229001760482788,0.011971008032560349,1.2234370708465576
1774789955963938000,7.42793798828125,-2.2194249629974365,-0.27054479718208313,1.2425906658172607
1774789955994181000,7.45818115234375,-2.2026655673980713,-0.28969839215278625,1.0055646896362305
1774789956004282400,7.468282470703125,-2.250549554824829,0.028730420395731926,0.9983820915222168
1774789956014353200,7.478353271484375,-2.449268341064453,0.38067805767059326,0.9576807022094727
1774789956044596000,7.508595947265625,-2.1978771686553955,0.9576807022094727,0.6655880808830261
1774789956064768300,7.528768310546875,-1.6424223184585571,0.6631938815116882,0.43335050344467163
1774789956084940300,7.548940185546875,-1.0295066833496094,0.40222588181495667,0.40940847992897034
1774789956095011000,7.559010986328125,-0.7781155705451965,0.2322375625371933,0.5267243981361389
1774789956105112300,7.5691123046875,-0.47644615173339844,0.16519992053508759,0.5841852426528931
1774789956115213800,7.5792138671875,-0.2777273952960968,0.4165911078453064,0.6703764796257019
1774789956125284600,7.58928466796875,-0.05746084079146385,0.5578489899635315,0.5817909836769104
1774789956135355400,7.59935546875,0.21787235140800476,0.6871358752250671,0.6248866319656372
1774789956145426200,7.60942626953125,0.5626373887062073,0.706289529800415,0.5746083855628967
1774789956155527400,7.61952734375,0.9026140570640564,0.6703764796257019,0.608127236366272
1774789956165598200,7.62959814453125,1.2737152576446533,0.6512228846549988,0.5027823448181152
1774789956205881300,7.66988134765625,1.9967641830444336,0.4644751250743866,-0.06464344263076782
1774789956215952400,7.679952392578125,1.9632453918457031,0.5315127968788147,-0.07661445438861847
1774789956226023200,7.690023193359375,1.8100165128707886,0.6727706789970398,0.06224924325942993
1774789956236124400,7.70012451171875,2.075772762298584,0.6536170840263367,0.23942017555236816
1774789956246195200,7.7101953125,2.585737943649292,0.2944868206977844,0.5219359993934631
1774789956256296400,7.72029638671875,3.160346269607544,0.08619125932455063,0.44532153010368347
1774789956266367200,7.7303671875,3.4093432426452637,-0.2346317619085312,-0.035913024097681046
1774789956276438000,7.74043798828125,3.117250680923462,-0.4908113479614258,-0.7422025203704834
1774789956326761500,7.790761474609375,0.47405192255973816,-0.2346317619085312,0.6105214357376099
1774789956336832500,7.80083251953125,0.5410895943641663,-0.2059013396501541,0.8068459630012512
1774789956346903300,7.8109033203125,0.5003881454467773,-0.5530605912208557,1.015141487121582
1774789956356974000,7.82097412109375,0.6943184733390808,-1.2210428714752197,1.0965443849563599
1774789956367044900,7.831044921875,0.6919242739677429,-1.9608511924743652,1.1468225717544556
1774789956377115600,7.84111572265625,0.5913678407669067,-2.4013843536376953,1.0534487962722778
1774789956397257200,7.86125732421875,0.363918662071228,-2.38462495803833,0.8044517636299133
1774789956407358500,7.8713583984375,0.08140286058187485,-2.183511972427368,0.629675030708313
1774789956417429200,7.88142919921875,0,-2.027888774871826,0.33518823981285095
1774789956427530800,7.89153076171875,-0.12689268589019775,-1.778891921043396,0.13407529890537262
1774789956437601500,7.9016015625,-0.20111294090747833,-1.7525556087493896,0.021547814831137657
1774789956447641600,7.9116416015625,-0.3687070608139038,-1.6160861253738403,-0.1412578970193863
1774789956457712600,7.921712646484375,-0.49799394607543945,-1.6639702320098877,-0.1843535304069519
1774789956467783400,7.931783447265625,-0.569819986820221,-1.6543933153152466,-0.2944868206977844
1774789956477854200,7.941854248046875,-0.586579442024231,-1.7357962131500244,-0.35673606395721436
1774789956487925000,7.951925048828125,-0.8259995579719543,-1.9752163887023926,-0.3471592366695404
1774789956508036000,7.9720361328125,-1.455674648284912,-1.6950948238372803,-0.16998831927776337
1774789956518137300,7.982137451171875,-1.8100165128707886,-1.2737152576446533,-0.004788403399288654
1774789956528238600,7.992238525390625,-2.274491548538208,-0.7015010714530945,0.16998831927776337
1774789956538339800,8.00233984375,-2.5282769203186035,-0.11252748221158981,0.363918662071228
1774789956548411000,8.012410888671875,-2.853888511657715,0.28730419278144836,0.569819986820221
1774789956558512000,8.02251220703125,-2.9712042808532715,0.5889736413955688,0.7158663272857666
1774789956588694000,8.052694091796875,-2.300827741622925,0.10773907601833344,1.0031704902648926
1774789956618967300,8.08296728515625,-1.9033904075622559,0.0071826050989329815,1.1971008777618408
1774789956629038000,8.0930380859375,-1.9033904075622559,0.021547814831137657,1.194706678390503
1774789956639139600,8.1031396484375,-1.8100165128707886,0.4141969084739685,1.2665326595306396
1774789956649180000,8.113179931640625,-1.8100165128707886,0.3974374830722809,1.3623007535934448
1774789956659250700,8.123250732421875,-1.6400281190872192,0.8068459630012512,1.3623007535934448
1774789956669352000,8.13335205078125,-1.4101848602294922,0.9648633003234863,1.316810965538025
1774789956679453200,8.143453125,-0.9481038451194763,0.933738648891449,1.1683704853057861
1774789956689524000,8.15352392578125,-0.42377370595932007,0.667982280254364,0.9289502501487732
1774789956709635000,8.173635009765626,0.20350714027881622,0.2322375625371933,0.7876923680305481
1774789956729746200,8.19374609375,0.40462008118629456,0.2561795711517334,0.6775590777397156
1774789956739847400,8.203847412109376,0.49799394607543945,0.5027823448181152,0.5434837937355042
1774789956749918200,8.213918212890626,0.6799532771110535,0.629675030708313,0.4620809257030487
1774789956759989200,8.2239892578125,0.9528923034667969,0.6536170840263367,0.24660277366638184
1774789956769998800,8.233998779296876,1.1755530834197998,0.3232172429561615,0.1388636976480484
1774789956780069600,8.244069580078126,1.2234370708465576,0.2537853717803955,0.10295066982507706
1774789956790140400,8.254140380859376,1.259350061416626,0.3280056416988373,0.09816227108240128
1774789956840494600,8.30449462890625,2.140416383743286,0.28730419278144836,-0.3064578175544739
1774789956850565400,8.3145654296875,2.456450939178467,0.17717093229293823,-0.24420857429504395
1774789956860666600,8.32466650390625,2.4827871322631836,0.30885201692581177,-0.629675030708313
1774789956870737400,8.3347373046875,2.229001760482788,0.5434837937355042,-1.2641384601593018
1774789956880838700,8.344838623046876,1.800439715385437,0.6703764796257019,-1.723825216293335
1774789956890909400,8.354909423828126,1.4915876388549805,0.5315127968788147,-1.8794482946395874
1774789956900980200,8.364980224609376,1.4867992401123047,0.14604631066322327,-1.8267759084701538
1774789956931223300,8.395223388671875,1.9752163887023926,-1.8555063009262085,-1.580173134803772
1774789956941294000,8.405294189453125,1.7980455160140991,-1.9728221893310547,-1.6304513216018677
1774789956951364900,8.41536474609375,1.5490485429763794,-1.8195933103561401,-1.599326729774475
1774789956961435600,8.425435546875,1.3646949529647827,-1.5945383310317993,-1.3910311460494995
1774789956971537000,8.435536865234376,1.036689281463623,-1.4413094520568848,-1.2832920551300049
1774789956981607700,8.445607666015626,0.7254431247711182,-1.2210428714752197,-1.2282254695892334
1774789956991709200,8.455709228515625,0.304063618183136,-0.9313444495201111,-1.3551181554794312
1774789957001780000,8.465780029296875,-0.16998831927776337,-0.4644751250743866,-1.2330138683319092
1774789957042063000,8.50606298828125,-0.8379706144332886,-0.4692635238170624,-0.1604115068912506
1774789957052134000,8.5161337890625,-0.9600749015808105,-0.5003881454467773,0.18914192914962769
1774789957062204700,8.52620458984375,-1.0630255937576294,-0.4381389021873474,0.5793967843055725
1774789957072306000,8.536305908203126,-1.2186486721038818,-0.4381389021873474,0.9026140570640564
1774789957082376700,8.546376708984376,-1.4484920501708984,-0.3495534360408783,1.1492167711257935
1774789957092447700,8.55644775390625,-1.6543933153152466,-0.1388636976480484,1.2425906658172607
1774789957102518500,8.5665185546875,-1.800439715385437,-0.08379705995321274,1.0845733880996704
1774789957142832000,8.60683203125,-2.0877439975738525,0.3758896589279175,0.871489405632019
1774789957152903000,8.61690283203125,-2.0422539710998535,0.33997663855552673,0.8140285611152649
1774789957162973700,8.6269736328125,-2.0015525817871094,0.33039984107017517,0.8523358106613159
1774789957173075000,8.637074951171876,-1.9823989868164062,0.15801730751991272,0.7038952708244324
1774789957183146000,8.64714599609375,-1.9153614044189453,0.031124621629714966,0.7637503147125244
1774789957193247200,8.657247314453125,-1.7908629179000854,-0.016759412363171577,0.7469909191131592
1774789957203318000,8.667318115234375,-1.723825216293335,-0.07900865375995636,0.7182605266571045
1774789957213388800,8.677388916015625,-1.7334020137786865,0.016759412363171577,0.5626373887062073
1774789957263773200,8.727773193359376,-1.577778935432434,1.0247182846069336,0.10773907601833344
1774789957273844200,8.73784423828125,-1.5634137392044067,0.9864110946655273,0.16759411990642548
1774789957283915000,8.7479150390625,-1.3120225667953491,0.9816226959228516,0.22266076505184174
1774789957293985800,8.75798583984375,-1.072602391242981,0.7781155705451965,0.2561795711517334
1774789957304026000,8.768026123046875,-0.8331822156906128,0.706289529800415,0.22026655077934265
1774789957324198100,8.7881982421875,-0.31364041566848755,0.8403648138046265,0.3495534360408783
1774789957344309200,8.808309326171875,0.014365210197865963,0.7230489253997803,0.6560112833976746
1774789957354380000,8.818380126953125,0.363918662071228,0.629675030708313,0.7110779285430908
1774789957364420400,8.82842041015625,0.7589619159698486,0.33758243918418884,0.5746083855628967
1774789957374460700,8.838460693359375,1.1324573755264282,0.1628057211637497,0.2849099934101105
1774789957384531500,8.848531494140625,1.4173674583435059,0.10295066982507706,0.023942016065120697
1774789957404703500,8.868703369140626,1.556231141090393,0.5267243981361389,-0.2777273952960968
1774789957414743800,8.878743896484375,1.434126853942871,0.7924807667732239,-0.19871874153614044
1774789957444956200,8.9089560546875,1.580173134803772,0.9888052940368652,0.2537853717803955
1774789957455057400,8.919057373046876,1.5945383310317993,0.8068459630012512,0.4141969084739685
1774789957465128200,8.929128173828126,1.7884687185287476,0.5722141861915588,0.8571242094039917
1774789957475199000,8.939198974609376,2.3989901542663574,0.19871874153614044,1.0031704902648926
1774789957485270000,8.94927001953125,2.9089550971984863,-0.2106897532939911,0.6847416758537292
1774789957495371300,8.959371337890625,2.9544448852539062,-0.49799394607543945,-0.27054479718208313
1774789957505411600,8.96941162109375,2.5282769203186035,-0.706289529800415,-1.170764684677124
1774789957515512800,8.979512939453125,1.5753847360610962,-0.31364041566848755,-1.3718775510787964
1774789957555735000,9.019735107421875,0.5554547905921936,0.23942017555236816,0.8451532125473022
1774789957565805800,9.029805908203125,0.8164227604866028,-0.35673606395721436,0.8954314589500427
1774789957575876600,9.039876708984375,0.8882488012313843,-1.259350061416626,0.7781155705451965
1774789957585947400,9.049947509765625,0.7829039692878723,-2.027888774871826,0.5027823448181152
1774789957606089000,9.0700888671875,0.933738648891449,-2.38462495803833,0.1149216815829277
1774789957616190200,9.080190185546876,0.9433154463768005,-2.4013843536376953,-0.05746084079146385
1774789957626261000,9.090260986328126,0.768538773059845,-2.3942017555236816,-0.38307225704193115
1774789957656534500,9.120534423828126,-0.033518824726343155,-1.6136919260025024,-0.9888052940368652
1774789957676676000,9.140676025390626,-0.2346317619085312,-1.0606313943862915,-0.8020575642585754
1774789957686747000,9.150746826171876,-0.5626373887062073,-0.9696516990661621,-0.7182605266571045
1774789957696817700,9.160817626953126,-0.9624691009521484,-1.1204863786697388,-0.545877993106842
1774789957706858000,9.17085791015625,-1.37906014919281,-1.1899182796478271,-0.18914192914962769
1774789957716959200,9.180959228515626,-1.680729627609253,-1.192312479019165,0.08140286058187485
1774789957727060700,9.191060791015625,-1.9177556037902832,-0.8858546018600464,0.4836287498474121
1774789957757151000,9.22115087890625,-2.274491548538208,0.014365210197865963,0.790086567401886
1774789957767191300,9.23119140625,-2.3104045391082764,0.1604115068912506,0.9481038451194763
1774789957777262000,9.241261962890626,-2.5234885215759277,0.12928688526153564,1.039083480834961
1774789957787302400,9.251302490234375,-2.7078421115875244,0.05267243832349777,1.1252747774124146
1774789957797373200,9.261373291015625,-2.7940332889556885,-0.019153613597154617,1.113303780555725
1774789957807444000,9.27144384765625,-2.7964274883270264,0.2106897532939911,1.1803414821624756
1774789957817545200,9.281545166015626,-2.741360902786255,0.24899697303771973,1.2473790645599365
1774789957827585500,9.29158544921875,-2.382230758666992,0.31842881441116333,1.3000515699386597
1774789957837686800,9.301686767578126,-2.0254945755004883,0.22505496442317963,1.3551181554794312
1774789957847727000,9.31172705078125,-1.6974890232086182,0.1388636976480484,1.3670891523361206
1774789957857798000,9.3217978515625,-1.4772224426269531,0.011971008032560349,1.3407529592514038
1774789957867807700,9.331807861328125,-1.1061211824417114,-0.002394201699644327,1.2282254695892334
1774789957877909000,9.341908935546876,-0.8140285611152649,0.021547814831137657,1.1085153818130493
1774789957887979800,9.351979736328126,-0.6584054827690125,0.15562310814857483,1.0199298858642578
1774789957898081300,9.362081298828125,-0.5793967843055725,0.5626373887062073,1.0582371950149536
1774789957908152000,9.372152099609375,-0.4596867263317108,0.7924807667732239,1.0342950820922852
1774789957918253300,9.38225341796875,-0.3519476354122162,0.9864110946655273,0.9600749015808105
1774789957928354600,9.3923544921875,-0.1388636976480484,0.8954314589500427,0.811634361743927
1774789957958567000,9.42256689453125,0.6943184733390808,0.5099649429321289,0.33279404044151306
1774789957998880800,9.462880859375,1.2713210582733154,0.21547815203666687,-0.016759412363171577
1774789958008982000,9.47298193359375,1.2737152576446533,0.2753331959247589,-0.047884032130241394
1774789958019083300,9.483083251953126,1.3886369466781616,0.19632454216480255,-0.18914192914962769
1774789958029154000,9.493154052734376,1.6184803247451782,0.29209262132644653,-0.2537853717803955
1774789958089640000,9.553639892578126,2.937685489654541,0.42377370595932007,-2.075772762298584
1774789958099710700,9.563710693359376,2.2864625453948975,0.304063618183136,-2.4875755310058594
1774789958109781500,9.573781494140626,1.6759412288665771,-0.040701430290937424,-2.315192937850952
1774789958119883000,9.583883056640625,1.400607943534851,-0.5410895943641663,-1.8339585065841675
1774789958129923300,9.59392333984375,1.2617442607879639,-1.2952631711959839,-1.3287819623947144
1774789958140024600,9.604024658203125,1.3742717504501343,-2.0254945755004883,-1.0103530883789062
1774789958150065000,9.61406494140625,1.4389152526855469,-2.212242364883423,-0.8595184087753296
1774789958170206500,9.63420654296875,1.4197616577148438,-1.7501614093780518,-0.7924807667732239
1774789958180307700,9.6443076171875,1.3982137441635132,-1.723825216293335,-0.871489405632019
1774789958190378500,9.65437841796875,1.0869675874710083,-1.6496049165725708,-1.0989385843276978
1774789958200449300,9.66444921875,0.6009446382522583,-1.414973258972168,-1.314416766166687
1774789958210459100,9.674459228515625,-0.11252748221158981,-0.8595184087753296,-1.194706678390503
1774789958220590800,9.6845908203125,-0.7469909191131592,-0.3423708379268646,-0.8762778043746948
1774789958230661600,9.69466162109375,-0.8667010068893433,0.016759412363171577,-0.3471592366695404
1774789958240702000,9.704701904296876,-0.6991068720817566,0.08140286058187485,-0.002394201699644327
1774789958250711800,9.7147119140625,-0.5650315880775452,-0.05267243832349777,0.26336219906806946
1774789958280985300,9.7449853515625,-0.9241618514060974,-1.0989385843276978,1.0127472877502441
1774789958290995000,9.754994873046876,-1.2641384601593018,-0.9026140570640564,1.3335703611373901
1774789958301096200,9.76509619140625,-1.5203180313110352,-0.4118026793003082,1.6376339197158813
1774789958311167200,9.775167236328125,-1.8986018896102905,0.06224924325942993,1.6927006244659424
1774789958321238000,9.785238037109375,-1.900996208190918,0.05746084079146385,1.6735470294952393
1774789958341410000,9.80541015625,-2.341529369354248,0.6703764796257019,1.3934253454208374
1774789958351480800,9.815480712890626,-2.410961151123047,0.5650315880775452,1.3670891523361206
1774789958371561500,9.8355615234375,-2.5522189140319824,-0.031124621629714966,1.400607943534851
1774789958381632300,9.84563232421875,-2.473210334777832,-0.31124621629714966,1.4748282432556152
1774789958391672600,9.855672607421875,-2.3774423599243164,-0.4429273009300232,1.5969325304031372
1774789958401743400,9.865743408203125,-2.2864625453948975,-0.395043283700943,1.5514427423477173
1774789958411783700,9.87578369140625,-2.363077163696289,-0.33518823981285095,1.522712230682373
1774789958421885000,9.885885009765625,-2.4229321479797363,-0.3232172429561615,1.460463047027588
1774789958431986200,9.895986083984376,-2.2912509441375732,-0.2059013396501541,1.522712230682373
1774789958442057000,9.906056884765626,-1.7741034030914307,-0.27054479718208313,1.4508862495422363
1774789958452158200,9.916158203125,-1.3527239561080933,-0.4429273009300232,1.400607943534851
1774789958472269300,9.936269287109376,-0.7374141216278076,-0.7422025203704834,0.768538773059845
1774789958492411000,9.956410888671876,-0.7038952708244324,-0.47884035110473633,0.6655880808830261
1774789958502512400,9.966512451171875,-0.5051765441894531,-0.4572925269603729,0.7469909191131592
1774789958512583200,9.976583251953125,-0.29209262132644653,-0.1867477297782898,0.8475474119186401
1774789958522684400,9.986684326171876,-0.12928688526153564,0.11971008777618408,0.8427590131759644
1774789958532724700,9.996724853515625,0.2777273952960968,0.1628057211637497,0.7469909191131592
1774789958542826000,10.006825927734376,0.45010992884635925,-0.12689268589019775,0.4692635238170624
1774789958552896800,10.016896728515626,0.4644751250743866,-0.3998316824436188,0.3902548849582672
1774789958562967600,10.026967529296876,0.5291185975074768,-0.3208230137825012,0.44532153010368347
1774789958593149400,10.0571494140625,0.8690952062606812,-0.33279404044151306,0.1867477297782898
1774789958603251000,10.0672509765625,0.6967126727104187,0.12449848651885986,0.002394201699644327
1774789958623423000,10.087423095703125,0.47644615173339844,0.6272808313369751,0.18914192914962769
1774789958643534000,10.1075341796875,1.1204863786697388,0.395043283700943,0.545877993106842
1774789958653604900,10.11760498046875,1.647210717201233,0.11013327538967133,0.5195417404174805
1774789958663675600,10.127675537109376,2.628833532333374,-0.2801215946674347,-0.009576806798577309
1774789958683878400,10.14787841796875,2.7293899059295654,-0.9313444495201111,-1.4748282432556152
1774789958693918500,10.15791845703125,2.123656988143921,-0.8834604024887085,-1.6136919260025024
1774789958704020000,10.16802001953125,1.5897499322891235,-0.9050082564353943,-1.2306196689605713
1774789958714060300,10.178060302734375,1.4460978507995605,-1.094150185585022,-0.8619126081466675
1774789958724131000,10.188131103515625,1.5466543436050415,-1.2425906658172607,-0.5650315880775452
1774789958734201900,10.198201904296875,1.5682021379470825,-1.1468225717544556,-0.4668693244457245
1774789958744303000,10.20830322265625,1.3503297567367554,-0.9385270476341248,-0.23702596127986908
1774789958754374000,10.218373779296876,1.4772224426269531,-0.8236053586006165,0.1364694982767105
1774789958764475100,10.22847509765625,1.5322890281677246,-0.8140285611152649,0.47165772318840027
1774789958784616700,10.24861669921875,1.1492167711257935,-0.6368576288223267,0.5817909836769104
1774789958794687500,10.2586875,0.8403648138046265,-0.5602431893348694,0.5889736413955688
1774789958804758500,10.268758544921875,0.8882488012313843,-0.5386953949928284,0.5985504388809204
1774789958814859800,10.27885986328125,0.8307880163192749,-0.6967126727104187,0.44771572947502136
1774789958824930600,10.2889306640625,0.6631938815116882,-0.7781155705451965,0.14844051003456116
1774789958834971000,10.298970947265625,0.44771572947502136,-0.6631938815116882,0.016759412363171577
1774789958845072100,10.309072021484376,0.40701428055763245,-0.5626373887062073,0.043095629662275314
1774789958855143000,10.319142822265626,0.4668693244457245,-0.608127236366272,0.040701430290937424
1774789958865244200,10.329244140625,0.38546648621559143,-0.5051765441894531,0.016759412363171577
1774789958875284500,10.339284423828126,0.20350714027881622,-0.6248866319656372,-0.002394201699644327
1774789958905466400,10.36946630859375,-0.8092401623725891,-0.9217676520347595,0.45010992884635925
1774789958915537200,10.379537109375,-1.194706678390503,-0.9145850539207458,0.5650315880775452
1774789958925608000,10.38960791015625,-1.6543933153152466,-0.7924807667732239,0.6248866319656372
1774789958935648300,10.399648193359376,-2.0422539710998535,-0.6631938815116882,0.6177040338516235
1774789958945688600,10.4096884765625,-2.1715409755706787,-0.4692635238170624,0.5554547905921936
1774789958955759400,10.41975927734375,-2.070984363555908,-0.42856210470199585,0.43095630407333374
1774789958965830100,10.429830078125,-2.008735179901123,-0.5578489899635315,0.3280056416988373
1774789958975901000,10.43990087890625,-2.1595699787139893,-0.8738836050033569,0.35673606395721436
1774789959016184300,10.480184326171875,-2.580949544906616,-0.7493851184844971,0.33758243918418884
1774789959026285600,10.49028564453125,-2.497152328491211,-0.507570743560791,0.395043283700943
1774789959036356400,10.5003564453125,-2.293645143508911,-0.33758243918418884,0.6344634294509888
1774789959046427100,10.51042724609375,-1.8962076902389526,-0.4812345504760742,0.7134721279144287
1774789959056498000,10.520497802734376,-1.623268723487854,-0.569819986820221,0.5889736413955688
1774789959066568700,10.530568603515626,-1.4867992401123047,-0.6153098344802856,0.5650315880775452
1774789959076639500,10.540639404296876,-1.381454348564148,-0.6919242739677429,0.4884171485900879
1774789959106882600,10.570882568359375,-0.8882488012313843,0.0933738648891449,0.8307880163192749
1774789959116922600,10.580922607421876,-0.7493851184844971,0.3998316824436188,0.811634361743927
1774789959126993400,10.590993408203126,-0.4118026793003082,0.38067805767059326,0.7637503147125244
1774789959137064400,10.601064453125,-0.1867477297782898,0.14365209639072418,0.8595184087753296
1774789959147135200,10.61113525390625,-0.10055647045373917,-0.0454898327589035,0.8643068075180054
1774789959157206000,10.6212060546875,0.40701428055763245,-0.10773907601833344,0.8595184087753296
1774789959167276800,10.63127685546875,0.6009446382522583,-0.2106897532939911,0.8212111592292786
1774789959177347600,10.64134765625,0.8978256583213806,-0.07182604819536209,0.5410895943641663
1774789959187418400,10.65141845703125,1.3239935636520386,0.06224924325942993,0.48602294921875
1774789959207529500,10.671529541015625,1.742978811264038,0.026336219161748886,0.26815059781074524
1774789959217600300,10.681600341796875,1.9369091987609863,0.24181437492370605,0.31842881441116333
1774789959237711400,10.70171142578125,2.027888774871826,0.43335050344467163,0.3447650372982025
1774789959267923700,10.731923828125,2.9328970909118652,0.21547815203666687,-0.043095629662275314
1774789959278025000,10.74202490234375,3.162740468978882,0.1628057211637497,-0.7613561153411865
1774789959288095700,10.752095703125,2.8562827110290527,0.05746084079146385,-1.4245500564575195
1774789959308298500,10.772298583984375,2.1787235736846924,-0.13168109953403473,-1.900996208190918
1774789959318338800,10.7823388671875,1.7525556087493896,-0.35913026332855225,-1.5298948287963867
1774789959328409600,10.79240966796875,1.4460978507995605,-0.7876923680305481,-1.4269442558288574
1774789959338510800,10.8025107421875,0.6847416758537292,-1.290474772453308,-1.3766659498214722
1774789959348612000,10.812612060546876,0.3232172429561615,-1.3934253454208374,-1.3551181554794312
1774789959358683000,10.822682861328126,0.5123591423034668,-1.3718775510787964,-1.357512354850769
1774789959368784400,10.832784423828125,0.5817909836769104,-0.9983820915222168,-1.501164436340332
1774789959378885600,10.8428857421875,0.5554547905921936,-0.5363011956214905,-1.6041151285171509
1774789959388956400,10.852956298828126,0.7015010714530945,-0.0454898327589035,-1.5705963373184204
1774789959399027200,10.863027099609376,0.768538773059845,-0.016759412363171577,-1.403002142906189
1774789959419199200,10.88319921875,0.12689268589019775,-0.4118026793003082,-1.3910311460494995
1774789959439310300,10.903310302734376,-0.768538773059845,-0.10295066982507706,-0.8930372595787048
1774789959449381000,10.913381103515626,-0.8547300100326538,0.21547815203666687,-0.5219359993934631
1774789959459482600,10.923482666015625,-0.9911994934082031,0.42616790533065796,-0.15801730751991272
1774789959469584000,10.933583984375,-1.0965443849563599,0.23942017555236816,0.2346317619085312
1774789959479593700,10.94359375,-1.1300631761550903,-0.17238251864910126,0.5410895943641663
1774789959489664500,10.95366455078125,-1.1276689767837524,-0.6129156351089478,0.727837324142456
1774789959499765800,10.963765869140625,-1.2617442607879639,-0.9409212470054626,0.9552865028381348
1774789959509867000,10.973866943359376,-1.5538369417190552,-1.1109095811843872,1.0247182846069336
1774789959530039300,10.994039306640625,-2.279279947280884,-0.871489405632019,1.1851298809051514
1774789959540110000,11.004110107421875,-2.5234885215759277,-0.7398083209991455,1.1252747774124146
1774789959550180900,11.014180908203125,-2.647987127304077,-0.47165772318840027,1.070208191871643
1774789959560251600,11.024251708984375,-2.5905263423919678,-0.45010992884635925,0.9672574996948242
1774789959570322400,11.034322509765625,-2.470816135406494,-0.44532153010368347,0.8930372595787048
1774789959580423700,11.044423583984376,-2.4612393379211426,-0.6224924325942993,0.9433154463768005
1774789959590494500,11.054494384765626,-2.403778553009033,-0.6871358752250671,0.950498104095459
1774789959630777600,11.094777587890626,-2.3295583724975586,-0.10534487664699554,0.9457096457481384
1774789959640818000,11.10481787109375,-1.9273324012756348,-0.08140286058187485,1.0079588890075684
1774789959650919400,11.11491943359375,-1.5753847360610962,-0.05506663769483566,0.7733271718025208
1774789959660990200,11.124990234375,-1.3000515699386597,-0.14604631066322327,0.6823474764823914
1774789959671061000,11.13506103515625,-1.091755986213684,-0.2944868206977844,0.6009446382522583
1774789959681131800,11.1451318359375,-1.0103530883789062,-0.14604631066322327,0.5339069962501526
1774789959691172000,11.155172119140625,-0.8810662031173706,0.0694318488240242,0.5434837937355042
1774789959701273300,11.1652734375,-0.586579442024231,0.43095630407333374,0.7206547260284424
1774789959711374600,11.17537451171875,-0.4213795065879822,0.6536170840263367,0.8164227604866028
1774789959731455200,11.195455322265625,0.2106897532939911,0.608127236366272,0.8619126081466675
1774789959741556500,11.205556396484376,0.40222588181495667,0.5123591423034668,0.7924807667732239
1774789959751627300,11.215627197265626,0.6177040338516235,0.5554547905921936,0.6368576288223267
1774789959761698000,11.225697998046876,0.9193734526634216,0.5817909836769104,0.5985504388809204
1774789959771738400,11.23573828125,1.3287819623947144,0.5123591423034668,0.4429273009300232
1774789959781839600,11.245839599609376,1.6280571222305298,0.3902548849582672,0.31842881441116333
1774789959802012000,11.266011962890625,1.9177556037902832,0.31842881441116333,0.3447650372982025
1774789959822153500,11.286153564453125,2.0207061767578125,0.5410895943641663,0.3519476354122162
1774789959842325500,11.306325439453126,2.2146365642547607,0.8068459630012512,0.24420857429504395
1774789959902750500,11.36675048828125,2.9759926795959473,-0.5291185975074768,-0.6033388376235962
1774789959963175200,11.427175048828126,0.10295066982507706,-1.1468225717544556,1.4173674583435059
1774789959993418000,11.45741796875,0.6823474764823914,-2.5019407272338867,0.9457096457481384
1774789960003488800,11.46748876953125,0.8619126081466675,-2.456450939178467,0.8092401623725891
1774789960013498600,11.47749853515625,0.871489405632019,-2.5330653190612793,0.45489832758903503
1774789960023569400,11.4875693359375,0.5051765441894531,-2.7269957065582275,-0.0454898327589035
1774789960033640200,11.49764013671875,0.507570743560791,-2.741360902786255,-0.016759412363171577
1774789960043711000,11.5077109375,-0.10534487664699554,-2.9161376953125,-0.4884171485900879
1774789960114206700,11.578206787109375,-1.86508309841156,-1.2018892765045166,-0.7015010714530945
1774789960124277500,11.588277587890625,-1.9800047874450684,-1.6927006244659424,-0.5578489899635315
1774789960134409200,11.5984091796875,-2.1571757793426514,-1.7836803197860718,-0.3519476354122162
1774789960144480000,11.60847998046875,-2.363077163696289,-1.6160861253738403,0.0071826050989329815
1774789960164621800,11.628621826171875,-2.494758129119873,-0.3663128614425659,0.545877993106842
1774789960174723000,11.63872314453125,-2.7054479122161865,0.22266076505184174,0.768538773059845
1774789960184763400,11.648763427734375,-2.676717519760132,0.5410895943641663,0.8882488012313843
1774789960194834200,11.658834228515625,-2.669534921646118,0.5195417404174805,0.9792284965515137
1774789960204905000,11.668905029296875,-2.5929205417633057,0.3280056416988373,0.8954314589500427
1774789960214975700,11.678975830078125,-2.3965959548950195,-0.05267243832349777,0.871489405632019
1774789960225077000,11.689076904296876,-2.2194249629974365,-0.3663128614425659,0.9385270476341248
1774789960235178200,11.69917822265625,-1.920149803161621,-0.49559974670410156,1.1635819673538208
1774789960245249000,11.7092490234375,-1.5658079385757446,-0.5961562395095825,1.3192051649093628
1774789960265390800,11.729390869140625,-1.070208191871643,-0.6033388376235962,1.1348515748977661
1774789960275461600,11.739461669921875,-1.048660397529602,-0.44771572947502136,1.0199298858642578
1774789960285532400,11.749532470703125,-0.933738648891449,-0.2753331959247589,1.0630255937576294
1774789960295633700,11.759633544921876,-0.811634361743927,-0.05746084079146385,0.9792284965515137
1774789960305735000,11.76973486328125,-0.6967126727104187,0.05506663769483566,0.9097966551780701
1774789960315805700,11.7798056640625,-0.47405192255973816,0.11252748221158981,0.8954314589500427
1774789960325876500,11.78987646484375,-0.2513911724090576,0.2849099934101105,0.8451532125473022
1774789960346048800,11.810048828125,0.3734954595565796,0.08379705995321274,0.7661445140838623
1774789960356119600,11.82011962890625,0.6488286852836609,-0.023942016065120697,0.8355764150619507
1774789960386362400,11.8503623046875,1.1037269830703735,-0.08379705995321274,0.7637503147125244
1774789960396402700,11.860402587890626,1.3263877630233765,-0.05746084079146385,0.6607996821403503
1774789960426615000,11.890614990234376,1.941697597503662,0.3663128614425659,0.1388636976480484
1774789960436685800,11.900685791015626,2.049436569213867,0.4213795065879822,-0.10534487664699554
1774789960446726100,11.91072607421875,2.27209734916687,0.4644751250743866,-0.2849099934101105
1774789960456766500,11.920766357421876,2.434903144836426,0.40222588181495667,-0.5339069962501526
1774789960476908000,11.940907958984376,3.0142998695373535,0.5674257874488831,-1.3838485479354858
1774789960497049600,11.961049560546876,2.6671407222747803,0.24181437492370605,-2.5258827209472656
1774789960507090000,11.97108984375,2.6216509342193604,-0.21787235140800476,-2.5977089405059814
1774789960517160700,11.98116064453125,2.367865562438965,-0.9744400978088379,-2.434903144836426
1774789960527231500,11.9912314453125,1.9967641830444336,-1.7334020137786865,-2.1811177730560303
1774789960537302300,12.00130224609375,1.4987702369689941,-1.965639591217041,-1.9512743949890137
1774789960547373000,12.011373046875,1.2856862545013428,-1.742978811264038,-1.8602946996688843
1774789960557443800,12.02144384765625,1.460463047027588,-1.2306196689605713,-1.8411411046981812
1774789960567484200,12.031484130859376,1.6615760326385498,-0.9002198576927185,-1.9776105880737305
1774789960577555000,12.041554931640626,1.721431016921997,-0.8858546018600464,-2.0661959648132324
1774789960597727200,12.061727294921875,1.048660397529602,-1.05105459690094,-1.778891921043396
1774789960607798000,12.071798095703125,0.5434837937355042,-1.1755530834197998,-1.3407529592514038
1774789960617838300,12.08183837890625,0.181959331035614,-1.3096283674240112,-1.091755986213684
1774789960627939600,12.091939697265625,-0.12928688526153564,-1.3694833517074585,-0.8667010068893433
1774789960638010400,12.10201025390625,-0.5099649429321289,-1.414973258972168,-0.646434485912323
1774789960648081200,12.1120810546875,-0.8164227604866028,-1.3503297567367554,-0.29209262132644653
1774789960658182400,12.122182373046876,-0.9840168952941895,-1.3455413579940796,0.08619125932455063
1774789960668284000,12.132283935546875,-0.993593692779541,-1.2521674633026123,0.3974374830722809
1774789960688395000,12.15239501953125,-1.37906014919281,-0.9409212470054626,0.8212111592292786
1774789960698465800,12.1624658203125,-1.8148049116134644,-0.849941611289978,0.9074024558067322
1774789960708567000,12.172567138671875,-2.1523873805999756,-0.7015010714530945,0.9744400978088379
1774789960718607400,12.182607421875,-2.4803929328918457,-0.6129156351089478,1.015141487121582
1774789960728678100,12.19267822265625,-2.6408045291900635,-0.5171475410461426,0.9792284965515137
1774789960738779400,12.202779296875,-2.736572504043579,-0.47165772318840027,0.8259995579719543
1774789960748880600,12.212880615234376,-2.8658595085144043,-0.2849099934101105,0.6943184733390808
1774789960758982100,12.222982177734375,-3.0406360626220703,-0.2298433631658554,0.6344634294509888
1774789960769053000,12.233052978515625,-2.911349296569824,-0.2298433631658554,0.7086837291717529
1774789960789225000,12.253224853515626,-2.8634653091430664,-0.11971008777618408,0.6392518281936646
1774789960799295700,12.263295654296876,-2.896984100341797,-0.019153613597154617,0.6631938815116882
1774789960809366500,12.273366455078126,-2.808398485183716,0.14365209639072418,0.5003881454467773
1774789960819437300,12.283437255859376,-2.717418909072876,0.31124621629714966,0.3902548849582672
1774789960829538800,12.293538818359375,-2.5689783096313477,0.4165911078453064,0.1604115068912506
1774789960839640000,12.30364013671875,-2.3080103397369385,0.30885201692581177,-0.09816227108240128
1774789960849710800,12.3137109375,-2.027888774871826,0.2968810200691223,-0.181959331035614
1774789960859812000,12.32381201171875,-1.7262194156646729,0.24899697303771973,-0.05027823522686958
1774789960889963500,12.353963623046875,-0.9528923034667969,0.5147533416748047,0.3495534360408783
1774789960900034300,12.364034423828125,-0.6129156351089478,0.4908113479614258,0.5626373887062073
1774789960910135600,12.374135498046876,-0.26815059781074524,0.49559974670410156,0.6440402865409851
1774789960920206300,12.384206298828126,0.35434186458587646,0.35434186458587646,0.6919242739677429
1774789960930277000,12.394277099609376,0.6033388376235962,0.12689268589019775,0.7757213711738586
1774789960940378600,12.404378662109375,0.8643068075180054,-0.021547814831137657,0.7565677165985107
1774789960950449400,12.414449462890625,1.113303780555725,0.05267243832349777,0.6727706789970398
1774789960960520200,12.424520263671875,1.3503297567367554,0.035913024097681046,0.5506663918495178
1774789960970591000,12.434591064453125,1.6424223184585571,0.3280056416988373,0.42856210470199585
1774789960990702000,12.4547021484375,1.8986018896102905,0.3495534360408783,0.2777273952960968
1774789961010782500,12.474782470703126,1.9081788063049316,0.07422025501728058,0.19153612852096558
1774789961020853500,12.484853515625,1.8770540952682495,-0.023942016065120697,0.3758896589279175
1774789961030924300,12.49492431640625,1.8698714971542358,-0.035913024097681046,0.569819986820221
1774789961041025500,12.505025634765625,1.8626888990402222,-0.10773907601833344,0.8762778043746948
1774789961051096300,12.515096435546875,2.073378562927246,-0.43095630407333374,1.1468225717544556
1774789961061197600,12.525197509765626,2.801215887069702,-0.6871358752250671,1.1516109704971313
1774789961071298800,12.535298828125,3.6176388263702393,-0.993593692779541,0.31603461503982544
1774789961091410000,12.555409912109376,3.00711727142334,-2.252943754196167,-1.9847931861877441
1774789961101511400,12.565511474609375,2.073378562927246,-2.209848165512085,-2.2697031497955322
1774789961111612700,12.57561279296875,0.8690952062606812,-1.482010841369629,-1.7381904125213623
1774789961121683500,12.585683349609376,0.3256114423274994,-0.5722141861915588,-0.7230489253997803
1774789961131754200,12.595754150390626,0.026336219161748886,-0.033518824726343155,0.090979665517807
1774789961141855500,12.60585546875,0.3232172429561615,-0.12210428714752197,0.5554547905921936
1774789961151895800,12.615895751953126,0.507570743560791,-0.7829039692878723,0.4620809257030487
1774789961161966600,12.625966552734376,0.5602431893348694,-1.7956513166427612,0.2106897532939911
1774789961172037400,12.636037353515626,0.6344634294509888,-2.676717519760132,0.06703764945268631
1774789961182108200,12.646108154296876,0.7015010714530945,-3.157952070236206,0.12449848651885986
1774789961212259600,12.676259521484376,0.33039984107017517,-2.1380221843719482,0
1774789961222360800,12.68636083984375,0.10534487664699554,-1.647210717201233,-0.3016694188117981
1774789961232431900,12.696431884765625,-0.21547815203666687,-1.2952631711959839,-0.6368576288223267
1774789961242502700,12.706502685546875,-0.44771572947502136,-1.2497732639312744,-0.8259995579719543
1774789961252512300,12.71651220703125,-0.569819986820221,-1.3024457693099976,-0.8571242094039917
1774789961262613800,12.72661376953125,-0.6392518281936646,-1.3910311460494995,-0.8020575642585754
1774789961272684500,12.7366845703125,-0.7158663272857666,-1.2713210582733154,-0.706289529800415
1774789961282724600,12.746724609375,-0.9289502501487732,-1.41257905960083,-0.4165911078453064
1774789961312937200,12.776937255859375,-1.5490485429763794,-1.192312479019165,0.2106897532939911
1774789961322977500,12.7869775390625,-1.8602946996688843,-0.9241618514060974,0.37828385829925537
1774789961333017600,12.797017578125,-2.2002713680267334,-0.7637503147125244,0.49320554733276367
1774789961343119000,12.807119140625,-2.3247697353363037,-0.3998316824436188,0.7254431247711182
1774789961353190000,12.81718994140625,-2.559401512145996,-0.3016694188117981,0.8427590131759644
1774789961363230200,12.827230224609375,-2.655169725418091,-0.1149216815829277,0.8834604024887085
1774789961373209300,12.837209228515626,-2.6216509342193604,-0.17717093229293823,0.8690952062606812
1774789961383310600,12.847310546875,-2.6791117191314697,-0.33997663855552673,0.8044517636299133
1774789961393412000,12.857412109375,-2.7964274883270264,-0.4118026793003082,0.768538773059845
1774789961413462000,12.8774619140625,-2.889801502227783,-0.5219359993934631,0.9145850539207458
1774789961423563300,12.887563232421876,-2.717418909072876,-0.38546648621559143,1.0821791887283325
1774789961433664800,12.897664794921875,-2.403778553009033,-0.3519476354122162,1.0031704902648926
1774789961443766000,12.90776611328125,-1.968033790588379,-0.33758243918418884,0.8571242094039917
1774789961453806300,12.917806396484375,-1.359906554222107,-0.5003881454467773,0.7924807667732239
1774789961463907600,12.927907470703126,-1.0055646896362305,-0.6416460275650024,0.7374141216278076
1774789961473978400,12.937978271484376,-0.9481038451194763,-0.7445967197418213,0.7757213711738586
1774789961484049200,12.948049072265626,-0.933738648891449,-0.646434485912323,0.8667010068893433
1774789961494059000,12.95805908203125,-0.8451532125473022,-0.47405192255973816,1.070208191871643
1774789961534342100,12.998342041015626,0.31124621629714966,-0.16759411990642548,0.7086837291717529
1774789961544443400,13.008443359375,0.5650315880775452,-0.35913026332855225,0.5817909836769104
1774789961554514200,13.01851416015625,0.7972691655158997,-0.6033388376235962,0.6440402865409851
1774789961564615700,13.02861572265625,1.1755530834197998,-0.6200982332229614,0.5961562395095825
1774789961574656000,13.038656005859375,1.3623007535934448,-0.586579442024231,0.6224924325942993
1774789961584757200,13.04875732421875,1.5825673341751099,-0.6488286852836609,0.47884035110473633
1774789961594797600,13.058797607421875,1.8722656965255737,-0.6703764796257019,0.49559974670410156
1774789961645182000,13.109181884765626,3.4093432426452637,-0.15801730751991272,0.011971008032560349
1774789961655252700,13.119252685546876,3.689464807510376,0.033518824726343155,-0.5937620401382446
1774789961665323500,13.129323486328126,3.397372245788574,0.10055647045373917,-1.3479355573654175
1774789961675425000,13.139425048828125,3.0119056701660156,-0.1149216815829277,-1.8938134908676147
1774789961685526300,13.1495263671875,2.5546131134033203,-0.21547815203666687,-2.0039467811584473
1774789961695597000,13.15959716796875,2.2002713680267334,-0.47165772318840027,-1.778891921043396
1774789961705667800,13.169667724609376,1.8794482946395874,-1.0630255937576294,-1.4700398445129395
1774789961715738600,13.179738525390626,1.8746598958969116,-1.0103530883789062,-1.4748282432556152
1774789961766062000,13.23006201171875,1.4748282432556152,-1.7286136150360107,-1.8267759084701538
1774789961776072000,13.240072021484375,1.2258312702178955,-1.2617442607879639,-1.8914192914962769
1774789961786142700,13.250142822265625,0.9026140570640564,-0.6344634294509888,-1.7741034030914307
1774789961796183000,13.26018310546875,0.5530605912208557,-0.31603461503982544,-1.6687586307525635
1774789961806253800,13.27025390625,0.2825157940387726,-0.4213795065879822,-1.4676456451416016
1774789961816294100,13.280294189453125,-0.040701430290937424,-0.6607996821403503,-1.2737152576446533
1774789961846537000,13.310536865234376,-0.6991068720817566,-1.1803414821624756,-0.6033388376235962
1774789961856577300,13.320577392578125,-1.0199298858642578,-0.9265560507774353,-0.2849099934101105
1774789961866648000,13.33064794921875,-1.2066776752471924,-0.5099649429321289,0.016759412363171577
1774789961876718800,13.34071875,-1.4221558570861816,-0.047884032130241394,0.2825157940387726
1774789961886820000,13.350820068359376,-1.6112977266311646,0.21547815203666687,0.4381389021873474
1774789961896891000,13.360890869140626,-1.7525556087493896,0.2059013396501541,0.6536170840263367
1774789961906992400,13.370992431640625,-2.013523578643799,0.14844051003456116,0.6416460275650024
1774789961917063200,13.381063232421875,-2.255337953567505,0.0933738648891449,0.7230489253997803
1774789961947306000,13.411305908203126,-2.7126305103302,-0.2825157940387726,1.01753568649292
1774789961957376800,13.421376708984376,-2.6384103298187256,-0.3016694188117981,0.9792284965515137
1774789961967478000,13.43147802734375,-2.5234885215759277,-0.40940847992897034,0.8978256583213806
1774789961977549000,13.441549072265625,-2.449268341064453,-0.5219359993934631,0.7805097699165344
1774789961987589000,13.451589111328126,-2.7006595134735107,-0.4429273009300232,0.7254431247711182
1774789961997660000,13.461659912109376,-2.8443117141723633,-0.2968810200691223,0.7182605266571045
1774789962007731000,13.47173095703125,-2.918531894683838,-0.11013327538967133,0.5770025849342346
1774789962017771000,13.48177099609375,-2.9041666984558105,-0.0454898327589035,0.7086837291717529
1774789962027872500,13.49187255859375,-2.5665841102600098,-0.19393034279346466,0.7326257228851318
1774789962058054400,13.522054443359375,-1.4077905416488647,-0.3974374830722809,0.6272808313369751
1774789962118479000,13.58247900390625,-0.2513911724090576,0.5913678407669067,0.6512228846549988
1774789962128550000,13.5925498046875,0.12689268589019775,0.6919242739677429,0.5099649429321289
1774789962138590200,13.602590087890626,0.5602431893348694,0.5147533416748047,0.5051765441894531
1774789962158731800,13.622731689453126,1.1228805780410767,0.05985504388809204,0.17956513166427612
1774789962168802600,13.632802490234376,1.357512354850769,-0.040701430290937424,0.1412578970193863
1774789962178873300,13.642873291015626,1.5729905366897583,0.08619125932455063,0.05267243832349777
1774789962188913700,13.65291357421875,1.5610195398330688,0.17956513166427612,-0.05506663769483566
1774789962219065000,13.683065185546875,1.678335428237915,0.15322890877723694,0.090979665517807
1774789962229136000,13.693135986328125,1.7046716213226318,0.15083470940589905,0.08619125932455063
1774789962239206700,13.70320654296875,1.742978811264038,0.12689268589019775,0.1867477297782898
1774789962249277400,13.71327734375,1.8315643072128296,0.15083470940589905,0.31603461503982544
1774789962289560600,13.753560546875,3.268085241317749,-1.335964560508728,-0.15801730751991272
1774789962299631400,13.76363134765625,3.1052796840667725,-1.9057846069335938,-0.8834604024887085
1774789962309732900,13.77373291015625,2.5091233253479004,-2.097320795059204,-1.0749965906143188
1774789962319803600,13.7838037109375,1.6208745241165161,-1.6089035272598267,-0.8379706144332886
1774789962329874400,13.79387451171875,1.0678139925003052,-0.9385270476341248,-0.31364041566848755
1774789962339914800,13.803914794921875,0.7924807667732239,-0.3926490843296051,0.3423708379268646
1774789962349985500,13.813985595703125,0.8212111592292786,-0.20111294090747833,0.6248866319656372
1774789962430460400,13.89446044921875,0.12689268589019775,-2.557007312774658,-0.43095630407333374
1774789962450632400,13.914632568359375,-0.6560112833976746,-1.7860745191574097,-0.7637503147125244
1774789962460642300,13.924642333984375,-0.7996633648872375,-1.6304513216018677,-0.8954314589500427
1774789962490885000,13.954885009765626,-1.6400281190872192,-1.479616641998291,-0.727837324142456
1774789962520945000,13.98494482421875,-2.255337953567505,-1.2737152576446533,-0.1364694982767105
1774789962531046100,13.995046142578126,-2.4420857429504395,-1.070208191871643,0.05746084079146385
1774789962581461200,14.045461181640626,-3.0166940689086914,-0.3471592366695404,0.7948749661445618
1774789962631784700,14.09578466796875,-2.3247697353363037,-0.7637503147125244,0.9265560507774353
1774789962641855500,14.10585546875,-2.0901381969451904,-0.5889736413955688,0.8643068075180054
1774789962722452500,14.186452392578126,0.5051765441894531,-0.9696516990661621,1.1779472827911377
1774789962752695600,14.216695556640625,1.1540051698684692,-0.3902548849582672,0.7948749661445618
1774789962762766300,14.226766357421875,1.2880805730819702,-0.5626373887062073,0.5770025849342346
1774789962772837000,14.236837158203125,1.3120225667953491,-0.7134721279144287,0.3998316824436188
1774789962803019000,14.26701904296875,1.6639702320098877,0.026336219161748886,0.3016694188117981
1774789962813059000,14.27705908203125,1.9632453918457031,0.13168109953403473,0.26336219906806946
1774789962833231400,14.2972314453125,2.276885747909546,0.2944868206977844,0.17956513166427612
1774789962843302100,14.30730224609375,2.5019407272338867,0.10295066982507706,0.28969839215278625
1774789962853342500,14.317342529296875,2.8586769104003906,0.038307227194309235,0.2561795711517334
1774789962863382800,14.3273828125,3.24414324760437,0.2322375625371933,-0.11252748221158981
1774789962873484000,14.337484130859375,3.354276657104492,0.3256114423274994,-0.7206547260284424
1774789962903635500,14.367635498046875,2.5498247146606445,0.0933738648891449,-1.460463047027588
1774789962913706200,14.377706298828125,2.0231003761291504,-0.35673606395721436,-1.41257905960083
1774789962923777000,14.387777099609375,1.525106430053711,-1.0893617868423462,-1.2306196689605713
1774789962933847800,14.397847900390625,1.338358759880066,-1.6065093278884888,-1.0103530883789062
1774789962943888100,14.40788818359375,1.4437036514282227,-1.941697597503662,-0.7852981686592102
1774789962953959000,14.417958984375,1.4987702369689941,-1.9584569931030273,-0.7637503147125244
1774789962964029700,14.42802978515625,1.4891934394836426,-2.1595699787139893,-0.7374141216278076
1774789962974039300,14.438039306640626,1.3192051649093628,-2.164358377456665,-0.8331822156906128
1774789962984079600,14.44807958984375,1.070208191871643,-2.1380221843719482,-1.015141487121582
1774789963014231000,14.47823095703125,-0.29209262132644653,-1.9297266006469727,-0.9002198576927185
1774789963034372600,14.49837255859375,-0.6847416758537292,-1.6759412288665771,-0.4668693244457245
1774789963044443400,14.508443359375,-0.8762778043746948,-1.8746598958969116,-0.5267243981361389
1774789963054483700,14.518483642578126,-1.0797849893569946,-1.9297266006469727,-0.4668693244457245
1774789963064585000,14.5285849609375,-1.2856862545013428,-1.9823989868164062,-0.23942017555236816
1774789963074625300,14.538625244140626,-1.534683346748352,-1.9536685943603516,0.0694318488240242
1774789963094797600,14.558797607421875,-2.169146776199341,-1.5322890281677246,0.5841852426528931
1774789963104898800,14.56889892578125,-2.3271639347076416,-1.1492167711257935,0.8068459630012512
1774789963114969600,14.578969482421876,-2.5737667083740234,-0.7110779285430908,0.7445967197418213
1774789963125040400,14.589040283203126,-2.626439332962036,-0.3878606855869293,0.768538773059845
1774789963135080700,14.599080810546875,-2.6647465229034424,-0.18914192914962769,0.646434485912323
1774789963145182000,14.609181884765626,-2.676717519760132,-0.31124621629714966,0.6368576288223267
1774789963155252700,14.619252685546876,-2.6431987285614014,-0.43095630407333374,0.5746083855628967
1774789963165293000,14.62929296875,-2.8155810832977295,-0.5650315880775452,0.6703764796257019
1774789963175333400,14.63933349609375,-2.9065608978271484,-0.49320554733276367,0.7589619159698486
1774789963185434600,14.6494345703125,-3.1196448802948,-0.4165911078453064,0.8164227604866028
1774789963215647000,14.67964697265625,-2.540247917175293,0.14365209639072418,1.036689281463623
1774789963225748500,14.68974853515625,-2.0254945755004883,-0.009576806798577309,0.8858546018600464
1774789963235819300,14.6998193359375,-1.623268723487854,-0.22266076505184174,0.6631938815116882
1774789963245890000,14.70989013671875,-1.4101848602294922,-0.6057330369949341,0.4644751250743866
1774789963255899600,14.719899658203126,-1.3886369466781616,-0.7565677165985107,0.31842881441116333
1774789963266001200,14.730001220703125,-1.3910311460494995,-0.7445967197418213,0.3208230137825012
1774789963276072000,14.740072021484375,-1.3551181554794312,-0.7158663272857666,0.38067805767059326
1774789963286173200,14.750173095703126,-1.2617442607879639,-0.4213795065879822,0.608127236366272
1774789963306314800,14.770314697265626,-0.5506663918495178,-0.1412578970193863,0.6153098344802856
1774789963316385500,14.780385498046876,0.021547814831137657,-0.2561795711517334,0.5195417404174805
1774789963326487000,14.790487060546875,0.5363011956214905,-0.2059013396501541,0.3974374830722809
1774789963336557800,14.800557861328125,0.9145850539207458,-0.181959331035614,0.3519476354122162
1774789963346598000,14.810597900390626,1.2090718746185303,-0.040701430290937424,0.524330198764801
1774789963356669000,14.8206689453125,1.5059528350830078,0.035913024097681046,0.5650315880775452
1774789963366739700,14.83073974609375,1.8531121015548706,0.08858546614646912,0.6727706789970398
1774789963376810500,14.840810546875,2.056619167327881,-0.11252748221158981,0.4644751250743866
1774789963386881300,14.85088134765625,2.2816741466522217,-0.24899697303771973,0.16998831927776337
1774789963417093600,14.88109375,2.0853497982025146,0.19632454216480255,0.2322375625371933
1774789963427164400,14.891164306640626,1.9345149993896484,0.6129156351089478,0.31364041566848755
1774789963437265700,14.901265625,1.7980455160140991,0.7852981686592102,0.4692635238170624
1774789963447306000,14.911305908203126,1.7717092037200928,0.7924807667732239,0.6057330369949341
1774789963457346300,14.92134619140625,1.721431016921997,0.6033388376235962,0.9002198576927185
1774789963467417000,14.9314169921875,2.1571757793426514,-0.12928688526153564,1.2066776752471924
1774789963477518300,14.941518310546876,2.7078421115875244,-0.8882488012313843,1.2401964664459229
1774789963487589000,14.951589111328126,3.1196448802948,-1.41257905960083,0.8403648138046265
1774789963517801700,14.9818017578125,1.8171991109848022,-2.1284453868865967,-1.0199298858642578
1774789963527903000,14.991903076171875,0.646434485912323,-1.5634137392044067,-0.6344634294509888
1774789963537973800,15.001973876953125,-0.10773907601833344,-0.7733271718025208,0.1843535304069519
1774789963548044500,15.01204443359375,-0.38307225704193115,-0.5291185975074768,0.9720458984375
1774789963558115300,15.022115234375,-0.05985504388809204,-0.9289502501487732,1.3479355573654175
1774789963568186000,15.03218603515625,0.2298433631658554,-1.886630892753601,1.3503297567367554
1774789963578287400,15.042287353515626,0.45489832758903503,-3.112462282180786,1.05105459690094
1774789963588297200,15.052297119140626,0.6320692300796509,-3.9911341667175293,0.8259995579719543
1774789963598398500,15.0623984375,0.8667010068893433,-4.180276393890381,0.811634361743927
1774789963638712300,15.10271240234375,0.13407529890537262,-2.7269957065582275,-0.4668693244457245
1774789963648752600,15.112752685546875,-0.3208230137825012,-2.58813214302063,-0.646434485912323
1774789963658854000,15.12285400390625,-0.6943184733390808,-2.4157495498657227,-0.7110779285430908
1774789963668894200,15.132894287109375,-0.811634361743927,-2.2912509441375732,-0.7110779285430908
1774789963678995500,15.142995361328126,-0.8571242094039917,-2.190694570541382,-0.7781155705451965
1774789963689035800,15.153035888671875,-1.048660397529602,-2.075772762298584,-0.7230489253997803
1774789963699137000,15.163136962890626,-1.3479355573654175,-1.9967641830444336,-0.6655880808830261
1774789963709207800,15.173207763671876,-1.4389152526855469,-1.8387469053268433,-0.49320554733276367
1774789963719278600,15.183278564453126,-1.6950948238372803,-1.86508309841156,-0.3998316824436188
1774789963729349400,15.193349365234376,-1.9847931861877441,-1.5921441316604614,-0.21787235140800476
1774789963739389700,15.2033896484375,-2.209848165512085,-1.2018892765045166,-0.17477671802043915
1774789963749460500,15.21346044921875,-2.559401512145996,-0.6344634294509888,-0.07900865375995636
1774789963759531300,15.22353125,-2.9448680877685547,-0.35434186458587646,-0.12449848651885986
1774789963769571600,15.233571533203126,-3.2609026432037354,0.016759412363171577,0.014365210197865963
1774789963779673000,15.243673095703125,-3.643975019454956,0.2082955539226532,0.12449848651885986
1774789963789743900,15.253743896484375,-3.8331170082092285,-0.0694318488240242,0.23942017555236816
1774789963799814700,15.263814697265625,-3.531447410583496,-0.4405331015586853,0.5027823448181152
1774789963809885400,15.273885498046875,-3.0861260890960693,-0.6727706789970398,0.7110779285430908
1774789963829996500,15.29399658203125,-2.056619167327881,-0.9528923034667969,1.237802267074585
1774789963850107600,15.314107666015625,-1.5131354331970215,-0.8882488012313843,1.4987702369689941
1774789963870249200,15.334249267578125,-1.2186486721038818,-0.5267243981361389,1.5825673341751099
1774789963880320000,15.344320068359375,-0.9074024558067322,-0.33279404044151306,1.6639702320098877
1774789963890421200,15.354421142578126,-0.6320692300796509,-0.14365209639072418,1.6352397203445435
1774789963900461600,15.364461669921875,-0.10295066982507706,-0.15801730751991272,1.4724340438842773
1774789963910502000,15.374501953125,0.28969839215278625,-0.272938996553421,1.479616641998291
1774789963920572700,15.38457275390625,0.7038952708244324,-0.49799394607543945,1.3335703611373901
1774789963950785000,15.414784912109376,1.4221558570861816,-0.7230489253997803,1.173158884048462
1774789963960825300,15.424825439453125,1.599326729774475,-0.6009446382522583,1.113303780555725
1774789963970896100,15.434896240234375,1.6639702320098877,-0.5937620401382446,1.015141487121582
1774789963980967000,15.444966796875,1.6759412288665771,-0.6344634294509888,1.0438719987869263
1774789963991037700,15.45503759765625,1.7046716213226318,-0.608127236366272,0.9888052940368652
1774789964001108500,15.4651083984375,1.8124107122421265,-0.6943184733390808,0.8643068075180054
1774789964011179300,15.47517919921875,2.0159177780151367,-0.7445967197418213,0.7326257228851318
1774789964021280500,15.485280517578126,2.233790159225464,-0.6248866319656372,0.6224924325942993
1774789964031351600,15.4953515625,2.3750481605529785,-0.6129156351089478,0.4668693244457245
1774789964061594400,15.525594482421875,3.0550012588500977,-0.6272808313369751,-0.6272808313369751
1774789964071665200,15.5356650390625,2.6791117191314697,-0.6536170840263367,-1.1899182796478271
1774789964081705500,15.54570556640625,2.5019407272338867,-0.9002198576927185,-1.6424223184585571
1774789964091776300,15.5557763671875,2.2146365642547607,-1.235408067703247,-1.623268723487854
1774789964101847000,15.565846923828126,2.0925323963165283,-1.764526605606079,-1.4053963422775269
1774789964111948300,15.5759482421875,2.013523578643799,-2.250549554824829,-1.2856862545013428
1774789964121988600,15.585988525390626,1.8100165128707886,-2.5474305152893066,-1.3239935636520386
1774789964152201000,15.616200927734376,1.2282254695892334,-1.8267759084701538,-1.4748282432556152
1774789964162241300,15.6262412109375,1.1444283723831177,-1.4101848602294922,-1.3000515699386597
1774789964172342500,15.636342529296876,0.8978256583213806,-1.0678139925003052,-1.280897855758667
1774789964182413600,15.64641357421875,0.6991068720817566,-0.8930372595787048,-1.4939818382263184
1774789964192453600,15.65645361328125,0.4812345504760742,-0.8164227604866028,-1.5275006294250488
1774789964202524400,15.6665244140625,0.4381389021873474,-0.993593692779541,-1.556231141090393
1774789964212626000,15.6766259765625,0.2753331959247589,-1.2425906658172607,-1.4963760375976562
1774789964222666200,15.686666259765625,0.08619125932455063,-1.678335428237915,-1.3096283674240112
1774789964252848000,15.71684814453125,-0.7254431247711182,-1.4700398445129395,-0.35913026332855225
1774789964262919000,15.7269189453125,-0.9864110946655273,-1.036689281463623,-0.043095629662275314
1774789964272989700,15.73698974609375,-1.335964560508728,-0.6775590777397156,0.22266076505184174
1774789964283060500,15.747060546875,-1.721431016921997,-0.2585737705230713,0.5841852426528931
1774789964293131300,15.75713134765625,-2.1092917919158936,-0.22505496442317963,0.8020575642585754
1774789964303232500,15.767232421875,-2.5234885215759277,-0.22744916379451752,1.0271124839782715
1774789964313272800,15.77727294921875,-2.6623523235321045,-0.37828385829925537,1.139639973640442
1774789964323343600,15.787343505859376,-2.8107926845550537,-0.4644751250743866,1.139639973640442
1774789964333384000,15.797384033203125,-2.9544448852539062,-0.42856210470199585,1.1300631761550903
1774789964343485200,15.807485107421876,-3.0550012588500977,-0.38067805767059326,1.1683704853057861
1774789964373697500,15.837697509765626,-3.1244332790374756,-0.22026655077934265,1.0893617868423462
1774789964383737900,15.84773779296875,-3.2321722507476807,-0.4189853072166443,1.0654197931289673
1774789964393808600,15.85780859375,-3.251325845718384,-0.19871874153614044,1.0582371950149536
1774789964403879400,15.86787939453125,-3.0885202884674072,-0.05506663769483566,1.139639973640442
1774789964413919700,15.877919677734376,-2.913743495941162,0.11013327538967133,1.113303780555725
1774789964424021000,15.88802099609375,-2.432508945465088,0.20111294090747833,0.9983820915222168
1774789964434092000,15.898092041015625,-1.8794482946395874,0.21787235140800476,0.871489405632019
1774789964444162800,15.908162841796875,-1.290474772453308,-0.0071826050989329815,0.7589619159698486
1774789964474375200,15.938375244140625,-0.3974374830722809,-0.10773907601833344,0.950498104095459
1774789964484476400,15.948476318359376,-0.026336219161748886,0.06464344263076782,0.9840168952941895
1774789964494577700,15.95857763671875,0.28730419278144836,0.021547814831137657,0.8643068075180054
1774789964504679200,15.96867919921875,0.3495534360408783,0.1388636976480484,0.7350199222564697
1774789964514750000,15.97875,0.586579442024231,0.13407529890537262,0.6392518281936646
1774789964524820700,15.98882080078125,0.849941611289978,0.016759412363171577,0.5099649429321289
1774789964534830300,15.998830322265626,1.1516109704971313,-0.22505496442317963,0.569819986820221
1774789964544931800,16.008931884765627,1.5873557329177856,-0.3208230137825012,0.569819986820221
1774789964565043000,16.02904296875,1.9033904075622559,-0.3758896589279175,0.4620809257030487
1774789964575113700,16.03911376953125,1.8195933103561401,-0.33518823981285095,0.44532153010368347
1774789964585184500,16.0491845703125,1.6280571222305298,-0.19153612852096558,0.4189853072166443
1774789964595255300,16.05925537109375,1.580173134803772,-0.09576806426048279,0.47165772318840027
1774789964605295600,16.069295654296877,1.5107412338256836,-0.15322890877723694,0.5937620401382446
1774789964615336000,16.0793359375,1.4844050407409668,-0.30885201692581177,0.6703764796257019
1774789964625437200,16.089437255859377,1.5634137392044067,-0.5003881454467773,0.9026140570640564
1774789964635477500,16.0994775390625,1.8579005002975464,-0.8475474119186401,1.0797849893569946
1774789964645517600,16.109517578125,2.5306711196899414,-1.1109095811843872,1.1300631761550903
1774789964685770500,16.1497705078125,2.298433542251587,-2.762908697128296,-0.7015010714530945
1774789964695841300,16.15984130859375,1.625662922859192,-2.5498247146606445,-0.3998316824436188
1774789964705942500,16.169942626953127,0.9528923034667969,-2.0805611610412598,0.08858546614646912
1774789964716013300,16.180013427734377,0.47644615173339844,-1.434126853942871,0.5147533416748047
1774789964726084000,16.190083984375,0.26096799969673157,-0.8690952062606812,0.6607996821403503
