time,seconds_elapsed,z,y,x
1774789947563004700,-0.972995361328125,0.12950342893600464,0.3628539443016052,0.48869219422340393
1774789947582646300,-0.953353759765625,-0.26633724570274353,0.5387831330299377,0.6951646208763123
1774789947592456200,-0.943543701171875,0.26633724570274353,-0.44837507605552673,-0.5546656250953674
1774789947602366000,-0.933634033203125,0.29077184200286865,-0.38606682419776917,-0.26022860407829285
1774789947612406000,-0.923593994140625,0.2064724564552307,-0.16982053220272064,0.06352998316287994
1774789947622476800,-0.913523193359375,0.18814650177955627,-0.15393804013729095,-0.03420845419168472
1774789947632547800,-0.9034521484375,0.16982053220272064,-0.15271630883216858,-0.1466076523065567
1774789947652658700,-0.88334130859375,0.16493362188339233,-0.15271630883216858,-0.251676470041275
1774789947662729700,-0.873270263671875,0.16737708449363708,-0.14538592100143433,-0.23457226157188416
1774789947692942000,-0.843057861328125,0.19303341209888458,-0.08674286305904388,-0.12339477986097336
1774789947713022500,-0.8229775390625,0.2064724564552307,-0.09162978827953339,-0.07452555745840073
1774789947723093500,-0.812906494140625,0.20036379992961884,-0.10262536257505417,-0.04764748737215996
1774789947733164300,-0.802835693359375,0.19547687470912933,-0.1062905490398407,-0.00366519158706069
1774789947743204400,-0.792795654296875,0.1918116807937622,-0.10873401165008545,0.02687807008624077
1774789947753244700,-0.78275537109375,0.1820378452539444,-0.1014036312699318,0
1774789947763315500,-0.7726845703125,0.17104226350784302,-0.09407325088977814,-0.06963863968849182
1774789947813669600,-0.722330322265625,0.13439035415649414,-0.11728613078594208,-0.23945917189121246
1774789947823710000,-0.7122900390625,0.13439035415649414,-0.11728613078594208,-0.23945917189121246
1774789947833780700,-0.70221923828125,0.12339477986097336,-0.1014036312699318,-0.08429940044879913
1774789947853952800,-0.682047119140625,0.11484266817569733,-0.09529497474431992,-0.015882495790719986
1774789947864023600,-0.6719765625,0.11362093687057495,-0.08307767659425735,0.02687807008624077
1774789947884104200,-0.651895751953125,0.0757472887635231,-0.07819075137376785,-0.0024434609804302454
1774789947894205400,-0.641794677734375,0.04886921867728233,-0.0806342139840126,-0.0354301854968071
1774789947904276200,-0.631723876953125,0.02932153269648552,-0.0757472887635231,-0.0708603709936142
1774789947914377500,-0.62162255859375,0.01466076634824276,-0.07208210229873657,-0.11484266817569733
1774789947924448300,-0.6115517578125,0.006108652334660292,-0.06108652427792549,-0.15882496535778046
1774789947934519000,-0.60148095703125,-0.013439035043120384,-0.05009094998240471,-0.1319468915462494
1774789947944590000,-0.591409912109375,-0.013439035043120384,-0.05009094998240471,-0.1319468915462494
1774789947954660900,-0.581339111328125,-0.02932153269648552,-0.0403171069920063,-0.059864792972803116
1774789947964731600,-0.571268310546875,-0.045204028487205505,-0.03176499158143997,0.019547687843441963
1774789947994974500,-0.541025634765625,-0.07941248267889023,-0.01710422709584236,0.05375614017248154
1774789948005075700,-0.53092431640625,-0.08674286305904388,-0.018325956538319588,0.021991148591041565
1774789948015146500,-0.520853515625,-0.09285151958465576,-0.02076941914856434,-0.004886921960860491
1774789948025217300,-0.51078271484375,-0.10384709388017654,-0.02932153269648552,-0.0403171069920063
1774789948035257600,-0.500742431640625,-0.11362093687057495,-0.03420845419168472,-0.07330382615327835
1774789948045359000,-0.490640869140625,-0.11362093687057495,-0.04153883829712868,-0.07452555745840073
1774789948055460400,-0.48053955078125,-0.1062905490398407,-0.04398229718208313,-0.05253441259264946
1774789948065561600,-0.4704384765625,-0.1014036312699318,-0.039095375686883926,-0.036651913076639175
1774789948105906000,-0.430093994140625,-0.08674286305904388,-0.03420845419168472,0.010995574295520782
1774789948115976700,-0.420023193359375,-0.08552113175392151,-0.0354301854968071,0.01466076634824276
1774789948126047500,-0.409952392578125,-0.08307767659425735,-0.03420845419168472,0.018325956538319588
1774789948136148700,-0.399851318359375,-0.07696902006864548,-0.039095375686883926,0.03176499158143997
1774789948146250200,-0.389749755859375,-0.07452555745840073,-0.042760565876960754,0.042760565876960754
1774789948156321000,-0.379678955078125,-0.07819075137376785,-0.039095375686883926,0.03420845419168472
1774789948166391800,-0.369608154296875,-0.07819075137376785,-0.03298672288656235,0.012217304669320583
1774789948176462600,-0.359537353515625,-0.0757472887635231,-0.028099801391363144,-0.021991148591041565
1774789948206675000,-0.329324951171875,-0.09773843735456467,-0.039095375686883926,-0.09896016865968704
1774789948216776200,-0.319223876953125,-0.09896016865968704,-0.0354301854968071,-0.09285151958465576
1774789948226847000,-0.309153076171875,-0.09040805697441101,-0.02321287989616394,-0.06108652427792549
1774789948236917800,-0.299082275390625,-0.06963863968849182,-0.015882495790719986,0.0012217304902151227
1774789948246988500,-0.289011474609375,-0.04642575979232788,-0.00855211354792118,0.059864792972803116
1774789948257090000,-0.278909912109375,-0.036651913076639175,-0.00733038317412138,0.08429940044879913
1774789948267160800,-0.268839111328125,-0.0403171069920063,-0.00855211354792118,0.06475171446800232
1774789948277201200,-0.258798828125,-0.045204028487205505,-0.01710422709584236,0.02076941914856434
1774789948317453800,-0.218546142578125,-0.04153883829712868,-0.004886921960860491,-0.06963863968849182
1774789948327524600,-0.208475341796875,-0.05375614017248154,-0.010995574295520782,-0.08185594528913498
1774789948337625900,-0.1983740234375,-0.05619960278272629,-0.010995574295520782,-0.06841690838336945
1774789948347727000,-0.18827294921875,-0.051312681287527084,-0.009773843921720982,-0.039095375686883926
1774789948357798000,-0.1782021484375,-0.04642575979232788,-0.00855211354792118,-0.013439035043120384
1774789948367838200,-0.168161865234375,-0.04398229718208313,-0.0012217304902151227,0.004886921960860491
1774789948377939500,-0.158060546875,-0.04153883829712868,0.006108652334660292,0.024434609338641167
1774789948388041000,-0.147958984375,-0.04153883829712868,0.004886921960860491,0.04153883829712868
1774789948428385000,-0.107614990234375,-0.051312681287527084,0,0.019547687843441963
1774789948438455800,-0.097544189453125,-0.05009094998240471,-0.009773843921720982,-0.019547687843441963
1774789948448557300,-0.087442626953125,-0.04642575979232788,-0.013439035043120384,-0.04642575979232788
1774789948458628000,-0.077371826171875,-0.042760565876960754,-0.018325956538319588,-0.05619960278272629
1774789948468729300,-0.067270751953125,-0.0403171069920063,-0.02076941914856434,-0.04886921867728233
1774789948478739200,-0.0572607421875,-0.03420845419168472,-0.021991148591041565,-0.0354301854968071
1774789948488779500,-0.047220458984375,-0.028099801391363144,-0.02932153269648552,-0.018325956538319588
1774789948518961400,-0.01703857421875,-0.025656340643763542,-0.051312681287527084,0.04398229718208313
1774789948529032200,-0.0069677734375,-0.021991148591041565,-0.051312681287527084,0.051312681287527084
1774789948539072300,0.003072265625,-0.02321287989616394,-0.04153883829712868,0.024434609338641167
1774789948549173800,0.013173828125,-0.02321287989616394,-0.03787364438176155,-0.03787364438176155
1774789948559183400,0.023183349609375,-0.02076941914856434,-0.036651913076639175,-0.1014036312699318
1774789948569223700,0.0332236328125,-0.018325956538319588,-0.03787364438176155,-0.12461651116609573
1774789948579264000,0.043263916015625,-0.02076941914856434,-0.04153883829712868,-0.09773843735456467
1774789948589334800,0.053334716796875,-0.03176499158143997,-0.0403171069920063,-0.036651913076639175
1774789948599405600,0.063405517578125,-0.039095375686883926,-0.03298672288656235,0.02932153269648552
1774789948609446000,0.07344580078125,-0.036651913076639175,-0.02321287989616394,0.08185594528913498
1774789948639689000,0.10368896484375,-0.0354301854968071,-0.012217304669320583,0.013439035043120384
1774789948649790200,0.113790283203125,-0.030543262138962746,-0.019547687843441963,-0.06108652427792549
1774789948659861000,0.123861083984375,-0.024434609338641167,-0.02321287989616394,-0.10995574295520782
1774789948669931800,0.133931884765625,-0.02076941914856434,-0.024434609338641167,-0.12950342893600464
1774789948679941600,0.143941650390625,-0.01710422709584236,-0.024434609338641167,-0.12339477986097336
1774789948690012400,0.154012451171875,-0.013439035043120384,-0.019547687843441963,-0.08674286305904388
1774789948700083200,0.164083251953125,-0.00733038317412138,-0.02076941914856434,-0.025656340643763542
1774789948710154000,0.174154052734375,-0.0012217304902151227,-0.02932153269648552,0.05375614017248154
1774789948750406700,0.21440673828125,-0.0012217304902151227,-0.02321287989616394,0.028099801391363144
1774789948760477400,0.2244775390625,0,-0.02687807008624077,-0.0354301854968071
1774789948770578700,0.23457861328125,-0.0012217304902151227,-0.03176499158143997,-0.08307767659425735
1774789948780680000,0.244679931640625,-0.00366519158706069,-0.03298672288656235,-0.09896016865968704
1774789948790750700,0.254750732421875,-0.00855211354792118,-0.02932153269648552,-0.08307767659425735
1774789948800821800,0.26482177734375,-0.01710422709584236,-0.02321287989616394,-0.051312681287527084
1774789948810892500,0.274892578125,-0.021991148591041565,-0.02321287989616394,-0.013439035043120384
1774789948820993800,0.284993896484375,-0.018325956538319588,-0.021991148591041565,0.028099801391363144
1774789948831064600,0.295064697265625,-0.012217304669320583,-0.019547687843441963,0.06963863968849182
1774789948861246500,0.32524658203125,-0.015882495790719986,-0.01710422709584236,0.006108652334660292
1774789948871286800,0.335286865234375,-0.015882495790719986,-0.019547687843441963,-0.04398229718208313
1774789948881388000,0.345387939453125,-0.013439035043120384,-0.01710422709584236,-0.08552113175392151
1774789948891489300,0.3554892578125,-0.010995574295520782,-0.010995574295520782,-0.10995574295520782
1774789948901560000,0.36556005859375,-0.00733038317412138,-0.006108652334660292,-0.11484266817569733
1774789948911661600,0.37566162109375,-0.00366519158706069,0,-0.10873401165008545
1774789948921732400,0.385732421875,-0.0012217304902151227,0.006108652334660292,-0.09407325088977814
1774789948931833600,0.39583349609375,0.0024434609804302454,0.00733038317412138,-0.06475171446800232
1774789948962046000,0.4260458984375,0,0.02076941914856434,-0.0024434609804302454
1774789948972116700,0.43611669921875,0,0.02321287989616394,0.00366519158706069
1774789948982187500,0.4461875,-0.004886921960860491,0.025656340643763542,-0.013439035043120384
1774789948992289000,0.4562890625,-0.010995574295520782,0.024434609338641167,-0.04153883829712868
1774789949002329000,0.4663291015625,-0.012217304669320583,0.024434609338641167,-0.06352998316287994
1774789949012430600,0.4764306640625,-0.00855211354792118,0.025656340643763542,-0.06963863968849182
1774789949022471000,0.486470947265625,-0.006108652334660292,0.019547687843441963,-0.05742133408784866
1774789949032541700,0.496541748046875,-0.010995574295520782,0.01466076634824276,-0.0354301854968071
1774789949052683300,0.516683349609375,-0.013439035043120384,0.009773843921720982,0.030543262138962746
1774789949062754000,0.526754150390625,-0.00733038317412138,0.006108652334660292,0.059864792972803116
1774789949072855300,0.536855224609375,-0.013439035043120384,-0.0024434609804302454,0.05742133408784866
1774789949082895600,0.5468955078125,-0.02321287989616394,-0.010995574295520782,0.021991148591041565
1774789949092996900,0.556996826171875,-0.024434609338641167,-0.02321287989616394,-0.01710422709584236
1774789949103067600,0.567067626953125,-0.03298672288656235,-0.04153883829712868,-0.045204028487205505
1774789949113138400,0.577138427734375,-0.04398229718208313,-0.051312681287527084,-0.0403171069920063
1774789949123209200,0.587209228515625,-0.04886921867728233,-0.05864306539297104,-0.004886921960860491
1774789949133310700,0.597310791015625,-0.051312681287527084,-0.05864306539297104,0.03298672288656235
1774789949173593900,0.63759375,-0.06841690838336945,-0.05864306539297104,-0.02321287989616394
1774789949183695000,0.647695068359375,-0.07819075137376785,-0.059864792972803116,-0.04153883829712868
1774789949193766000,0.657765869140625,-0.08429940044879913,-0.05864306539297104,-0.03420845419168472
1774789949203806200,0.66780615234375,-0.08307767659425735,-0.05619960278272629,0
1774789949213907700,0.67790771484375,-0.07452555745840073,-0.04398229718208313,0.045204028487205505
1774789949224009000,0.688009033203125,-0.06719517707824707,-0.03176499158143997,0.0757472887635231
1774789949254221300,0.71822119140625,-0.07452555745840073,-0.03298672288656235,0.04153883829712868
1774789949274363000,0.73836279296875,-0.0659734457731247,-0.039095375686883926,0.028099801391363144
1774789949284433700,0.74843359375,-0.05864306539297104,-0.039095375686883926,0.039095375686883926
1774789949294504400,0.75850439453125,-0.051312681287527084,-0.0354301854968071,0.04398229718208313
1774789949304606000,0.76860595703125,-0.042760565876960754,-0.030543262138962746,0.04642575979232788
1774789949314676700,0.7786767578125,-0.0354301854968071,-0.03420845419168472,0.05009094998240471
1774789949324747500,0.78874755859375,-0.028099801391363144,-0.03298672288656235,0.045204028487205505
1774789949334818300,0.798818359375,-0.01710422709584236,-0.0354301854968071,0.0403171069920063
1774789949385263900,0.849263916015625,0.004886921960860491,-0.025656340643763542,0.03787364438176155
1774789949395365000,0.859365234375,0.0024434609804302454,-0.024434609338641167,0.013439035043120384
1774789949405405400,0.869405517578125,-0.0024434609804302454,-0.018325956538319588,-0.00733038317412138
1774789949415506700,0.879506591796875,-0.006108652334660292,-0.013439035043120384,-0.018325956538319588
1774789949425577500,0.889577392578125,-0.013439035043120384,-0.01466076634824276,-0.018325956538319588
1774789949435648300,0.899648193359375,-0.019547687843441963,-0.00855211354792118,0.0012217304902151227
1774789949445688600,0.9096884765625,-0.024434609338641167,-0.00366519158706069,0.0403171069920063
1774789949475931400,0.939931396484375,-0.03298672288656235,0.019547687843441963,0.07696902006864548
1774789949496103700,0.960103759765625,-0.036651913076639175,0.025656340643763542,-0.019547687843441963
1774789949506174500,0.970174560546875,-0.03298672288656235,0.02687807008624077,-0.05619960278272629
1774789949516245200,0.980245361328125,-0.025656340643763542,0.02687807008624077,-0.06475171446800232
1774789949526316000,0.99031591796875,-0.018325956538319588,0.03298672288656235,-0.051312681287527084
1774789949536386800,1.00038671875,-0.010995574295520782,0.03787364438176155,-0.018325956538319588
1774789949546457600,1.01045751953125,-0.00366519158706069,0.036651913076639175,0.025656340643763542
1774789949576700700,1.04070068359375,0.00733038317412138,0.04642575979232788,0.08796459436416626
1774789949586771500,1.050771484375,0.00855211354792118,0.04886921867728233,0.08429940044879913
1774789949596842200,1.06084228515625,0.00733038317412138,0.04642575979232788,0.059864792972803116
1774789949606943500,1.070943603515625,0.0024434609804302454,0.04642575979232788,0.02321287989616394
1774789949617044700,1.081044677734375,-0.009773843921720982,0.0403171069920063,-0.009773843921720982
1774789949627115500,1.091115478515625,-0.02687807008624077,0.03787364438176155,-0.04153883829712868
1774789949637217000,1.101217041015625,-0.042760565876960754,0.0354301854968071,-0.06352998316287994
1774789949647287800,1.111287841796875,-0.04886921867728233,0.025656340643763542,-0.03420845419168472
1774789949687601400,1.151601318359375,-0.03420845419168472,0.02932153269648552,0.05253441259264946
1774789949697702700,1.16170263671875,-0.0354301854968071,0.028099801391363144,0.05253441259264946
1774789949707773400,1.1717734375,-0.03420845419168472,0.028099801391363144,0.039095375686883926
1774789949717875000,1.181875,-0.028099801391363144,0.03176499158143997,0.02321287989616394
1774789949727945700,1.19194580078125,-0.024434609338641167,0.028099801391363144,0.00733038317412138
1774789949737986000,1.201986083984375,-0.02687807008624077,0.02321287989616394,-0.0024434609804302454
1774789949748056800,1.212056884765625,-0.036651913076639175,0.009773843921720982,0.00366519158706069
1774789949758097200,1.22209716796875,-0.036651913076639175,0.009773843921720982,0.00366519158706069
1774789949768137200,1.23213720703125,-0.03176499158143997,0.0024434609804302454,0.01710422709584236
1774789949818521900,1.28252197265625,-0.04398229718208313,0.0024434609804302454,-0.012217304669320583
1774789949828592600,1.292592529296875,-0.04398229718208313,0.00855211354792118,-0.021991148591041565
1774789949838663400,1.302663330078125,-0.036651913076639175,0.009773843921720982,-0.028099801391363144
1774789949848764700,1.3127646484375,-0.030543262138962746,0.010995574295520782,-0.021991148591041565
1774789949858866200,1.3228662109375,-0.02932153269648552,0.01466076634824276,-0.0012217304902151227
1774789949868937000,1.33293701171875,-0.028099801391363144,0.015882495790719986,0.02932153269648552
1774789949879007700,1.3430078125,-0.025656340643763542,0.01710422709584236,0.04642575979232788
1774789949889048000,1.353048095703125,-0.025656340643763542,0.013439035043120384,0.03420845419168472
1774789949899118800,1.363118896484375,-0.024434609338641167,0.00855211354792118,0.01466076634824276
1774789949909189600,1.373189697265625,-0.02321287989616394,0.010995574295520782,0.00366519158706069
1774789949929300700,1.39330078125,-0.012217304669320583,0.024434609338641167,0.0012217304902151227
1774789949939371500,1.40337158203125,-0.015882495790719986,0.02076941914856434,-0.01710422709584236
1774789949949442300,1.4134423828125,-0.02076941914856434,0.012217304669320583,-0.03176499158143997
1774789949989786400,1.453786376953125,-0.024434609338641167,0.015882495790719986,-0.00733038317412138
1774789950009928200,1.47392822265625,-0.024434609338641167,0.015882495790719986,-0.012217304669320583
1774789950019968300,1.48396826171875,-0.030543262138962746,0.019547687843441963,-0.015882495790719986
1774789950030069800,1.49406982421875,-0.0354301854968071,0.02076941914856434,-0.00855211354792118
1774789950040171000,1.5041708984375,-0.04398229718208313,0.021991148591041565,0.006108652334660292
1774789950050180900,1.514180908203125,-0.05497787147760391,0.02321287989616394,0.013439035043120384
1774789950060251600,1.524251708984375,-0.06230825558304787,0.024434609338641167,0.00366519158706069
1774789950070322400,1.534322509765625,-0.05864306539297104,0.024434609338641167,-0.004886921960860491
1774789950100534800,1.56453466796875,-0.036651913076639175,0.021991148591041565,-0.015882495790719986
1774789950110605600,1.57460546875,-0.036651913076639175,0.01710422709584236,-0.009773843921720982
1774789950120706800,1.584706787109375,-0.0354301854968071,0.012217304669320583,0.010995574295520782
1774789950130747100,1.5947470703125,-0.03298672288656235,0.009773843921720982,0.03298672288656235
1774789950140818000,1.60481787109375,-0.030543262138962746,0.0024434609804302454,0.0403171069920063
1774789950150919400,1.61491943359375,-0.028099801391363144,-0.006108652334660292,0.042760565876960754
1774789950160990200,1.624990234375,-0.03298672288656235,-0.012217304669320583,0.0403171069920063
1774789950171030300,1.6350302734375,-0.04153883829712868,-0.01710422709584236,0.03298672288656235
1774789950191202600,1.65520263671875,-0.04764748737215996,-0.030543262138962746,0.021991148591041565
1774789950211374600,1.67537451171875,-0.05375614017248154,-0.04153883829712868,0.018325956538319588
1774789950221445400,1.6854453125,-0.05619960278272629,-0.051312681287527084,0.01710422709584236
1774789950231546600,1.695546630859375,-0.05619960278272629,-0.05009094998240471,0.015882495790719986
1774789950241648000,1.705648193359375,-0.05742133408784866,-0.05009094998240471,0.009773843921720982
1774789950251688400,1.7156884765625,-0.05742133408784866,-0.05009094998240471,-0.0024434609804302454
1774789950261759200,1.72575927734375,-0.05497787147760391,-0.05009094998240471,-0.0024434609804302454
1774789950271860500,1.735860595703125,-0.05009094998240471,-0.042760565876960754,0.00733038317412138
1774789950292002000,1.756001953125,-0.045204028487205505,-0.024434609338641167,0.039095375686883926
1774789950322214400,1.78621435546875,-0.04153883829712868,-0.00855211354792118,0.030543262138962746
1774789950342417200,1.806417236328125,-0.02932153269648552,-0.0024434609804302454,0.024434609338641167
1774789950352488000,1.816488037109375,-0.03420845419168472,-0.004886921960860491,0.02687807008624077
1774789950362589200,1.826589111328125,-0.042760565876960754,-0.006108652334660292,0.0403171069920063
1774789950372690400,1.8366904296875,-0.05009094998240471,-0.00366519158706069,0.04886921867728233
1774789950413034800,1.87703466796875,-0.07330382615327835,0,-0.05619960278272629
1774789950423105500,1.88710546875,-0.07452555745840073,0.009773843921720982,-0.04764748737215996
1774789950433176300,1.89717626953125,-0.0757472887635231,0.01710422709584236,-0.030543262138962746
1774789950443216600,1.907216552734375,-0.07330382615327835,0.028099801391363144,-0.004886921960860491
1774789950453318000,1.91731787109375,-0.06719517707824707,0.0354301854968071,0.02076941914856434
1774789950473459700,1.937459716796875,-0.07452555745840073,0.0354301854968071,0.01710422709584236
1774789950483469300,1.94746923828125,-0.0757472887635231,0.03176499158143997,-0.004886921960860491
1774789950503611000,1.96761083984375,-0.06475171446800232,0.02687807008624077,-0.00366519158706069
1774789950513712400,1.97771240234375,-0.0659734457731247,0.025656340643763542,-0.004886921960860491
1774789950523722000,1.987721923828125,-0.06719517707824707,0.028099801391363144,-0.010995574295520782
1774789950533792800,1.997792724609375,-0.06108652427792549,0.028099801391363144,-0.006108652334660292
1774789950543863600,2.007863525390625,-0.05253441259264946,0.02687807008624077,0.00733038317412138
1774789950553965000,2.017965087890625,-0.04642575979232788,0.019547687843441963,0.02076941914856434
1774789950563974700,2.027974609375,-0.04398229718208313,0.01466076634824276,0.02321287989616394
1774789950574076200,2.038076171875,-0.04398229718208313,0.012217304669320583,0.01710422709584236
1774789950594217700,2.0582177734375,-0.0354301854968071,0.00366519158706069,0.00366519158706069
1774789950644541200,2.108541259765625,-0.06352998316287994,0.0012217304902151227,-0.004886921960860491
1774789950654612000,2.118612060546875,-0.06230825558304787,0,0.019547687843441963
1774789950664682800,2.128682861328125,-0.05864306539297104,0.0012217304902151227,0.04153883829712868
1774789950674753500,2.13875341796875,-0.05742133408784866,0.00366519158706069,0.04886921867728233
1774789950684824300,2.14882421875,-0.06230825558304787,0.004886921960860491,0.039095375686883926
1774789950694925600,2.158925537109375,-0.06475171446800232,0.00733038317412138,0.01710422709584236
1774789950704966000,2.1689658203125,-0.06841690838336945,0.0012217304902151227,0.0024434609804302454
1774789950715036700,2.17903662109375,-0.07208210229873657,-0.0012217304902151227,0.00733038317412138
1774789950765482200,2.229482177734375,-0.07208210229873657,-0.00855211354792118,0.01466076634824276
1774789950775553000,2.239552978515625,-0.06719517707824707,-0.012217304669320583,-0.012217304669320583
1774789950785623800,2.249623779296875,-0.05742133408784866,-0.009773843921720982,-0.021991148591041565
1774789950795725300,2.259725341796875,-0.04886921867728233,-0.00855211354792118,-0.019547687843441963
1774789950805765400,2.269765380859375,-0.03420845419168472,-0.010995574295520782,-0.015882495790719986
1774789950815867000,2.279866943359375,-0.02076941914856434,-0.012217304669320583,-0.006108652334660292
1774789950825907200,2.2899072265625,-0.006108652334660292,-0.012217304669320583,0.012217304669320583
1774789950876322000,2.340322021484375,-0.028099801391363144,-0.004886921960860491,-0.07941248267889023
1774789950886423600,2.350423583984375,-0.03176499158143997,0,-0.07696902006864548
1774789950896494300,2.360494384765625,-0.028099801391363144,0.010995574295520782,-0.07330382615327835
1774789950906595600,2.370595703125,-0.02076941914856434,0.01710422709584236,-0.0659734457731247
1774789950916666400,2.380666259765625,-0.015882495790719986,0.02076941914856434,-0.05619960278272629
1774789950926737200,2.390737060546875,-0.019547687843441963,0.02687807008624077,-0.045204028487205505
1774789950956949500,2.420949462890625,-0.03298672288656235,0.04764748737215996,-0.02932153269648552
1774789950967051000,2.431051025390625,-0.0354301854968071,0.05497787147760391,-0.03420845419168472
1774789950977121800,2.441121826171875,-0.036651913076639175,0.06352998316287994,-0.04153883829712868
1774789950987223000,2.45122314453125,-0.03420845419168472,0.07208210229873657,-0.0354301854968071
1774789950997293800,2.4612939453125,-0.028099801391363144,0.07819075137376785,-0.01710422709584236
1774789951007395000,2.47139501953125,-0.018325956538319588,0.0757472887635231,-0.00366519158706069
1774789951017465900,2.4814658203125,-0.006108652334660292,0.06719517707824707,-0.0012217304902151227
1774789951027567400,2.4915673828125,0.004886921960860491,0.05497787147760391,-0.006108652334660292
1774789951037638100,2.50163818359375,0.006108652334660292,0.04398229718208313,-0.024434609338641167
1774789951078043400,2.54204345703125,-0.036651913076639175,0.010995574295520782,-0.13561208546161652
1774789951088114200,2.5521142578125,-0.05009094998240471,0.010995574295520782,-0.1160643994808197
1774789951098154500,2.562154541015625,-0.059864792972803116,0.00733038317412138,-0.10751228034496307
1774789951108225300,2.572225341796875,-0.05742133408784866,0.009773843921720982,-0.1062905490398407
1774789951118296000,2.582296142578125,-0.05009094998240471,0.010995574295520782,-0.10384709388017654
1774789951128366800,2.592366943359375,-0.04886921867728233,0.012217304669320583,-0.1111774742603302
1774789951138407200,2.6024072265625,-0.05009094998240471,0.013439035043120384,-0.12828169763088226
1774789951158579200,2.6225791015625,-0.06352998316287994,0.01710422709584236,-0.1563815027475357
1774789951168650000,2.63264990234375,-0.0757472887635231,0.024434609338641167,-0.15027284622192383
1774789951178720800,2.642720703125,-0.08552113175392151,0.030543262138962746,-0.12828169763088226
1774789951188791600,2.65279150390625,-0.08674286305904388,0.03787364438176155,-0.09285151958465576
1774789951198862300,2.6628623046875,-0.07819075137376785,0.04886921867728233,-0.04398229718208313
1774789951208933000,2.67293310546875,-0.06352998316287994,0.06841690838336945,0.00366519158706069
1774789951219004000,2.68300390625,-0.051312681287527084,0.0806342139840126,0.00855211354792118
1774789951229075000,2.693074951171875,-0.0403171069920063,0.08552113175392151,-0.03298672288656235
1774789951239176200,2.70317626953125,-0.02932153269648552,0.08552113175392151,-0.09896016865968704
1774789951289560600,2.753560546875,0.00855211354792118,0.12339477986097336,-0.08429940044879913
1774789951299662000,2.763662109375,0.02076941914856434,0.12828169763088226,-0.06963863968849182
1774789951309732900,2.77373291015625,0.03176499158143997,0.13561208546161652,-0.07452555745840073
1774789951319803600,2.7838037109375,0.04398229718208313,0.14538592100143433,-0.10018189996480942
1774789951329874400,2.79387451171875,0.05375614017248154,0.15027284622192383,-0.1368338167667389
1774789951339945200,2.8039453125,0.059864792972803116,0.15393804013729095,-0.16249015927314758
1774789951350016000,2.81401611328125,0.06475171446800232,0.16371189057826996,-0.16982053220272064
1774789951380198000,2.844197998046875,0.08185594528913498,0.17837265133857727,-0.11972958594560623
1774789951390299100,2.854299072265625,0.08674286305904388,0.19058994948863983,-0.08185594528913498
1774789951400370000,2.864369873046875,0.0806342139840126,0.19547687470912933,-0.06475171446800232
1774789951410471400,2.874471435546875,0.07208210229873657,0.19914206862449646,-0.07208210229873657
1774789951420572700,2.88457275390625,0.06352998316287994,0.2028072625398636,-0.09162978827953339
1774789951430643500,2.8946435546875,0.05497787147760391,0.2076941877603531,-0.10873401165008545
1774789951450846000,2.914845947265625,0.024434609338641167,0.20891591906547546,-0.12217304855585098
1774789951460916700,2.924916748046875,0.018325956538319588,0.21502456068992615,-0.0659734457731247
1774789951501200100,2.9652001953125,0.02932153269648552,0.22602014243602753,0.09773843735456467
1774789951511301400,2.97530126953125,0.039095375686883926,0.22846360504627228,0.10384709388017654
1774789951521372200,2.9853720703125,0.05497787147760391,0.22357667982578278,0.09651670604944229
1774789951531443000,2.99544287109375,0.0757472887635231,0.21624629199504852,0.08552113175392151
1774789951541513700,3.005513671875,0.09162978827953339,0.2125810980796814,0.07819075137376785
1774789951551584500,3.01558447265625,0.1014036312699318,0.21013765037059784,0.0659734457731247
1774789951561686000,3.02568603515625,0.1319468915462494,0.20036379992961884,0.05619960278272629
1774789951602030000,3.066030029296875,0.19303341209888458,0.19547687470912933,0.13072516024112701
1774789951612131600,3.076131591796875,0.2015855312347412,0.1918116807937622,0.16249015927314758
1774789951622202400,3.086202392578125,0.2076941877603531,0.19303341209888458,0.1918116807937622
1774789951632273200,3.096273193359375,0.21868975460529327,0.19425514340400696,0.20402899384498596
1774789951642374400,3.10637451171875,0.22968533635139465,0.19547687470912933,0.19425514340400696
1774789951652414700,3.116414794921875,0.2431243658065796,0.19425514340400696,0.16371189057826996
1774789951662485500,3.126485595703125,0.2541199326515198,0.19303341209888458,0.11484266817569733
1774789951702738200,3.16673828125,0.2932153046131134,0.15027284622192383,0.02076941914856434
1774789951712809000,3.17680908203125,0.27488934993743896,0.1368338167667389,0.028099801391363144
1774789951722879700,3.186879638671875,0.2382374405860901,0.13561208546161652,0.02687807008624077
1774789951732981000,3.19698095703125,0.19058994948863983,0.13561208546161652,0.012217304669320583
1774789951742990800,3.206990966796875,0.1466076523065567,0.14416420459747314,-0.004886921960860491
1774789951753061600,3.2170615234375,0.11972958594560623,0.15271630883216858,0.00366519158706069
1774789951763163000,3.227162841796875,0.1062905490398407,0.16004669666290283,0.06352998316287994
1774789951773233700,3.237233642578125,0.10506882518529892,0.1612684279680252,0.16859880089759827
1774789951823679200,3.28767919921875,0.22846360504627228,0.06719517707824707,0.19914206862449646
1774789951833780700,3.29778076171875,0.2528982162475586,0.039095375686883926,0.13439035415649414
1774789951843882000,3.307882080078125,0.2736676335334778,0.019547687843441963,0.08674286305904388
1774789951853952800,3.317952880859375,0.28955012559890747,0.004886921960860491,0.05864306539297104
1774789951864023600,3.3280234375,0.3017674386501312,-0.013439035043120384,0.05864306539297104
1774789951874124800,3.338124755859375,0.31520646810531616,-0.025656340643763542,0.0806342139840126
1774789951884195600,3.348195556640625,0.3335324227809906,-0.03420845419168472,0.1270599663257599
1774789951934519000,3.39851904296875,0.2981022298336029,-0.0806342139840126,-0.0757472887635231
1774789951944590000,3.408590087890625,0.26633724570274353,-0.08918632566928864,-0.15760323405265808
1774789951954691300,3.41869140625,0.2321287989616394,-0.08307767659425735,-0.21624629199504852
1774789951964731600,3.428731689453125,0.20402899384498596,-0.0659734457731247,-0.23335053026676178
1774789951974833000,3.4388330078125,0.1869247704744339,-0.04153883829712868,-0.19914206862449646
1774789951984873200,3.448873291015625,0.17104226350784302,-0.02076941914856434,-0.1258382350206375
1774789952004953600,3.46895361328125,0.11972958594560623,0.018325956538319588,0.00733038317412138
1774789952015055000,3.47905517578125,0.09651670604944229,0.03176499158143997,0.024434609338641167
1774789952025126000,3.4891259765625,0.09162978827953339,0.05253441259264946,0.010995574295520782
1774789952035196700,3.49919677734375,0.10262536257505417,0.06719517707824707,-0.010995574295520782
1774789952045206500,3.50920654296875,0.1160643994808197,0.07696902006864548,-0.04153883829712868
1774789952055307800,3.519307861328125,0.11972958594560623,0.08552113175392151,-0.08185594528913498
1774789952065348000,3.52934814453125,0.11484266817569733,0.08429940044879913,-0.12339477986097336
1774789952075419000,3.5394189453125,0.11362093687057495,0.08185594528913498,-0.1466076523065567
1774789952085428500,3.549428466796875,0.1111774742603302,0.0806342139840126,-0.15515977144241333
1774789952125712000,3.5897119140625,0.051312681287527084,0.1014036312699318,-0.19425514340400696
1774789952135782700,3.59978271484375,0.03420845419168472,0.1014036312699318,-0.18081611394882202
1774789952145853400,3.609853515625,0.013439035043120384,0.10018189996480942,-0.1722639948129654
1774789952155924200,3.61992431640625,-0.010995574295520782,0.09773843735456467,-0.16371189057826996
1774789952165964500,3.629964599609375,-0.03176499158143997,0.10018189996480942,-0.1612684279680252
1774789952176065800,3.640065673828125,-0.04764748737215996,0.1062905490398407,-0.1661553531885147
1774789952186106000,3.650106201171875,-0.06230825558304787,0.10262536257505417,-0.1771509200334549
1774789952196177000,3.660177001953125,-0.07696902006864548,0.09651670604944229,-0.18081611394882202
1774789952206247700,3.67024755859375,-0.09040805697441101,0.09162978827953339,-0.16982053220272064
1774789952216349000,3.680348876953125,-0.10384709388017654,0.09162978827953339,-0.14294247329235077
1774789952256632300,3.72063232421875,-0.07452555745840073,0.08796459436416626,0.006108652334660292
1774789952286844700,3.7508447265625,-0.04764748737215996,0.02076941914856434,-0.05619960278272629
1774789952296915500,3.76091552734375,-0.045204028487205505,-0.006108652334660292,-0.07941248267889023
1774789952327127800,3.7911279296875,-0.05619960278272629,-0.05253441259264946,-0.04764748737215996
1774789952357279200,3.821279296875,-0.10995574295520782,-0.09529497474431992,-0.019547687843441963
1774789952367380500,3.83138037109375,-0.12217304855585098,-0.11850785464048386,0.02932153269648552
1774789952387552500,3.851552490234375,-0.16859880089759827,-0.15393804013729095,0.08796459436416626
1774789952397654000,3.861654052734375,-0.19303341209888458,-0.17470745742321014,0.09040805697441101
1774789952407724800,3.871724853515625,-0.21991148591041565,-0.19303341209888458,0.08185594528913498
1774789952427836000,3.8918359375,-0.30054569244384766,-0.1966986060142517,0.05619960278272629
1774789952468149500,3.9321494140625,-0.21135938167572021,-0.11850785464048386,-0.02321287989616394
1774789952478250800,3.942250732421875,-0.16859880089759827,-0.1368338167667389,-0.03298672288656235
1774789952488321500,3.952321533203125,-0.15027284622192383,-0.1661553531885147,-0.019547687843441963
1774789952498392600,3.962392578125,-0.16249015927314758,-0.19425514340400696,0.018325956538319588
1774789952508493800,3.972493896484375,-0.20036379992961884,-0.21013765037059784,0.05375614017248154
1774789952518595000,3.982594970703125,-0.2675589919090271,-0.2174680233001709,0.06230825558304787
1774789952528635400,3.992635498046875,-0.3579670190811157,-0.2321287989616394,0.0354301854968071
1774789952558817300,4.0228173828125,-0.6291912198066711,-0.26633724570274353,-0.07452555745840073
1774789952568918500,4.03291845703125,-0.6670648455619812,-0.2528982162475586,-0.042760565876960754
1774789952579019800,4.043019775390625,-0.6572909951210022,-0.19425514340400696,0.03298672288656235
1774789952589090800,4.0530908203125,-0.5949827432632446,-0.1160643994808197,0.1258382350206375
1774789952599161600,4.06316162109375,-0.50335294008255,-0.042760565876960754,0.2174680233001709
1774789952609232400,4.073232421875,-0.4105014503002167,0.006108652334660292,0.2834414839744568
1774789952619303200,4.08330322265625,-0.3274237811565399,0.024434609338641167,0.31520646810531616
1774789952629343500,4.093343505859375,-0.2528982162475586,0.03787364438176155,0.3286454975605011
1774789952649515500,4.113515625,-0.13439035415649414,0.08796459436416626,0.27488934993743896
1774789952669657000,4.133656982421875,-0.12095131725072861,0.08674286305904388,0.07330382615327835
1774789952679758300,4.14375830078125,-0.15760323405265808,0.06841690838336945,-0.03176499158143997
1774789952689829000,4.1538291015625,-0.2076941877603531,0.04398229718208313,-0.09529497474431992
1774789952699869400,4.163869384765625,-0.2565633952617645,0.019547687843441963,-0.08918632566928864
1774789952709909800,4.17390966796875,-0.3029891550540924,-0.00366519158706069,-0.03298672288656235
1774789952760324900,4.224324951171875,-0.4202753007411957,-0.030543262138962746,0.05009094998240471
1774789952770334500,4.23433447265625,-0.4508185386657715,-0.03420845419168472,-0.02076941914856434
1774789952780436000,4.24443603515625,-0.46181413531303406,-0.0354301854968071,-0.05253441259264946
1774789952790506800,4.2545068359375,-0.4544837474822998,-0.015882495790719986,-0.036651913076639175
1774789952800547000,4.264547119140625,-0.4398229718208313,0.00366519158706069,0.004886921960860491
1774789952810556700,4.274556640625,-0.42760565876960754,0.02932153269648552,0.04153883829712868
1774789952820658200,4.284658203125,-0.4092797040939331,0.051312681287527084,0.07208210229873657
1774789952830729000,4.29472900390625,-0.375071257352829,0.0806342139840126,0.1014036312699318
1774789952850931500,4.314931396484375,-0.2626720666885376,0.12461651116609573,0.16859880089759827
1774789952861032700,4.32503271484375,-0.21502456068992615,0.1466076523065567,0.18570303916931152
1774789952871103700,4.335103759765625,-0.18448130786418915,0.1612684279680252,0.16982053220272064
1774789952891275800,4.35527587890625,-0.14294247329235077,0.1966986060142517,0.0659734457731247
1774789952901377000,4.365376953125,-0.11362093687057495,0.20525072515010834,0.05864306539297104
1774789952911447800,4.37544775390625,-0.07941248267889023,0.21135938167572021,0.10018189996480942
1774789952921518600,4.3855185546875,-0.04886921867728233,0.2125810980796814,0.16737708449363708
1774789952931589400,4.39558935546875,-0.024434609338641167,0.20036379992961884,0.22357667982578278
1774789952941691000,4.40569091796875,-0.013439035043120384,0.18814650177955627,0.23579397797584534
1774789952971903200,4.4359033203125,-0.013439035043120384,0.13439035415649414,0.07696902006864548
1774789952982004500,4.44600439453125,-0.019547687843441963,0.11484266817569733,0.03420845419168472
1774789952992075300,4.4560751953125,-0.030543262138962746,0.1014036312699318,0.00366519158706069
1774789953002146000,4.46614599609375,-0.03298672288656235,0.10262536257505417,0.00855211354792118
1774789953022318300,4.486318359375,-0.01466076634824276,0.10995574295520782,0.10262536257505417
1774789953032389000,4.49638916015625,-0.004886921960860491,0.11728613078594208,0.1319468915462494
1774789953042460000,4.5064599609375,0.006108652334660292,0.13072516024112701,0.15393804013729095
1774789953052530700,4.51653076171875,0.02076941914856434,0.14294247329235077,0.17104226350784302
1774789953082804000,4.546803955078125,0.08796459436416626,0.1820378452539444,0.23457226157188416
1774789953092874800,4.556874755859375,0.13561208546161652,0.19547687470912933,0.23090706765651703
1774789953102945800,4.56694580078125,0.21013765037059784,0.21624629199504852,0.17592918872833252
1774789953113047000,4.577047119140625,0.3029891550540924,0.2174680233001709,0.05253441259264946
1774789953123148300,4.587148193359375,0.38728857040405273,0.1869247704744339,-0.1258382350206375
1774789953133219000,4.597218994140625,0.38728857040405273,0.1869247704744339,-0.1258382350206375
1774789953143289900,4.607289794921875,0.4495968222618103,0.1319468915462494,-0.31642818450927734
1774789953153330200,4.617330078125,0.4801400899887085,0.08429940044879913,-0.4764748811721802
1774789953173471700,4.6374716796875,0.3701843321323395,0.07819075137376785,-0.5082398653030396
1774789953203623200,4.667623046875,0.2590068578720093,0.10018189996480942,-0.024434609338641167
1774789953213694000,4.67769384765625,0.20525072515010834,0.11850785464048386,0.19914206862449646
1774789953223795200,4.687795166015625,0.1869247704744339,0.12950342893600464,0.3139847218990326
1774789953233866000,4.697865966796875,0.2223549485206604,0.12461651116609573,0.3237585723400116
1774789953243936800,4.707936767578125,0.294437050819397,0.10873401165008545,0.24678955972194672
1774789953253977000,4.71797705078125,0.37262779474258423,0.0806342139840126,0.12095131725072861
1774789953294199300,4.75819921875,0.5094616413116455,-0.03176499158143997,-0.08429940044879913
1774789953304300500,4.768300537109375,0.4996877610683441,-0.02687807008624077,-0.06108652427792549
1774789953314371300,4.778371337890625,0.48258355259895325,-0.024434609338641167,-0.059864792972803116
1774789953324442400,4.7884423828125,0.4593706727027893,-0.025656340643763542,-0.08674286305904388
1774789953334513200,4.79851318359375,0.4447098970413208,-0.02687807008624077,-0.12828169763088226
1774789953344584000,4.808583984375,0.44104471802711487,-0.025656340643763542,-0.16004669666290283
1774789953354654700,4.81865478515625,0.43737950921058655,-0.0354301854968071,-0.1661553531885147
1774789953364756000,4.828755859375,0.4239404797554016,-0.0403171069920063,-0.13805554807186127
1774789953415140600,4.879140625,0.24434609711170197,-0.06352998316287994,-0.04764748737215996
1774789953425241900,4.889241943359375,0.2028072625398636,-0.07330382615327835,-0.06963863968849182
1774789953435312600,4.899312744140625,0.17470745742321014,-0.07452555745840073,-0.059864792972803116
1774789953445414000,4.909413818359375,0.16004669666290283,-0.0708603709936142,-0.02687807008624077
1774789953455484700,4.919484619140625,0.1563815027475357,-0.0659734457731247,0.010995574295520782
1774789953465586200,4.929586181640625,0.15760323405265808,-0.06352998316287994,0.02687807008624077
1774789953505930200,4.96993017578125,0.1368338167667389,-0.05253441259264946,-0.08674286305904388
1774789953516001000,4.9800009765625,0.12095131725072861,-0.05742133408784866,-0.08674286305904388
1774789953526041300,4.990041259765625,0.09773843735456467,-0.0659734457731247,-0.06475171446800232
1774789953536142600,5.000142578125,0.08307767659425735,-0.06475171446800232,-0.019547687843441963
1774789953546244000,5.010244140625,0.08307767659425735,-0.06230825558304787,0.03787364438176155
1774789953556284400,5.020284423828125,0.07941248267889023,-0.06230825558304787,0.0659734457731247
1774789953566294000,5.0302939453125,0.059864792972803116,-0.07452555745840073,0.05619960278272629
1774789953606577200,5.0705771484375,-0.03420845419168472,-0.12828169763088226,0.00366519158706069
1774789953616678700,5.0806787109375,-0.05375614017248154,-0.13439035415649414,0.015882495790719986
1774789953626719000,5.090718994140625,-0.07208210229873657,-0.14294247329235077,0.01466076634824276
1774789953636759000,5.100759033203125,-0.08185594528913498,-0.15027284622192383,-0.006108652334660292
1774789953646769000,5.110768798828125,-0.07330382615327835,-0.1612684279680252,-0.01466076634824276
1774789953656870100,5.1208701171875,-0.05864306539297104,-0.17592918872833252,-0.004886921960860491
1774789953666941000,5.13094091796875,-0.05253441259264946,-0.19547687470912933,0.009773843921720982
1774789953677011700,5.14101171875,-0.06108652427792549,-0.21991148591041565,0.024434609338641167
1774789953707224300,5.171224365234375,-0.13316862285137177,-0.2675589919090271,-0.05253441259264946
1774789953717325600,5.18132568359375,-0.1722639948129654,-0.27977627515792847,-0.10506882518529892
1774789953727366000,5.191365966796875,-0.21380282938480377,-0.2834414839744568,-0.13316862285137177
1774789953737436700,5.201436767578125,-0.2541199326515198,-0.27122417092323303,-0.12095131725072861
1774789953747507500,5.211507568359375,-0.2834414839744568,-0.23457226157188416,-0.09285151958465576
1774789953757547800,5.2215478515625,-0.2871066629886627,-0.18325957655906677,-0.08307767659425735
1774789953818003000,5.2820029296875,-0.13072516024112701,-0.16493362188339233,-0.10384709388017654
1774789953828104400,5.2921044921875,-0.22846360504627228,-0.16371189057826996,-0.1869247704744339
1774789953838144800,5.302144775390625,-0.34086281061172485,-0.15027284622192383,-0.2638937830924988
1774789953848215600,5.312215576171875,-0.4544837474822998,-0.13316862285137177,-0.29565876722335815
1774789953858286300,5.322286376953125,-0.5668829679489136,-0.1062905490398407,-0.2528982162475586
1774789953868357000,5.332357177734375,-0.6646214127540588,-0.05497787147760391,-0.1466076523065567
1774789953878428000,5.342427978515625,-0.7024950385093689,0.024434609338641167,0.0012217304902151227
1774789953888498700,5.352498779296875,-0.6719517707824707,0.09773843735456467,0.15882496535778046
1774789953928781800,5.39278173828125,-0.39095374941825867,0.2028072625398636,0.37629300355911255
1774789953938852600,5.4028525390625,-0.35185837745666504,0.2015855312347412,0.2736676335334778
1774789953959025000,5.42302490234375,-0.33108896017074585,0.21013765037059784,0.02932153269648552
1774789953969095700,5.433095703125,-0.3604104816913605,0.2015855312347412,-0.036651913076639175
1774789953979197000,5.443197021484375,-0.40194934606552124,0.1966986060142517,-0.059864792972803116
1774789953989267700,5.453267822265625,-0.43249258399009705,0.19547687470912933,-0.05619960278272629
1774789953999308000,5.46330810546875,-0.44226643443107605,0.18081611394882202,-0.042760565876960754
1774789954029520400,5.493520263671875,-0.40683624148368835,0.1417207419872284,-0.00855211354792118
1774789954039591200,5.503591064453125,-0.39706242084503174,0.1368338167667389,-0.02076941914856434
1774789954049631500,5.513631591796875,-0.40683624148368835,0.12950342893600464,-0.0708603709936142
1774789954059702300,5.523702392578125,-0.4202753007411957,0.1258382350206375,-0.13927727937698364
1774789954069773000,5.53377294921875,-0.42149701714515686,0.1258382350206375,-0.16859880089759827
1774789954079843800,5.54384375,-0.4056145250797272,0.12828169763088226,-0.15271630883216858
1774789954089945000,5.553945068359375,-0.38728857040405273,0.1270599663257599,-0.10995574295520782
1774789954100015900,5.564015869140625,-0.3701843321323395,0.12461651116609573,-0.06352998316287994
1774789954140329700,5.604329833984375,-0.20402899384498596,0.12339477986097336,0.019547687843441963
1774789954150431000,5.614430908203125,-0.16249015927314758,0.11850785464048386,-0.0403171069920063
1774789954160501800,5.624501708984375,-0.11728613078594208,0.11239920556545258,-0.08918632566928864
1774789954170603300,5.634603271484375,-0.07452555745840073,0.10873401165008545,-0.12217304855585098
1774789954190805800,5.6548056640625,-0.028099801391363144,0.11728613078594208,-0.08552113175392151
1774789954200907000,5.664906982421875,-0.015882495790719986,0.1258382350206375,0.004886921960860491
1774789954210977800,5.674977783203125,0.0024434609804302454,0.13316862285137177,0.13316862285137177
1774789954231180500,5.6951806640625,0.02932153269648552,0.14294247329235077,0.36529740691185
1774789954241190400,5.7051904296875,0.0354301854968071,0.1417207419872284,0.39095374941825867
1774789954251261200,5.71526123046875,0.04398229718208313,0.14294247329235077,0.3604104816913605
1774789954261332000,5.72533203125,0.05864306539297104,0.13439035415649414,0.2981022298336029
1774789954271402800,5.73540283203125,0.0806342139840126,0.11484266817569733,0.2382374405860901
1774789954281473500,5.7454736328125,0.10384709388017654,0.1062905490398407,0.20036379992961884
1774789954291544300,5.75554443359375,0.13316862285137177,0.09529497474431992,0.19914206862449646
1774789954301615000,5.765614990234375,0.16982053220272064,0.09529497474431992,0.23579397797584534
1774789954341898200,5.805898193359375,0.2981022298336029,0.059864792972803116,0.26633724570274353
1774789954351999700,5.815999755859375,0.32009339332580566,0.042760565876960754,0.2626720666885376
1774789954362039800,5.826039794921875,0.34086281061172485,0.05009094998240471,0.2822197377681732
1774789954372080000,5.836080078125,0.3677408695220947,0.05619960278272629,0.304210901260376
1774789954382151000,5.84615087890625,0.4202753007411957,0.06475171446800232,0.2822197377681732
1774789954392252400,5.85625244140625,0.513126790523529,0.07941248267889023,0.1869247704744339
1774789954402323200,5.8663232421875,0.6426302194595337,0.0659734457731247,0.028099801391363144
1774789954412394000,5.87639404296875,0.7709119319915771,0.02687807008624077,-0.17348572611808777
1774789954452738000,5.916738037109375,0.7342600226402283,-0.0659734457731247,-0.598647952079773
1774789954462839600,5.926839599609375,0.6304129362106323,-0.042760565876960754,-0.41661009192466736
1774789954472910300,5.936910400390625,0.5229006409645081,-0.00366519158706069,-0.1270599663257599
1774789954482981000,5.946981201171875,0.4105014503002167,0.0403171069920063,0.1771509200334549
1774789954493082400,5.957082275390625,0.3029891550540924,0.0757472887635231,0.384845107793808
1774789954503122700,5.967122802734375,0.23579397797584534,0.09040805697441101,0.44104471802711487
1774789954513224000,5.977223876953125,0.2431243658065796,0.08429940044879913,0.39706242084503174
1774789954553568300,6.017568359375,0.4300491213798523,-0.04764748737215996,0.07819075137376785
1774789954563639000,6.02763916015625,0.4349360466003418,-0.059864792972803116,-0.02932153269648552
1774789954573740300,6.037740234375,0.43249258399009705,-0.06963863968849182,-0.1563815027475357
1774789954583841800,6.047841796875,0.4251621961593628,-0.07819075137376785,-0.2565633952617645
1774789954593943000,6.057943115234375,0.41172316670417786,-0.09407325088977814,-0.2919935882091522
1774789954604013800,6.068013916015625,0.39217549562454224,-0.09285151958465576,-0.27977627515792847
1774789954614084600,6.078084716796875,0.3787364661693573,-0.0806342139840126,-0.24556782841682434
1774789954644297000,6.108296875,0.3738495409488678,-0.06963863968849182,-0.13072516024112701
1774789954654367700,6.11836767578125,0.34208452701568604,-0.08185594528913498,-0.12950342893600464
1774789954664469000,6.128468994140625,0.2981022298336029,-0.08918632566928864,-0.14294247329235077
1774789954674570500,6.138570556640625,0.2528982162475586,-0.09529497474431992,-0.1722639948129654
1774789954684671700,6.148671630859375,0.21013765037059784,-0.09407325088977814,-0.2028072625398636
1774789954694773000,6.15877294921875,0.15882496535778046,-0.08918632566928864,-0.24434609711170197
1774789954704843800,6.16884375,0.09651670604944229,-0.07941248267889023,-0.2883284091949463
1774789954724985300,6.1889853515625,0.0024434609804302454,-0.05742133408784866,-0.2565633952617645
1774789954765268700,6.229268798828125,-0.03298672288656235,-0.018325956538319588,0.028099801391363144
1774789954775309000,6.23930908203125,-0.0354301854968071,-0.015882495790719986,-0.018325956538319588
1774789954785379800,6.2493798828125,-0.030543262138962746,-0.02076941914856434,-0.0708603709936142
1774789954795450600,6.25945068359375,-0.02932153269648552,-0.025656340643763542,-0.10751228034496307
1774789954805551900,6.2695517578125,-0.0354301854968071,-0.030543262138962746,-0.12461651116609573
1774789954815653000,6.279653076171875,-0.03787364438176155,-0.04886921867728233,-0.10751228034496307
1774789954825693400,6.289693359375,-0.030543262138962746,-0.059864792972803116,-0.051312681287527084
1774789954835764200,6.29976416015625,-0.028099801391363144,-0.06475171446800232,-0.0012217304902151227
1774789954855875300,6.319875244140625,-0.051312681287527084,-0.09162978827953339,0.024434609338641167
1774789954865946000,6.329946044921875,-0.06719517707824707,-0.09407325088977814,0.02687807008624077
1774789954876017000,6.340016845703125,-0.06719517707824707,-0.09407325088977814,0.02687807008624077
1774789954886057200,6.35005712890625,-0.08918632566928864,-0.09651670604944229,-0.00855211354792118
1774789954896128000,6.3601279296875,-0.08918632566928864,-0.09651670604944229,-0.00855211354792118
1774789954906198800,6.37019873046875,-0.09651670604944229,-0.10262536257505417,-0.04886921867728233
1774789954916239000,6.380239013671875,-0.09651670604944229,-0.11239920556545258,-0.08185594528913498
1774789954926310000,6.390309814453125,-0.08796459436416626,-0.12828169763088226,-0.09285151958465576
1774789954966593000,6.430593017578125,-0.1160643994808197,-0.19303341209888458,0.11484266817569733
1774789954976663800,6.440663818359375,-0.15393804013729095,-0.21380282938480377,0.1014036312699318
1774789954996805600,6.4608056640625,-0.2724458873271942,-0.2223549485206604,-0.00855211354792118
1774789955006815200,6.470815185546875,-0.32986724376678467,-0.1918116807937622,-0.10018189996480942
1774789955016855600,6.48085546875,-0.34697145223617554,-0.13439035415649414,-0.18814650177955627
1774789955026926300,6.49092626953125,-0.2883284091949463,-0.08185594528913498,-0.22846360504627228
1774789955037027600,6.501027587890625,-0.18570303916931152,-0.08918632566928864,-0.21135938167572021
1774789955077311000,6.54131103515625,-0.12339477986097336,-0.21013765037059784,0.2321287989616394
1774789955087290000,6.5512900390625,-0.2370157092809677,-0.18325957655906677,-0.00733038317412138
1774789955097391400,6.561391357421875,-0.38117989897727966,-0.15393804013729095,-0.4251621961593628
1774789955107431700,6.571431640625,-0.5167919993400574,-0.11728613078594208,-0.788016140460968
1774789955117533200,6.581533203125,-0.6133087277412415,-0.05742133408784866,-0.8918632864952087
1774789955127512300,6.59151220703125,-0.646295428276062,0.019547687843441963,-0.7024950385093689
1774789955137613600,6.601613525390625,-0.6108652353286743,0.09529497474431992,-0.32620203495025635
1774789955147684400,6.611684326171875,-0.5192354321479797,0.16493362188339233,0.11972958594560623
1774789955167826000,6.631825927734375,-0.28588494658470154,0.2382374405860901,0.7525860071182251
1774789955177927400,6.641927490234375,-0.2076941877603531,0.2272418737411499,0.7415903806686401
1774789955187998200,6.651998291015625,-0.18325957655906677,0.1918116807937622,0.5473352670669556
1774789955198099500,6.662099365234375,-0.20891591906547546,0.15760323405265808,0.2541199326515198
1774789955208139800,6.672139892578125,-0.2724458873271942,0.12339477986097336,-0.04398229718208313
1774789955218241000,6.682240966796875,-0.35674530267715454,0.08674286305904388,-0.26633724570274353
1774789955228342300,6.69234228515625,-0.4386012554168701,0.05497787147760391,-0.3640756905078888
1774789955238413300,6.702413330078125,-0.49724429845809937,0.04398229718208313,-0.3494149148464203
1774789955258555000,6.722554931640625,-0.455705463886261,0.04886921867728233,-0.14905111491680145
1774789955298868500,6.762868408203125,-0.2382374405860901,0.02687807008624077,0.19547687470912933
1774789955308939300,6.772939208984375,-0.21013765037059784,0.02687807008624077,0.14905111491680145
1774789955319010000,6.783010009765625,-0.1722639948129654,0.02687807008624077,0.07208210229873657
1774789955329050400,6.79305029296875,-0.12950342893600464,0.03176499158143997,0.013439035043120384
1774789955339151600,6.803151611328125,-0.08796459436416626,0.0403171069920063,-0.018325956538319588
1774789955349222400,6.813222412109375,-0.04886921867728233,0.05864306539297104,-0.024434609338641167
1774789955379404300,6.843404296875,0.09162978827953339,0.09407325088977814,0.10751228034496307
1774789955389505800,6.853505859375,0.15271630883216858,0.10751228034496307,0.1514945775270462
1774789955399607000,6.86360693359375,0.2174680233001709,0.11484266817569733,0.17348572611808777
1774789955409677800,6.873677734375,0.2736676335334778,0.12095131725072861,0.16737708449363708
1774789955419748600,6.88374853515625,0.31520646810531616,0.12095131725072861,0.1466076523065567
1774789955439921000,6.9039208984375,0.36163222789764404,0.10995574295520782,0.07696902006864548
1774789955449961000,6.9139609375,0.3701843321323395,0.10506882518529892,0.05375614017248154
1774789955490183200,6.95418310546875,0.35063666105270386,0.08552113175392151,0.10262536257505417
1774789955500284400,6.964284423828125,0.3530801236629486,0.09407325088977814,0.1319468915462494
1774789955510355500,6.97435546875,0.36163222789764404,0.10751228034496307,0.14416420459747314
1774789955520456700,6.984456787109375,0.37629300355911255,0.12095131725072861,0.1514945775270462
1774789955530558000,6.994557861328125,0.3897320330142975,0.1258382350206375,0.15271630883216858
1774789955540628700,7.004628662109375,0.39095374941825867,0.12950342893600464,0.12950342893600464
1774789955550699500,7.014699462890625,0.375071257352829,0.12828169763088226,0.08307767659425735
1774789955570841000,7.034841064453125,0.34697145223617554,0.1368338167667389,0.021991148591041565
1774789955580911900,7.044911865234375,0.33719760179519653,0.15393804013729095,0.02321287989616394
1774789955591013400,7.055013427734375,0.3323107063770294,0.17837265133857727,0.0403171069920063
1774789955601114600,7.065114501953125,0.33719760179519653,0.20402899384498596,0.08796459436416626
1774789955611185400,7.075185302734375,0.35063666105270386,0.2321287989616394,0.15882496535778046
1774789955621256200,7.085256103515625,0.37262779474258423,0.2577851414680481,0.22968533635139465
1774789955631388200,7.09538818359375,0.41172316670417786,0.2834414839744568,0.2785545587539673
1774789955651529700,7.11552978515625,0.5949827432632446,0.3286454975605011,0.22602014243602753
1774789955661600500,7.1256005859375,0.7098253965377808,0.31154128909111023,0.07696902006864548
1774789955691843300,7.15584326171875,0.7904596328735352,0.14538592100143433,-0.5375614166259766
1774789955701914000,7.1659140625,0.7293730974197388,0.12095131725072861,-0.6108652353286743
1774789955711954400,7.175954345703125,0.6585127115249634,0.12095131725072861,-0.5619960427284241
1774789955722025200,7.186025146484375,0.5962044596672058,0.13316862285137177,-0.3738495409488678
1774789955732065500,7.1960654296875,0.5363397002220154,0.15515977144241333,-0.07941248267889023
1774789955742166800,7.206166748046875,0.47769662737846375,0.17592918872833252,0.21868975460529327
1774789955752237600,7.216237548828125,0.44226643443107605,0.19303341209888458,0.4178318381309509
1774789955762339000,7.226339111328125,0.45814892649650574,0.1918116807937622,0.47280970215797424
1774789955782511000,7.246510986328125,0.6010913848876953,0.11850785464048386,0.28955012559890747
1774789955812754000,7.27675390625,0.6890559792518616,-0.04398229718208313,-0.12828169763088226
1774789955822824700,7.28682470703125,0.6511823534965515,-0.06475171446800232,-0.3029891550540924
1774789955832895700,7.296895751953125,0.6035348773002625,-0.08185594528913498,-0.4398229718208313
1774789955842966500,7.306966552734375,0.5632177591323853,-0.08552113175392151,-0.4862487316131592
1774789955853006600,7.317006591796875,0.5314527750015259,-0.08796459436416626,-0.45204028487205505
1774789955863108000,7.327108154296875,0.5021312236785889,-0.08918632566928864,-0.3701843321323395
1774789955893320400,7.357320556640625,0.37751471996307373,-0.0708603709936142,-0.04398229718208313
1774789955913523000,7.37752294921875,0.27611109614372253,-0.08429940044879913,0.018325956538319588
1774789955923563300,7.387563232421875,0.2028072625398636,-0.09162978827953339,-0.05742133408784866
1774789955943735600,7.407735595703125,0.05619960278272629,-0.11239920556545258,-0.32009339332580566
1774789955953836800,7.4178369140625,0.006108652334660292,-0.12095131725072861,-0.37140607833862305
1774789955963938000,7.42793798828125,-0.030543262138962746,-0.1111774742603302,-0.3237585723400116
1774789955994181000,7.45818115234375,-0.04886921867728233,-0.09407325088977814,0.16493362188339233
1774789956004282400,7.468282470703125,-0.05375614017248154,-0.09285151958465576,0.2785545587539673
1774789956014353200,7.478353271484375,-0.04886921867728233,-0.09529497474431992,0.31520646810531616
1774789956044596000,7.508595947265625,-0.0024434609804302454,-0.09773843735456467,0.024434609338641167
1774789956064768300,7.528768310546875,0.00855211354792118,-0.12950342893600464,-0.2076941877603531
1774789956084940300,7.548940185546875,0.004886921960860491,-0.15760323405265808,-0.16249015927314758
1774789956095011000,7.559010986328125,-0.013439035043120384,-0.16004669666290283,-0.059864792972803116
1774789956105112300,7.5691123046875,-0.03787364438176155,-0.15271630883216858,0.04153883829712868
1774789956115213800,7.5792138671875,-0.06108652427792549,-0.1466076523065567,0.12339477986097336
1774789956125284600,7.58928466796875,-0.0806342139840126,-0.13805554807186127,0.17837265133857727
1774789956135355400,7.59935546875,-0.10751228034496307,-0.13072516024112701,0.19303341209888458
1774789956145426200,7.60942626953125,-0.1417207419872284,-0.12950342893600464,0.1612684279680252
1774789956155527400,7.61952734375,-0.16737708449363708,-0.13072516024112701,0.10873401165008545
1774789956165598200,7.62959814453125,-0.17592918872833252,-0.14049901068210602,0.07208210229873657
1774789956205881300,7.66988134765625,-0.19303341209888458,-0.21868975460529327,0.1319468915462494
1774789956215952400,7.679952392578125,-0.2321287989616394,-0.22968533635139465,0.18814650177955627
1774789956226023200,7.690023193359375,-0.28099802136421204,-0.22846360504627228,0.20525072515010834
1774789956236124400,7.70012451171875,-0.3090978264808655,-0.21380282938480377,0.17592918872833252
1774789956246195200,7.7101953125,-0.31154128909111023,-0.17470745742321014,0.08918632566928864
1774789956256296400,7.72029638671875,-0.28099802136421204,-0.14049901068210602,-0.05742133408784866
1774789956266367200,7.7303671875,-0.21868975460529327,-0.14782938361167908,-0.1869247704744339
1774789956276438000,7.74043798828125,-0.1563815027475357,-0.17837265133857727,-0.2321287989616394
1774789956286539500,7.75053955078125,-0.1417207419872284,-0.21991148591041565,-0.1612684279680252
1774789956326761500,7.790761474609375,-0.46670106053352356,-0.12828169763088226,0.0806342139840126
1774789956346903300,7.8109033203125,-0.6633996367454529,-0.02687807008624077,-0.19792033731937408
1774789956356974000,7.82097412109375,-0.7134906053543091,0.030543262138962746,-0.23335053026676178
1774789956367044900,7.831044921875,-0.7147123217582703,0.09040805697441101,-0.16859880089759827
1774789956377115600,7.84111572265625,-0.6585127115249634,0.13316862285137177,-0.03420845419168472
1774789956397257200,7.86125732421875,-0.43249258399009705,0.19303341209888458,0.3738495409488678
1774789956407358500,7.8713583984375,-0.3335324227809906,0.2028072625398636,0.5106833577156067
1774789956417429200,7.88142919921875,-0.2834414839744568,0.18936823308467865,0.504574716091156
1774789956427530800,7.89153076171875,-0.2834414839744568,0.16859880089759827,0.37140607833862305
1774789956437601500,7.9016015625,-0.32009339332580566,0.1466076523065567,0.16371189057826996
1774789956447641600,7.9116416015625,-0.37751471996307373,0.12095131725072861,-0.04398229718208313
1774789956457712600,7.921712646484375,-0.44104471802711487,0.10262536257505417,-0.19547687470912933
1774789956467783400,7.931783447265625,-0.4996877610683441,0.07941248267889023,-0.26633724570274353
1774789956477854200,7.941854248046875,-0.5436700582504272,0.05497787147760391,-0.26511552929878235
1774789956487925000,7.951925048828125,-0.5632177591323853,0.02687807008624077,-0.21135938167572021
1774789956508036000,7.9720361328125,-0.49846604466438293,-0.01466076634824276,0.06963863968849182
1774789956518137300,7.982137451171875,-0.455705463886261,-0.02687807008624077,0.21868975460529327
1774789956528238600,7.992238525390625,-0.4251621961593628,-0.03176499158143997,0.3029891550540924
1774789956538339800,8.00233984375,-0.40683624148368835,-0.03420845419168472,0.2981022298336029
1774789956548411000,8.012410888671875,-0.3933972120285034,-0.03787364438176155,0.21624629199504852
1774789956558512000,8.02251220703125,-0.3701843321323395,-0.0354301854968071,0.08552113175392151
1774789956588694000,8.052694091796875,-0.27611109614372253,-0.021991148591041565,-0.2370157092809677
1774789956618967300,8.08296728515625,-0.09040805697441101,-0.018325956538319588,0.02932153269648552
1774789956629038000,8.0930380859375,-0.0354301854968071,0.004886921960860491,0.1661553531885147
1774789956639139600,8.1031396484375,-0.0354301854968071,0.004886921960860491,0.1661553531885147
1774789956649180000,8.113179931640625,-0.0012217304902151227,0.02321287989616394,0.21868975460529327
1774789956659250700,8.123250732421875,0.036651913076639175,0.03787364438176155,0.22357667982578278
1774789956669352000,8.13335205078125,0.06963863968849182,0.059864792972803116,0.21502456068992615
1774789956679453200,8.143453125,0.08429940044879913,0.0757472887635231,0.1966986060142517
1774789956689524000,8.15352392578125,0.08185594528913498,0.08429940044879913,0.16493362188339233
1774789956719736300,8.183736328125,0.09529497474431992,0.09407325088977814,0.18448130786418915
1774789956729746200,8.19374609375,0.1270599663257599,0.11362093687057495,0.23457226157188416
1774789956739847400,8.203847412109376,0.16249015927314758,0.13805554807186127,0.27488934993743896
1774789956749918200,8.213918212890626,0.19425514340400696,0.1514945775270462,0.28588494658470154
1774789956759989200,8.2239892578125,0.2076941877603531,0.1563815027475357,0.2431243658065796
1774789956769998800,8.233998779296876,0.2028072625398636,0.15271630883216858,0.1466076523065567
1774789956780069600,8.244069580078126,0.2064724564552307,0.1466076523065567,0.05742133408784866
1774789956790140400,8.254140380859376,0.23090706765651703,0.1563815027475357,0.036651913076639175
1774789956840494600,8.30449462890625,0.19058994948863983,0.2773328125476837,0.2480112910270691
1774789956850565400,8.3145654296875,0.2370157092809677,0.32131510972976685,0.24923302233219147
1774789956860666600,8.32466650390625,0.33475416898727417,0.35552358627319336,0.17470745742321014
1774789956870737400,8.3347373046875,0.46792277693748474,0.35185837745666504,0.02687807008624077
1774789956880838700,8.344838623046876,0.5876523852348328,0.30543261766433716,-0.15027284622192383
1774789956890909400,8.354909423828126,0.6572909951210022,0.2577851414680481,-0.32009339332580566
1774789956900980200,8.364980224609376,0.6805039048194885,0.21624629199504852,-0.4386012554168701
1774789956931223300,8.395223388671875,0.5326744914054871,0.1661553531885147,-0.40683624148368835
1774789956941294000,8.405294189453125,0.4605923891067505,0.16004669666290283,-0.24068090319633484
1774789956951364900,8.41536474609375,0.39706242084503174,0.16004669666290283,-0.01466076634824276
1774789956961435600,8.425435546875,0.3481931984424591,0.14782938361167908,0.16737708449363708
1774789956971537000,8.435536865234376,0.31642818450927734,0.11850785464048386,0.21380282938480377
1774789956981607700,8.445607666015626,0.3188716471195221,0.0757472887635231,0.13316862285137177
1774789956991709200,8.455709228515625,0.35552358627319336,0.018325956538319588,0.009773843921720982
1774789957001780000,8.465780029296875,0.3995058834552765,-0.02932153269648552,-0.08674286305904388
1774789957042063000,8.50606298828125,0.22602014243602753,-0.11239920556545258,-0.47769662737846375
1774789957052134000,8.5161337890625,0.1918116807937622,-0.10384709388017654,-0.44715335965156555
1774789957062204700,8.52620458984375,0.16493362188339233,-0.09896016865968704,-0.35674530267715454
1774789957072306000,8.536305908203126,0.13927727937698364,-0.09285151958465576,-0.2638937830924988
1774789957082376700,8.546376708984376,0.12461651116609573,-0.07819075137376785,-0.1820378452539444
1774789957092447700,8.55644775390625,0.13072516024112701,-0.0708603709936142,-0.09529497474431992
1774789957102518500,8.5665185546875,0.13439035415649414,-0.06841690838336945,-0.0024434609804302454
1774789957142832000,8.60683203125,0.05619960278272629,-0.09651670604944229,-0.04764748737215996
1774789957152903000,8.61690283203125,0.04642575979232788,-0.10751228034496307,-0.1514945775270462
1774789957162973700,8.6269736328125,0.039095375686883926,-0.11239920556545258,-0.2125810980796814
1774789957173075000,8.637074951171876,0.03298672288656235,-0.11850785464048386,-0.2125810980796814
1774789957183146000,8.64714599609375,0.02932153269648552,-0.1160643994808197,-0.16493362188339233
1774789957193247200,8.657247314453125,0.024434609338641167,-0.11728613078594208,-0.1014036312699318
1774789957203318000,8.667318115234375,0.024434609338641167,-0.10995574295520782,-0.024434609338641167
1774789957213388800,8.677388916015625,0.024434609338641167,-0.10018189996480942,0.05375614017248154
1774789957263773200,8.727773193359376,-0.02321287989616394,-0.1661553531885147,0.0403171069920063
1774789957273844200,8.73784423828125,-0.03298672288656235,-0.17837265133857727,0.030543262138962746
1774789957283915000,8.7479150390625,-0.04764748737215996,-0.1771509200334549,0.02321287989616394
1774789957293985800,8.75798583984375,-0.08429940044879913,-0.17592918872833252,-0.009773843921720982
1774789957304026000,8.768026123046875,-0.11972958594560623,-0.17959438264369965,-0.06108652427792549
1774789957314097000,8.778096923828125,-0.13072516024112701,-0.18448130786418915,-0.08796459436416626
1774789957344309200,8.808309326171875,-0.08552113175392151,-0.14049901068210602,-0.004886921960860491
1774789957354380000,8.818380126953125,-0.07330382615327835,-0.12461651116609573,0.009773843921720982
1774789957364420400,8.82842041015625,-0.06108652427792549,-0.09529497474431992,0.04642575979232788
1774789957374460700,8.838460693359375,-0.05742133408784866,-0.08185594528913498,0.08674286305904388
1774789957384531500,8.848531494140625,-0.06352998316287994,-0.08674286305904388,0.12828169763088226
1774789957404703500,8.868703369140626,-0.10751228034496307,-0.12095131725072861,0.15393804013729095
1774789957414743800,8.878743896484375,-0.14294247329235077,-0.1466076523065567,0.10384709388017654
1774789957444956200,8.9089560546875,-0.3090978264808655,-0.19058994948863983,-0.06719517707824707
1774789957455057400,8.919057373046876,-0.3701843321323395,-0.17470745742321014,-0.10506882518529892
1774789957465128200,8.929128173828126,-0.4031710624694824,-0.12950342893600464,-0.1160643994808197
1774789957475199000,8.939198974609376,-0.3836233615875244,-0.05009094998240471,-0.1160643994808197
1774789957485270000,8.94927001953125,-0.3078760802745819,0.013439035043120384,-0.13561208546161652
1774789957495371300,8.959371337890625,-0.19058994948863983,0.036651913076639175,-0.13561208546161652
1774789957505411600,8.96941162109375,-0.08185594528913498,-0.006108652334660292,-0.04886921867728233
1774789957515512800,8.979512939453125,-0.030543262138962746,-0.06841690838336945,0.14049901068210602
1774789957555735000,9.019735107421875,-0.394618958234787,-0.04153883829712868,-0.12095131725072861
1774789957565805800,9.029805908203125,-0.4691445231437683,0.0024434609804302454,-0.36163222789764404
1774789957575876600,9.039876708984375,-0.5180137157440186,0.06963863968849182,-0.4043927788734436
1774789957585947400,9.049947509765625,-0.5167919993400574,0.13316862285137177,-0.2871066629886627
1774789957596018200,9.06001806640625,-0.43615779280662537,0.17348572611808777,-0.04764748737215996
1774789957606089000,9.0700888671875,-0.30054569244384766,0.19914206862449646,0.2528982162475586
1774789957616190200,9.080190185546876,-0.16737708449363708,0.20891591906547546,0.513126790523529
1774789957626261000,9.090260986328126,-0.07208210229873657,0.19303341209888458,0.6499606370925903
1774789957656534500,9.120534423828126,0.08307767659425735,0.09285151958465576,0.2785545587539673
1774789957676676000,9.140676025390626,-0.039095375686883926,0.03298672288656235,-0.2382374405860901
1774789957686747000,9.150746826171876,-0.13805554807186127,-0.00733038317412138,-0.43615779280662537
1774789957696817700,9.160817626953126,-0.21135938167572021,-0.03298672288656235,-0.5216789245605469
1774789957706858000,9.17085791015625,-0.23579397797584534,-0.03787364438176155,-0.49846604466438293
1774789957716959200,9.180959228515626,-0.21502456068992615,-0.02687807008624077,-0.3982841372489929
1774789957727060700,9.191060791015625,-0.17348572611808777,-0.0012217304902151227,-0.2565633952617645
1774789957757151000,9.22115087890625,-0.10506882518529892,0.059864792972803116,0.0354301854968071
1774789957767191300,9.23119140625,-0.09651670604944229,0.06230825558304787,0.051312681287527084
1774789957777262000,9.241261962890626,-0.07819075137376785,0.06963863968849182,0.05619960278272629
1774789957787302400,9.251302490234375,-0.05497787147760391,0.08796459436416626,0.05497787147760391
1774789957797373200,9.261373291015625,-0.019547687843441963,0.10995574295520782,0.04764748737215996
1774789957807444000,9.27144384765625,0.021991148591041565,0.12461651116609573,0.045204028487205505
1774789957817545200,9.281545166015626,0.05253441259264946,0.14049901068210602,0.03176499158143997
1774789957827585500,9.29158544921875,0.0708603709936142,0.14782938361167908,-0.010995574295520782
1774789957837686800,9.301686767578126,0.08552113175392151,0.14416420459747314,-0.06352998316287994
1774789957847727000,9.31172705078125,0.10018189996480942,0.14294247329235077,-0.08674286305904388
1774789957857798000,9.3217978515625,0.1160643994808197,0.1417207419872284,-0.04642575979232788
1774789957867807700,9.331807861328125,0.13072516024112701,0.13439035415649414,0.05375614017248154
1774789957877909000,9.341908935546876,0.14538592100143433,0.1270599663257599,0.16859880089759827
1774789957887979800,9.351979736328126,0.15393804013729095,0.12461651116609573,0.25534167885780334
1774789957898081300,9.362081298828125,0.16249015927314758,0.12095131725072861,0.3139847218990326
1774789957908152000,9.372152099609375,0.17592918872833252,0.12095131725072861,0.33475416898727417
1774789957918253300,9.38225341796875,0.1918116807937622,0.12339477986097336,0.304210901260376
1774789957928354600,9.3923544921875,0.20891591906547546,0.12828169763088226,0.2382374405860901
1774789957958567000,9.42256689453125,0.27000242471694946,0.1612684279680252,0.17104226350784302
1774789957998880800,9.462880859375,0.4239404797554016,0.2125810980796814,0.13072516024112701
1774789958008982000,9.47298193359375,0.44715335965156555,0.2382374405860901,0.17470745742321014
1774789958019083300,9.483083251953126,0.4386012554168701,0.26022860407829285,0.23457226157188416
1774789958029154000,9.493154052734376,0.4178318381309509,0.2785545587539673,0.304210901260376
1774789958089640000,9.553639892578126,0.8234463334083557,0.40194934606552124,-0.09651670604944229
1774789958099710700,9.563710693359376,0.9395107626914978,0.2919935882091522,-0.3543018400669098
1774789958109781500,9.573781494140626,0.9529497623443604,0.18448130786418915,-0.5180137157440186
1774789958119883000,9.583883056640625,0.9004153609275818,0.1160643994808197,-0.5400048494338989
1774789958140024600,9.604024658203125,0.6426302194595337,0.12339477986097336,-0.4386012554168701
1774789958150065000,9.61406494140625,0.4911356568336487,0.15271630883216858,-0.36651915311813354
1774789958170206500,9.63420654296875,0.26633724570274353,0.18081611394882202,0.12217304855585098
1774789958180307700,9.6443076171875,0.21624629199504852,0.16982053220272064,0.3897320330142975
1774789958190378500,9.65437841796875,0.21991148591041565,0.1368338167667389,0.5057964324951172
1774789958200449300,9.66444921875,0.2687807083129883,0.07819075137376785,0.4996877610683441
1774789958210459100,9.674459228515625,0.34697145223617554,0.012217304669320583,0.44593164324760437
1774789958220590800,9.6845908203125,0.43127086758613586,-0.04642575979232788,0.3396410644054413
1774789958230661600,9.69466162109375,0.49235737323760986,-0.09529497474431992,0.1417207419872284
1774789958240702000,9.704701904296876,0.5009095072746277,-0.13805554807186127,-0.15393804013729095
1774789958250711800,9.7147119140625,0.45814892649650574,-0.17837265133857727,-0.4544837474822998
1774789958280985300,9.7449853515625,0.21013765037059784,-0.2431243658065796,-0.4092797040939331
1774789958290995000,9.754994873046876,0.15515977144241333,-0.2272418737411499,-0.16371189057826996
1774789958301096200,9.76509619140625,0.11972958594560623,-0.20402899384498596,0.03298672288656235
1774789958311167200,9.775167236328125,0.08918632566928864,-0.1771509200334549,0.11484266817569733
1774789958321238000,9.785238037109375,0.0659734457731247,-0.1612684279680252,0.08185594528913498
1774789958341410000,9.80541015625,0.04764748737215996,-0.1514945775270462,-0.02076941914856434
1774789958351480800,9.815480712890626,0.028099801391363144,-0.14538592100143433,-0.12950342893600464
1774789958371561500,9.8355615234375,-0.03787364438176155,-0.12095131725072861,-0.16982053220272064
1774789958381632300,9.84563232421875,-0.09529497474431992,-0.09162978827953339,-0.11362093687057495
1774789958391672600,9.855672607421875,-0.15027284622192383,-0.05497787147760391,-0.045204028487205505
1774789958401743400,9.865743408203125,-0.18814650177955627,-0.01710422709584236,0.021991148591041565
1774789958411783700,9.87578369140625,-0.2528982162475586,0.04642575979232788,0.07696902006864548
1774789958421885000,9.885885009765625,-0.2528982162475586,0.04642575979232788,0.07696902006864548
1774789958431986200,9.895986083984376,-0.27611109614372253,0.07941248267889023,0.06963863968849182
1774789958442057000,9.906056884765626,-0.3029891550540924,0.09285151958465576,0.06719517707824707
1774789958452158200,9.916158203125,-0.32620203495025635,0.0806342139840126,0.09285151958465576
1774789958472269300,9.936269287109376,-0.36529740691185,0.012217304669320583,0.14538592100143433
1774789958492411000,9.956410888671876,-0.4105014503002167,-0.0757472887635231,0.26145032048225403
1774789958502512400,9.966512451171875,-0.4349360466003418,-0.11972958594560623,0.2736676335334778
1774789958512583200,9.976583251953125,-0.4605923891067505,-0.1722639948129654,0.2382374405860901
1774789958522684400,9.986684326171876,-0.4691445231437683,-0.22968533635139465,0.1918116807937622
1774789958532724700,9.996724853515625,-0.4813618063926697,-0.2981022298336029,0.12828169763088226
1774789958542826000,10.006825927734376,-0.5277875661849976,-0.3799581825733185,0.028099801391363144
1774789958552896800,10.016896728515626,-0.5852088928222656,-0.45326200127601624,-0.07208210229873657
1774789958583139800,10.047139892578125,-0.6487388610839844,-0.5461135506629944,0.05864306539297104
1774789958593149400,10.0571494140625,-0.6951646208763123,-0.5729916095733643,0.09285151958465576
1774789958603251000,10.0672509765625,-0.7232644557952881,-0.5876523852348328,0.12828169763088226
1774789958623423000,10.087423095703125,-0.7379252314567566,-0.5852088928222656,0.1514945775270462
1774789958643534000,10.1075341796875,-0.7073819637298584,-0.47280970215797424,0.04642575979232788
1774789958653604900,10.11760498046875,-0.6328563690185547,-0.35185837745666504,-0.025656340643763542
1774789958663675600,10.127675537109376,-0.5155702829360962,-0.2638937830924988,-0.08918632566928864
1774789958683878400,10.14787841796875,-0.26022860407829285,-0.24556782841682434,-0.18325957655906677
1774789958693918500,10.15791845703125,-0.16493362188339233,-0.2626720666885376,-0.1771509200334549
1774789958704020000,10.16802001953125,-0.11850785464048386,-0.27122417092323303,-0.19425514340400696
1774789958714060300,10.178060302734375,-0.13072516024112701,-0.27611109614372253,-0.31642818450927734
1774789958724131000,10.188131103515625,-0.2076941877603531,-0.27611109614372253,-0.4960225820541382
1774789958734201900,10.198201904296875,-0.3335324227809906,-0.2638937830924988,-0.5937610268592834
1774789958744303000,10.20830322265625,-0.4801400899887085,-0.23457226157188416,-0.5277875661849976
1774789958754374000,10.218373779296876,-0.6157521605491638,-0.18936823308467865,-0.41172316670417786
1774789958764475100,10.22847509765625,-0.7086036801338196,-0.1368338167667389,-0.30543261766433716
1774789958784616700,10.24861669921875,-0.6633996367454529,-0.0354301854968071,-0.06475171446800232
1774789958794687500,10.2586875,-0.5583308339118958,-0.006108652334660292,0.08307767659425735
1774789958804758500,10.268758544921875,-0.4495968222618103,0.012217304669320583,0.16249015927314758
1774789958814859800,10.27885986328125,-0.36529740691185,0.02076941914856434,0.16004669666290283
1774789958824930600,10.2889306640625,-0.3139847218990326,0.018325956538319588,0.15027284622192383
1774789958834971000,10.298970947265625,-0.2968805134296417,0.02076941914856434,0.18448130786418915
1774789958845072100,10.309072021484376,-0.3127630054950714,0.019547687843441963,0.2028072625398636
1774789958855143000,10.319142822265626,-0.33475416898727417,-0.00366519158706069,0.16737708449363708
1774789958865244200,10.329244140625,-0.34574973583221436,-0.02932153269648552,0.0757472887635231
1774789958875284500,10.339284423828126,-0.33597588539123535,-0.06475171446800232,-0.024434609338641167
1774789958905466400,10.36946630859375,-0.25534167885780334,-0.16493362188339233,-0.1563815027475357
1774789958915537200,10.379537109375,-0.2382374405860901,-0.1661553531885147,-0.1111774742603302
1774789958925608000,10.38960791015625,-0.22968533635139465,-0.16249015927314758,-0.028099801391363144
1774789958935648300,10.399648193359376,-0.20891591906547546,-0.14294247329235077,0.06841690838336945
1774789958945688600,10.4096884765625,-0.19058994948863983,-0.12095131725072861,0.12828169763088226
1774789958955759400,10.41975927734375,-0.18448130786418915,-0.1160643994808197,0.11728613078594208
1774789958965830100,10.429830078125,-0.18936823308467865,-0.12217304855585098,0.03787364438176155
1774789958975901000,10.43990087890625,-0.19303341209888458,-0.13072516024112701,-0.02932153269648552
1774789959016184300,10.480184326171875,-0.21502456068992615,-0.059864792972803116,0.13927727937698364
1774789959026285600,10.49028564453125,-0.2382374405860901,-0.04398229718208313,0.07696902006864548
1774789959036356400,10.5003564453125,-0.2321287989616394,-0.03176499158143997,0.0012217304902151227
1774789959046427100,10.51042724609375,-0.2015855312347412,-0.00855211354792118,-0.06963863968849182
1774789959056498000,10.520497802734376,-0.1661553531885147,-0.00366519158706069,-0.08796459436416626
1774789959066568700,10.530568603515626,-0.12828169763088226,-0.00366519158706069,-0.015882495790719986
1774789959076639500,10.540639404296876,-0.09651670604944229,0.013439035043120384,0.08185594528913498
1774789959106882600,10.570882568359375,-0.039095375686883926,0.06963863968849182,0.14294247329235077
1774789959116922600,10.580922607421876,-0.021991148591041565,0.08429940044879913,0.12950342893600464
1774789959126993400,10.590993408203126,-0.01710422709584236,0.09162978827953339,0.09896016865968704
1774789959137064400,10.601064453125,-0.030543262138962746,0.08918632566928864,0.05864306539297104
1774789959147135200,10.61113525390625,-0.0354301854968071,0.09896016865968704,0.05619960278272629
1774789959157206000,10.6212060546875,-0.03176499158143997,0.11728613078594208,0.08796459436416626
1774789959167276800,10.63127685546875,-0.024434609338641167,0.13439035415649414,0.12217304855585098
1774789959177347600,10.64134765625,-0.00855211354792118,0.15271630883216858,0.1612684279680252
1774789959187418400,10.65141845703125,0.01710422709584236,0.15393804013729095,0.21502456068992615
1774789959207529500,10.671529541015625,0.03787364438176155,0.13927727937698364,0.2687807083129883
1774789959217600300,10.681600341796875,0.05009094998240471,0.1160643994808197,0.3237585723400116
1774789959237711400,10.70171142578125,0.07452555745840073,0.0708603709936142,0.455705463886261
1774789959267923700,10.731923828125,0.1771509200334549,0.15271630883216858,0.3384193480014801
1774789959278025000,10.74202490234375,0.28466320037841797,0.16004669666290283,0.18570303916931152
1774789959288095700,10.752095703125,0.43127086758613586,0.13805554807186127,0.05497787147760391
1774789959308298500,10.772298583984375,0.6951646208763123,0.045204028487205505,-0.1966986060142517
1774789959318338800,10.7823388671875,0.7257078886032104,-0.00733038317412138,-0.3078760802745819
1774789959328409600,10.79240966796875,0.7024950385093689,-0.03298672288656235,-0.3530801236629486
1774789959338510800,10.8025107421875,0.6475171446800232,-0.02321287989616394,-0.3090978264808655
1774789959348612000,10.812612060546876,0.5729916095733643,0.02687807008624077,-0.13439035415649414
1774789959358683000,10.822682861328126,0.4691445231437683,0.08185594528913498,0.10995574295520782
1774789959368784400,10.832784423828125,0.3677408695220947,0.13805554807186127,0.3225368559360504
1774789959378885600,10.8428857421875,0.3090978264808655,0.17592918872833252,0.4080579876899719
1774789959388956400,10.852956298828126,0.30054569244384766,0.16249015927314758,0.34086281061172485
1774789959399027200,10.863027099609376,0.33475416898727417,0.11484266817569733,0.18570303916931152
1774789959419199200,10.88319921875,0.38606682419776917,0.036651913076639175,-0.01710422709584236
1774789959439310300,10.903310302734376,0.3933972120285034,0.019547687843441963,0.07696902006864548
1774789959449381000,10.913381103515626,0.4080579876899719,0.02076941914856434,0.036651913076639175
1774789959459482600,10.923482666015625,0.42149701714515686,0.010995574295520782,-0.08674286305904388
1774789959469584000,10.933583984375,0.42638394236564636,-0.0012217304902151227,-0.22846360504627228
1774789959479593700,10.94359375,0.43127086758613586,-0.02076941914856434,-0.3274237811565399
1774789959489664500,10.95366455078125,0.43127086758613586,-0.03176499158143997,-0.3433062732219696
1774789959499765800,10.963765869140625,0.4190535545349121,-0.04398229718208313,-0.31154128909111023
1774789959509867000,10.973866943359376,0.3933972120285034,-0.04886921867728233,-0.24556782841682434
1774789959519937800,10.983937744140626,0.3591887652873993,-0.04886921867728233,-0.15393804013729095
1774789959530039300,10.994039306640625,0.3176499307155609,-0.036651913076639175,-0.08429940044879913
1774789959540110000,11.004110107421875,0.27611109614372253,-0.025656340643763542,-0.0708603709936142
1774789959550180900,11.014180908203125,0.23945917189121246,-0.01710422709584236,-0.09529497474431992
1774789959560251600,11.024251708984375,0.19914206862449646,-0.01466076634824276,-0.13927727937698364
1774789959570322400,11.034322509765625,0.1466076523065567,-0.02321287989616394,-0.19425514340400696
1774789959580423700,11.044423583984376,0.09285151958465576,-0.03176499158143997,-0.22602014243602753
1774789959590494500,11.054494384765626,0.05375614017248154,-0.02932153269648552,-0.21502456068992615
1774789959630777600,11.094777587890626,-0.05253441259264946,0.013439035043120384,-0.04642575979232788
1774789959640818000,11.10481787109375,-0.08796459436416626,0.025656340643763542,-0.06352998316287994
1774789959650919400,11.11491943359375,-0.12217304855585098,0.018325956538319588,-0.12095131725072861
1774789959660990200,11.124990234375,-0.1466076523065567,-0.0012217304902151227,-0.17348572611808777
1774789959671061000,11.13506103515625,-0.16859880089759827,-0.02076941914856434,-0.18570303916931152
1774789959681131800,11.1451318359375,-0.1869247704744339,-0.039095375686883926,-0.15271630883216858
1774789959691172000,11.155172119140625,-0.19792033731937408,-0.05375614017248154,-0.08796459436416626
1774789959701273300,11.1652734375,-0.21502456068992615,-0.06719517707824707,-0.05375614017248154
1774789959721415000,11.185414794921876,-0.26511552929878235,-0.10018189996480942,-0.07330382615327835
1774789959741556500,11.205556396484376,-0.2993239760398865,-0.11972958594560623,-0.10384709388017654
1774789959751627300,11.215627197265626,-0.2993239760398865,-0.1258382350206375,-0.09773843735456467
1774789959761698000,11.225697998046876,-0.2981022298336029,-0.13316862285137177,-0.08429940044879913
1774789959771738400,11.23573828125,-0.2981022298336029,-0.14049901068210602,-0.08185594528913498
1774789959781839600,11.245839599609376,-0.30543261766433716,-0.16249015927314758,-0.08307767659425735
1774789959802012000,11.266011962890625,-0.34086281061172485,-0.2125810980796814,-0.03176499158143997
1774789959822153500,11.286153564453125,-0.375071257352829,-0.2638937830924988,0.059864792972803116
1774789959832254700,11.296254638671876,-0.4080579876899719,-0.2968805134296417,0.07330382615327835
1774789959902750500,11.36675048828125,-0.25534167885780334,-0.12095131725072861,-0.02321287989616394
1774789959973246000,11.437245849609376,-0.7037167549133301,-0.0012217304902151227,-0.3799581825733185
1774789959993418000,11.45741796875,-0.7037167549133301,0.17592918872833252,0.06230825558304787
1774789960003488800,11.46748876953125,-0.6035348773002625,0.23335053026676178,0.19425514340400696
1774789960013498600,11.47749853515625,-0.4996877610683441,0.2382374405860901,0.17348572611808777
1774789960023569400,11.4875693359375,-0.4337143301963806,0.21624629199504852,0.0659734457731247
1774789960033640200,11.49764013671875,-0.4337143301963806,0.21624629199504852,0.0659734457731247
1774789960043711000,11.5077109375,-0.40194934606552124,0.18081611394882202,-0.004886921960860491
1774789960114206700,11.578206787109375,-0.5302310585975647,0.10506882518529892,-0.4190535545349121
1774789960124277500,11.588277587890625,-0.4813618063926697,0.09529497474431992,-0.25534167885780334
1774789960134409200,11.5984091796875,-0.4813618063926697,0.09529497474431992,-0.25534167885780334
1774789960144480000,11.60847998046875,-0.4251621961593628,0.10751228034496307,-0.02321287989616394
1774789960164621800,11.628621826171875,-0.3237585723400116,0.1270599663257599,0.2675589919090271
1774789960174723000,11.63872314453125,-0.2919935882091522,0.13561208546161652,0.25534167885780334
1774789960184763400,11.648763427734375,-0.2675589919090271,0.13316862285137177,0.1612684279680252
1774789960194834200,11.658834228515625,-0.23945917189121246,0.13072516024112701,0.036651913076639175
1774789960204905000,11.668905029296875,-0.21502456068992615,0.12828169763088226,-0.0757472887635231
1774789960214975700,11.678975830078125,-0.19547687470912933,0.12095131725072861,-0.1612684279680252
1774789960225077000,11.689076904296876,-0.17348572611808777,0.11484266817569733,-0.18814650177955627
1774789960235178200,11.69917822265625,-0.1417207419872284,0.11728613078594208,-0.17348572611808777
1774789960245249000,11.7092490234375,-0.09651670604944229,0.11850785464048386,-0.15027284622192383
1774789960265390800,11.729390869140625,-0.009773843921720982,0.10506882518529892,-0.06352998316287994
1774789960275461600,11.739461669921875,0.013439035043120384,0.09162978827953339,0.045204028487205505
1774789960285532400,11.749532470703125,0.02321287989616394,0.0806342139840126,0.15882496535778046
1774789960295633700,11.759633544921876,0.01710422709584236,0.07819075137376785,0.24190263450145721
1774789960305735000,11.76973486328125,-0.006108652334660292,0.07696902006864548,0.2577851414680481
1774789960315805700,11.7798056640625,-0.02321287989616394,0.07696902006864548,0.22113321721553802
1774789960325876500,11.78987646484375,-0.015882495790719986,0.0757472887635231,0.19547687470912933
1774789960346048800,11.810048828125,-0.00366519158706069,0.07941248267889023,0.15027284622192383
1774789960356119600,11.82011962890625,-0.01466076634824276,0.08307767659425735,0.10995574295520782
1774789960386362400,11.8503623046875,0.05742133408784866,0.11972958594560623,0.2223549485206604
1774789960396402700,11.860402587890626,0.08307767659425735,0.13927727937698364,0.2675589919090271
1774789960426615000,11.890614990234376,0.1466076523065567,0.1514945775270462,0.31031954288482666
1774789960436685800,11.900685791015626,0.16737708449363708,0.13805554807186127,0.3078760802745819
1774789960446726100,11.91072607421875,0.18325957655906677,0.15027284622192383,0.2883284091949463
1774789960456766500,11.920766357421876,0.21991148591041565,0.1918116807937622,0.22846360504627228
1774789960476908000,11.940907958984376,0.4544837474822998,0.24923302233219147,-0.1014036312699318
1774789960497049600,11.961049560546876,0.7024950385093689,0.16859880089759827,-0.6133087277412415
1774789960507090000,11.97108984375,0.7513642311096191,0.09162978827953339,-0.7733554244041443
1774789960517160700,11.98116064453125,0.7611380815505981,0.028099801391363144,-0.779464066028595
1774789960527231500,11.9912314453125,0.7342600226402283,0.010995574295520782,-0.6536257863044739
1774789960537302300,12.00130224609375,0.6914994716644287,0.0354301854968071,-0.4178318381309509
1774789960547373000,12.011373046875,0.6585127115249634,0.07452555745840073,-0.08674286305904388
1774789960557443800,12.02144384765625,0.626747727394104,0.1014036312699318,0.2590068578720093
1774789960567484200,12.031484130859376,0.5668829679489136,0.11362093687057495,0.4789183437824249
1774789960577555000,12.041554931640626,0.47280970215797424,0.08796459436416626,0.4789183437824249
1774789960597727200,12.061727294921875,0.39706242084503174,-0.009773843921720982,0.08674286305904388
1774789960607798000,12.071798095703125,0.4593706727027893,-0.04886921867728233,-0.09162978827953339
1774789960617838300,12.08183837890625,0.5412266254425049,-0.07941248267889023,-0.19914206862449646
1774789960627939600,12.091939697265625,0.5974262356758118,-0.10384709388017654,-0.24434609711170197
1774789960638010400,12.10201025390625,0.6047565937042236,-0.11728613078594208,-0.2638937830924988
1774789960648081200,12.1120810546875,0.5668829679489136,-0.11850785464048386,-0.27977627515792847
1774789960658182400,12.122182373046876,0.5070181488990784,-0.11484266817569733,-0.28955012559890747
1774789960688395000,12.15239501953125,0.32009339332580566,-0.1062905490398407,-0.18081611394882202
1774789960698465800,12.1624658203125,0.26145032048225403,-0.10262536257505417,-0.12950342893600464
1774789960708567000,12.172567138671875,0.2064724564552307,-0.09285151958465576,-0.1014036312699318
1774789960718607400,12.182607421875,0.16737708449363708,-0.08552113175392151,-0.09285151958465576
1774789960728678100,12.19267822265625,0.13439035415649414,-0.07819075137376785,-0.1014036312699318
1774789960738779400,12.202779296875,0.09529497474431992,-0.0659734457731247,-0.12339477986097336
1774789960748880600,12.212880615234376,0.06108652427792549,-0.06475171446800232,-0.14049901068210602
1774789960758982100,12.222982177734375,0.0354301854968071,-0.05253441259264946,-0.14905111491680145
1774789960769053000,12.233052978515625,0.01710422709584236,-0.042760565876960754,-0.14782938361167908
1774789960789225000,12.253224853515626,-0.009773843921720982,-0.01710422709584236,-0.1062905490398407
1774789960799295700,12.263295654296876,-0.01466076634824276,0.0012217304902151227,-0.05742133408784866
1774789960809366500,12.273366455078126,-0.00733038317412138,0.01710422709584236,0
1774789960819437300,12.283437255859376,0.012217304669320583,0.025656340643763542,0.04153883829712868
1774789960829538800,12.293538818359375,0.024434609338641167,0.021991148591041565,0.03420845419168472
1774789960839640000,12.30364013671875,0.02076941914856434,0.00733038317412138,-0.015882495790719986
1774789960849710800,12.3137109375,0.01466076634824276,-0.01466076634824276,-0.07330382615327835
1774789960859812000,12.32381201171875,0.010995574295520782,-0.0403171069920063,-0.10751228034496307
1774789960869883000,12.3338828125,0.012217304669320583,-0.06352998316287994,-0.1160643994808197
1774789960900034300,12.364034423828125,-0.051312681287527084,-0.08796459436416626,-0.1111774742603302
1774789960910135600,12.374135498046876,-0.08307767659425735,-0.09407325088977814,-0.1160643994808197
1774789960920206300,12.384206298828126,-0.11972958594560623,-0.1014036312699318,-0.10506882518529892
1774789960930277000,12.394277099609376,-0.14905111491680145,-0.10995574295520782,-0.04764748737215996
1774789960940378600,12.404378662109375,-0.16737708449363708,-0.10873401165008545,0.05864306539297104
1774789960950449400,12.414449462890625,-0.17348572611808777,-0.10506882518529892,0.18814650177955627
1774789960960520200,12.424520263671875,-0.16982053220272064,-0.10751228034496307,0.294437050819397
1774789960980631300,12.44463134765625,-0.18448130786418915,-0.1368338167667389,0.2883284091949463
1774789960990702000,12.4547021484375,-0.21502456068992615,-0.1722639948129654,0.17837265133857727
1774789961010782500,12.474782470703126,-0.28955012559890747,-0.22602014243602753,-0.09162978827953339
1774789961020853500,12.484853515625,-0.32620203495025635,-0.2382374405860901,-0.14049901068210602
1774789961030924300,12.49492431640625,-0.36529740691185,-0.22479841113090515,-0.1014036312699318
1774789961041025500,12.505025634765625,-0.4092797040939331,-0.16982053220272064,-0.0024434609804302454
1774789961051096300,12.515096435546875,-0.4495968222618103,-0.0757472887635231,0.09651670604944229
1774789961061197600,12.525197509765626,-0.43737950921058655,0.028099801391363144,0.16004669666290283
1774789961071298800,12.535298828125,-0.3445279896259308,0.09651670604944229,0.17470745742321014
1774789961091410000,12.555409912109376,-0.2174680233001709,0.036651913076639175,0.05619960278272629
1774789961101511400,12.565511474609375,-0.22602014243602753,-0.02076941914856434,0.07330382615327835
1774789961111612700,12.57561279296875,-0.2064724564552307,-0.05619960278272629,0.17348572611808777
1774789961121683500,12.585683349609376,-0.18936823308467865,-0.059864792972803116,0.2125810980796814
1774789961131754200,12.595754150390626,-0.2577851414680481,-0.045204028487205505,0.06230825558304787
1774789961141855500,12.60585546875,-0.41661009192466736,-0.00733038317412138,-0.2675589919090271
1774789961151895800,12.615895751953126,-0.5815436840057373,0.0354301854968071,-0.5852088928222656
1774789961161966600,12.625966552734376,-0.6914994716644287,0.07330382615327835,-0.6695083379745483
1774789961172037400,12.636037353515626,-0.7293730974197388,0.1368338167667389,-0.4764748811721802
1774789961182108200,12.646108154296876,-0.7049384713172913,0.21624629199504852,-0.11850785464048386
1774789961212259600,12.676259521484376,-0.41661009192466736,0.35063666105270386,0.6194173693656921
1774789961222360800,12.68636083984375,-0.33719760179519653,0.3323107063770294,0.5962044596672058
1774789961232431900,12.696431884765625,-0.304210901260376,0.3029891550540924,0.4495968222618103
1774789961242502700,12.706502685546875,-0.31520646810531616,0.2736676335334778,0.2076941877603531
1774789961252512300,12.71651220703125,-0.3530801236629486,0.2528982162475586,-0.06108652427792549
1774789961262613800,12.72661376953125,-0.3885102868080139,0.23090706765651703,-0.2675589919090271
1774789961272684500,12.7366845703125,-0.4105014503002167,0.21380282938480377,-0.34697145223617554
1774789961282724600,12.746724609375,-0.4239404797554016,0.20525072515010834,-0.31520646810531616
1774789961312937200,12.776937255859375,-0.39095374941825867,0.17592918872833252,-0.09529497474431992
1774789961322977500,12.7869775390625,-0.36163222789764404,0.16371189057826996,-0.015882495790719986
1774789961333017600,12.797017578125,-0.33597588539123535,0.15882496535778046,0.04642575979232788
1774789961343119000,12.807119140625,-0.31154128909111023,0.15271630883216858,0.07819075137376785
1774789961353190000,12.81718994140625,-0.28099802136421204,0.1514945775270462,0.08674286305904388
1774789961363230200,12.827230224609375,-0.2382374405860901,0.15515977144241333,0.0757472887635231
1774789961373209300,12.837209228515626,-0.1918116807937622,0.14782938361167908,0.04764748737215996
1774789961383310600,12.847310546875,-0.14416420459747314,0.1319468915462494,0.024434609338641167
1774789961393412000,12.857412109375,-0.09529497474431992,0.11239920556545258,0.036651913076639175
1774789961413462000,12.8774619140625,0.021991148591041565,0.0806342139840126,0.14538592100143433
1774789961423563300,12.887563232421876,0.07819075137376785,0.07208210229873657,0.17348572611808777
1774789961433664800,12.897664794921875,0.1258382350206375,0.06108652427792549,0.15271630883216858
1774789961443766000,12.90776611328125,0.16737708449363708,0.03787364438176155,0.0806342139840126
1774789961453806300,12.917806396484375,0.1966986060142517,-0.00366519158706069,-0.00733038317412138
1774789961463907600,12.927907470703126,0.21013765037059784,-0.04764748737215996,-0.05742133408784866
1774789961473978400,12.937978271484376,0.21991148591041565,-0.08674286305904388,-0.03176499158143997
1774789961484049200,12.948049072265626,0.23579397797584534,-0.1014036312699318,0.05253441259264946
1774789961494059000,12.95805908203125,0.251676470041275,-0.10262536257505417,0.1417207419872284
1774789961534342100,12.998342041015626,0.3090978264808655,-0.0757472887635231,0.08918632566928864
1774789961544443400,13.008443359375,0.3237585723400116,-0.07819075137376785,0.03176499158143997
1774789961554514200,13.01851416015625,0.3433062732219696,-0.06108652427792549,-0.02076941914856434
1774789961564615700,13.02861572265625,0.3738495409488678,-0.03787364438176155,-0.05742133408784866
1774789961574656000,13.038656005859375,0.4056145250797272,-0.018325956538319588,-0.07330382615327835
1774789961584757200,13.04875732421875,0.41661009192466736,0.00366519158706069,-0.07208210229873657
1774789961645182000,13.109181884765626,0.32009339332580566,0.21502456068992615,0.29565876722335815
1774789961665323500,13.129323486328126,0.5497786998748779,0.2174680233001709,-0.030543262138962746
1774789961675425000,13.139425048828125,0.656069278717041,0.1563815027475357,-0.2834414839744568
1774789961685526300,13.1495263671875,0.7220427393913269,0.08429940044879913,-0.5021312236785889
1774789961695597000,13.15959716796875,0.769690215587616,0.013439035043120384,-0.6145304441452026
1774789961705667800,13.169667724609376,0.7843509912490845,-0.045204028487205505,-0.6414085030555725
1774789961715738600,13.179738525390626,0.750142514705658,-0.0757472887635231,-0.6157521605491638
1774789961766062000,13.23006201171875,0.5021312236785889,-0.04398229718208313,0.14905111491680145
1774789961776072000,13.240072021484375,0.4386012554168701,-0.042760565876960754,0.24556782841682434
1774789961786142700,13.250142822265625,0.4092797040939331,-0.05497787147760391,0.20891591906547546
1774789961796183000,13.26018310546875,0.4105014503002167,-0.0757472887635231,0.04764748737215996
1774789961806253800,13.27025390625,0.41172316670417786,-0.10506882518529892,-0.1820378452539444
1774789961816294100,13.280294189453125,0.4056145250797272,-0.13805554807186127,-0.39217549562454224
1774789961846537000,13.310536865234376,0.3982841372489929,-0.1258382350206375,-0.35552358627319336
1774789961856577300,13.320577392578125,0.3738495409488678,-0.10018189996480942,-0.21013765037059784
1774789961866648000,13.33064794921875,0.3384193480014801,-0.07452555745840073,-0.06963863968849182
1774789961876718800,13.34071875,0.2919935882091522,-0.06352998316287994,0.028099801391363144
1774789961886820000,13.350820068359376,0.23579397797584534,-0.051312681287527084,0.042760565876960754
1774789961896891000,13.360890869140626,0.17470745742321014,-0.05253441259264946,-0.030543262138962746
1774789961906992400,13.370992431640625,0.1258382350206375,-0.05497787147760391,-0.12339477986097336
1774789961917063200,13.381063232421875,0.10262536257505417,-0.05497787147760391,-0.17104226350784302
1774789961927134000,13.391134033203125,0.09896016865968704,-0.04398229718208313,-0.15271630883216858
1774789961947306000,13.411305908203126,0.09773843735456467,-0.018325956538319588,-0.04153883829712868
1774789961957376800,13.421376708984376,0.08796459436416626,-0.00733038317412138,0.01710422709584236
1774789961967478000,13.43147802734375,0.06963863968849182,-0.00733038317412138,0.07696902006864548
1774789961977549000,13.441549072265625,0.05009094998240471,-0.01710422709584236,0.14294247329235077
1774789961987589000,13.451589111328126,0.03298672288656235,-0.030543262138962746,0.2223549485206604
1774789961997660000,13.461659912109376,0.01466076634824276,-0.03176499158143997,0.2883284091949463
1774789962007731000,13.47173095703125,-0.013439035043120384,-0.028099801391363144,0.29565876722335815
1774789962017771000,13.48177099609375,-0.05619960278272629,-0.02076941914856434,0.20402899384498596
1774789962027872500,13.49187255859375,-0.10384709388017654,-0.019547687843441963,0.04398229718208313
1774789962058054400,13.522054443359375,-0.17348572611808777,-0.03787364438176155,-0.1319468915462494
1774789962118479000,13.58247900390625,-0.2822197377681732,-0.08429940044879913,0.30054569244384766
1774789962128550000,13.5925498046875,-0.3127630054950714,-0.1014036312699318,0.18448130786418915
1774789962138590200,13.602590087890626,-0.34086281061172485,-0.11850785464048386,0.04764748737215996
1774789962158731800,13.622731689453126,-0.3591887652873993,-0.15027284622192383,-0.059864792972803116
1774789962168802600,13.632802490234376,-0.3323107063770294,-0.15882496535778046,-0.018325956538319588
1774789962178873300,13.642873291015626,-0.2993239760398865,-0.16859880089759827,0.036651913076639175
1774789962188913700,13.65291357421875,-0.2675589919090271,-0.19303341209888458,0.07330382615327835
1774789962219065000,13.683065185546875,-0.2687807083129883,-0.2834414839744568,0.021991148591041565
1774789962229136000,13.693135986328125,-0.2871066629886627,-0.2919935882091522,0.00366519158706069
1774789962239206700,13.70320654296875,-0.3090978264808655,-0.2968805134296417,-0.01466076634824276
1774789962249277400,13.71327734375,-0.33475416898727417,-0.2785545587539673,-0.04153883829712868
1774789962289560600,13.753560546875,-0.23457226157188416,-0.11362093687057495,-0.35552358627319336
1774789962299631400,13.76363134765625,-0.1869247704744339,-0.13561208546161652,-0.30543261766433716
1774789962309732900,13.77373291015625,-0.18325957655906677,-0.16493362188339233,-0.11728613078594208
1774789962319803600,13.7838037109375,-0.19303341209888458,-0.16737708449363708,0.1612684279680252
1774789962329874400,13.79387451171875,-0.22113321721553802,-0.14782938361167908,0.3543018400669098
1774789962339914800,13.803914794921875,-0.28955012559890747,-0.1258382350206375,0.3323107063770294
1774789962349985500,13.813985595703125,-0.39706242084503174,-0.09773843735456467,0.09529497474431992
1774789962370096600,13.8340966796875,-0.5668829679489136,-0.01466076634824276,-0.39584067463874817
1774789962450632400,13.914632568359375,-0.21868975460529327,0.12339477986097336,0.3543018400669098
1774789962460642300,13.924642333984375,-0.23335053026676178,0.10262536257505417,0.11484266817569733
1774789962500895000,13.96489501953125,-0.31642818450927734,0.045204028487205505,-0.15760323405265808
1774789962520945000,13.98494482421875,-0.2541199326515198,0.03787364438176155,-0.059864792972803116
1774789962531046100,13.995046142578126,-0.21991148591041565,0.039095375686883926,0.0354301854968071
1774789962581461200,14.045461181640626,-0.1111774742603302,0.14049901068210602,0.2528982162475586
1774789962631784700,14.09578466796875,0.10018189996480942,0.21991148591041565,0.10018189996480942
1774789962641855500,14.10585546875,0.12461651116609573,0.22357667982578278,0.08185594528913498
1774789962732523300,14.196523193359376,0.15882496535778046,0.21013765037059784,0.23457226157188416
1774789962752695600,14.216695556640625,0.13561208546161652,0.2064724564552307,0.304210901260376
1774789962762766300,14.226766357421875,0.11972958594560623,0.19914206862449646,0.25534167885780334
1774789962772837000,14.236837158203125,0.11362093687057495,0.19792033731937408,0.16737708449363708
1774789962803019000,14.26701904296875,0.18936823308467865,0.2064724564552307,0.0757472887635231
1774789962813059000,14.27705908203125,0.19303341209888458,0.1966986060142517,0.07330382615327835
1774789962833231400,14.2972314453125,0.1918116807937622,0.17470745742321014,0.22113321721553802
1774789962843302100,14.30730224609375,0.20402899384498596,0.19303341209888458,0.35063666105270386
1774789962853342500,14.317342529296875,0.24190263450145721,0.23579397797584534,0.4386012554168701
1774789962863382800,14.3273828125,0.32620203495025635,0.27611109614372253,0.43249258399009705
1774789962873484000,14.337484130859375,0.4544837474822998,0.27488934993743896,0.3323107063770294
1774789962903635500,14.367635498046875,0.779464066028595,0.0806342139840126,-0.18936823308467865
1774789962913706200,14.377706298828125,0.8087855577468872,-0.0012217304902151227,-0.27122417092323303
1774789962923777000,14.387777099609375,0.7806857824325562,-0.05742133408784866,-0.2626720666885376
1774789962933847800,14.397847900390625,0.7061602473258972,-0.07452555745840073,-0.2028072625398636
1774789962943888100,14.40788818359375,0.6279694437980652,-0.06475171446800232,-0.12339477986097336
1774789962953959000,14.417958984375,0.5729916095733643,-0.051312681287527084,-0.02687807008624077
1774789962964029700,14.42802978515625,0.5204572081565857,-0.045204028487205505,0.07452555745840073
1774789962974039300,14.438039306640626,0.46181413531303406,-0.051312681287527084,0.14049901068210602
1774789962984079600,14.44807958984375,0.42760565876960754,-0.0708603709936142,0.14782938361167908
1774789963014231000,14.47823095703125,0.5192354321479797,-0.14538592100143433,-0.013439035043120384
1774789963034372600,14.49837255859375,0.5070181488990784,-0.15393804013729095,-0.1820378452539444
1774789963054483700,14.518483642578126,0.33597588539123535,-0.17104226350784302,-0.4508185386657715
1774789963064585000,14.5285849609375,0.2431243658065796,-0.16859880089759827,-0.45692721009254456
1774789963074625300,14.538625244140626,0.16493362188339233,-0.14905111491680145,-0.36529740691185
1774789963094797600,14.558797607421875,0.039095375686883926,-0.09651670604944229,-0.12950342893600464
1774789963104898800,14.56889892578125,0.0024434609804302454,-0.06841690838336945,-0.051312681287527084
1774789963114969600,14.578969482421876,-0.015882495790719986,-0.04886921867728233,-0.013439035043120384
1774789963125040400,14.589040283203126,-0.030543262138962746,-0.036651913076639175,-0.013439035043120384
1774789963135080700,14.599080810546875,-0.059864792972803116,-0.03176499158143997,-0.045204028487205505
1774789963145182000,14.609181884765626,-0.1062905490398407,-0.03176499158143997,-0.1062905490398407
1774789963155252700,14.619252685546876,-0.13439035415649414,-0.0403171069920063,-0.1417207419872284
1774789963165293000,14.62929296875,-0.13927727937698364,-0.0403171069920063,-0.13316862285137177
1774789963175333400,14.63933349609375,-0.13072516024112701,-0.028099801391363144,-0.09285151958465576
1774789963185434600,14.6494345703125,-0.12095131725072861,-0.009773843921720982,-0.02932153269648552
1774789963195475000,14.659474853515626,-0.11239920556545258,0.01710422709584236,0.03176499158143997
1774789963215647000,14.67964697265625,-0.10506882518529892,0.05497787147760391,0.00733038317412138
1774789963225748500,14.68974853515625,-0.1270599663257599,0.05009094998240471,-0.06963863968849182
1774789963235819300,14.6998193359375,-0.1417207419872284,0.019547687843441963,-0.12095131725072861
1774789963245890000,14.70989013671875,-0.1466076523065567,-0.006108652334660292,-0.1111774742603302
1774789963255899600,14.719899658203126,-0.1466076523065567,-0.006108652334660292,-0.1111774742603302
1774789963266001200,14.730001220703125,-0.1514945775270462,-0.018325956538319588,-0.05009094998240471
1774789963276072000,14.740072021484375,-0.14416420459747314,-0.03176499158143997,0.045204028487205505
1774789963286173200,14.750173095703126,-0.1319468915462494,-0.039095375686883926,0.1319468915462494
1774789963306314800,14.770314697265626,-0.15515977144241333,-0.05497787147760391,0.10506882518529892
1774789963316385500,14.780385498046876,-0.1918116807937622,-0.07452555745840073,0.01710422709584236
1774789963326487000,14.790487060546875,-0.22479841113090515,-0.09896016865968704,-0.045204028487205505
1774789963336557800,14.800557861328125,-0.24556782841682434,-0.12095131725072861,-0.06230825558304787
1774789963346598000,14.810597900390626,-0.2577851414680481,-0.1466076523065567,-0.042760565876960754
1774789963356669000,14.8206689453125,-0.2577851414680481,-0.1466076523065567,-0.042760565876960754
1774789963366739700,14.83073974609375,-0.251676470041275,-0.16249015927314758,-0.0403171069920063
1774789963376810500,14.840810546875,-0.2431243658065796,-0.18814650177955627,-0.05009094998240471
1774789963386881300,14.85088134765625,-0.2382374405860901,-0.22357667982578278,-0.05009094998240471
1774789963417093600,14.88109375,-0.21013765037059784,-0.3188716471195221,0.11239920556545258
1774789963427164400,14.891164306640626,-0.22113321721553802,-0.3445279896259308,0.11850785464048386
1774789963437265700,14.901265625,-0.26511552929878235,-0.3640756905078888,0.04642575979232788
1774789963447306000,14.911305908203126,-0.3225368559360504,-0.37140607833862305,-0.05009094998240471
1774789963457346300,14.92134619140625,-0.36529740691185,-0.33719760179519653,-0.11239920556545258
1774789963467417000,14.9314169921875,-0.3738495409488678,-0.26145032048225403,-0.13805554807186127
1774789963477518300,14.941518310546876,-0.3433062732219696,-0.1771509200334549,-0.15271630883216858
1774789963487589000,14.951589111328126,-0.26633724570274353,-0.11728613078594208,-0.1563815027475357
1774789963517801700,14.9818017578125,-0.08307767659425735,-0.1869247704744339,0.1062905490398407
1774789963527903000,14.991903076171875,-0.1014036312699318,-0.20036379992961884,0.251676470041275
1774789963537973800,15.001973876953125,-0.16004669666290283,-0.1918116807937622,0.30054569244384766
1774789963548044500,15.01204443359375,-0.2871066629886627,-0.1514945775270462,0.14416420459747314
1774789963558115300,15.022115234375,-0.4605923891067505,-0.08429940044879913,-0.18325957655906677
1774789963568186000,15.03218603515625,-0.626747727394104,-0.019547687843441963,-0.46181413531303406
1774789963578287400,15.042287353515626,-0.740368664264679,0.04764748737215996,-0.4911356568336487
1774789963588297200,15.052297119140626,-0.769690215587616,0.12339477986097336,-0.2541199326515198
1774789963598398500,15.0623984375,-0.6976081132888794,0.2015855312347412,0.1258382350206375
1774789963638712300,15.10271240234375,-0.32131510972976685,0.1966986060142517,0.43249258399009705
1774789963648752600,15.112752685546875,-0.3384193480014801,0.14538592100143433,0.14782938361167908
1774789963658854000,15.12285400390625,-0.3677408695220947,0.11972958594560623,-0.12461651116609573
1774789963668894200,15.132894287109375,-0.40194934606552124,0.10873401165008545,-0.33719760179519653
1774789963678995500,15.142995361328126,-0.44715335965156555,0.1014036312699318,-0.4544837474822998
1774789963689035800,15.153035888671875,-0.5106833577156067,0.09407325088977814,-0.4813618063926697
1774789963699137000,15.163136962890626,-0.5742133259773254,0.08918632566928864,-0.455705463886261
1774789963709207800,15.173207763671876,-0.6010913848876953,0.08307767659425735,-0.39706242084503174
1774789963729349400,15.193349365234376,-0.5510004758834839,0.07452555745840073,-0.14538592100143433
1774789963739389700,15.2033896484375,-0.5070181488990784,0.08307767659425735,0.04764748737215996
1774789963749460500,15.21346044921875,-0.4703662395477295,0.09162978827953339,0.19058994948863983
1774789963759531300,15.22353125,-0.45814892649650574,0.09651670604944229,0.22113321721553802
1774789963769571600,15.233571533203126,-0.44837507605552673,0.10262536257505417,0.16737708449363708
1774789963779673000,15.243673095703125,-0.4202753007411957,0.11850785464048386,0.08552113175392151
1774789963789743900,15.253743896484375,-0.375071257352829,0.15027284622192383,-0.006108652334660292
1774789963799814700,15.263814697265625,-0.32986724376678467,0.1820378452539444,-0.09773843735456467
1774789963809885400,15.273885498046875,-0.28466320037841797,0.2015855312347412,-0.1771509200334549
1774789963829996500,15.29399658203125,-0.14416420459747314,0.22968533635139465,-0.1771509200334549
1774789963850107600,15.314107666015625,-0.00366519158706069,0.22357667982578278,-0.04764748737215996
1774789963870249200,15.334249267578125,0.07696902006864548,0.21380282938480377,0.12828169763088226
1774789963880320000,15.344320068359375,0.09162978827953339,0.2125810980796814,0.20525072515010834
1774789963890421200,15.354421142578126,0.09040805697441101,0.2125810980796814,0.24068090319633484
1774789963900461600,15.364461669921875,0.07696902006864548,0.2015855312347412,0.24068090319633484
1774789963910502000,15.374501953125,0.05864306539297104,0.18570303916931152,0.21380282938480377
1774789963920572700,15.38457275390625,0.045204028487205505,0.16982053220272064,0.1771509200334549
1774789963950785000,15.414784912109376,0.07696902006864548,0.1258382350206375,0.2174680233001709
1774789963960825300,15.424825439453125,0.10873401165008545,0.1160643994808197,0.26022860407829285
1774789963970896100,15.434896240234375,0.12339477986097336,0.10751228034496307,0.26633724570274353
1774789963980967000,15.444966796875,0.11850785464048386,0.10262536257505417,0.22113321721553802
1774789963991037700,15.45503759765625,0.11728613078594208,0.09896016865968704,0.17592918872833252
1774789964001108500,15.4651083984375,0.12339477986097336,0.10506882518529892,0.15515977144241333
1774789964011179300,15.47517919921875,0.1270599663257599,0.12095131725072861,0.15393804013729095
1774789964021280500,15.485280517578126,0.1319468915462494,0.13316862285137177,0.17959438264369965
1774789964031351600,15.4953515625,0.14538592100143433,0.1514945775270462,0.23457226157188416
1774789964061594400,15.525594482421875,0.33475416898727417,0.23579397797584534,0.0012217304902151227
1774789964071665200,15.5356650390625,0.45204028487205505,0.21380282938480377,-0.2015855312347412
1774789964081705500,15.54570556640625,0.5436700582504272,0.1563815027475357,-0.3799581825733185
1774789964091776300,15.5557763671875,0.5791002511978149,0.0806342139840126,-0.455705463886261
1774789964101847000,15.565846923828126,0.5632177591323853,0.02932153269648552,-0.39217549562454224
1774789964111948300,15.5759482421875,0.5094616413116455,-0.009773843921720982,-0.24434609711170197
1774789964121988600,15.585988525390626,0.42149701714515686,-0.028099801391363144,-0.07819075137376785
1774789964162241300,15.6262412109375,0.16982053220272064,0.006108652334660292,0.4544837474822998
1774789964172342500,15.636342529296876,0.19058994948863983,0.00855211354792118,0.4129449129104614
1774789964182413600,15.64641357421875,0.27122417092323303,-0.00855211354792118,0.28955012559890747
1774789964192453600,15.65645361328125,0.38240164518356323,-0.04764748737215996,0.1270599663257599
1774789964202524400,15.6665244140625,0.485027015209198,-0.10873401165008545,-0.02687807008624077
1774789964212626000,15.6766259765625,0.5436700582504272,-0.16249015927314758,-0.13805554807186127
1774789964222666200,15.686666259765625,0.5656611919403076,-0.19547687470912933,-0.20402899384498596
1774789964262919000,15.7269189453125,0.4239404797554016,-0.19914206862449646,-0.19058994948863983
1774789964272989700,15.73698974609375,0.32620203495025635,-0.2028072625398636,-0.23579397797584534
1774789964283060500,15.747060546875,0.23945917189121246,-0.2015855312347412,-0.2932153046131134
1774789964293131300,15.75713134765625,0.17470745742321014,-0.19425514340400696,-0.34697145223617554
1774789964303232500,15.767232421875,0.13439035415649414,-0.17959438264369965,-0.37140607833862305
1774789964313272800,15.77727294921875,0.11728613078594208,-0.16249015927314758,-0.3445279896259308
1774789964323343600,15.787343505859376,0.11362093687057495,-0.13927727937698364,-0.2724458873271942
1774789964333384000,15.797384033203125,0.10751228034496307,-0.11728613078594208,-0.17348572611808777
1774789964373697500,15.837697509765626,0.039095375686883926,-0.05742133408784866,0.1270599663257599
1774789964383737900,15.84773779296875,0.0024434609804302454,-0.04398229718208313,0.10995574295520782
1774789964393808600,15.85780859375,-0.00855211354792118,-0.024434609338641167,0.08918632566928864
1774789964403879400,15.86787939453125,0.004886921960860491,-0.0012217304902151227,0.07819075137376785
1774789964413919700,15.877919677734376,0.02321287989616394,0.02076941914856434,0.06108652427792549
1774789964424021000,15.88802099609375,0.03176499158143997,0.0354301854968071,0.04764748737215996
1774789964434092000,15.898092041015625,0.02321287989616394,0.025656340643763542,0.03787364438176155
1774789964444162800,15.908162841796875,0.0012217304902151227,0.0012217304902151227,0.03420845419168472
1774789964474375200,15.938375244140625,-0.045204028487205505,-0.06230825558304787,0.15760323405265808
