time,seconds_elapsed,z,y,x
1774789947572875500,-0.96312451171875,-23.279998779296875,26.760000228881836,3.240000009536743
1774789947582646300,-0.953353759765625,-39.41999816894531,16.979999542236328,13.559999465942383
1774789947592456200,-0.943543701171875,-55.619998931884766,7.619999885559082,24.119998931884766
1774789947602366000,-0.933634033203125,-56.03999710083008,7.679999828338623,24.239999771118164
1774789947612406000,-0.923593994140625,-55.86000061035156,7.5,24.719999313354492
1774789947622476800,-0.913523193359375,-55.55999755859375,7.619999885559082,24.600000381469727
1774789947632547800,-0.9034521484375,-55.97999954223633,7.019999980926514,24.479999542236328
1774789947642588000,-0.893412109375,-56.34000015258789,7.079999923706055,24.779998779296875
1774789947652658700,-0.88334130859375,-56.52000045776367,7.559999942779541,24.479999542236328
1774789947692942000,-0.843057861328125,-56.21999740600586,7.019999980926514,22.5
1774789947713022500,-0.8229775390625,-56.15999984741211,7.859999656677246,23.34000015258789
1774789947723093500,-0.812906494140625,-56.63999938964844,7.019999980926514,22.619998931884766
1774789947733164300,-0.802835693359375,-56.939998626708984,6.839999675750732,22.3799991607666
1774789947743204400,-0.792795654296875,-56.87999725341797,6.239999771118164,21.779998779296875
1774789947753244700,-0.78275537109375,-57.53999710083008,5.699999809265137,21.299999237060547
1774789947763315500,-0.7726845703125,-57,6.179999828338623,21.899999618530273
1774789947813669600,-0.722330322265625,-57.18000030517578,6.599999904632568,22.19999885559082
1774789947823710000,-0.7122900390625,-57.71999740600586,6.71999979019165,22.260000228881836
1774789947833780700,-0.70221923828125,-58.68000030517578,6.239999771118164,21.779998779296875
1774789947853952800,-0.682047119140625,-58.55999755859375,6.839999675750732,22.19999885559082
1774789947864023600,-0.6719765625,-58.31999969482422,6.659999847412109,21.959999084472656
1774789947884104200,-0.651895751953125,-57.599998474121094,6.599999904632568,21.479999542236328
1774789947894205400,-0.641794677734375,-57.959999084472656,6.239999771118164,21.35999870300293
1774789947904276200,-0.631723876953125,-58.19999694824219,6.659999847412109,21.719999313354492
1774789947914377500,-0.62162255859375,-58.5,6.420000076293945,21.959999084472656
1774789947924448300,-0.6115517578125,-59.39999771118164,6.420000076293945,21.65999984741211
1774789947934519000,-0.60148095703125,-59.63999938964844,6.599999904632568,21.959999084472656
1774789947944590000,-0.591409912109375,-60.23999786376953,6.299999713897705,21.779998779296875
1774789947954660900,-0.581339111328125,-60.89999771118164,6.059999942779541,21.959999084472656
1774789947964731600,-0.571268310546875,-60.779998779296875,6.420000076293945,22.260000228881836
1774789947994974500,-0.541025634765625,-59.52000045776367,6.480000019073486,21.299999237060547
1774789948005075700,-0.53092431640625,-60,5.699999809265137,20.8799991607666
1774789948015146500,-0.520853515625,-60.119998931884766,6.059999942779541,21.119998931884766
1774789948025217300,-0.51078271484375,-60.53999710083008,6.599999904632568,21.53999900817871
1774789948035257600,-0.500742431640625,-61.2599983215332,6.839999675750732,21.53999900817871
1774789948045359000,-0.490640869140625,-61.07999801635742,7.319999694824219,21.959999084472656
1774789948055460400,-0.48053955078125,-61.37999725341797,7.019999980926514,22.5
1774789948065561600,-0.4704384765625,-61.5,6.839999675750732,22.5
1774789948115976700,-0.420023193359375,-59.939998626708984,6.359999656677246,20.34000015258789
1774789948126047500,-0.409952392578125,-59.52000045776367,6.539999961853027,19.799999237060547
1774789948136148700,-0.399851318359375,-59.81999969482422,6.119999885559082,19.979999542236328
1774789948146250200,-0.389749755859375,-59.39999771118164,7.259999752044678,20.69999885559082
1774789948156321000,-0.379678955078125,-59.939998626708984,7.319999694824219,20.8799991607666
1774789948166391800,-0.369608154296875,-60.18000030517578,7.019999980926514,21.119998931884766
1774789948176462600,-0.359537353515625,-60.84000015258789,7.199999809265137,20.760000228881836
1774789948216776200,-0.319223876953125,-60.119998931884766,7.5,21.059999465942383
1774789948226847000,-0.309153076171875,-59.52000045776367,8.34000015258789,21.420000076293945
1774789948236917800,-0.299082275390625,-59.57999801635742,8.15999984741211,21.53999900817871
1774789948246988500,-0.289011474609375,-60.41999816894531,8.039999961853027,22.139999389648438
1774789948257090000,-0.278909912109375,-60.84000015258789,7.739999771118164,21.600000381469727
1774789948267160800,-0.268839111328125,-61.55999755859375,7.619999885559082,22.19999885559082
1774789948277201200,-0.258798828125,-61.5,7.079999923706055,22.3799991607666
1774789948317453800,-0.218546142578125,-59.7599983215332,7.5,20.639999389648438
1774789948327524600,-0.208475341796875,-59.39999771118164,7.440000057220459,19.920000076293945
1774789948337625900,-0.1983740234375,-59.939998626708984,7.5,19.979999542236328
1774789948347727000,-0.18827294921875,-59.7599983215332,7.679999828338623,20.399999618530273
1774789948357798000,-0.1782021484375,-60.3599967956543,7.440000057220459,20.639999389648438
1774789948367838200,-0.168161865234375,-60.41999816894531,7.739999771118164,20.459999084472656
1774789948377939500,-0.158060546875,-60.05999755859375,7.739999771118164,20.399999618530273
1774789948388041000,-0.147958984375,-60.41999816894531,7.679999828338623,20.03999900817871
1774789948428385000,-0.107614990234375,-60.18000030517578,8.220000267028809,21.899999618530273
1774789948438455800,-0.097544189453125,-59.459999084472656,8.34000015258789,21.53999900817871
1774789948448557300,-0.087442626953125,-59.39999771118164,7.799999713897705,20.69999885559082
1774789948458628000,-0.077371826171875,-59.03999710083008,8.15999984741211,19.920000076293945
1774789948468729300,-0.067270751953125,-59.459999084472656,7.559999942779541,19.68000030517578
1774789948478739200,-0.0572607421875,-60.23999786376953,7.679999828338623,19.3799991607666
1774789948488779500,-0.047220458984375,-59.69999694824219,7.980000019073486,19.739999771118164
1774789948518961400,-0.01703857421875,-57.71999740600586,9,20.15999984741211
1774789948529032200,-0.0069677734375,-58.31999969482422,8.9399995803833,20.100000381469727
1774789948539072300,0.003072265625,-58.439998626708984,8.460000038146973,20.03999900817871
1774789948549173800,0.013173828125,-59.57999801635742,8.220000267028809,20.760000228881836
1774789948559183400,0.023183349609375,-60.599998474121094,8.639999389648438,20.69999885559082
1774789948569223700,0.0332236328125,-60.23999786376953,8.880000114440918,20.639999389648438
1774789948579264000,0.043263916015625,-60,9.119999885559082,20.939998626708984
1774789948589334800,0.053334716796875,-59.63999938964844,9.300000190734863,20.760000228881836
1774789948599405600,0.063405517578125,-59.39999771118164,8.819999694824219,20.81999969482422
1774789948639689000,0.10368896484375,-58.8599967956543,9.359999656677246,20.69999885559082
1774789948649790200,0.113790283203125,-58.8599967956543,9.420000076293945,21.18000030517578
1774789948659861000,0.123861083984375,-59.15999984741211,8.639999389648438,20.81999969482422
1774789948669931800,0.133931884765625,-60.18000030517578,8.460000038146973,20.639999389648438
1774789948679941600,0.143941650390625,-59.87999725341797,7.919999599456787,20.279998779296875
1774789948690012400,0.154012451171875,-60.599998474121094,7.919999599456787,20.219999313354492
1774789948700083200,0.164083251953125,-59.939998626708984,8.579999923706055,20.03999900817871
1774789948710154000,0.174154052734375,-58.8599967956543,8.639999389648438,20.03999900817871
1774789948750406700,0.21440673828125,-57.84000015258789,9.479999542236328,20.579999923706055
1774789948760477400,0.2244775390625,-57.18000030517578,9.479999542236328,20.579999923706055
1774789948770578700,0.23457861328125,-57.599998474121094,9.359999656677246,20.100000381469727
1774789948780680000,0.244679931640625,-57.53999710083008,9.539999961853027,19.85999870300293
1774789948790750700,0.254750732421875,-57.53999710083008,9.479999542236328,19.979999542236328
1774789948800821800,0.26482177734375,-56.939998626708984,10.139999389648438,20.399999618530273
1774789948810892500,0.274892578125,-57.05999755859375,9.960000038146973,20.279998779296875
1774789948820993800,0.284993896484375,-57.47999954223633,9.719999313354492,20.399999618530273
1774789948851206100,0.3152060546875,-58.19999694824219,9.59999942779541,20.69999885559082
1774789948861246500,0.32524658203125,-57.41999816894531,10.019999504089355,21.299999237060547
1774789948871286800,0.335286865234375,-58.2599983215332,9.59999942779541,21.119998931884766
1774789948881388000,0.345387939453125,-58.97999954223633,9.59999942779541,21.84000015258789
1774789948891489300,0.3554892578125,-60.29999923706055,9.119999885559082,21.299999237060547
1774789948901560000,0.36556005859375,-61.619998931884766,8.279999732971191,20.69999885559082
1774789948911661600,0.37566162109375,-61.02000045776367,8.09999942779541,20.100000381469727
1774789948921732400,0.385732421875,-60.65999984741211,7.980000019073486,19.439998626708984
1774789948952005600,0.416005615234375,-59.34000015258789,9.059999465942383,19.739999771118164
1774789948962046000,0.4260458984375,-59.939998626708984,9.239999771118164,20.03999900817871
1774789948972116700,0.43611669921875,-60.05999755859375,9.59999942779541,20.399999618530273
1774789948982187500,0.4461875,-59.7599983215332,9.59999942779541,20.279998779296875
1774789948992289000,0.4562890625,-60.599998474121094,9.119999885559082,20.34000015258789
1774789949012430600,0.4764306640625,-60.05999755859375,9.179999351501465,20.639999389648438
1774789949022471000,0.486470947265625,-60.53999710083008,9.059999465942383,20.520000457763672
1774789949052683300,0.516683349609375,-59.939998626708984,9.239999771118164,19.85999870300293
1774789949062754000,0.526754150390625,-59.21999740600586,9.65999984741211,20.399999618530273
1774789949072855300,0.536855224609375,-59.87999725341797,9.179999351501465,20.520000457763672
1774789949082895600,0.5468955078125,-59.52000045776367,9.359999656677246,20.760000228881836
1774789949092996900,0.556996826171875,-59.69999694824219,9.059999465942383,20.399999618530273
1774789949103067600,0.567067626953125,-60.18000030517578,8.819999694824219,20.15999984741211
1774789949113138400,0.577138427734375,-59.81999969482422,9.300000190734863,20.399999618530273
1774789949123209200,0.587209228515625,-60.29999923706055,9.119999885559082,20.15999984741211
1774789949173593900,0.63759375,-58.8599967956543,10.559999465942383,20.219999313354492
1774789949183695000,0.647695068359375,-58.439998626708984,9.899999618530273,20.399999618530273
1774789949193766000,0.657765869140625,-59.7599983215332,9.420000076293945,20.03999900817871
1774789949203806200,0.66780615234375,-60.05999755859375,9,19.3799991607666
1774789949213907700,0.67790771484375,-60.89999771118164,8.699999809265137,19.139999389648438
1774789949224009000,0.688009033203125,-61.02000045776367,9.359999656677246,19.31999969482422
1774789949254221300,0.71822119140625,-60.05999755859375,9.899999618530273,20.100000381469727
1774789949274363000,0.73836279296875,-60.119998931884766,9.300000190734863,19.31999969482422
1774789949284433700,0.74843359375,-59.87999725341797,8.819999694824219,19.439998626708984
1774789949294504400,0.75850439453125,-59.63999938964844,9.059999465942383,19.020000457763672
1774789949304606000,0.76860595703125,-60,8.9399995803833,18.84000015258789
1774789949314676700,0.7786767578125,-60.65999984741211,9.420000076293945,18.65999984741211
1774789949324747500,0.78874755859375,-60.959999084472656,9.779999732971191,18.18000030517578
1774789949334818300,0.798818359375,-60.84000015258789,9.84000015258789,18.65999984741211
1774789949385263900,0.849263916015625,-60.599998474121094,9.179999351501465,19.020000457763672
1774789949395365000,0.859365234375,-60.599998474121094,9.119999885559082,19.260000228881836
1774789949405405400,0.869405517578125,-59.69999694824219,9.59999942779541,19.559999465942383
1774789949415506700,0.879506591796875,-59.15999984741211,9.59999942779541,19.85999870300293
1774789949425577500,0.889577392578125,-58.97999954223633,9.479999542236328,19.619998931884766
1774789949435648300,0.899648193359375,-59.57999801635742,9.359999656677246,20.15999984741211
1774789949445688600,0.9096884765625,-60.41999816894531,9,19.739999771118164
1774789949475931400,0.939931396484375,-60.47999954223633,9.300000190734863,19.260000228881836
1774789949496103700,0.960103759765625,-60.29999923706055,9.059999465942383,18.899999618530273
1774789949506174500,0.970174560546875,-60.18000030517578,8.880000114440918,18.959999084472656
1774789949526316000,0.99031591796875,-58.8599967956543,9.65999984741211,19.020000457763672
1774789949536386800,1.00038671875,-58.91999816894531,9.65999984741211,18.779998779296875
1774789949546457600,1.01045751953125,-59.39999771118164,9.65999984741211,18.479999542236328
1774789949576700700,1.04070068359375,-60.71999740600586,8.760000228881836,18.420000076293945
1774789949586771500,1.050771484375,-60.599998474121094,9.059999465942383,18.479999542236328
1774789949596842200,1.06084228515625,-60.599998474121094,9.119999885559082,18.299999237060547
1774789949606943500,1.070943603515625,-60.959999084472656,9.239999771118164,19.439998626708984
1774789949617044700,1.081044677734375,-61.439998626708984,9.65999984741211,20.279998779296875
1774789949627115500,1.091115478515625,-61.68000030517578,9.479999542236328,20.459999084472656
1774789949647287800,1.111287841796875,-61.19999694824219,10.019999504089355,20.520000457763672
1774789949687601400,1.151601318359375,-60.18000030517578,10.4399995803833,19.5
1774789949697702700,1.16170263671875,-60.29999923706055,10.260000228881836,19.85999870300293
1774789949707773400,1.1717734375,-59.81999969482422,10.199999809265137,19.85999870300293
1774789949717875000,1.181875,-60.29999923706055,10.199999809265137,20.279998779296875
1774789949727945700,1.19194580078125,-60.119998931884766,10.199999809265137,20.15999984741211
1774789949737986000,1.201986083984375,-60.05999755859375,10.139999389648438,19.979999542236328
1774789949748056800,1.212056884765625,-60.3599967956543,9.899999618530273,19.799999237060547
1774789949758097200,1.22209716796875,-60.29999923706055,9.84000015258789,19.19999885559082
1774789949818521900,1.28252197265625,-59.52000045776367,10.739999771118164,19.619998931884766
1774789949828592600,1.292592529296875,-59.15999984741211,10.559999465942383,19.439998626708984
1774789949838663400,1.302663330078125,-58.8599967956543,10.4399995803833,19.439998626708984
1774789949848764700,1.3127646484375,-59.81999969482422,9.539999961853027,18.600000381469727
1774789949868937000,1.33293701171875,-59.03999710083008,10.319999694824219,19.3799991607666
1774789949879007700,1.3430078125,-59.279998779296875,10.199999809265137,19.5
1774789949889048000,1.353048095703125,-58.68000030517578,10.920000076293945,20.15999984741211
1774789949899118800,1.363118896484375,-58.619998931884766,10.559999465942383,20.03999900817871
1774789949909189600,1.373189697265625,-58.5,10.079999923706055,19.979999542236328
1774789949919260400,1.383260498046875,-58.31999969482422,10.260000228881836,19.31999969482422
1774789949929300700,1.39330078125,-58.31999969482422,10.619999885559082,19.68000030517578
1774789949939371500,1.40337158203125,-59.099998474121094,10.979999542236328,19.979999542236328
1774789949949442300,1.4134423828125,-58.619998931884766,11.519999504089355,20.15999984741211
1774789949989786400,1.453786376953125,-57.41999816894531,11.460000038146973,19.139999389648438
1774789950009928200,1.47392822265625,-57.53999710083008,11.09999942779541,19.5
1774789950019968300,1.48396826171875,-57.47999954223633,11.039999961853027,19.559999465942383
1774789950030069800,1.49406982421875,-57.47999954223633,11.039999961853027,19.68000030517578
1774789950040171000,1.5041708984375,-57.41999816894531,11.460000038146973,20.03999900817871
1774789950050180900,1.514180908203125,-57.599998474121094,11.219999313354492,20.219999313354492
1774789950060251600,1.524251708984375,-57.89999771118164,11.75999927520752,20.579999923706055
1774789950070322400,1.534322509765625,-58.439998626708984,11.399999618530273,19.979999542236328
1774789950100534800,1.56453466796875,-57.84000015258789,10.619999885559082,18.600000381469727
1774789950110605600,1.57460546875,-56.87999725341797,10.800000190734863,19.079999923706055
1774789950120706800,1.584706787109375,-57.23999786376953,10.199999809265137,18.84000015258789
1774789950130747100,1.5947470703125,-58.2599983215332,10.559999465942383,19.3799991607666
1774789950140818000,1.60481787109375,-59.39999771118164,10.199999809265137,19.260000228881836
1774789950150919400,1.61491943359375,-61.37999725341797,9.899999618530273,19.139999389648438
1774789950160990200,1.624990234375,-62.099998474121094,9.899999618530273,19.619998931884766
1774789950171030300,1.6350302734375,-61.19999694824219,10.079999923706055,19.799999237060547
1774789950201273300,1.6652734375,-58.97999954223633,11.09999942779541,19.5
1774789950211374600,1.67537451171875,-58.91999816894531,11.039999961853027,19.3799991607666
1774789950221445400,1.6854453125,-59.21999740600586,10.319999694824219,19.31999969482422
1774789950231546600,1.695546630859375,-58.91999816894531,10.619999885559082,19.19999885559082
1774789950241648000,1.705648193359375,-58.91999816894531,10.260000228881836,18.84000015258789
1774789950251688400,1.7156884765625,-60,9.65999984741211,18.600000381469727
1774789950261759200,1.72575927734375,-60.65999984741211,9.479999542236328,18.779998779296875
1774789950271860500,1.735860595703125,-61.37999725341797,9.239999771118164,18.53999900817871
1774789950292002000,1.756001953125,-60.84000015258789,9.779999732971191,18.84000015258789
1774789950322214400,1.78621435546875,-58.8599967956543,10.4399995803833,19.079999923706055
1774789950342417200,1.806417236328125,-59.15999984741211,9.899999618530273,17.940000534057617
1774789950352488000,1.816488037109375,-60,9.779999732971191,17.579999923706055
1774789950362589200,1.826589111328125,-59.69999694824219,10.260000228881836,17.639999389648438
1774789950372690400,1.8366904296875,-60.47999954223633,10.559999465942383,18.420000076293945
1774789950413034800,1.87703466796875,-59.69999694824219,11.699999809265137,19.139999389648438
1774789950423105500,1.88710546875,-60.41999816894531,11.399999618530273,19.68000030517578
1774789950433176300,1.89717626953125,-60.119998931884766,11.519999504089355,19.5
1774789950443216600,1.907216552734375,-59.39999771118164,11.819999694824219,19.5
1774789950453318000,1.91731787109375,-59.39999771118164,11.399999618530273,19.85999870300293
1774789950483469300,1.94746923828125,-60.05999755859375,10.920000076293945,18.779998779296875
1774789950503611000,1.96761083984375,-59.279998779296875,10.859999656677246,18.239999771118164
1774789950513712400,1.97771240234375,-58.73999786376953,11.15999984741211,18.53999900817871
1774789950523722000,1.987721923828125,-58.31999969482422,11.039999961853027,18.53999900817871
1774789950533792800,1.997792724609375,-58.79999923706055,11.09999942779541,18.719999313354492
1774789950543863600,2.007863525390625,-59.39999771118164,11.15999984741211,18.899999618530273
1774789950553965000,2.017965087890625,-60.41999816894531,10.859999656677246,18.420000076293945
1774789950563974700,2.027974609375,-61.19999694824219,10.920000076293945,18.899999618530273
1774789950574076200,2.038076171875,-61.07999801635742,10.739999771118164,18.65999984741211
1774789950594217700,2.0582177734375,-59.81999969482422,11.039999961853027,18.600000381469727
1774789950644541200,2.108541259765625,-59.279998779296875,11.460000038146973,18.299999237060547
1774789950654612000,2.118612060546875,-59.15999984741211,11.399999618530273,18.719999313354492
1774789950674753500,2.13875341796875,-58.97999954223633,11.399999618530273,18.899999618530273
1774789950684824300,2.14882421875,-59.7599983215332,11.15999984741211,19.020000457763672
1774789950694925600,2.158925537109375,-60.41999816894531,11.460000038146973,19.139999389648438
1774789950715036700,2.17903662109375,-60.599998474121094,11.519999504089355,19.31999969482422
1774789950765482200,2.229482177734375,-59.34000015258789,11.15999984741211,18
1774789950775553000,2.239552978515625,-59.81999969482422,11.34000015258789,17.69999885559082
1774789950785623800,2.249623779296875,-59.87999725341797,11.699999809265137,17.940000534057617
1774789950795725300,2.259725341796875,-59.21999740600586,12.59999942779541,18.719999313354492
1774789950805765400,2.269765380859375,-60,11.579999923706055,18.779998779296875
1774789950815867000,2.279866943359375,-60,11.699999809265137,19.31999969482422
1774789950825907200,2.2899072265625,-60.29999923706055,11.519999504089355,19.619998931884766
1774789950876322000,2.340322021484375,-58.97999954223633,11.819999694824219,18.35999870300293
1774789950886423600,2.350423583984375,-59.15999984741211,11.699999809265137,17.940000534057617
1774789950896494300,2.360494384765625,-59.099998474121094,12,18.299999237060547
1774789950906595600,2.370595703125,-59.34000015258789,12.359999656677246,17.940000534057617
1774789950916666400,2.380666259765625,-59.03999710083008,11.9399995803833,18.239999771118164
1774789950926737200,2.390737060546875,-59.03999710083008,11.579999923706055,17.639999389648438
1774789950956949500,2.420949462890625,-60.29999923706055,11.279999732971191,18.059999465942383
1774789950967051000,2.431051025390625,-59.87999725341797,11.880000114440918,19.020000457763672
1774789950977121800,2.441121826171875,-60.18000030517578,11.639999389648438,18.959999084472656
1774789950987223000,2.45122314453125,-59.87999725341797,11.9399995803833,19.3799991607666
1774789950997293800,2.4612939453125,-59.15999984741211,11.880000114440918,18.600000381469727
1774789951007395000,2.47139501953125,-59.39999771118164,12.059999465942383,18.53999900817871
1774789951017465900,2.4814658203125,-58.19999694824219,12.420000076293945,18.479999542236328
1774789951027567400,2.4915673828125,-57.959999084472656,12.960000038146973,18.600000381469727
1774789951037638100,2.50163818359375,-58.19999694824219,12.779999732971191,19.079999923706055
1774789951078043400,2.54204345703125,-57.29999923706055,12.179999351501465,17.219999313354492
1774789951088114200,2.5521142578125,-58.19999694824219,11.639999389648438,17.520000457763672
1774789951098154500,2.562154541015625,-58.2599983215332,11.9399995803833,18.420000076293945
1774789951108225300,2.572225341796875,-58.439998626708984,11.75999927520752,18.779998779296875
1774789951128366800,2.592366943359375,-57.29999923706055,12.65999984741211,18.119998931884766
1774789951158579200,2.6225791015625,-57.84000015258789,13.619999885559082,19.020000457763672
1774789951168650000,2.63264990234375,-58.02000045776367,13.559999465942383,19.19999885559082
1774789951178720800,2.642720703125,-57.36000061035156,13.619999885559082,19.260000228881836
1774789951188791600,2.65279150390625,-57.29999923706055,13.4399995803833,18.84000015258789
1774789951198862300,2.6628623046875,-57.29999923706055,13.679999351501465,18.600000381469727
1774789951208933000,2.67293310546875,-57.36000061035156,13.799999237060547,18.53999900817871
1774789951219004000,2.68300390625,-57.71999740600586,13.859999656677246,18.600000381469727
1774789951229075000,2.693074951171875,-58.2599983215332,14.15999984741211,19.559999465942383
1774789951239176200,2.70317626953125,-58.68000030517578,13.5,19.139999389648438
1774789951289560600,2.753560546875,-57.18000030517578,14.219999313354492,18.65999984741211
1774789951299662000,2.763662109375,-58.37999725341797,14.039999961853027,18.65999984741211
1774789951309732900,2.77373291015625,-59.52000045776367,13.920000076293945,18.719999313354492
1774789951319803600,2.7838037109375,-59.939998626708984,13.979999542236328,19.020000457763672
1774789951329874400,2.79387451171875,-60.23999786376953,13.319999694824219,18.239999771118164
1774789951339945200,2.8039453125,-60.18000030517578,13.319999694824219,18.18000030517578
1774789951350016000,2.81401611328125,-60.53999710083008,12.899999618530273,18.35999870300293
1774789951380198000,2.844197998046875,-59.7599983215332,13.979999542236328,19.139999389648438
1774789951390299100,2.854299072265625,-58.91999816894531,15,19.619998931884766
1774789951400370000,2.864369873046875,-58.02000045776367,14.75999927520752,19.19999885559082
1774789951410471400,2.874471435546875,-58.07999801635742,15.119999885559082,20.03999900817871
1774789951420572700,2.88457275390625,-58.07999801635742,15,20.219999313354492
1774789951430643500,2.8946435546875,-58.19999694824219,14.639999389648438,20.03999900817871
1774789951450846000,2.914845947265625,-58.07999801635742,14.880000114440918,20.03999900817871
1774789951460916700,2.924916748046875,-57.959999084472656,15.179999351501465,20.579999923706055
1774789951501200100,2.9652001953125,-59.69999694824219,15,20.399999618530273
1774789951511301400,2.97530126953125,-59.63999938964844,14.9399995803833,20.34000015258789
1774789951521372200,2.9853720703125,-58.97999954223633,15.539999961853027,20.69999885559082
1774789951531443000,2.99544287109375,-58.19999694824219,15.119999885559082,20.34000015258789
1774789951541513700,3.005513671875,-58.31999969482422,13.979999542236328,20.100000381469727
1774789951551584500,3.01558447265625,-57.959999084472656,14.039999961853027,20.100000381469727
1774789951561686000,3.02568603515625,-58.19999694824219,13.679999351501465,19.799999237060547
1774789951602030000,3.066030029296875,-59.099998474121094,14.399999618530273,22.260000228881836
1774789951612131600,3.076131591796875,-58.91999816894531,14.039999961853027,21.84000015258789
1774789951622202400,3.086202392578125,-58.619998931884766,13.920000076293945,21.719999313354492
1774789951632273200,3.096273193359375,-58.13999938964844,14.34000015258789,21.959999084472656
1774789951642374400,3.10637451171875,-58.19999694824219,14.15999984741211,21.779998779296875
1774789951652414700,3.116414794921875,-58.37999725341797,14.34000015258789,21.65999984741211
1774789951662485500,3.126485595703125,-58.37999725341797,14.519999504089355,22.020000457763672
1774789951712809000,3.17680908203125,-57.599998474121094,13.25999927520752,21.53999900817871
1774789951722879700,3.186879638671875,-57.71999740600586,13.25999927520752,22.139999389648438
1774789951732981000,3.19698095703125,-57.65999984741211,12.539999961853027,21.600000381469727
1774789951742990800,3.206990966796875,-58.02000045776367,12,21.53999900817871
1774789951753061600,3.2170615234375,-58.2599983215332,12.300000190734863,21.719999313354492
1774789951763163000,3.227162841796875,-58.79999923706055,12.239999771118164,21.420000076293945
1774789951773233700,3.237233642578125,-58.97999954223633,12,21.479999542236328
1774789951823679200,3.28767919921875,-56.52000045776367,11.75999927520752,22.139999389648438
1774789951833780700,3.29778076171875,-56.21999740600586,11.519999504089355,22.139999389648438
1774789951843882000,3.307882080078125,-57.36000061035156,11.460000038146973,21.899999618530273
1774789951853952800,3.317952880859375,-56.34000015258789,11.039999961853027,21.239999771118164
1774789951864023600,3.3280234375,-55.73999786376953,11.519999504089355,22.739999771118164
1774789951874124800,3.338124755859375,-56.459999084472656,11.399999618530273,22.85999870300293
1774789951884195600,3.348195556640625,-56.39999771118164,11.279999732971191,23.219999313354492
1774789951934519000,3.39851904296875,-54.599998474121094,10.920000076293945,23.459999084472656
1774789951944590000,3.408590087890625,-55.07999801635742,10.679999351501465,22.739999771118164
1774789951954691300,3.41869140625,-55.79999923706055,9.960000038146973,21.959999084472656
1774789951974833000,3.4388330078125,-55.02000045776367,10.559999465942383,21
1774789951984873200,3.448873291015625,-53.87999725341797,10.559999465942383,20.69999885559082
1774789952004953600,3.46895361328125,-53.34000015258789,9.59999942779541,20.34000015258789
1774789952015055000,3.47905517578125,-55.5,10.199999809265137,21.059999465942383
1774789952025126000,3.4891259765625,-56.459999084472656,9.84000015258789,20.760000228881836
1774789952035196700,3.49919677734375,-56.279998779296875,10.619999885559082,21.059999465942383
1774789952045206500,3.50920654296875,-54.65999984741211,10.800000190734863,21.299999237060547
1774789952055307800,3.519307861328125,-54.47999954223633,9.719999313354492,20.100000381469727
1774789952065348000,3.52934814453125,-54.779998779296875,9.960000038146973,20.399999618530273
1774789952075419000,3.5394189453125,-54.599998474121094,9.899999618530273,20.8799991607666
1774789952085428500,3.549428466796875,-54.71999740600586,9.65999984741211,20.69999885559082
1774789952125712000,3.5897119140625,-54.29999923706055,10.5,21.35999870300293
1774789952135782700,3.59978271484375,-52.86000061035156,10.679999351501465,22.079999923706055
1774789952145853400,3.609853515625,-51.47999954223633,11.039999961853027,22.739999771118164
1774789952155924200,3.61992431640625,-50.63999938964844,11.460000038146973,22.5
1774789952165964500,3.629964599609375,-52.02000045776367,12.479999542236328,22.619998931884766
1774789952176065800,3.640065673828125,-52.19999694824219,12.84000015258789,22.68000030517578
1774789952186106000,3.650106201171875,-52.13999938964844,12.84000015258789,22.3799991607666
1774789952196177000,3.660177001953125,-51.599998474121094,12.960000038146973,22.079999923706055
1774789952206247700,3.67024755859375,-50.15999984741211,12.179999351501465,21.65999984741211
1774789952246530800,3.71053076171875,-49.86000061035156,12.719999313354492,21.119998931884766
1774789952286844700,3.7508447265625,-50.459999084472656,13.799999237060547,21.899999618530273
1774789952296915500,3.76091552734375,-50.099998474121094,13.559999465942383,22.19999885559082
1774789952327127800,3.7911279296875,-49.73999786376953,12,20.939998626708984
1774789952357279200,3.821279296875,-50.63999938964844,12.179999351501465,20.100000381469727
1774789952387552500,3.851552490234375,-50.57999801635742,12.899999618530273,18.719999313354492
1774789952397654000,3.861654052734375,-50.81999969482422,13.139999389648438,19.31999969482422
1774789952407724800,3.871724853515625,-51.119998931884766,12.719999313354492,18.779998779296875
1774789952417795600,3.881795654296875,-50.81999969482422,12.84000015258789,18.779998779296875
1774789952468149500,3.9321494140625,-54.36000061035156,12.719999313354492,17.639999389648438
1774789952478250800,3.942250732421875,-56.03999710083008,12.719999313354492,17.399999618530273
1774789952488321500,3.952321533203125,-55.439998626708984,13.859999656677246,18.299999237060547
1774789952498392600,3.962392578125,-54.29999923706055,13.799999237060547,18.53999900817871
1774789952508493800,3.972493896484375,-53.279998779296875,12.539999961853027,17.760000228881836
1774789952518595000,3.982594970703125,-52.2599983215332,12.899999618530273,17.81999969482422
1774789952558817300,4.0228173828125,-53.63999938964844,13.679999351501465,16.079999923706055
1774789952568918500,4.03291845703125,-53.57999801635742,13.679999351501465,15.839999198913574
1774789952579019800,4.043019775390625,-53.15999984741211,14.519999504089355,16.079999923706055
1774789952589090800,4.0530908203125,-53.939998626708984,14.639999389648438,16.139999389648438
1774789952609232400,4.073232421875,-53.57999801635742,15.479999542236328,16.31999969482422
1774789952619303200,4.08330322265625,-54.779998779296875,15.420000076293945,16.079999923706055
1774789952649515500,4.113515625,-55.13999938964844,14.639999389648438,13.4399995803833
1774789952669657000,4.133656982421875,-54.23999786376953,12.420000076293945,12.239999771118164
1774789952679758300,4.14375830078125,-54.65999984741211,12.719999313354492,13.319999694824219
1774789952689829000,4.1538291015625,-55.2599983215332,13.380000114440918,13.019999504089355
1774789952699869400,4.163869384765625,-56.099998474121094,14.460000038146973,13.139999389648438
1774789952709909800,4.17390966796875,-54.84000015258789,15,14.34000015258789
1774789952750223600,4.2142236328125,-54.959999084472656,13.380000114440918,12.719999313354492
1774789952770334500,4.23433447265625,-53.459999084472656,14.579999923706055,13.4399995803833
1774789952780436000,4.24443603515625,-51.36000061035156,14.399999618530273,12.960000038146973
1774789952790506800,4.2545068359375,-52.68000030517578,13.920000076293945,13.139999389648438
1774789952800547000,4.264547119140625,-54.599998474121094,13.739999771118164,12.420000076293945
1774789952810556700,4.274556640625,-55.13999938964844,14.399999618530273,12.420000076293945
1774789952820658200,4.284658203125,-55.79999923706055,14.34000015258789,12.420000076293945
1774789952830729000,4.29472900390625,-54.89999771118164,14.219999313354492,12.65999984741211
1774789952850931500,4.314931396484375,-55.55999755859375,12.420000076293945,12.420000076293945
1774789952861032700,4.32503271484375,-56.21999740600586,12.719999313354492,12.179999351501465
1774789952871103700,4.335103759765625,-56.7599983215332,13.079999923706055,12.179999351501465
1774789952891275800,4.35527587890625,-54.599998474121094,13.979999542236328,12.84000015258789
1774789952901377000,4.365376953125,-54.65999984741211,12.59999942779541,11.699999809265137
1774789952911447800,4.37544775390625,-55.13999938964844,11.9399995803833,10.800000190734863
1774789952921518600,4.3855185546875,-57.36000061035156,11.09999942779541,10.619999885559082
1774789952931589400,4.39558935546875,-58.02000045776367,11.460000038146973,11.15999984741211
1774789952941691000,4.40569091796875,-57.29999923706055,12.300000190734863,12.059999465942383
1774789952971903200,4.4359033203125,-56.52000045776367,10.979999542236328,10.979999542236328
1774789952982004500,4.44600439453125,-57.29999923706055,10.979999542236328,11.219999313354492
1774789952992075300,4.4560751953125,-57.36000061035156,12.539999961853027,12.479999542236328
1774789953002146000,4.46614599609375,-55.97999954223633,13.019999504089355,12.960000038146973
1774789953022318300,4.486318359375,-54.23999786376953,12.719999313354492,13.019999504089355
1774789953032389000,4.49638916015625,-54.41999816894531,10.859999656677246,11.880000114440918
1774789953042460000,4.5064599609375,-54.599998474121094,10.4399995803833,12.059999465942383
1774789953072702700,4.53670263671875,-52.97999954223633,11.15999984741211,12.960000038146973
1774789953092874800,4.556874755859375,-51.959999084472656,10.979999542236328,12.84000015258789
1774789953102945800,4.56694580078125,-52.55999755859375,10.739999771118164,13.319999694824219
1774789953113047000,4.577047119140625,-52.55999755859375,11.09999942779541,14.34000015258789
1774789953123148300,4.587148193359375,-54.599998474121094,10.739999771118164,14.460000038146973
1774789953133219000,4.597218994140625,-54.18000030517578,10.800000190734863,15.119999885559082
1774789953143289900,4.607289794921875,-55.55999755859375,10.920000076293945,14.880000114440918
1774789953153330200,4.617330078125,-56.81999969482422,10.5,14.09999942779541
1774789953173471700,4.6374716796875,-57.599998474121094,10.739999771118164,14.639999389648438
1774789953203623200,4.667623046875,-56.52000045776367,11.519999504089355,15.299999237060547
1774789953213694000,4.67769384765625,-56.52000045776367,12.119999885559082,15.65999984741211
1774789953223795200,4.687795166015625,-56.69999694824219,11.399999618530273,15.719999313354492
1774789953233866000,4.697865966796875,-55.31999969482422,10.260000228881836,15.719999313354492
1774789953243936800,4.707936767578125,-54.65999984741211,10.079999923706055,15.899999618530273
1774789953253977000,4.71797705078125,-55.79999923706055,9.359999656677246,15.059999465942383
1774789953294199300,4.75819921875,-54.53999710083008,10.019999504089355,15.239999771118164
1774789953304300500,4.768300537109375,-55.2599983215332,9.899999618530273,15.839999198913574
1774789953314371300,4.778371337890625,-54.89999771118164,10.139999389648438,16.139999389648438
1774789953324442400,4.7884423828125,-54.41999816894531,9.119999885559082,16.31999969482422
1774789953334513200,4.79851318359375,-55.73999786376953,9,16.020000457763672
1774789953344584000,4.808583984375,-56.69999694824219,8.760000228881836,15.179999351501465
1774789953354654700,4.81865478515625,-57.18000030517578,8.460000038146973,15.179999351501465
1774789953364756000,4.828755859375,-56.279998779296875,9.179999351501465,15.239999771118164
1774789953415140600,4.879140625,-53.939998626708984,9.539999961853027,16.3799991607666
1774789953425241900,4.889241943359375,-53.57999801635742,9.420000076293945,16.079999923706055
1774789953435312600,4.899312744140625,-55.13999938964844,7.980000019073486,15.420000076293945
1774789953445414000,4.909413818359375,-55.5,8.09999942779541,15.899999618530273
1774789953455484700,4.919484619140625,-55.31999969482422,8.519999504089355,15.65999984741211
1774789953465586200,4.929586181640625,-55.86000061035156,8.760000228881836,16.31999969482422
1774789953505930200,4.96993017578125,-54.65999984741211,7.019999980926514,14.9399995803833
1774789953516001000,4.9800009765625,-54.18000030517578,7.079999923706055,15.059999465942383
1774789953526041300,4.990041259765625,-56.15999984741211,6.899999618530273,14.75999927520752
1774789953546244000,5.010244140625,-56.21999740600586,6.960000038146973,13.979999542236328
1774789953556284400,5.020284423828125,-55.73999786376953,6.480000019073486,14.34000015258789
1774789953566294000,5.0302939453125,-53.63999938964844,6.71999979019165,14.399999618530273
1774789953606577200,5.0705771484375,-52.68000030517578,8.819999694824219,15.779999732971191
1774789953616678700,5.0806787109375,-52.73999786376953,8.639999389648438,16.3799991607666
1774789953626719000,5.090718994140625,-52.68000030517578,8.699999809265137,16.31999969482422
1774789953636759000,5.100759033203125,-52.68000030517578,8.220000267028809,16.139999389648438
1774789953646769000,5.110768798828125,-53.03999710083008,8.399999618530273,16.799999237060547
1774789953656870100,5.1208701171875,-53.81999969482422,7.37999963760376,16.19999885559082
1774789953666941000,5.13094091796875,-55.619998931884766,6.960000038146973,16.3799991607666
1774789953677011700,5.14101171875,-56.87999725341797,7.139999866485596,15.65999984741211
1774789953707224300,5.171224365234375,-58.5,8.9399995803833,15.539999961853027
1774789953717325600,5.18132568359375,-58.91999816894531,8.699999809265137,15.59999942779541
1774789953727366000,5.191365966796875,-58.5,8.519999504089355,14.9399995803833
1774789953737436700,5.201436767578125,-59.15999984741211,7.440000057220459,13.799999237060547
1774789953747507500,5.211507568359375,-59.63999938964844,7.019999980926514,13.920000076293945
1774789953757547800,5.2215478515625,-58.37999725341797,7.739999771118164,14.579999923706055
1774789953818003000,5.2820029296875,-52.37999725341797,9.179999351501465,14.75999927520752
1774789953828104400,5.2921044921875,-52.13999938964844,9.479999542236328,15
1774789953838144800,5.302144775390625,-52.97999954223633,9.779999732971191,14.519999504089355
1774789953848215600,5.312215576171875,-54.71999740600586,9.179999351501465,13.679999351501465
1774789953858286300,5.322286376953125,-56.03999710083008,9.179999351501465,13.380000114440918
1774789953868357000,5.332357177734375,-56.57999801635742,9.420000076293945,13.679999351501465
1774789953878428000,5.342427978515625,-57.959999084472656,9.239999771118164,14.039999961853027
1774789953888498700,5.352498779296875,-58.02000045776367,10.260000228881836,14.279999732971191
1774789953938852600,5.4028525390625,-56.21999740600586,10.979999542236328,14.579999923706055
1774789953959025000,5.42302490234375,-54.29999923706055,10.739999771118164,15.239999771118164
1774789953969095700,5.433095703125,-53.87999725341797,10.739999771118164,14.75999927520752
1774789953979197000,5.443197021484375,-53.39999771118164,9.779999732971191,14.639999389648438
1774789953989267700,5.453267822265625,-53.15999984741211,10.319999694824219,15.239999771118164
1774789953999308000,5.46330810546875,-52.73999786376953,10.019999504089355,15.420000076293945
1774789954029520400,5.493520263671875,-55.68000030517578,9.84000015258789,14.639999389648438
1774789954039591200,5.503591064453125,-56.03999710083008,10.5,14.399999618530273
1774789954049631500,5.513631591796875,-55.79999923706055,10.920000076293945,14.819999694824219
1774789954059702300,5.523702392578125,-55.19999694824219,10.920000076293945,15.65999984741211
1774789954069773000,5.53377294921875,-54.71999740600586,10.380000114440918,16.079999923706055
1774789954079843800,5.54384375,-53.87999725341797,10.319999694824219,16.559999465942383
1774789954089945000,5.553945068359375,-55.79999923706055,10.319999694824219,16.5
1774789954100015900,5.564015869140625,-56.279998779296875,10.4399995803833,16.3799991607666
1774789954140329700,5.604329833984375,-54.29999923706055,11.460000038146973,15.179999351501465
1774789954150431000,5.614430908203125,-55.37999725341797,11.9399995803833,15.59999942779541
1774789954160501800,5.624501708984375,-54.599998474121094,12.359999656677246,16.139999389648438
1774789954170603300,5.634603271484375,-55.2599983215332,12.84000015258789,16.68000030517578
1774789954190805800,5.6548056640625,-53.939998626708984,12.179999351501465,16.739999771118164
1774789954200907000,5.664906982421875,-56.21999740600586,11.819999694824219,16.440000534057617
1774789954231180500,5.6951806640625,-53.7599983215332,12.719999313354492,17.34000015258789
1774789954241190400,5.7051904296875,-53.57999801635742,12.119999885559082,17.15999984741211
1774789954251261200,5.71526123046875,-55.31999969482422,11.639999389648438,16.139999389648438
1774789954261332000,5.72533203125,-57.18000030517578,11.279999732971191,16.5
1774789954271402800,5.73540283203125,-58.13999938964844,10.920000076293945,16.5
1774789954281473500,5.7454736328125,-56.939998626708984,11.34000015258789,16.739999771118164
1774789954291544300,5.75554443359375,-55.55999755859375,10.800000190734863,16.440000534057617
1774789954301615000,5.765614990234375,-55.68000030517578,10.979999542236328,16.3799991607666
1774789954341898200,5.805898193359375,-55.5,11.460000038146973,17.399999618530273
1774789954351999700,5.815999755859375,-54.119998931884766,11.039999961853027,17.459999084472656
1774789954362039800,5.826039794921875,-53.34000015258789,10.380000114440918,17.34000015258789
1774789954372080000,5.836080078125,-55.37999725341797,10.079999923706055,17.520000457763672
1774789954382151000,5.84615087890625,-57.29999923706055,9.479999542236328,17.34000015258789
1774789954392252400,5.85625244140625,-58.13999938964844,8.819999694824219,17.399999618530273
1774789954402323200,5.8663232421875,-57.71999740600586,9.300000190734863,17.940000534057617
1774789954412394000,5.87639404296875,-56.21999740600586,9.239999771118164,17.399999618530273
1774789954452738000,5.916738037109375,-59.87999725341797,10.079999923706055,17.760000228881836
1774789954462839600,5.926839599609375,-57.65999984741211,10.5,18
1774789954472910300,5.936910400390625,-56.69999694824219,10.079999923706055,17.69999885559082
1774789954482981000,5.946981201171875,-55.07999801635742,10.139999389648438,18.18000030517578
1774789954493082400,5.957082275390625,-55.2599983215332,9.539999961853027,18.35999870300293
1774789954503122700,5.967122802734375,-57.29999923706055,8.819999694824219,17.760000228881836
1774789954513224000,5.977223876953125,-57.89999771118164,8.9399995803833,17.81999969482422
1774789954553568300,6.017568359375,-55.55999755859375,8.9399995803833,19.19999885559082
1774789954573740300,6.037740234375,-56.52000045776367,8.760000228881836,17.399999618530273
1774789954583841800,6.047841796875,-56.15999984741211,9.59999942779541,17.639999389648438
1774789954593943000,6.057943115234375,-55.5,9.420000076293945,17.34000015258789
1774789954604013800,6.068013916015625,-55.619998931884766,9.59999942779541,17.399999618530273
1774789954614084600,6.078084716796875,-56.7599983215332,9.059999465942383,17.639999389648438
1774789954644297000,6.108296875,-57,9.539999961853027,16.979999542236328
1774789954654367700,6.11836767578125,-55.439998626708984,9.65999984741211,17.520000457763672
1774789954664469000,6.128468994140625,-55.2599983215332,8.9399995803833,16.799999237060547
1774789954674570500,6.138570556640625,-55.79999923706055,8.880000114440918,17.279998779296875
1774789954684671700,6.148671630859375,-57.18000030517578,8.699999809265137,17.8799991607666
1774789954694773000,6.15877294921875,-57.599998474121094,8.699999809265137,17.399999618530273
1774789954704843800,6.16884375,-57.47999954223633,9,18
1774789954724985300,6.1889853515625,-56.87999725341797,9.300000190734863,18.299999237060547
1774789954765268700,6.229268798828125,-56.7599983215332,11.519999504089355,18.959999084472656
1774789954775309000,6.23930908203125,-55.2599983215332,11.219999313354492,18.899999618530273
1774789954785379800,6.2493798828125,-54.779998779296875,10.319999694824219,17.399999618530273
1774789954795450600,6.25945068359375,-55.79999923706055,9.300000190734863,17.279998779296875
1774789954805551900,6.2695517578125,-57.89999771118164,9.119999885559082,16.3799991607666
1774789954825693400,6.289693359375,-57.779998779296875,9.84000015258789,17.520000457763672
1774789954855875300,6.319875244140625,-56.52000045776367,10.5,17.639999389648438
1774789954865946000,6.329946044921875,-57.29999923706055,10.619999885559082,17.579999923706055
1774789954876017000,6.340016845703125,-58.02000045776367,10.079999923706055,17.69999885559082
1774789954886057200,6.35005712890625,-57.05999755859375,9.479999542236328,17.81999969482422
1774789954896128000,6.3601279296875,-55.86000061035156,9.539999961853027,18.119998931884766
1774789954906198800,6.37019873046875,-56.34000015258789,9.65999984741211,18.239999771118164
1774789954916239000,6.380239013671875,-57.29999923706055,10.019999504089355,18.239999771118164
1774789954926310000,6.390309814453125,-59.15999984741211,10.319999694824219,17.520000457763672
1774789954966593000,6.430593017578125,-56.52000045776367,10.319999694824219,16.739999771118164
1774789954996805600,6.4608056640625,-59.52000045776367,11.819999694824219,16.139999389648438
1774789955006815200,6.470815185546875,-59.39999771118164,10.920000076293945,15.65999984741211
1774789955016855600,6.48085546875,-58.5,10.139999389648438,15.59999942779541
1774789955026926300,6.49092626953125,-58.02000045776367,10.559999465942383,15.839999198913574
1774789955037027600,6.501027587890625,-59.34000015258789,9.779999732971191,16.020000457763672
1774789955077311000,6.54131103515625,-56.57999801635742,10.800000190734863,15
1774789955087290000,6.5512900390625,-57.36000061035156,10.679999351501465,15.239999771118164
1774789955097391400,6.561391357421875,-58.07999801635742,10.619999885559082,14.579999923706055
1774789955107431700,6.571431640625,-58.97999954223633,10.920000076293945,14.519999504089355
1774789955117533200,6.581533203125,-59.63999938964844,11.460000038146973,14.880000114440918
1774789955127512300,6.59151220703125,-57.779998779296875,11.9399995803833,14.819999694824219
1774789955137613600,6.601613525390625,-57.599998474121094,11.819999694824219,13.920000076293945
1774789955167826000,6.631825927734375,-59.63999938964844,12.300000190734863,13.019999504089355
1774789955177927400,6.641927490234375,-59.69999694824219,12.359999656677246,13.5
1774789955187998200,6.651998291015625,-60.18000030517578,12.179999351501465,13.559999465942383
1774789955198099500,6.662099365234375,-60.41999816894531,12.239999771118164,13.979999542236328
1774789955208139800,6.672139892578125,-61.07999801635742,12.179999351501465,14.219999313354492
1774789955218241000,6.682240966796875,-61.2599983215332,12.479999542236328,14.279999732971191
1774789955228342300,6.69234228515625,-61.2599983215332,12.179999351501465,13.979999542236328
1774789955238413300,6.702413330078125,-60.89999771118164,12.179999351501465,13.799999237060547
1774789955248453400,6.712453369140625,-60.599998474121094,12.59999942779541,14.219999313354492
1774789955298868500,6.762868408203125,-56.63999938964844,14.09999942779541,14.15999984741211
1774789955308939300,6.772939208984375,-56.279998779296875,13.859999656677246,13.859999656677246
1774789955319010000,6.783010009765625,-56.87999725341797,14.09999942779541,14.519999504089355
1774789955329050400,6.79305029296875,-57.23999786376953,13.559999465942383,14.15999984741211
1774789955339151600,6.803151611328125,-57.84000015258789,13.019999504089355,13.799999237060547
1774789955379404300,6.843404296875,-59.03999710083008,13.019999504089355,14.15999984741211
1774789955389505800,6.853505859375,-57.779998779296875,13.920000076293945,14.34000015258789
1774789955399607000,6.86360693359375,-57.779998779296875,13.380000114440918,13.739999771118164
1774789955409677800,6.873677734375,-57.89999771118164,13.079999923706055,13.799999237060547
1774789955419748600,6.88374853515625,-57.779998779296875,12.899999618530273,13.380000114440918
1774789955439921000,6.9039208984375,-58.2599983215332,12.119999885559082,13.139999389648438
1774789955449961000,6.9139609375,-57.599998474121094,11.819999694824219,12.719999313354492
1774789955490183200,6.95418310546875,-53.63999938964844,12.239999771118164,14.699999809265137
1774789955500284400,6.964284423828125,-54.23999786376953,10.979999542236328,14.34000015258789
1774789955510355500,6.97435546875,-53.57999801635742,12.119999885559082,15.239999771118164
1774789955520456700,6.984456787109375,-54.599998474121094,12.479999542236328,15.899999618530273
1774789955530558000,6.994557861328125,-54.65999984741211,11.219999313354492,16.19999885559082
1774789955540628700,7.004628662109375,-54.53999710083008,11.039999961853027,15.59999942779541
1774789955550699500,7.014699462890625,-55.619998931884766,9.119999885559082,14.15999984741211
1774789955570841000,7.034841064453125,-54.89999771118164,9.960000038146973,15.59999942779541
1774789955580911900,7.044911865234375,-54.71999740600586,10.319999694824219,16.739999771118164
1774789955591013400,7.055013427734375,-54.47999954223633,11.09999942779541,17.279998779296875
1774789955601114600,7.065114501953125,-54.599998474121094,10.859999656677246,16.020000457763672
1774789955611185400,7.075185302734375,-55.5,10.4399995803833,15.059999465942383
1774789955621256200,7.085256103515625,-57.119998931884766,9.539999961853027,13.799999237060547
1774789955631388200,7.09538818359375,-56.7599983215332,9.179999351501465,14.34000015258789
1774789955651529700,7.11552978515625,-56.39999771118164,7.319999694824219,13.920000076293945
1774789955661600500,7.1256005859375,-54.65999984741211,8.039999961853027,15.119999885559082
1774789955691843300,7.15584326171875,-53.81999969482422,8.880000114440918,14.639999389648438
1774789955701914000,7.1659140625,-55.619998931884766,8.220000267028809,14.34000015258789
1774789955711954400,7.175954345703125,-56.099998474121094,7.980000019073486,13.859999656677246
1774789955722025200,7.186025146484375,-57.599998474121094,8.579999923706055,14.819999694824219
1774789955732065500,7.1960654296875,-58.68000030517578,8.460000038146973,15.899999618530273
1774789955742166800,7.206166748046875,-57.959999084472656,8.819999694824219,15.539999961853027
1774789955752237600,7.216237548828125,-57.47999954223633,8.760000228881836,16.139999389648438
1774789955762339000,7.226339111328125,-56.099998474121094,7.799999713897705,15.65999984741211
1774789955782511000,7.246510986328125,-55.31999969482422,7.679999828338623,15.719999313354492
1774789955812754000,7.27675390625,-52.73999786376953,7.139999866485596,16.619998931884766
1774789955822824700,7.28682470703125,-52.97999954223633,6.480000019073486,17.639999389648438
1774789955832895700,7.296895751953125,-54.89999771118164,6.659999847412109,17.8799991607666
1774789955842966500,7.306966552734375,-56.34000015258789,6.659999847412109,18.299999237060547
1774789955853006600,7.317006591796875,-57.18000030517578,7.559999942779541,18.35999870300293
1774789955863108000,7.327108154296875,-57,8.460000038146973,17.579999923706055
1774789955893320400,7.357320556640625,-57.84000015258789,9,17.639999389648438
1774789955913523000,7.37752294921875,-57,7.619999885559082,16.31999969482422
1774789955923563300,7.387563232421875,-55.31999969482422,7.919999599456787,17.03999900817871
1774789955943735600,7.407735595703125,-54.84000015258789,7.199999809265137,16.979999542236328
1774789955953836800,7.4178369140625,-55.619998931884766,6.960000038146973,16.739999771118164
1774789955963938000,7.42793798828125,-55.86000061035156,7.139999866485596,15.479999542236328
1774789955994181000,7.45818115234375,-52.07999801635742,8.579999923706055,17.100000381469727
1774789956004282400,7.468282470703125,-51.36000061035156,8.399999618530273,17.100000381469727
1774789956014353200,7.478353271484375,-50.57999801635742,8.09999942779541,16.440000534057617
1774789956044596000,7.508595947265625,-53.57999801635742,8.15999984741211,16.139999389648438
1774789956054666800,7.518666748046875,-54.18000030517578,8.519999504089355,16.139999389648438
1774789956064768300,7.528768310546875,-53.03999710083008,8.279999732971191,15.479999542236328
1774789956084940300,7.548940185546875,-52.55999755859375,8.699999809265137,15.779999732971191
1774789956095011000,7.559010986328125,-52.97999954223633,7.859999656677246,15.420000076293945
1774789956105112300,7.5691123046875,-53.69999694824219,8.279999732971191,16.3799991607666
1774789956115213800,7.5792138671875,-54.53999710083008,8.15999984741211,17.03999900817871
1774789956125284600,7.58928466796875,-54.779998779296875,7.37999963760376,17.279998779296875
1774789956135355400,7.59935546875,-56.03999710083008,7.799999713897705,17.34000015258789
1774789956145426200,7.60942626953125,-55.97999954223633,7.440000057220459,16.5
1774789956155527400,7.61952734375,-56.39999771118164,6.899999618530273,15.779999732971191
1774789956205881300,7.66988134765625,-51.779998779296875,7.619999885559082,14.34000015258789
1774789956215952400,7.679952392578125,-52.13999938964844,7.799999713897705,13.799999237060547
1774789956226023200,7.690023193359375,-52.37999725341797,7.799999713897705,13.559999465942383
1774789956236124400,7.70012451171875,-53.39999771118164,8.279999732971191,13.739999771118164
1774789956246195200,7.7101953125,-52.79999923706055,8.34000015258789,13.619999885559082
1774789956256296400,7.72029638671875,-52.68000030517578,8.760000228881836,14.399999618530273
1774789956266367200,7.7303671875,-51.89999771118164,9.239999771118164,14.460000038146973
1774789956276438000,7.74043798828125,-51,9.420000076293945,14.75999927520752
1774789956326761500,7.790761474609375,-53.81999969482422,9,13.859999656677246
1774789956336832500,7.80083251953125,-54.599998474121094,8.639999389648438,13.619999885559082
1774789956346903300,7.8109033203125,-54.53999710083008,9.239999771118164,13.559999465942383
1774789956356974000,7.82097412109375,-52.97999954223633,9.539999961853027,13.25999927520752
1774789956367044900,7.831044921875,-53.69999694824219,9.59999942779541,13.019999504089355
1774789956377115600,7.84111572265625,-53.34000015258789,10.559999465942383,13.139999389648438
1774789956397257200,7.86125732421875,-54.959999084472656,9.960000038146973,13.319999694824219
1774789956407358500,7.8713583984375,-55.86000061035156,9.239999771118164,12.960000038146973
1774789956417429200,7.88142919921875,-57,9,13.4399995803833
1774789956427530800,7.89153076171875,-57.71999740600586,8.9399995803833,14.519999504089355
1774789956437601500,7.9016015625,-58.5,8.699999809265137,13.5
1774789956447641600,7.9116416015625,-58.37999725341797,9.539999961853027,13.559999465942383
1774789956457712600,7.921712646484375,-58.31999969482422,9.59999942779541,13.4399995803833
1774789956467783400,7.931783447265625,-57.119998931884766,10.199999809265137,12.359999656677246
1774789956477854200,7.941854248046875,-56.63999938964844,10.559999465942383,12.300000190734863
1774789956487925000,7.951925048828125,-56.52000045776367,10.679999351501465,12.300000190734863
1774789956508036000,7.9720361328125,-56.52000045776367,11.219999313354492,12.779999732971191
1774789956518137300,7.982137451171875,-57,10.859999656677246,12.65999984741211
1774789956528238600,7.992238525390625,-57.29999923706055,10.260000228881836,12.300000190734863
1774789956538339800,8.00233984375,-57.47999954223633,10.139999389648438,11.15999984741211
1774789956548411000,8.012410888671875,-58.619998931884766,9.779999732971191,11.579999923706055
1774789956558512000,8.02251220703125,-57.53999710083008,9.65999984741211,11.819999694824219
1774789956588694000,8.052694091796875,-54.36000061035156,11.219999313354492,13.319999694824219
1774789956618967300,8.08296728515625,-55.37999725341797,12.539999961853027,11.639999389648438
1774789956629038000,8.0930380859375,-55.19999694824219,12.65999984741211,12.059999465942383
1774789956639139600,8.1031396484375,-54.05999755859375,11.399999618530273,11.15999984741211
1774789956649180000,8.113179931640625,-55.19999694824219,11.09999942779541,11.34000015258789
1774789956659250700,8.123250732421875,-54.53999710083008,11.460000038146973,11.460000038146973
1774789956669352000,8.13335205078125,-54.47999954223633,11.460000038146973,11.639999389648438
1774789956679453200,8.143453125,-55.2599983215332,11.639999389648438,11.579999923706055
1774789956689524000,8.15352392578125,-54.53999710083008,11.460000038146973,11.9399995803833
1774789956709635000,8.173635009765626,-55.5,12,12.359999656677246
1774789956729746200,8.19374609375,-54.47999954223633,13.319999694824219,14.15999984741211
1774789956739847400,8.203847412109376,-53.279998779296875,12.65999984741211,14.039999961853027
1774789956749918200,8.213918212890626,-54.119998931884766,11.399999618530273,13.799999237060547
1774789956759989200,8.2239892578125,-55.619998931884766,10.4399995803833,13.799999237060547
1774789956769998800,8.233998779296876,-55.91999816894531,9.359999656677246,12.539999961853027
1774789956780069600,8.244069580078126,-56.69999694824219,8.579999923706055,12.179999351501465
1774789956790140400,8.254140380859376,-55.79999923706055,8.880000114440918,12.239999771118164
1774789956840494600,8.30449462890625,-52.619998931884766,10.199999809265137,14.579999923706055
1774789956850565400,8.3145654296875,-54.29999923706055,10.019999504089355,14.039999961853027
1774789956860666600,8.32466650390625,-54.05999755859375,9.300000190734863,13.5
1774789956870737400,8.3347373046875,-54.599998474121094,9,13.679999351501465
1774789956880838700,8.344838623046876,-53.63999938964844,9.179999351501465,14.279999732971191
1774789956890909400,8.354909423828126,-51.65999984741211,9.119999885559082,15.239999771118164
1774789956900980200,8.364980224609376,-52.86000061035156,9.539999961853027,15.719999313354492
1774789956931223300,8.395223388671875,-55.19999694824219,9.059999465942383,15.239999771118164
1774789956941294000,8.405294189453125,-54.53999710083008,9.359999656677246,15.299999237060547
1774789956951364900,8.41536474609375,-54.89999771118164,9.59999942779541,14.819999694824219
1774789956961435600,8.425435546875,-55.68000030517578,9.779999732971191,14.460000038146973
1774789956971537000,8.435536865234376,-56.099998474121094,9.899999618530273,14.880000114440918
1774789956981607700,8.445607666015626,-56.21999740600586,9.899999618530273,15.059999465942383
1774789956991709200,8.455709228515625,-55.91999816894531,10.380000114440918,15.65999984741211
1774789957001780000,8.465780029296875,-55.91999816894531,10.5,15.779999732971191
1774789957031992300,8.495992431640625,-54.36000061035156,9.899999618530273,14.880000114440918
1774789957052134000,8.5161337890625,-52.86000061035156,9.779999732971191,14.519999504089355
1774789957062204700,8.52620458984375,-52.55999755859375,10.139999389648438,14.639999389648438
1774789957072306000,8.536305908203126,-53.7599983215332,9.239999771118164,14.279999732971191
1774789957082376700,8.546376708984376,-54,8.819999694824219,14.34000015258789
1774789957092447700,8.55644775390625,-55.07999801635742,8.34000015258789,13.799999237060547
1774789957102518500,8.5665185546875,-55.13999938964844,8.039999961853027,13.619999885559082
1774789957142832000,8.60683203125,-55.55999755859375,10.5,15
1774789957152903000,8.61690283203125,-55.439998626708984,10.079999923706055,14.519999504089355
1774789957162973700,8.6269736328125,-54.779998779296875,10.260000228881836,14.09999942779541
1774789957173075000,8.637074951171876,-55.439998626708984,10.199999809265137,14.579999923706055
1774789957183146000,8.64714599609375,-55.31999969482422,10.380000114440918,14.75999927520752
1774789957193247200,8.657247314453125,-55.13999938964844,10.859999656677246,14.880000114440918
1774789957203318000,8.667318115234375,-55.91999816894531,10.859999656677246,15.779999732971191
1774789957253702400,8.717702392578126,-52.37999725341797,10.859999656677246,14.9399995803833
1774789957263773200,8.727773193359376,-52.86000061035156,10.739999771118164,14.09999942779541
1774789957273844200,8.73784423828125,-53.7599983215332,11.15999984741211,14.09999942779541
1774789957283915000,8.7479150390625,-53.279998779296875,10.979999542236328,14.15999984741211
1774789957293985800,8.75798583984375,-52.55999755859375,10.199999809265137,14.15999984741211
1774789957304026000,8.768026123046875,-51.41999816894531,10.920000076293945,15
1774789957324198100,8.7881982421875,-48.71999740600586,11.639999389648438,14.09999942779541
1774789957344309200,8.808309326171875,-52.07999801635742,10.920000076293945,13.25999927520752
1774789957354380000,8.818380126953125,-54.23999786376953,10.079999923706055,13.380000114440918
1774789957364420400,8.82842041015625,-53.87999725341797,10.559999465942383,14.219999313354492
1774789957374460700,8.838460693359375,-52.68000030517578,9.65999984741211,14.519999504089355
1774789957384531500,8.848531494140625,-51.41999816894531,9.899999618530273,14.09999942779541
1774789957404703500,8.868703369140626,-51.05999755859375,9.479999542236328,13.859999656677246
1774789957414743800,8.878743896484375,-52.2599983215332,10.199999809265137,13.739999771118164
1774789957434885400,8.898885498046875,-53.63999938964844,10.079999923706055,14.039999961853027
1774789957455057400,8.919057373046876,-50.39999771118164,10.079999923706055,13.25999927520752
1774789957465128200,8.929128173828126,-49.02000045776367,9.59999942779541,12.65999984741211
1774789957475199000,8.939198974609376,-49.79999923706055,9.899999618530273,12.300000190734863
1774789957485270000,8.94927001953125,-51.779998779296875,9.65999984741211,12.59999942779541
1774789957495371300,8.959371337890625,-53.52000045776367,9.719999313354492,12.779999732971191
1774789957505411600,8.96941162109375,-53.63999938964844,9.300000190734863,12.719999313354492
1774789957515512800,8.979512939453125,-52.13999938964844,9.84000015258789,12.899999618530273
1774789957555735000,9.019735107421875,-50.63999938964844,9.960000038146973,12.179999351501465
1774789957565805800,9.029805908203125,-51.71999740600586,10.319999694824219,12.539999961853027
1774789957575876600,9.039876708984375,-51.84000015258789,10.199999809265137,12.059999465942383
1774789957585947400,9.049947509765625,-50.52000045776367,10.079999923706055,11.460000038146973
1774789957606089000,9.0700888671875,-48.119998931884766,10.920000076293945,11.819999694824219
1774789957616190200,9.080190185546876,-49.79999923706055,10.739999771118164,12.179999351501465
1774789957626261000,9.090260986328126,-51.119998931884766,11.039999961853027,13.559999465942383
1774789957646463700,9.110463623046876,-52.73999786376953,10.380000114440918,13.319999694824219
1774789957676676000,9.140676025390626,-48.959999084472656,10.260000228881836,13.619999885559082
1774789957686747000,9.150746826171876,-49.91999816894531,10.380000114440918,13.859999656677246
1774789957696817700,9.160817626953126,-51.119998931884766,11.219999313354492,14.399999618530273
1774789957706858000,9.17085791015625,-51.65999984741211,12.059999465942383,14.219999313354492
1774789957716959200,9.180959228515626,-51.05999755859375,12.420000076293945,14.219999313354492
1774789957727060700,9.191060791015625,-51.53999710083008,12.59999942779541,14.039999961853027
1774789957757151000,9.22115087890625,-52.02000045776367,11.819999694824219,13.559999465942383
1774789957777262000,9.241261962890626,-51.71999740600586,11.34000015258789,12.899999618530273
1774789957797373200,9.261373291015625,-50.279998779296875,11.460000038146973,12.719999313354492
1774789957807444000,9.27144384765625,-48.47999954223633,11.579999923706055,12.84000015258789
1774789957817545200,9.281545166015626,-46.68000030517578,11.880000114440918,13.619999885559082
1774789957827585500,9.29158544921875,-47.39999771118164,12.359999656677246,14.15999984741211
1774789957837686800,9.301686767578126,-48.53999710083008,12.479999542236328,13.799999237060547
1774789957847727000,9.31172705078125,-48.65999984741211,13.319999694824219,14.699999809265137
1774789957857798000,9.3217978515625,-49.20000076293945,13.079999923706055,13.979999542236328
1774789957867807700,9.331807861328125,-47.939998626708984,13.019999504089355,14.279999732971191
1774789957877909000,9.341908935546876,-47.39999771118164,12.119999885559082,14.34000015258789
1774789957887979800,9.351979736328126,-49.20000076293945,11.399999618530273,13.679999351501465
1774789957898081300,9.362081298828125,-49.86000061035156,11.699999809265137,14.279999732971191
1774789957908152000,9.372152099609375,-50.939998626708984,11.75999927520752,14.699999809265137
1774789957918253300,9.38225341796875,-51.47999954223633,12.420000076293945,15.239999771118164
1774789957928354600,9.3923544921875,-50.15999984741211,12,15.359999656677246
1774789957958567000,9.42256689453125,-45.779998779296875,11.819999694824219,14.9399995803833
1774789957998880800,9.462880859375,-47.34000015258789,12.84000015258789,16.68000030517578
1774789958008982000,9.47298193359375,-46.68000030517578,12.059999465942383,16.31999969482422
1774789958019083300,9.483083251953126,-45.89999771118164,12.65999984741211,17.219999313354492
1774789958029154000,9.493154052734376,-46.07999801635742,11.75999927520752,17.100000381469727
1774789958089640000,9.553639892578126,-48.65999984741211,9.539999961853027,16.739999771118164
1774789958099710700,9.563710693359376,-47.939998626708984,9.479999542236328,16.68000030517578
1774789958109781500,9.573781494140626,-48.36000061035156,9.59999942779541,17.34000015258789
1774789958119883000,9.583883056640625,-49.2599983215332,9.719999313354492,18.119998931884766
1774789958129923300,9.59392333984375,-48,11.34000015258789,19.079999923706055
1774789958140024600,9.604024658203125,-47.03999710083008,10.920000076293945,19.619998931884766
1774789958150065000,9.61406494140625,-46.31999969482422,9.899999618530273,18.84000015258789
1774789958170206500,9.63420654296875,-46.97999954223633,9.300000190734863,18.18000030517578
1774789958180307700,9.6443076171875,-48.47999954223633,9.420000076293945,18
1774789958190378500,9.65437841796875,-49.619998931884766,9.899999618530273,19.020000457763672
1774789958200449300,9.66444921875,-49.68000030517578,9.779999732971191,19.3799991607666
1774789958210459100,9.674459228515625,-50.39999771118164,9.479999542236328,20.03999900817871
1774789958220590800,9.6845908203125,-50.52000045776367,9.359999656677246,20.279998779296875
1774789958230661600,9.69466162109375,-49.55999755859375,9.420000076293945,20.34000015258789
1774789958240702000,9.704701904296876,-48.18000030517578,8.760000228881836,20.279998779296875
1774789958250711800,9.7147119140625,-46.31999969482422,9.179999351501465,20.69999885559082
1774789958280985300,9.7449853515625,-47.099998474121094,9.84000015258789,19.68000030517578
1774789958290995000,9.754994873046876,-49.2599983215332,9.539999961853027,18.899999618530273
1774789958301096200,9.76509619140625,-49.439998626708984,9.359999656677246,19.020000457763672
1774789958311167200,9.775167236328125,-49.79999923706055,10.079999923706055,19.020000457763672
1774789958321238000,9.785238037109375,-49.439998626708984,9.960000038146973,19.85999870300293
1774789958341410000,9.80541015625,-48.05999755859375,9.960000038146973,20.579999923706055
1774789958351480800,9.815480712890626,-49.31999969482422,9.479999542236328,20.639999389648438
1774789958371561500,9.8355615234375,-51,9.84000015258789,19.5
1774789958381632300,9.84563232421875,-49.37999725341797,10.5,20.15999984741211
1774789958391672600,9.855672607421875,-47.87999725341797,9.719999313354492,19.020000457763672
1774789958401743400,9.865743408203125,-47.57999801635742,9.539999961853027,18.239999771118164
1774789958411783700,9.87578369140625,-48.53999710083008,9.779999732971191,18.779998779296875
1774789958421885000,9.885885009765625,-50.459999084472656,9.420000076293945,17.940000534057617
1774789958431986200,9.895986083984376,-50.70000076293945,11.039999961853027,19.68000030517578
1774789958442057000,9.906056884765626,-50.63999938964844,10.800000190734863,20.639999389648438
1774789958452158200,9.916158203125,-49.55999755859375,9.899999618530273,19.559999465942383
1774789958492411000,9.956410888671876,-49.439998626708984,11.09999942779541,18.119998931884766
1774789958502512400,9.966512451171875,-48.29999923706055,11.34000015258789,18.65999984741211
1774789958512583200,9.976583251953125,-47.03999710083008,10.920000076293945,19.619998931884766
1774789958522684400,9.986684326171876,-47.279998779296875,10.319999694824219,19.260000228881836
1774789958532724700,9.996724853515625,-50.15999984741211,10.5,19.5
1774789958542826000,10.006825927734376,-52.55999755859375,10.380000114440918,19.079999923706055
1774789958552896800,10.016896728515626,-53.81999969482422,10.920000076293945,18.779998779296875
1774789958573038300,10.037038330078126,-52.55999755859375,11.039999961853027,18.35999870300293
1774789958593149400,10.0571494140625,-51.18000030517578,12,17.399999618530273
1774789958603251000,10.0672509765625,-52.13999938964844,12.420000076293945,17.100000381469727
1774789958613321700,10.07732177734375,-50.70000076293945,13.079999923706055,17.399999618530273
1774789958643534000,10.1075341796875,-48.41999816894531,12.719999313354492,16.619998931884766
1774789958653604900,10.11760498046875,-49.13999938964844,12.420000076293945,15.65999984741211
1774789958663675600,10.127675537109376,-50.279998779296875,12.119999885559082,15.119999885559082
1774789958683878400,10.14787841796875,-49.97999954223633,13.319999694824219,14.75999927520752
1774789958693918500,10.15791845703125,-49.55999755859375,12.960000038146973,15.299999237060547
1774789958714060300,10.178060302734375,-50.099998474121094,13.920000076293945,15.479999542236328
1774789958724131000,10.188131103515625,-51.599998474121094,13.859999656677246,15.420000076293945
1774789958734201900,10.198201904296875,-52.2599983215332,14.279999732971191,13.799999237060547
1774789958744303000,10.20830322265625,-52.68000030517578,13.739999771118164,13.019999504089355
1774789958754374000,10.218373779296876,-52.619998931884766,13.319999694824219,12.779999732971191
1774789958764475100,10.22847509765625,-53.03999710083008,13.920000076293945,12.960000038146973
1774789958784616700,10.24861669921875,-53.63999938964844,15.059999465942383,14.15999984741211
1774789958794687500,10.2586875,-53.57999801635742,15,13.859999656677246
1774789958804758500,10.268758544921875,-54,15.119999885559082,13.799999237060547
1774789958814859800,10.27885986328125,-54.18000030517578,15.059999465942383,13.739999771118164
1774789958824930600,10.2889306640625,-54.23999786376953,14.699999809265137,12.960000038146973
1774789958834971000,10.298970947265625,-54.599998474121094,15.239999771118164,13.019999504089355
1774789958845072100,10.309072021484376,-54.599998474121094,15.179999351501465,13.139999389648438
1774789958865244200,10.329244140625,-54.53999710083008,15.59999942779541,12.719999313354492
1774789958875284500,10.339284423828126,-53.69999694824219,15.119999885559082,11.819999694824219
1774789958905466400,10.36946630859375,-52.5,15.539999961853027,12.179999351501465
1774789958915537200,10.379537109375,-52.37999725341797,15.239999771118164,12.359999656677246
1774789958925608000,10.38960791015625,-52.5,15.359999656677246,12.059999465942383
1774789958935648300,10.399648193359376,-52.91999816894531,14.639999389648438,12
1774789958945688600,10.4096884765625,-54.18000030517578,13.859999656677246,12
1774789958955759400,10.41975927734375,-55.73999786376953,14.219999313354492,12.719999313354492
1774789958965830100,10.429830078125,-56.459999084472656,14.15999984741211,12.84000015258789
1774789958975901000,10.43990087890625,-56.69999694824219,14.819999694824219,13.079999923706055
1774789959016184300,10.480184326171875,-55.5,15.420000076293945,12.300000190734863
1774789959026285600,10.49028564453125,-54.84000015258789,14.9399995803833,12.420000076293945
1774789959036356400,10.5003564453125,-55.37999725341797,14.399999618530273,12.359999656677246
1774789959046427100,10.51042724609375,-55.86000061035156,13.4399995803833,11.75999927520752
1774789959056498000,10.520497802734376,-56.34000015258789,13.4399995803833,11.639999389648438
1774789959066568700,10.530568603515626,-57.119998931884766,13.859999656677246,11.819999694824219
1774789959076639500,10.540639404296876,-57.18000030517578,13.859999656677246,11.75999927520752
1774789959106882600,10.570882568359375,-57.36000061035156,14.880000114440918,12.119999885559082
1774789959116922600,10.580922607421876,-56.15999984741211,15.059999465942383,12.539999961853027
1774789959126993400,10.590993408203126,-55.55999755859375,14.519999504089355,12.899999618530273
1774789959137064400,10.601064453125,-55.55999755859375,14.15999984741211,12.300000190734863
1774789959147135200,10.61113525390625,-56.15999984741211,13.019999504089355,11.9399995803833
1774789959157206000,10.6212060546875,-57.599998474121094,12.899999618530273,11.880000114440918
1774789959167276800,10.63127685546875,-57.47999954223633,13.5,11.880000114440918
1774789959177347600,10.64134765625,-57.53999710083008,13.319999694824219,12.119999885559082
1774789959187418400,10.65141845703125,-57.41999816894531,13.5,12.179999351501465
1774789959207529500,10.671529541015625,-58.439998626708984,12.65999984741211,12.119999885559082
1774789959217600300,10.681600341796875,-57.779998779296875,12.960000038146973,11.460000038146973
1774789959237711400,10.70171142578125,-56.52000045776367,11.880000114440918,11.519999504089355
1774789959267923700,10.731923828125,-55.31999969482422,11.9399995803833,12.179999351501465
1774789959278025000,10.74202490234375,-55.55999755859375,11.639999389648438,12.420000076293945
1774789959288095700,10.752095703125,-55.619998931884766,11.219999313354492,12.059999465942383
1774789959308298500,10.772298583984375,-55.79999923706055,11.279999732971191,13.079999923706055
1774789959318338800,10.7823388671875,-55.02000045776367,11.699999809265137,13.799999237060547
1774789959328409600,10.79240966796875,-53.69999694824219,11.519999504089355,13.619999885559082
1774789959338510800,10.8025107421875,-54.18000030517578,11.15999984741211,13.319999694824219
1774789959348612000,10.812612060546876,-53.69999694824219,10.679999351501465,13.139999389648438
1774789959358683000,10.822682861328126,-54.65999984741211,10.079999923706055,13.139999389648438
1774789959368784400,10.832784423828125,-55.86000061035156,10.859999656677246,13.979999542236328
1774789959378885600,10.8428857421875,-56.279998779296875,10.979999542236328,14.34000015258789
1774789959388956400,10.852956298828126,-56.63999938964844,10.739999771118164,14.639999389648438
1774789959399027200,10.863027099609376,-56.63999938964844,10.800000190734863,14.34000015258789
1774789959419199200,10.88319921875,-55.37999725341797,10.199999809265137,13.920000076293945
1774789959439310300,10.903310302734376,-54.47999954223633,10.5,14.880000114440918
1774789959449381000,10.913381103515626,-55.19999694824219,10.079999923706055,15.299999237060547
1774789959459482600,10.923482666015625,-55.97999954223633,10.079999923706055,15.299999237060547
1774789959469584000,10.933583984375,-57,9.84000015258789,14.519999504089355
1774789959479593700,10.94359375,-57.23999786376953,9.420000076293945,14.460000038146973
1774789959489664500,10.95366455078125,-57.119998931884766,9.239999771118164,14.039999961853027
1774789959499765800,10.963765869140625,-56.87999725341797,8.819999694824219,14.039999961853027
1774789959509867000,10.973866943359376,-55.5,8.880000114440918,14.279999732971191
1774789959530039300,10.994039306640625,-54.05999755859375,9.539999961853027,14.399999618530273
1774789959540110000,11.004110107421875,-53.939998626708984,10.019999504089355,14.579999923706055
1774789959550180900,11.014180908203125,-55.619998931884766,10.199999809265137,14.9399995803833
1774789959560251600,11.024251708984375,-56.87999725341797,10.319999694824219,14.819999694824219
1774789959570322400,11.034322509765625,-57.18000030517578,10.380000114440918,15.179999351501465
1774789959580423700,11.044423583984376,-57.36000061035156,10.920000076293945,15.719999313354492
1774789959590494500,11.054494384765626,-57.53999710083008,10.4399995803833,15.299999237060547
1774789959620706800,11.084706787109376,-54.47999954223633,9.960000038146973,14.880000114440918
1774789959640818000,11.10481787109375,-53.69999694824219,10.859999656677246,15
1774789959650919400,11.11491943359375,-55.73999786376953,11.039999961853027,15.059999465942383
1774789959660990200,11.124990234375,-57.29999923706055,11.219999313354492,15.119999885559082
1774789959671061000,11.13506103515625,-57.05999755859375,11.279999732971191,14.75999927520752
1774789959681131800,11.1451318359375,-56.87999725341797,11.75999927520752,14.639999389648438
1774789959691172000,11.155172119140625,-57.41999816894531,11.34000015258789,14.579999923706055
1774789959701273300,11.1652734375,-57.29999923706055,11.519999504089355,14.639999389648438
1774789959711374600,11.17537451171875,-57.23999786376953,12.119999885559082,15.239999771118164
1774789959741556500,11.205556396484376,-54.23999786376953,12.479999542236328,15.239999771118164
1774789959751627300,11.215627197265626,-53.39999771118164,12.65999984741211,15.59999942779541
1774789959761698000,11.225697998046876,-54.119998931884766,13.4399995803833,15.119999885559082
1774789959771738400,11.23573828125,-53.21999740600586,13.559999465942383,15.839999198913574
1774789959781839600,11.245839599609376,-52.439998626708984,13.679999351501465,15.420000076293945
1774789959791910400,11.255910400390626,-52.31999969482422,13.4399995803833,14.699999809265137
1774789959802012000,11.266011962890625,-52.2599983215332,12.960000038146973,14.09999942779541
1774789959822153500,11.286153564453125,-53.63999938964844,12.84000015258789,12.239999771118164
1774789959882639400,11.346639404296875,-50.03999710083008,13.5,11.75999927520752
1774789959902750500,11.36675048828125,-51.23999786376953,14.219999313354492,12.300000190734863
1774789959963175200,11.427175048828126,-50.87999725341797,15.299999237060547,11.039999961853027
1774789959993418000,11.45741796875,-49.2599983215332,15.119999885559082,10.019999504089355
1774789960003488800,11.46748876953125,-49.68000030517578,15,9.84000015258789
1774789960013498600,11.47749853515625,-49.619998931884766,14.75999927520752,9.719999313354492
1774789960023569400,11.4875693359375,-49.619998931884766,14.880000114440918,9.539999961853027
1774789960033640200,11.49764013671875,-50.34000015258789,14.639999389648438,9.899999618530273
1774789960043711000,11.5077109375,-49.86000061035156,14.579999923706055,9.479999542236328
1774789960114206700,11.578206787109375,-48.959999084472656,15.59999942779541,9.899999618530273
1774789960124277500,11.588277587890625,-51.05999755859375,15.420000076293945,9.84000015258789
1774789960134409200,11.5984091796875,-52.79999923706055,16.68000030517578,10.739999771118164
1774789960144480000,11.60847998046875,-53.279998779296875,17.03999900817871,10.800000190734863
1774789960164621800,11.628621826171875,-52.619998931884766,15.899999618530273,9.960000038146973
1774789960174723000,11.63872314453125,-53.69999694824219,14.75999927520752,9.119999885559082
1774789960184763400,11.648763427734375,-52.86000061035156,14.880000114440918,8.579999923706055
1774789960194834200,11.658834228515625,-53.459999084472656,15.719999313354492,9.300000190734863
1774789960204905000,11.668905029296875,-53.21999740600586,16.020000457763672,8.819999694824219
1774789960214975700,11.678975830078125,-52.31999969482422,16.440000534057617,9.059999465942383
1774789960225077000,11.689076904296876,-53.69999694824219,16.920000076293945,9.479999542236328
1774789960235178200,11.69917822265625,-54.36000061035156,16.5,9
1774789960245249000,11.7092490234375,-55.13999938964844,16.739999771118164,9.719999313354492
1774789960265390800,11.729390869140625,-53.87999725341797,15.059999465942383,8.9399995803833
1774789960275461600,11.739461669921875,-53.21999740600586,14.9399995803833,9.359999656677246
1774789960285532400,11.749532470703125,-53.63999938964844,14.819999694824219,8.9399995803833
1774789960295633700,11.759633544921876,-53.7599983215332,15.119999885559082,9.300000190734863
1774789960305735000,11.76973486328125,-54.41999816894531,15.59999942779541,9.539999961853027
1774789960315805700,11.7798056640625,-53.099998474121094,15.960000038146973,9.420000076293945
1774789960325876500,11.78987646484375,-51.779998779296875,15.65999984741211,9.539999961853027
1774789960346048800,11.810048828125,-52.55999755859375,15.59999942779541,9.119999885559082
1774789960356119600,11.82011962890625,-52.91999816894531,15.65999984741211,9.119999885559082
1774789960386362400,11.8503623046875,-52.19999694824219,16.85999870300293,9.84000015258789
1774789960396402700,11.860402587890626,-51.779998779296875,16.19999885559082,9.059999465942383
1774789960426615000,11.890614990234376,-49.91999816894531,14.460000038146973,8.9399995803833
1774789960436685800,11.900685791015626,-50.15999984741211,15.179999351501465,9.65999984741211
1774789960446726100,11.91072607421875,-51.89999771118164,14.880000114440918,10.380000114440918
1774789960456766500,11.920766357421876,-52.5,14.039999961853027,9.65999984741211
1774789960476908000,11.940907958984376,-51.53999710083008,12.300000190734863,8.760000228881836
1774789960497049600,11.961049560546876,-49.37999725341797,12.899999618530273,8.399999618530273
1774789960507090000,11.97108984375,-50.21999740600586,13.4399995803833,9.59999942779541
1774789960517160700,11.98116064453125,-48.84000015258789,14.279999732971191,9.59999942779541
1774789960527231500,11.9912314453125,-48.89999771118164,14.09999942779541,10.559999465942383
1774789960537302300,12.00130224609375,-49.20000076293945,15.059999465942383,11.579999923706055
1774789960547373000,12.011373046875,-49.68000030517578,14.34000015258789,11.699999809265137
1774789960557443800,12.02144384765625,-52.13999938964844,14.09999942779541,12.119999885559082
1774789960567484200,12.031484130859376,-53.459999084472656,14.039999961853027,11.460000038146973
1774789960577555000,12.041554931640626,-54.36000061035156,13.380000114440918,11.639999389648438
1774789960597727200,12.061727294921875,-51.89999771118164,13.5,11.819999694824219
1774789960607798000,12.071798095703125,-51.23999786376953,12.539999961853027,10.979999542236328
1774789960617838300,12.08183837890625,-50.87999725341797,12.479999542236328,10.920000076293945
1774789960627939600,12.091939697265625,-52.55999755859375,12.779999732971191,11.460000038146973
1774789960638010400,12.10201025390625,-53.099998474121094,12.359999656677246,10.920000076293945
1774789960648081200,12.1120810546875,-53.63999938964844,12.420000076293945,10.800000190734863
1774789960658182400,12.122182373046876,-53.34000015258789,11.460000038146973,10.739999771118164
1774789960688395000,12.15239501953125,-55.02000045776367,12.359999656677246,11.75999927520752
1774789960698465800,12.1624658203125,-54.47999954223633,13.319999694824219,11.399999618530273
1774789960708567000,12.172567138671875,-53.15999984741211,12.899999618530273,11.09999942779541
1774789960718607400,12.182607421875,-51.65999984741211,12.899999618530273,12
1774789960728678100,12.19267822265625,-52.02000045776367,13.139999389648438,12.059999465942383
1774789960738779400,12.202779296875,-53.21999740600586,13.079999923706055,12.479999542236328
1774789960748880600,12.212880615234376,-54.47999954223633,13.5,12.359999656677246
1774789960758982100,12.222982177734375,-55.68000030517578,13.380000114440918,11.880000114440918
1774789960789225000,12.253224853515626,-54.05999755859375,13.739999771118164,10.920000076293945
1774789960809366500,12.273366455078126,-53.459999084472656,13.25999927520752,10.199999809265137
1774789960819437300,12.283437255859376,-54.71999740600586,12.899999618530273,10.800000190734863
1774789960829538800,12.293538818359375,-55.07999801635742,12.719999313354492,11.399999618530273
1774789960839640000,12.30364013671875,-53.7599983215332,13.019999504089355,12
1774789960849710800,12.3137109375,-53.57999801635742,13.380000114440918,12.119999885559082
1774789960859812000,12.32381201171875,-52.73999786376953,13.4399995803833,11.519999504089355
1774789960889963500,12.353963623046875,-53.21999740600586,12.300000190734863,10.859999656677246
1774789960900034300,12.364034423828125,-52.79999923706055,12.719999313354492,11.519999504089355
1774789960910135600,12.374135498046876,-52.97999954223633,12.59999942779541,12.119999885559082
1774789960920206300,12.384206298828126,-53.459999084472656,13.199999809265137,12
1774789960930277000,12.394277099609376,-53.87999725341797,13.319999694824219,12.420000076293945
1774789960940378600,12.404378662109375,-54.71999740600586,13.079999923706055,12.719999313354492
1774789960950449400,12.414449462890625,-53.69999694824219,13.619999885559082,12.59999942779541
1774789960960520200,12.424520263671875,-53.87999725341797,12.359999656677246,11.519999504089355
1774789960980631300,12.44463134765625,-53.39999771118164,12.239999771118164,10.979999542236328
1774789960990702000,12.4547021484375,-54.53999710083008,11.819999694824219,10.4399995803833
1774789961010782500,12.474782470703126,-51.05999755859375,12.719999313354492,10.619999885559082
1774789961030924300,12.49492431640625,-49.13999938964844,12.479999542236328,10.380000114440918
1774789961041025500,12.505025634765625,-49.619998931884766,12.65999984741211,10.019999504089355
1774789961051096300,12.515096435546875,-49.07999801635742,13.859999656677246,11.880000114440918
1774789961061197600,12.525197509765626,-47.7599983215332,13.619999885559082,11.639999389648438
1774789961071298800,12.535298828125,-46.55999755859375,13.920000076293945,11.699999809265137
1774789961091410000,12.555409912109376,-47.7599983215332,13.079999923706055,11.039999961853027
1774789961101511400,12.565511474609375,-48.959999084472656,13.4399995803833,11.34000015258789
1774789961111612700,12.57561279296875,-50.52000045776367,13.380000114440918,11.880000114440918
1774789961121683500,12.585683349609376,-49.07999801635742,13.5,11.279999732971191
1774789961131754200,12.595754150390626,-48.959999084472656,12.479999542236328,11.399999618530273
1774789961141855500,12.60585546875,-49.13999938964844,11.9399995803833,10.979999542236328
1774789961151895800,12.615895751953126,-49.37999725341797,11.699999809265137,10.619999885559082
1774789961161966600,12.625966552734376,-52.2599983215332,11.639999389648438,10.319999694824219
1774789961172037400,12.636037353515626,-52.86000061035156,12.719999313354492,10.139999389648438
1774789961212259600,12.676259521484376,-49.5,13.4399995803833,10.380000114440918
1774789961222360800,12.68636083984375,-50.34000015258789,13.559999465942383,10.679999351501465
1774789961232431900,12.696431884765625,-51.29999923706055,13.859999656677246,11.579999923706055
1774789961242502700,12.706502685546875,-51.29999923706055,14.09999942779541,11.15999984741211
1774789961252512300,12.71651220703125,-49.619998931884766,13.739999771118164,11.279999732971191
1774789961262613800,12.72661376953125,-48.71999740600586,13.739999771118164,11.579999923706055
1774789961282724600,12.746724609375,-48.84000015258789,14.15999984741211,10.979999542236328
1774789961312937200,12.776937255859375,-49.37999725341797,14.279999732971191,10.4399995803833
1774789961322977500,12.7869775390625,-49.07999801635742,13.5,10.5
1774789961333017600,12.797017578125,-49.02000045776367,13.5,10.739999771118164
1774789961343119000,12.807119140625,-50.81999969482422,13.319999694824219,10.979999542236328
1774789961353190000,12.81718994140625,-50.39999771118164,13.859999656677246,12.059999465942383
1774789961363230200,12.827230224609375,-51.23999786376953,14.34000015258789,11.819999694824219
1774789961383310600,12.847310546875,-50.03999710083008,15.299999237060547,12.119999885559082
1774789961413462000,12.8774619140625,-50.81999969482422,15.719999313354492,11.579999923706055
1774789961423563300,12.887563232421876,-49.86000061035156,15.059999465942383,11.880000114440918
1774789961433664800,12.897664794921875,-48.65999984741211,14.699999809265137,12.479999542236328
1774789961443766000,12.90776611328125,-48.779998779296875,13.4399995803833,12.59999942779541
1774789961453806300,12.917806396484375,-49.2599983215332,12.899999618530273,12.59999942779541
1774789961463907600,12.927907470703126,-50.279998779296875,13.25999927520752,12
1774789961473978400,12.937978271484376,-51.599998474121094,13.25999927520752,11.399999618530273
1774789961484049200,12.948049072265626,-51.05999755859375,14.09999942779541,11.699999809265137
1774789961494059000,12.95805908203125,-49.97999954223633,13.920000076293945,11.460000038146973
1774789961534342100,12.998342041015626,-51.119998931884766,14.039999961853027,10.920000076293945
1774789961544443400,13.008443359375,-50.099998474121094,13.859999656677246,11.519999504089355
1774789961554514200,13.01851416015625,-48.71999740600586,13.859999656677246,12.300000190734863
1774789961564615700,13.02861572265625,-49.13999938964844,13.25999927520752,12.119999885559082
1774789961574656000,13.038656005859375,-49.91999816894531,12.65999984741211,12.479999542236328
1774789961584757200,13.04875732421875,-51.47999954223633,13.019999504089355,12.960000038146973
1774789961645182000,13.109181884765626,-49.13999938964844,12.84000015258789,11.039999961853027
1774789961655252700,13.119252685546876,-48.89999771118164,12.960000038146973,11.699999809265137
1774789961675425000,13.139425048828125,-46.79999923706055,12.65999984741211,12.65999984741211
1774789961685526300,13.1495263671875,-47.21999740600586,12.359999656677246,12.239999771118164
1774789961695597000,13.15959716796875,-48.29999923706055,12.479999542236328,12.65999984741211
1774789961705667800,13.169667724609376,-49.02000045776367,12.899999618530273,12.059999465942383
1774789961715738600,13.179738525390626,-49.91999816894531,13.25999927520752,12.479999542236328
1774789961766062000,13.23006201171875,-48.959999084472656,13.079999923706055,12.420000076293945
1774789961786142700,13.250142822265625,-47.70000076293945,13.5,13.199999809265137
1774789961796183000,13.26018310546875,-47.099998474121094,13.380000114440918,13.5
1774789961806253800,13.27025390625,-46.79999923706055,13.619999885559082,13.619999885559082
1774789961816294100,13.280294189453125,-47.21999740600586,12.779999732971191,12.539999961853027
1774789961846537000,13.310536865234376,-48.779998779296875,13.920000076293945,13.019999504089355
1774789961856577300,13.320577392578125,-48.29999923706055,14.639999389648438,13.380000114440918
1774789961866648000,13.33064794921875,-48.23999786376953,14.75999927520752,13.079999923706055
1774789961876718800,13.34071875,-48.47999954223633,15.059999465942383,13.079999923706055
1774789961886820000,13.350820068359376,-50.15999984741211,13.799999237060547,12.65999984741211
1774789961896891000,13.360890869140626,-50.7599983215332,12.960000038146973,12.84000015258789
1774789961906992400,13.370992431640625,-50.939998626708984,12.779999732971191,12.59999942779541
1774789961917063200,13.381063232421875,-50.279998779296875,12.479999542236328,12.239999771118164
1774789961947306000,13.411305908203126,-49.86000061035156,13.979999542236328,12.300000190734863
1774789961957376800,13.421376708984376,-49.97999954223633,14.039999961853027,13.25999927520752
1774789961967478000,13.43147802734375,-48.599998474121094,13.859999656677246,13.199999809265137
1774789961977549000,13.441549072265625,-47.39999771118164,13.079999923706055,12.960000038146973
1774789961987589000,13.451589111328126,-47.459999084472656,12.779999732971191,13.319999694824219
1774789961997660000,13.461659912109376,-48.29999923706055,12.059999465942383,11.880000114440918
1774789962007731000,13.47173095703125,-50.57999801635742,11.15999984741211,11.219999313354492
1774789962017771000,13.48177099609375,-50.7599983215332,12.059999465942383,12
1774789962027872500,13.49187255859375,-50.459999084472656,12.300000190734863,12.059999465942383
1774789962058054400,13.522054443359375,-49.37999725341797,13.25999927520752,12.719999313354492
1774789962118479000,13.58247900390625,-48.599998474121094,12.84000015258789,12.420000076293945
1774789962128550000,13.5925498046875,-49.73999786376953,12.779999732971191,12.239999771118164
1774789962138590200,13.602590087890626,-49.619998931884766,13.079999923706055,12.59999942779541
1774789962158731800,13.622731689453126,-48.84000015258789,12.119999885559082,12.479999542236328
1774789962168802600,13.632802490234376,-48.779998779296875,11.639999389648438,11.819999694824219
1774789962178873300,13.642873291015626,-50.39999771118164,11.9399995803833,11.699999809265137
1774789962188913700,13.65291357421875,-51.18000030517578,12.119999885559082,11.039999961853027
1774789962219065000,13.683065185546875,-48.18000030517578,11.75999927520752,9.719999313354492
1774789962229136000,13.693135986328125,-47.279998779296875,11.9399995803833,10.019999504089355
1774789962239206700,13.70320654296875,-48.41999816894531,12.59999942779541,10.920000076293945
1774789962289560600,13.753560546875,-48,14.09999942779541,11.399999618530273
1774789962299631400,13.76363134765625,-48.65999984741211,14.219999313354492,10.979999542236328
1774789962309732900,13.77373291015625,-48.65999984741211,14.15999984741211,10.260000228881836
1774789962319803600,13.7838037109375,-49.02000045776367,13.739999771118164,9.84000015258789
1774789962329874400,13.79387451171875,-47.57999801635742,13.619999885559082,10.019999504089355
1774789962339914800,13.803914794921875,-47.34000015258789,13.319999694824219,9.84000015258789
1774789962349985500,13.813985595703125,-48.779998779296875,12.719999313354492,9.179999351501465
1774789962430460400,13.89446044921875,-49.619998931884766,14.519999504089355,8.579999923706055
1774789962440531200,13.90453125,-49.439998626708984,14.9399995803833,9.420000076293945
1774789962460642300,13.924642333984375,-48.779998779296875,14.15999984741211,9.479999542236328
1774789962490885000,13.954885009765626,-51.65999984741211,14.039999961853027,9.960000038146973
1774789962510935300,13.974935302734375,-51.959999084472656,13.679999351501465,9.059999465942383
1774789962531046100,13.995046142578126,-50.52000045776367,13.319999694824219,9
1774789962581461200,14.045461181640626,-50.939998626708984,15.59999942779541,9.719999313354492
1774789962631784700,14.09578466796875,-48.89999771118164,14.399999618530273,9.179999351501465
1774789962641855500,14.10585546875,-48.84000015258789,13.920000076293945,9.059999465942383
1774789962722452500,14.186452392578126,-51.84000015258789,13.199999809265137,9.359999656677246
1774789962752695600,14.216695556640625,-51.41999816894531,13.199999809265137,10.019999504089355
1774789962762766300,14.226766357421875,-50.7599983215332,13.319999694824219,10.139999389648438
1774789962772837000,14.236837158203125,-49.55999755859375,12.719999313354492,10.260000228881836
1774789962803019000,14.26701904296875,-47.34000015258789,12.300000190734863,11.039999961853027
1774789962813059000,14.27705908203125,-48.959999084472656,12.239999771118164,11.15999984741211
1774789962833231400,14.2972314453125,-52.439998626708984,12.179999351501465,10.559999465942383
1774789962843302100,14.30730224609375,-51.89999771118164,11.9399995803833,10.019999504089355
1774789962853342500,14.317342529296875,-52.37999725341797,11.75999927520752,10.139999389648438
1774789962863382800,14.3273828125,-51.47999954223633,12.479999542236328,11.039999961853027
1774789962873484000,14.337484130859375,-51.29999923706055,12.239999771118164,11.519999504089355
1774789962903635500,14.367635498046875,-51.05999755859375,12.239999771118164,13.199999809265137
1774789962913706200,14.377706298828125,-49.68000030517578,11.579999923706055,13.319999694824219
1774789962923777000,14.387777099609375,-48.18000030517578,11.15999984741211,13.380000114440918
1774789962933847800,14.397847900390625,-46.439998626708984,10.739999771118164,13.199999809265137
1774789962943888100,14.40788818359375,-47.39999771118164,9.779999732971191,11.9399995803833
1774789962953959000,14.417958984375,-48.779998779296875,10.920000076293945,12.479999542236328
1774789962964029700,14.42802978515625,-50.7599983215332,11.09999942779541,12.420000076293945
1774789962974039300,14.438039306640626,-52.02000045776367,10.979999542236328,11.819999694824219
1774789963014231000,14.47823095703125,-48.41999816894531,9.420000076293945,11.09999942779541
1774789963034372600,14.49837255859375,-51.36000061035156,9.65999984741211,11.699999809265137
1774789963044443400,14.508443359375,-50.7599983215332,9.960000038146973,10.979999542236328
1774789963054483700,14.518483642578126,-49.86000061035156,9.539999961853027,11.399999618530273
1774789963064585000,14.5285849609375,-48.05999755859375,10.079999923706055,11.880000114440918
1774789963074625300,14.538625244140626,-46.5,9.960000038146973,11.819999694824219
1774789963094797600,14.558797607421875,-48.779998779296875,11.15999984741211,12.960000038146973
1774789963104898800,14.56889892578125,-50.57999801635742,10.920000076293945,12.359999656677246
1774789963114969600,14.578969482421876,-51.53999710083008,11.09999942779541,12
1774789963125040400,14.589040283203126,-50.939998626708984,10.920000076293945,11.9399995803833
1774789963135080700,14.599080810546875,-51.05999755859375,9.899999618530273,10.679999351501465
1774789963145182000,14.609181884765626,-50.21999740600586,9.300000190734863,10.800000190734863
1774789963155252700,14.619252685546876,-51.779998779296875,8.880000114440918,11.09999942779541
1774789963165293000,14.62929296875,-53.279998779296875,8.819999694824219,11.219999313354492
1774789963175333400,14.63933349609375,-53.63999938964844,9.65999984741211,11.75999927520752
1774789963185434600,14.6494345703125,-53.63999938964844,10.019999504089355,12.179999351501465
1774789963215647000,14.67964697265625,-49.5,10.559999465942383,12.65999984741211
1774789963225748500,14.68974853515625,-50.15999984741211,10.859999656677246,12.479999542236328
1774789963235819300,14.6998193359375,-51.53999710083008,10.800000190734863,12.84000015258789
1774789963245890000,14.70989013671875,-53.279998779296875,11.34000015258789,13.139999389648438
1774789963255899600,14.719899658203126,-52.439998626708984,11.039999961853027,12.059999465942383
1774789963266001200,14.730001220703125,-52.31999969482422,10.619999885559082,12.539999961853027
1774789963276072000,14.740072021484375,-51.119998931884766,10.559999465942383,13.079999923706055
1774789963286173200,14.750173095703126,-49.68000030517578,10.079999923706055,13.079999923706055
1774789963306314800,14.770314697265626,-51.959999084472656,11.039999961853027,13.139999389648438
1774789963316385500,14.780385498046876,-52.97999954223633,10.920000076293945,12.65999984741211
1774789963326487000,14.790487060546875,-53.099998474121094,11.279999732971191,13.139999389648438
1774789963336557800,14.800557861328125,-51.53999710083008,11.15999984741211,13.4399995803833
1774789963356669000,14.8206689453125,-49.5,10.859999656677246,13.139999389648438
1774789963366739700,14.83073974609375,-51.05999755859375,10.619999885559082,12.059999465942383
1774789963376810500,14.840810546875,-52.37999725341797,11.09999942779541,11.399999618530273
1774789963386881300,14.85088134765625,-53.34000015258789,11.219999313354492,10.859999656677246
1774789963417093600,14.88109375,-50.21999740600586,12.179999351501465,11.880000114440918
1774789963427164400,14.891164306640626,-49.20000076293945,11.460000038146973,11.15999984741211
1774789963437265700,14.901265625,-50.70000076293945,11.399999618530273,10.199999809265137
1774789963447306000,14.911305908203126,-52.07999801635742,11.75999927520752,10.5
1774789963457346300,14.92134619140625,-53.34000015258789,12.65999984741211,10.260000228881836
1774789963467417000,14.9314169921875,-52.86000061035156,13.859999656677246,11.15999984741211
1774789963477518300,14.941518310546876,-51.36000061035156,13.619999885559082,11.09999942779541
1774789963517801700,14.9818017578125,-52.07999801635742,12.899999618530273,11.219999313354492
1774789963527903000,14.991903076171875,-53.69999694824219,13.019999504089355,11.219999313354492
1774789963537973800,15.001973876953125,-53.7599983215332,12.899999618530273,11.399999618530273
1774789963548044500,15.01204443359375,-52.68000030517578,12.300000190734863,11.519999504089355
1774789963558115300,15.022115234375,-51.779998779296875,12.479999542236328,11.519999504089355
1774789963568186000,15.03218603515625,-50.70000076293945,12.84000015258789,11.9399995803833
1774789963578287400,15.042287353515626,-51.89999771118164,13.079999923706055,10.859999656677246
1774789963588297200,15.052297119140626,-53.69999694824219,13.5,10.559999465942383
1774789963598398500,15.0623984375,-55.13999938964844,13.4399995803833,10.739999771118164
1774789963638712300,15.10271240234375,-50.459999084472656,14.09999942779541,10.559999465942383
1774789963648752600,15.112752685546875,-51.23999786376953,14.399999618530273,10.559999465942383
1774789963658854000,15.12285400390625,-51.36000061035156,13.979999542236328,10.199999809265137
1774789963668894200,15.132894287109375,-51.599998474121094,15.179999351501465,10.679999351501465
1774789963678995500,15.142995361328126,-50.939998626708984,15.59999942779541,10.920000076293945
1774789963689035800,15.153035888671875,-49.37999725341797,15.420000076293945,10.800000190734863
1774789963699137000,15.163136962890626,-49.13999938964844,15.119999885559082,10.679999351501465
1774789963709207800,15.173207763671876,-49.97999954223633,14.219999313354492,10.619999885559082
1774789963729349400,15.193349365234376,-53.81999969482422,14.819999694824219,10.079999923706055
1774789963739389700,15.2033896484375,-53.63999938964844,15.059999465942383,10.739999771118164
1774789963749460500,15.21346044921875,-53.69999694824219,14.819999694824219,10.319999694824219
1774789963759531300,15.22353125,-52.73999786376953,14.880000114440918,10.619999885559082
1774789963769571600,15.233571533203126,-52.86000061035156,14.639999389648438,10.559999465942383
1774789963779673000,15.243673095703125,-54.71999740600586,14.399999618530273,10.139999389648438
1774789963789743900,15.253743896484375,-55.79999923706055,14.579999923706055,10.199999809265137
1774789963799814700,15.263814697265625,-56.57999801635742,15,9.84000015258789
1774789963809885400,15.273885498046875,-55.31999969482422,15.059999465942383,9.899999618530273
1774789963829996500,15.29399658203125,-53.21999740600586,15.420000076293945,9.539999961853027
1774789963850107600,15.314107666015625,-55.2599983215332,15.65999984741211,10.199999809265137
1774789963870249200,15.334249267578125,-54.53999710083008,16.559999465942383,10.739999771118164
1774789963880320000,15.344320068359375,-53.81999969482422,15.719999313354492,10.4399995803833
1774789963890421200,15.354421142578126,-53.279998779296875,15.299999237060547,10.139999389648438
1774789963900461600,15.364461669921875,-54.959999084472656,14.34000015258789,10.260000228881836
1774789963910502000,15.374501953125,-56.099998474121094,14.09999942779541,9.84000015258789
1774789963920572700,15.38457275390625,-55.5,15.299999237060547,11.279999732971191
1774789963950785000,15.414784912109376,-51.599998474121094,15.239999771118164,12.059999465942383
1774789963960825300,15.424825439453125,-52.55999755859375,15.479999542236328,11.819999694824219
1774789963970896100,15.434896240234375,-54.05999755859375,15.179999351501465,11.880000114440918
1774789963980967000,15.444966796875,-54.89999771118164,15.719999313354492,12.059999465942383
1774789963991037700,15.45503759765625,-54.05999755859375,15.899999618530273,11.460000038146973
1774789964001108500,15.4651083984375,-52.79999923706055,14.819999694824219,10.979999542236328
1774789964011179300,15.47517919921875,-52.619998931884766,14.699999809265137,10.800000190734863
1774789964021280500,15.485280517578126,-53.03999710083008,14.279999732971191,11.039999961853027
1774789964031351600,15.4953515625,-55.02000045776367,14.09999942779541,11.219999313354492
1774789964061594400,15.525594482421875,-54.599998474121094,13.559999465942383,11.34000015258789
1774789964071665200,15.5356650390625,-54.29999923706055,14.039999961853027,11.34000015258789
1774789964081705500,15.54570556640625,-53.81999969482422,14.460000038146973,11.699999809265137
1774789964091776300,15.5557763671875,-54.599998474121094,14.75999927520752,11.219999313354492
1774789964101847000,15.565846923828126,-55.02000045776367,16.020000457763672,12.359999656677246
1774789964111948300,15.5759482421875,-54,16.020000457763672,13.319999694824219
1774789964121988600,15.585988525390626,-53.87999725341797,15,12.59999942779541
1774789964152201000,15.616200927734376,-55.55999755859375,12.719999313354492,10.619999885559082
1774789964162241300,15.6262412109375,-54.84000015258789,12.59999942779541,10.559999465942383
1774789964172342500,15.636342529296876,-53.7599983215332,12.420000076293945,10.979999542236328
1774789964182413600,15.64641357421875,-52.37999725341797,12.420000076293945,11.399999618530273
1774789964192453600,15.65645361328125,-52.13999938964844,13.019999504089355,11.819999694824219
1774789964202524400,15.6665244140625,-52.68000030517578,13.5,12.239999771118164
1774789964212626000,15.6766259765625,-53.939998626708984,13.619999885559082,12
1774789964222666200,15.686666259765625,-53.87999725341797,13.199999809265137,11.579999923706055
1774789964262919000,15.7269189453125,-52.439998626708984,13.799999237060547,12.84000015258789
1774789964272989700,15.73698974609375,-54.36000061035156,13.199999809265137,12.59999942779541
1774789964283060500,15.747060546875,-55.5,13.799999237060547,12.719999313354492
1774789964293131300,15.75713134765625,-54.84000015258789,14.219999313354492,13.4399995803833
1774789964303232500,15.767232421875,-53.63999938964844,13.679999351501465,12
1774789964313272800,15.77727294921875,-53.21999740600586,13.979999542236328,11.699999809265137
1774789964323343600,15.787343505859376,-53.57999801635742,13.859999656677246,11.279999732971191
1774789964333384000,15.797384033203125,-54.71999740600586,13.920000076293945,10.559999465942383
1774789964363626800,15.827626708984376,-56.7599983215332,14.519999504089355,11.579999923706055
1774789964373697500,15.837697509765626,-55.86000061035156,14.460000038146973,11.519999504089355
1774789964383737900,15.84773779296875,-55.86000061035156,14.579999923706055,11.279999732971191
1774789964393808600,15.85780859375,-55.619998931884766,14.09999942779541,10.800000190734863
1774789964403879400,15.86787939453125,-55.97999954223633,13.5,10.679999351501465
1774789964413919700,15.877919677734376,-56.57999801635742,13.079999923706055,10.800000190734863
1774789964424021000,15.88802099609375,-56.69999694824219,13.139999389648438,10.859999656677246
1774789964434092000,15.898092041015625,-56.81999969482422,13.019999504089355,11.15999984741211
1774789964464304400,15.928304443359375,-57.119998931884766,12.899999618530273,10.4399995803833
1774789964474375200,15.938375244140625,-55.619998931884766,13.559999465942383,11.039999961853027
1774789964484476400,15.948476318359376,-53.52000045776367,13.559999465942383,11.09999942779541
1774789964494577700,15.95857763671875,-53.57999801635742,13.979999542236328,11.219999313354492
1774789964504679200,15.96867919921875,-53.7599983215332,14.279999732971191,11.279999732971191
1774789964514750000,15.97875,-55.31999969482422,14.09999942779541,10.559999465942383
1774789964524820700,15.98882080078125,-55.86000061035156,14.09999942779541,11.15999984741211
1774789964534830300,15.998830322265626,-54.47999954223633,13.5,11.219999313354492
1774789964544931800,16.008931884765627,-54.41999816894531,13.559999465942383,10.859999656677246
1774789964575113700,16.03911376953125,-57,13.380000114440918,9.479999542236328
1774789964595255300,16.05925537109375,-57.23999786376953,13.079999923706055,9.300000190734863
1774789964605295600,16.069295654296877,-56.459999084472656,13.859999656677246,10.019999504089355
1774789964615336000,16.0793359375,-56.87999725341797,13.859999656677246,9.960000038146973
1774789964625437200,16.089437255859377,-56.63999938964844,13.799999237060547,9.300000190734863
1774789964635477500,16.0994775390625,-57.05999755859375,14.039999961853027,9.239999771118164
1774789964645517600,16.109517578125,-56.39999771118164,12.960000038146973,8.09999942779541
1774789964675669000,16.1396689453125,-53.69999694824219,13.5,8.09999942779541
1774789964695841300,16.15984130859375,-55.86000061035156,13.799999237060547,8.09999942779541
1774789964705942500,16.169942626953127,-55.79999923706055,14.15999984741211,8.460000038146973
1774789964716013300,16.180013427734377,-54.41999816894531,14.09999942779541,8.819999694824219
1774789964726084000,16.190083984375,-53.21999740600586,13.319999694824219,8.15999984741211
1774789964736155000,16.20015478515625,-53.52000045776367,13.319999694824219,8.15999984741211
1774789964746256100,16.210256103515626,-54.84000015258789,13.4399995803833,7.5
1774789964796579600,16.26057958984375,-53.939998626708984,14.75999927520752,7.739999771118164
1774789964806620000,16.270619873046876,-54.29999923706055,14.819999694824219,7.019999980926514
1774789964816660200,16.28066015625,-55.31999969482422,15.179999351501465,7.559999942779541
1774789964826761500,16.290761474609376,-55.86000061035156,14.9399995803833,7.859999656677246
1774789964836832500,16.30083251953125,-56.03999710083008,14.279999732971191,7.619999885559082
1774789964846872600,16.31087255859375,-55.55999755859375,13.559999465942383,7.37999963760376
1774789964877054500,16.341054443359376,-56.15999984741211,13.859999656677246,7.980000019073486
1774789964887125200,16.351125244140626,-56.279998779296875,14.15999984741211,8.760000228881836
1774789964897196000,16.361196044921876,-55.07999801635742,14.9399995803833,8.880000114440918
1774789964907267000,16.37126708984375,-53.57999801635742,14.9399995803833,8.09999942779541
1774789964917307100,16.38130712890625,-53.52000045776367,15.059999465942383,7.919999599456787
1774789964927378000,16.3913779296875,-54.119998931884766,15.479999542236328,7.019999980926514
1774789964937479400,16.4014794921875,-55.31999969482422,15.719999313354492,6.480000019073486
1774789964947550200,16.41155029296875,-55.31999969482422,15.899999618530273,6.779999732971191
1774789964977793000,16.44179296875,-52.439998626708984,15.839999198913574,7.799999713897705
1774789964987833300,16.451833251953126,-53.34000015258789,16.139999389648438,7.559999942779541
1774789964997843200,16.46184326171875,-53.81999969482422,16.920000076293945,7.619999885559082
1774789965007944400,16.4719443359375,-53.63999938964844,16.799999237060547,7.679999828338623
1774789965018015200,16.48201513671875,-52.5,16.31999969482422,7.739999771118164
1774789965028086000,16.4920859375,-51.84000015258789,16.799999237060547,8.279999732971191
1774789965038096000,16.502095947265627,-52.55999755859375,15.65999984741211,7.919999599456787
1774789965048136200,16.51213623046875,-53.939998626708984,15.839999198913574,7.859999656677246
1774789965058176500,16.522176513671877,-55.68000030517578,15.960000038146973,7.440000057220459
1774789965088449800,16.55244970703125,-51.84000015258789,15.59999942779541,7.980000019073486
1774789965098490000,16.562489990234376,-51.959999084472656,15.059999465942383,7.559999942779541
1774789965108591400,16.57259130859375,-54.23999786376953,14.819999694824219,7.440000057220459
1774789965118662100,16.582662109375,-56.099998474121094,15.059999465942383,8.34000015258789
1774789965128733000,16.59273291015625,-55.97999954223633,14.75999927520752,7.919999599456787
1774789965138834400,16.60283447265625,-54.41999816894531,14.699999809265137,7.980000019073486
1774789965148905200,16.6129052734375,-52.19999694824219,15.239999771118164,8.220000267028809
1774789965158976000,16.62297607421875,-52.02000045776367,15.299999237060547,7.919999599456787
1774789965189158000,16.653157958984377,-56.099998474121094,15,8.519999504089355
1774789965199228700,16.663228759765627,-54.779998779296875,15.359999656677246,8.399999618530273
1774789965209269000,16.67326904296875,-54.119998931884766,16.020000457763672,8.639999389648438
1774789965219339800,16.68333984375,-54.05999755859375,16.19999885559082,8.9399995803833
1774789965229410600,16.69341064453125,-54.89999771118164,16.079999923706055,9.779999732971191
1774789965239420200,16.703420166015626,-56.459999084472656,15.719999313354492,10.380000114440918
1774789965249460500,16.71346044921875,-55.619998931884766,15.059999465942383,10.739999771118164
1774789965269602000,16.73360205078125,-53.099998474121094,13.139999389648438,10.079999923706055
1774789965289744000,16.753743896484377,-53.34000015258789,13.319999694824219,9.179999351501465
1774789965299784000,16.763783935546876,-53.7599983215332,14.639999389648438,9.59999942779541
1774789965309885400,16.773885498046877,-52.73999786376953,15.960000038146973,10.139999389648438
1774789965319956200,16.783956298828127,-51.599998474121094,16.31999969482422,10.679999351501465
1774789965330027000,16.794027099609377,-50.87999725341797,15.899999618530273,11.09999942779541
1774789965340097800,16.804097900390627,-51.89999771118164,15.299999237060547,10.859999656677246
1774789965350138000,16.81413818359375,-52.619998931884766,14.819999694824219,10.4399995803833
1774789965360178400,16.824178466796877,-54.18000030517578,14.639999389648438,10.559999465942383
1774789965370218500,16.834218505859376,-54.18000030517578,14.699999809265137,10.920000076293945
1774789965380289500,16.84428955078125,-52.07999801635742,14.519999504089355,11.09999942779541
1774789965410502000,16.874501953125,-52.13999938964844,13.559999465942383,9.539999961853027
1774789965420572700,16.88457275390625,-54.18000030517578,13.4399995803833,9.239999771118164
1774789965430643500,16.8946435546875,-54.05999755859375,13.619999885559082,10.139999389648438
1774789965440714200,16.90471435546875,-52.619998931884766,13.739999771118164,10.380000114440918
1774789965450785000,16.914784912109376,-52.19999694824219,13.5,10.619999885559082
1774789965460855800,16.924855712890626,-52.02000045776367,13.559999465942383,10.859999656677246
1774789965470896000,16.934896240234377,-53.52000045776367,13.619999885559082,10.260000228881836
1774789965511148800,16.975148681640626,-51.84000015258789,14.639999389648438,10.079999923706055
1774789965521189000,16.985189208984377,-52.19999694824219,14.699999809265137,10.319999694824219
1774789965531260000,16.995260009765627,-53.63999938964844,14.399999618530273,10.260000228881836
1774789965541300200,17.00530029296875,-54.779998779296875,15.059999465942383,10.199999809265137
1774789965551371000,17.01537109375,-55.07999801635742,14.579999923706055,10.5
1774789965561441800,17.02544189453125,-53.81999969482422,14.75999927520752,10.739999771118164
1774789965571512600,17.0355126953125,-52.73999786376953,14.639999389648438,10.739999771118164
1774789965601755400,17.06575537109375,-55.55999755859375,14.699999809265137,9.479999542236328
1774789965611826200,17.075826171875,-55.07999801635742,15.59999942779541,9.84000015258789
1774789965621927700,17.085927734375,-53.939998626708984,15.119999885559082,9.119999885559082
1774789965631998500,17.09599853515625,-52.68000030517578,14.460000038146973,8.639999389648438
1774789965642038800,17.106038818359377,-52.68000030517578,14.460000038146973,8.639999389648438
1774789965652078800,17.116078857421876,-53.63999938964844,13.679999351501465,8.15999984741211
1774789965662150000,17.12614990234375,-53.69999694824219,14.279999732971191,9.539999961853027
1774789965672220700,17.136220703125,-53.15999984741211,14.9399995803833,10.019999504089355
1774789965702433000,17.16643310546875,-52.37999725341797,13.979999542236328,8.639999389648438
1774789965712473300,17.176473388671877,-53.21999740600586,14.579999923706055,8.880000114440918
1774789965722513700,17.186513671875,-54.53999710083008,14.9399995803833,8.519999504089355
1774789965732553700,17.1965537109375,-53.939998626708984,15.719999313354492,9.719999313354492
1774789965742624500,17.20662451171875,-51.599998474121094,15.359999656677246,8.9399995803833
1774789965752726000,17.21672607421875,-51.53999710083008,14.039999961853027,7.319999694824219
1774789965762796800,17.226796875,-51.779998779296875,14.09999942779541,7.259999752044678
1774789965772867600,17.23686767578125,-53.63999938964844,13.920000076293945,6.960000038146973
1774789965782938400,17.2469384765625,-55.07999801635742,14.880000114440918,7.5
1774789965833292300,17.297292236328126,-54.53999710083008,15.839999198913574,8.880000114440918
1774789965843332600,17.30733251953125,-54.71999740600586,15.779999732971191,8.15999984741211
1774789965853403400,17.3174033203125,-54.71999740600586,15.839999198913574,8.09999942779541
1774789965863474200,17.32747412109375,-53.57999801635742,15.420000076293945,7.679999828338623
1774789965873545000,17.337544921875,-53.7599983215332,15.359999656677246,7.259999752044678
1774789965883615700,17.34761572265625,-54.599998474121094,15.059999465942383,7.679999828338623
1774789965903757300,17.36775732421875,-55.79999923706055,16.260000228881836,7.679999828338623
1774789965923838000,17.387837890625,-52.68000030517578,16.979999542236328,7.37999963760376
1774789965933939200,17.397939208984376,-51.71999740600586,16.559999465942383,7.199999809265137
1774789965943979500,17.4079794921875,-52.68000030517578,15.839999198913574,7.619999885559082
1774789965954019800,17.418019775390626,-53.81999969482422,15.59999942779541,7.259999752044678
1774789965964060200,17.42806005859375,-54.84000015258789,15.719999313354492,6.839999675750732
1774789965974161400,17.438161376953126,-54.119998931884766,16.139999389648438,7.019999980926514
1774789966014383600,17.478383544921876,-52.91999816894531,16.19999885559082,5.639999866485596
1774789966024484900,17.48848486328125,-51.47999954223633,16.260000228881836,6.539999961853027
1774789966034586400,17.49858642578125,-52.07999801635742,16.979999542236328,7.559999942779541
1774789966044657200,17.5086572265625,-51.36000061035156,16.920000076293945,8.039999961853027
1774789966054728000,17.51872802734375,-51.959999084472656,15.719999313354492,7.799999713897705
1774789966064829200,17.5288291015625,-53.81999969482422,15.960000038146973,7.739999771118164
1774789966074900000,17.53889990234375,-52.91999816894531,16.139999389648438,7.5
1774789966084970800,17.548970703125,-52.79999923706055,15.479999542236328,6.179999828338623
1774789966105143000,17.56914306640625,-51.65999984741211,16.3799991607666,5.759999752044678
1774789966135385900,17.5993857421875,-54.119998931884766,16.260000228881836,4.859999656677246
1774789966145456600,17.60945654296875,-52.86000061035156,17.15999984741211,5.940000057220459
1774789966155558000,17.619557861328126,-52.73999786376953,16.619998931884766,5.579999923706055
1774789966165598200,17.62959814453125,-53.21999740600586,16.440000534057617,5.819999694824219
1774789966175669000,17.6396689453125,-54.599998474121094,16.079999923706055,5.21999979019165
1774789966185739800,17.64973974609375,-56.279998779296875,15.839999198913574,4.980000019073486
1774789966195810600,17.659810546875,-56.279998779296875,16.85999870300293,5.699999809265137
1774789966225931500,17.689931640625,-54,17.34000015258789,5.099999904632568
1774789966236032800,17.70003271484375,-53.81999969482422,17.81999969482422,4.980000019073486
1774789966246103600,17.710103515625,-53.52000045776367,18.600000381469727,6.119999885559082
1774789966256205000,17.720205078125,-54.05999755859375,18.600000381469727,5.759999752044678
1774789966266275800,17.73027587890625,-54.119998931884766,18.479999542236328,6
