time,seconds_elapsed,z,y,x
1774789947563004700,-0.972995361328125,8.686163902282715,2.5019407272338867,-2.492363929748535
1774789947582646300,-0.953353759765625,8.595184326171875,3.0142998695373535,-1.7812861204147339
1774789947592456200,-0.943543701171875,8.547300338745117,3.3734302520751953,-1.5921441316604614
1774789947602366000,-0.933634033203125,8.44195556640625,3.6343982219696045,-1.6184803247451782
1774789947612406000,-0.923593994140625,8.60236644744873,3.670311212539673,-1.7405846118927002
1774789947622476800,-0.913523193359375,8.592789649963379,3.529053211212158,-1.9321208000183105
1774789947632547800,-0.9034521484375,8.722076416015625,3.383007049560547,-2.0015525817871094
1774789947642588000,-0.893412109375,8.753201484680176,3.308786630630493,-1.889025092124939
1774789947652658700,-0.88334130859375,8.779537200927734,3.2154128551483154,-1.6400281190872192
1774789947662729700,-0.873270263671875,8.820239067077637,3.2369606494903564,-1.4293384552001953
1774789947692942000,-0.843057861328125,9.05487060546875,3.2800562381744385,-1.5705963373184204
1774789947713022500,-0.8229775390625,8.932766914367676,3.1316158771514893,-1.9297266006469727
1774789947723093500,-0.812906494140625,8.858546257019043,3.136404275894165,-1.9105730056762695
1774789947733164300,-0.802835693359375,8.83699893951416,3.1651346683502197,-1.8195933103561401
1774789947743204400,-0.792795654296875,8.956708908081055,3.0765492916107178,-1.6304513216018677
1774789947753244700,-0.78275537109375,8.992621421813965,3.1699230670928955,-1.5131354331970215
1774789947763315500,-0.7726845703125,9.05247688293457,3.332728862762451,-1.53707754611969
1774789947813669600,-0.722330322265625,9.062053680419922,2.7222073078155518,-1.6304513216018677
1774789947823710000,-0.7122900390625,8.925583839416504,2.7222073078155518,-1.4891934394836426
1774789947833780700,-0.70221923828125,8.975862503051758,2.762908697128296,-1.3000515699386597
1774789947853952800,-0.682047119140625,8.98543930053711,3.050212860107422,-1.1540051698684692
1774789947864023600,-0.6719765625,9.047688484191895,2.9927520751953125,-1.314416766166687
1774789947874064000,-0.66193603515625,9.081207275390625,2.8155810832977295,-1.534683346748352
1774789947884104200,-0.651895751953125,8.999804496765137,2.8874073028564453,-1.5442601442337036
1774789947894205400,-0.641794677734375,8.975862503051758,2.959233283996582,-1.414973258972168
1774789947904276200,-0.631723876953125,9.028534889221191,3.0358476638793945,-1.2689268589019775
1774789947914377500,-0.62162255859375,9.038111686706543,2.9448680877685547,-1.1444283723831177
1774789947924448300,-0.6115517578125,9.023746490478516,2.8395233154296875,-1.1994950771331787
1774789947934519000,-0.60148095703125,8.968679428100586,2.647987127304077,-1.3000515699386597
1774789947944590000,-0.591409912109375,8.9064302444458,2.604891538619995,-1.3982137441635132
1774789947954660900,-0.581339111328125,8.99740982055664,2.5498247146606445,-1.400607943534851
1774789947964731600,-0.571268310546875,8.954314231872559,2.676717519760132,-1.4413094520568848
1774789947994974500,-0.541025634765625,8.995016098022461,2.9735984802246094,-1.558625340461731
1774789948005075700,-0.53092431640625,9.10993766784668,3.00711727142334,-1.5969325304031372
1774789948015146500,-0.520853515625,9.10993766784668,2.87064790725708,-1.5658079385757446
1774789948025217300,-0.51078271484375,9.172186851501465,2.7916390895843506,-1.6879122257232666
1774789948035257600,-0.500742431640625,9.095572471618652,2.849100112915039,-1.7693150043487549
1774789948045359000,-0.490640869140625,9.0859956741333,2.9089550971984863,-1.6687586307525635
1774789948055460400,-0.48053955078125,9.062053680419922,2.8993782997131348,-1.6400281190872192
1774789948065561600,-0.4704384765625,9.028534889221191,2.8874073028564453,-1.623268723487854
1774789948075632400,-0.46036767578125,9.119514465332031,2.913743495941162,-1.5418659448623657
1774789948115976700,-0.420023193359375,9.141061782836914,2.832340717315674,-1.6136919260025024
1774789948126047500,-0.409952392578125,9.131484985351562,2.896984100341797,-1.6831238269805908
1774789948136148700,-0.399851318359375,9.102754592895508,2.8179752826690674,-1.6328455209732056
1774789948146250200,-0.389749755859375,9.05487060546875,2.896984100341797,-1.558625340461731
1774789948156321000,-0.379678955078125,9.062053680419922,3.0573954582214355,-1.5490485429763794
1774789948166391800,-0.369608154296875,8.983044624328613,3.064578056335449,-1.5203180313110352
1774789948176462600,-0.359537353515625,8.99740982055664,3.1268274784088135,-1.601720929145813
1774789948186563800,-0.349436279296875,9.045293807983398,2.9975404739379883,-1.6376339197158813
1774789948216776200,-0.319223876953125,9.026140213012695,2.719813108444214,-1.4987702369689941
1774789948226847000,-0.309153076171875,9.090784072875977,2.693476915359497,-1.4676456451416016
1774789948236917800,-0.299082275390625,9.057265281677246,2.8850131034851074,-1.534683346748352
1774789948246988500,-0.289011474609375,9.057265281677246,2.959233283996582,-1.623268723487854
1774789948257090000,-0.278909912109375,9.064447402954102,2.8993782997131348,-1.6639702320098877
1774789948267160800,-0.268839111328125,9.102754592895508,2.985569477081299,-1.6065093278884888
1774789948277201200,-0.258798828125,9.11233139038086,2.9448680877685547,-1.5131354331970215
1774789948287272000,-0.24872802734375,9.083600997924805,2.937685489654541,-1.4700398445129395
1774789948317453800,-0.218546142578125,9.138668060302734,2.6216509342193604,-1.6735470294952393
1774789948327524600,-0.208475341796875,9.083600997924805,2.626439332962036,-1.5945383310317993
1774789948337625900,-0.1983740234375,9.11233139038086,2.6455929279327393,-1.522712230682373
1774789948347727000,-0.18827294921875,9.078812599182129,2.626439332962036,-1.4676456451416016
1774789948357798000,-0.1782021484375,9.038111686706543,2.5929205417633057,-1.4963760375976562
1774789948367838200,-0.168161865234375,9.059659004211426,2.5929205417633057,-1.4413094520568848
1774789948377939500,-0.158060546875,9.10993766784668,2.5737667083740234,-1.53707754611969
1774789948388041000,-0.147958984375,9.081207275390625,2.6599581241607666,-1.558625340461731
1774789948398111700,-0.13788818359375,9.095572471618652,2.7222073078155518,-1.5682021379470825
1774789948428385000,-0.107614990234375,9.229647636413574,2.7102363109588623,-1.5538369417190552
1774789948438455800,-0.097544189453125,9.26795482635498,2.6623523235321045,-1.5083470344543457
1774789948448557300,-0.087442626953125,9.2033109664917,2.5785553455352783,-1.5897499322891235
1774789948458628000,-0.077371826171875,9.157821655273438,2.583343744277954,-1.5969325304031372
1774789948468729300,-0.067270751953125,9.220070838928223,2.6024973392486572,-1.5658079385757446
1774789948478739200,-0.0572607421875,9.363722801208496,2.607285737991333,-1.53707754611969
1774789948488779500,-0.047220458984375,9.296685218811035,2.561795711517334,-1.601720929145813
1774789948498850300,-0.037149658203125,9.169792175292969,2.5019407272338867,-1.647210717201233
1774789948518961400,-0.01703857421875,8.99740982055664,2.628833532333374,-1.5705963373184204
1774789948529032200,-0.0069677734375,9.050082206726074,2.741360902786255,-1.4413094520568848
1774789948539072300,0.003072265625,9.074024200439453,2.7916390895843506,-1.4269442558288574
1774789948549173800,0.013173828125,9.136273384094238,2.691082715988159,-1.4053963422775269
1774789948559183400,0.023183349609375,9.11233139038086,2.5258827209472656,-1.4724340438842773
1774789948569223700,0.0332236328125,9.14345645904541,2.3989901542663574,-1.50355863571167
1774789948579264000,0.043263916015625,9.121908187866211,2.1739351749420166,-1.3886369466781616
1774789948589334800,0.053334716796875,9.205705642700195,2.252943754196167,-1.3862427473068237
1774789948599405600,0.063405517578125,9.126696586608887,2.4133553504943848,-1.2521674633026123
1774789948609446000,0.07344580078125,9.097966194152832,2.612074136734009,-1.359906554222107
1774789948639689000,0.10368896484375,9.097966194152832,2.894589900970459,-1.4221558570861816
1774789948649790200,0.113790283203125,9.117119789123535,2.8610711097717285,-1.4700398445129395
1774789948659861000,0.123861083984375,9.205705642700195,2.7892448902130127,-1.434126853942871
1774789948669931800,0.133931884765625,9.255983352661133,2.6240451335906982,-1.3646949529647827
1774789948679941600,0.143941650390625,9.342175483703613,2.4588451385498047,-1.4197616577148438
1774789948690012400,0.154012451171875,9.327810287475586,2.363077163696289,-1.3718775510787964
1774789948700083200,0.164083251953125,9.153033256530762,2.3343467712402344,-1.3934253454208374
1774789948710154000,0.174154052734375,9.138668060302734,2.540247917175293,-1.4317326545715332
1774789948720163600,0.18416357421875,9.198522567749023,2.6024973392486572,-1.479616641998291
1774789948750406700,0.21440673828125,9.232041358947754,2.9328970909118652,-1.4532804489135742
1774789948760477400,0.2244775390625,9.157821655273438,2.8203697204589844,-1.37906014919281
1774789948770578700,0.23457861328125,9.10993766784668,2.8179752826690674,-1.2856862545013428
1774789948780680000,0.244679931640625,9.0859956741333,2.7102363109588623,-1.3838485479354858
1774789948790750700,0.254750732421875,9.174580574035645,2.542642116546631,-1.3742717504501343
1774789948800821800,0.26482177734375,9.105149269104004,2.518700122833252,-1.3958195447921753
1774789948810892500,0.274892578125,9.064447402954102,2.5330653190612793,-1.4173674583435059
1774789948820993800,0.284993896484375,9.11233139038086,2.626439332962036,-1.3766659498214722
1774789948831064600,0.295064697265625,9.165003776550293,2.7246015071868896,-1.292868971824646
1774789948861246500,0.32524658203125,8.944737434387207,2.8586769104003906,-1.3527239561080933
1774789948871286800,0.335286865234375,8.939949035644531,2.7916390895843506,-1.2880805730819702
1774789948881388000,0.345387939453125,8.927978515625,2.7317841053009033,-1.3048399686813354
1774789948891489300,0.3554892578125,8.944737434387207,2.715024709701538,-1.2401964664459229
1774789948901560000,0.36556005859375,9.083600997924805,2.650381326675415,-1.2641384601593018
1774789948911661600,0.37566162109375,9.042900085449219,2.5019407272338867,-1.259350061416626
1774789948921732400,0.385732421875,9.083600997924805,2.5258827209472656,-1.278503656387329
1774789948931833600,0.39583349609375,9.040505409240723,2.5282769203186035,-1.2976573705673218
1774789948962046000,0.4260458984375,9.01895809173584,2.583343744277954,-1.2976573705673218
1774789948972116700,0.43611669921875,9.097966194152832,2.6839001178741455,-1.2641384601593018
1774789948982187500,0.4461875,9.11233139038086,2.631227731704712,-1.3048399686813354
1774789948992289000,0.4562890625,9.205705642700195,2.6623523235321045,-1.316810965538025
1774789949002329000,0.4663291015625,9.272743225097656,2.6024973392486572,-1.3455413579940796
1774789949012430600,0.4764306640625,9.399636268615723,2.5115175247192383,-1.3096283674240112
1774789949022471000,0.486470947265625,9.466673851013184,2.3511061668395996,-1.278503656387329
1774789949032541700,0.496541748046875,9.39245319366455,2.298433542251587,-1.316810965538025
1774789949052683300,0.516683349609375,9.41400146484375,2.4372973442077637,-1.314416766166687
1774789949062754000,0.526754150390625,9.315838813781738,2.473210334777832,-1.3072341680526733
1774789949072855300,0.536855224609375,9.327810287475586,2.5546131134033203,-1.237802267074585
1774789949082895600,0.5468955078125,9.433155059814453,2.5522189140319824,-1.3287819623947144
1774789949092996900,0.556996826171875,9.5408935546875,2.3271639347076416,-1.3886369466781616
1774789949103067600,0.567067626953125,9.57201862335205,2.1308395862579346,-1.4173674583435059
1774789949113138400,0.577138427734375,9.47146224975586,2.123656988143921,-1.3694833517074585
1774789949123209200,0.587209228515625,9.337387084960938,2.1787235736846924,-1.3982137441635132
1774789949133310700,0.597310791015625,9.277531623840332,2.2673089504241943,-1.3431471586227417
1774789949173593900,0.63759375,9.289502143859863,2.3774423599243164,-1.3982137441635132
1774789949183695000,0.647695068359375,9.255983352661133,2.341529369354248,-1.4173674583435059
1774789949193766000,0.657765869140625,9.21288776397705,2.3343467712402344,-1.3503297567367554
1774789949203806200,0.66780615234375,9.2033109664917,2.296039342880249,-1.3479355573654175
1774789949213907700,0.67790771484375,9.167398452758789,2.4396915435791016,-1.256955862045288
1774789949224009000,0.688009033203125,9.258378028869629,2.52109432220459,-1.316810965538025
1774789949234079700,0.698079833984375,9.334992408752441,2.5761611461639404,-1.3838485479354858
1774789949254221300,0.71822119140625,9.2033109664917,2.583343744277954,-1.4413094520568848
1774789949274363000,0.73836279296875,9.253589630126953,2.559401512145996,-1.37906014919281
1774789949284433700,0.74843359375,9.222464561462402,2.5785553455352783,-1.45806884765625
1774789949294504400,0.75850439453125,9.184157371520996,2.585737943649292,-1.4628572463989258
1774789949304606000,0.76860595703125,9.30386734008789,2.6216509342193604,-1.37906014919281
1774789949314676700,0.7786767578125,9.32541561126709,2.58813214302063,-1.3120225667953491
1774789949324747500,0.78874755859375,9.284713745117188,2.516305923461914,-1.3287819623947144
1774789949334818300,0.798818359375,9.227252960205078,2.4684219360351562,-1.3503297567367554
1774789949344919600,0.80891943359375,9.198522567749023,2.499546527862549,-1.4269442558288574
1774789949385263900,0.849263916015625,9.148244857788086,2.4851813316345215,-1.4724340438842773
1774789949395365000,0.859365234375,9.148244857788086,2.4133553504943848,-1.436521053314209
1774789949405405400,0.869405517578125,9.167398452758789,2.427720546722412,-1.2976573705673218
1774789949415506700,0.879506591796875,9.165003776550293,2.3487119674682617,-1.3192051649093628
1774789949425577500,0.889577392578125,9.153033256530762,2.279279947280884,-1.290474772453308
1774789949435648300,0.899648193359375,9.107542991638184,2.1715409755706787,-1.3263877630233765
1774789949445688600,0.9096884765625,9.102754592895508,2.3271639347076416,-1.2761094570159912
1774789949455789800,0.919789794921875,9.045293807983398,2.4444799423217773,-1.1851298809051514
1774789949486002400,0.95000244140625,8.995016098022461,2.652775526046753,-1.2665326595306396
1774789949496103700,0.960103759765625,9.035717010498047,2.7126305103302,-1.192312479019165
1774789949506174500,0.970174560546875,9.062053680419922,2.612074136734009,-1.2210428714752197
1774789949516245200,0.980245361328125,9.157821655273438,2.5953147411346436,-1.2090718746185303
1774789949526316000,0.99031591796875,9.169792175292969,2.451662540435791,-1.2042834758758545
1774789949536386800,1.00038671875,9.23443603515625,2.3989901542663574,-1.2114660739898682
1774789949546457600,1.01045751953125,9.251194953918457,2.293645143508911,-1.2473790645599365
1774789949556528400,1.0205283203125,9.251194953918457,2.293645143508911,-1.2473790645599365
1774789949576700700,1.04070068359375,9.160215377807617,2.497152328491211,-1.1228805780410767
1774789949586771500,1.050771484375,9.150638580322266,2.6024973392486572,-1.173158884048462
1774789949596842200,1.06084228515625,9.289502143859863,2.609679937362671,-1.213860273361206
1774789949606943500,1.070943603515625,9.287108421325684,2.5737667083740234,-1.2761094570159912
1774789949617044700,1.081044677734375,9.390059471130371,2.432508945465088,-1.2617442607879639
1774789949627115500,1.091115478515625,9.394847869873047,2.3511061668395996,-1.2521674633026123
1774789949637217000,1.101217041015625,9.404424667358398,2.3056161403656006,-1.2641384601593018
1774789949647287800,1.111287841796875,9.399636268615723,2.346317768096924,-1.1827356815338135
1774789949657389000,1.12138916015625,9.299078941345215,2.2816741466522217,-1.0558429956436157
1774789949687601400,1.151601318359375,9.289502143859863,2.477998733520508,-1.216254472732544
1774789949697702700,1.16170263671875,9.172186851501465,2.564189910888672,-1.194706678390503
1774789949707773400,1.1717734375,9.17697525024414,2.647987127304077,-1.1899182796478271
1774789949717875000,1.181875,9.186552047729492,2.5929205417633057,-1.235408067703247
1774789949727945700,1.19194580078125,9.246406555175781,2.494758129119873,-1.2617442607879639
1774789949737986000,1.201986083984375,9.327810287475586,2.365471363067627,-1.3862427473068237
1774789949748056800,1.212056884765625,9.275136947631836,2.4157495498657227,-1.3742717504501343
1774789949768137200,1.23213720703125,9.23443603515625,2.43011474609375,-1.3670891523361206
1774789949818521900,1.28252197265625,9.141061782836914,2.410961151123047,-1.335964560508728
1774789949828592600,1.292592529296875,9.196128845214844,2.3798365592956543,-1.3766659498214722
1774789949838663400,1.302663330078125,9.198522567749023,2.3798365592956543,-1.3646949529647827
1774789949848764700,1.3127646484375,9.191340446472168,2.4396915435791016,-1.3718775510787964
1774789949858866200,1.3228662109375,9.090784072875977,2.4468741416931152,-1.292868971824646
1774789949868937000,1.33293701171875,9.184157371520996,2.5282769203186035,-1.3766659498214722
1774789949879007700,1.3430078125,9.172186851501465,2.434903144836426,-1.4293384552001953
1774789949889048000,1.353048095703125,9.265560150146484,2.470816135406494,-1.4245500564575195
1774789949899118800,1.363118896484375,9.224859237670898,2.427720546722412,-1.290474772453308
1774789949909189600,1.373189697265625,9.191340446472168,2.4660277366638184,-1.280897855758667
1774789949919260400,1.383260498046875,9.248801231384277,2.492363929748535,-1.3335703611373901
1774789949929300700,1.39330078125,9.27034854888916,2.3750481605529785,-1.3838485479354858
1774789949939371500,1.40337158203125,9.263166427612305,2.3918075561523438,-1.414973258972168
1774789949949442300,1.4134423828125,9.184157371520996,2.367865562438965,-1.460463047027588
1774789949999857400,1.463857421875,9.188945770263672,2.451662540435791,-1.2976573705673218
1774789950009928200,1.47392822265625,9.2033109664917,2.4899697303771973,-1.3623007535934448
1774789950019968300,1.48396826171875,9.121908187866211,2.470816135406494,-1.3192051649093628
1774789950030069800,1.49406982421875,9.224859237670898,2.4660277366638184,-1.3431471586227417
1774789950040171000,1.5041708984375,9.346963882446289,2.4157495498657227,-1.3479355573654175
1774789950050180900,1.514180908203125,9.339780807495117,2.5019407272338867,-1.3096283674240112
1774789950060251600,1.524251708984375,9.277531623840332,2.5953147411346436,-1.2521674633026123
1774789950070322400,1.534322509765625,9.277531623840332,2.6024973392486572,-1.278503656387329
1774789950080362800,1.54436279296875,9.363722801208496,2.5737667083740234,-1.235408067703247
1774789950100534800,1.56453466796875,9.404424667358398,2.3918075561523438,-1.290474772453308
1774789950110605600,1.57460546875,9.342175483703613,2.4013843536376953,-1.357512354850769
1774789950120706800,1.584706787109375,9.402029991149902,2.387019157409668,-1.316810965538025
1774789950130747100,1.5947470703125,9.411606788635254,2.3558945655822754,-1.3886369466781616
1774789950140818000,1.60481787109375,9.406818389892578,2.3511061668395996,-1.37906014919281
1774789950150919400,1.61491943359375,9.387664794921875,2.279279947280884,-1.357512354850769
1774789950160990200,1.624990234375,9.44752025604248,2.2577321529388428,-1.3718775510787964
1774789950171030300,1.6350302734375,9.421183586120605,2.279279947280884,-1.3311761617660522
1774789950181131800,1.6451318359375,9.44752025604248,2.2697031497955322,-1.3934253454208374
1774789950211374600,1.67537451171875,9.27034854888916,2.341529369354248,-1.3934253454208374
1774789950221445400,1.6854453125,9.294290542602539,2.31758713722229,-1.3072341680526733
1774789950231546600,1.695546630859375,9.258378028869629,2.3511061668395996,-1.4077905416488647
1774789950241648000,1.705648193359375,9.21288776397705,2.3056161403656006,-1.335964560508728
1774789950251688400,1.7156884765625,9.184157371520996,2.3367409706115723,-1.338358759880066
1774789950261759200,1.72575927734375,9.097966194152832,2.4420857429504395,-1.335964560508728
1774789950271860500,1.735860595703125,8.999804496765137,2.410961151123047,-1.1875240802764893
1774789950281931300,1.74593115234375,9.05487060546875,2.427720546722412,-1.237802267074585
1774789950292002000,1.756001953125,9.08838939666748,2.406172752380371,-1.314416766166687
1774789950322214400,1.78621435546875,9.141061782836914,2.4803929328918457,-1.235408067703247
1774789950342417200,1.806417236328125,9.095572471618652,2.22660756111145,-1.4844050407409668
1774789950352488000,1.816488037109375,9.074024200439453,2.2146365642547607,-1.4915876388549805
1774789950362589200,1.826589111328125,9.10993766784668,2.2697031497955322,-1.4460978507995605
1774789950372690400,1.8366904296875,9.150638580322266,2.3295583724975586,-1.434126853942871
1774789950382792000,1.8467919921875,9.148244857788086,2.33913516998291,-1.3335703611373901
1774789950413034800,1.87703466796875,9.167398452758789,2.298433542251587,-1.2856862545013428
1774789950423105500,1.88710546875,9.162610054016113,2.1763293743133545,-1.2976573705673218
1774789950433176300,1.89717626953125,9.191340446472168,2.233790159225464,-1.4101848602294922
1774789950443216600,1.907216552734375,9.124302864074707,2.296039342880249,-1.3479355573654175
1774789950453318000,1.91731787109375,9.244012832641602,2.434903144836426,-1.3886369466781616
1774789950473459700,1.937459716796875,9.29189682006836,2.5258827209472656,-1.3718775510787964
1774789950483469300,1.94746923828125,9.191340446472168,2.5043349266052246,-1.3862427473068237
1774789950513712400,1.97771240234375,9.26795482635498,2.360682964324951,-1.314416766166687
1774789950523722000,1.987721923828125,9.287108421325684,2.406172752380371,-1.2761094570159912
1774789950533792800,1.997792724609375,9.301473617553711,2.31758713722229,-1.3048399686813354
1774789950543863600,2.007863525390625,9.287108421325684,2.408566951751709,-1.2761094570159912
1774789950553965000,2.017965087890625,9.299078941345215,2.3271639347076416,-1.3096283674240112
1774789950563974700,2.027974609375,9.296685218811035,2.2601263523101807,-1.3120225667953491
1774789950574076200,2.038076171875,9.289502143859863,2.279279947280884,-1.2330138683319092
1774789950594217700,2.0582177734375,9.339780807495117,2.276885747909546,-1.290474772453308
1774789950604227300,2.068227294921875,9.385271072387695,2.1523873805999756,-1.3048399686813354
1774789950644541200,2.108541259765625,9.253589630126953,2.1092917919158936,-1.2066776752471924
1774789950654612000,2.118612060546875,9.282320022583008,2.1787235736846924,-1.194706678390503
1774789950664682800,2.128682861328125,9.308655738830566,2.3487119674682617,-1.2234370708465576
1774789950674753500,2.13875341796875,9.251194953918457,2.3726539611816406,-1.2473790645599365
1774789950684824300,2.14882421875,9.210494041442871,2.298433542251587,-1.290474772453308
1774789950694925600,2.158925537109375,9.32302188873291,2.3965959548950195,-1.2761094570159912
1774789950704966000,2.1689658203125,9.229647636413574,2.2457611560821533,-1.2545616626739502
1774789950715036700,2.17903662109375,9.102754592895508,2.1978771686553955,-1.3311761617660522
1774789950725107500,2.189107421875,9.155426979064941,2.248155355453491,-1.3024457693099976
1774789950775553000,2.239552978515625,9.174580574035645,2.4588451385498047,-1.3239935636520386
1774789950785623800,2.249623779296875,9.23443603515625,2.2385785579681396,-1.1803414821624756
1774789950795725300,2.259725341796875,9.306262016296387,2.231395959854126,-1.2497732639312744
1774789950805765400,2.269765380859375,9.339780807495117,2.078166961669922,-1.2282254695892334
1774789950815867000,2.279866943359375,9.275136947631836,2.190694570541382,-1.2761094570159912
1774789950825907200,2.2899072265625,9.248801231384277,2.207453966140747,-1.170764684677124
1774789950835978000,2.29997802734375,9.246406555175781,2.2649147510528564,-1.2473790645599365
1774789950876322000,2.340322021484375,9.255983352661133,2.209848165512085,-1.0678139925003052
1774789950886423600,2.350423583984375,9.23682975769043,2.2242133617401123,-1.1348515748977661
1774789950896494300,2.360494384765625,9.224859237670898,2.3511061668395996,-1.1468225717544556
1774789950906595600,2.370595703125,9.141061782836914,2.2912509441375732,-1.1683704853057861
1774789950916666400,2.380666259765625,9.009381294250488,2.33913516998291,-1.0845733880996704
1774789950926737200,2.390737060546875,9.081207275390625,2.31758713722229,-0.9911994934082031
1774789950936808000,2.400807861328125,9.138668060302734,2.343923568725586,-0.9457096457481384
1774789950956949500,2.420949462890625,9.119514465332031,2.346317768096924,-0.8164227604866028
1774789950967051000,2.431051025390625,9.124302864074707,2.3104045391082764,-0.8858546018600464
1774789950977121800,2.441121826171875,9.222464561462402,2.209848165512085,-0.8954314589500427
1774789950987223000,2.45122314453125,9.306262016296387,2.190694570541382,-0.9265560507774353
1774789950997293800,2.4612939453125,9.363722801208496,2.166752576828003,-0.9648633003234863
1774789951007395000,2.47139501953125,9.47146224975586,2.1811177730560303,-0.9911994934082031
1774789951017465900,2.4814658203125,9.411606788635254,2.319981336593628,-0.9600749015808105
1774789951027567400,2.4915673828125,9.390059471130371,2.2888567447662354,-0.9576807022094727
1774789951037638100,2.50163818359375,9.406818389892578,2.319981336593628,-0.8762778043746948
1774789951047739400,2.511739501953125,9.397241592407227,2.296039342880249,-0.8810662031173706
1774789951078043400,2.54204345703125,9.3828763961792,2.075772762298584,-0.8236053586006165
1774789951088114200,2.5521142578125,9.476250648498535,2.142810583114624,-0.828393816947937
1774789951098154500,2.562154541015625,9.373299598693848,2.2242133617401123,-0.8164227604866028
1774789951108225300,2.572225341796875,9.23682975769043,2.2864625453948975,-0.7757213711738586
1774789951118296000,2.582296142578125,9.23443603515625,2.47560453414917,-0.8427590131759644
1774789951128366800,2.592366943359375,9.332598686218262,2.5306711196899414,-0.7876923680305481
1774789951138407200,2.6024072265625,9.241618156433105,2.470816135406494,-0.8259995579719543
1774789951158579200,2.6225791015625,9.279925346374512,2.4875755310058594,-0.9552865028381348
1774789951168650000,2.63264990234375,9.346963882446289,2.3726539611816406,-0.9026140570640564
1774789951178720800,2.642720703125,9.193734169006348,2.3487119674682617,-0.9433154463768005
1774789951188791600,2.65279150390625,9.141061782836914,2.363077163696289,-0.8810662031173706
1774789951198862300,2.6628623046875,9.045293807983398,2.3798365592956543,-0.9026140570640564
1774789951208933000,2.67293310546875,9.167398452758789,2.535459518432617,-0.9528923034667969
1774789951219004000,2.68300390625,9.062053680419922,2.6815059185028076,-0.9816226959228516
1774789951229075000,2.693074951171875,9.042900085449219,2.806004285812378,-0.9457096457481384
1774789951239176200,2.70317626953125,9.064447402954102,2.717418909072876,-0.9528923034667969
1774789951249277400,2.71327734375,9.069235801696777,2.5929205417633057,-0.9050082564353943
1774789951289560600,2.753560546875,9.138668060302734,2.4181437492370605,-0.9433154463768005
1774789951299662000,2.763662109375,9.095572471618652,2.5043349266052246,-0.9528923034667969
1774789951309732900,2.77373291015625,9.042900085449219,2.473210334777832,-0.9672574996948242
1774789951319803600,2.7838037109375,9.081207275390625,2.4181437492370605,-0.9457096457481384
1774789951329874400,2.79387451171875,9.181763648986816,2.322375535964966,-0.9768342971801758
1774789951339945200,2.8039453125,9.308655738830566,2.1308395862579346,-0.9768342971801758
1774789951350016000,2.81401611328125,9.32302188873291,2.0398597717285156,-0.950498104095459
1774789951390299100,2.854299072265625,9.26795482635498,2.1116859912872314,-0.9457096457481384
1774789951400370000,2.864369873046875,9.263166427612305,2.142810583114624,-0.9433154463768005
1774789951410471400,2.874471435546875,9.26795482635498,2.296039342880249,-0.9074024558067322
1774789951420572700,2.88457275390625,9.35893440246582,2.3295583724975586,-0.8978256583213806
1774789951430643500,2.8946435546875,9.50498104095459,2.382230758666992,-0.9552865028381348
1774789951440744700,2.90474462890625,9.47146224975586,2.2146365642547607,-0.8643068075180054
1774789951450846000,2.914845947265625,9.50737476348877,2.2625205516815186,-0.8762778043746948
1774789951460916700,2.924916748046875,9.375694274902344,2.161964178085327,-0.8882488012313843
1774789951501200100,2.9652001953125,9.478644371032715,2.518700122833252,-0.7134721279144287
1774789951511301400,2.97530126953125,9.301473617553711,2.6575639247894287,-0.8667010068893433
1774789951521372200,2.9853720703125,9.3828763961792,2.7533318996429443,-0.8164227604866028
1774789951531443000,2.99544287109375,9.375694274902344,2.8155810832977295,-0.9313444495201111
1774789951541513700,3.005513671875,9.44991397857666,2.717418909072876,-0.8331822156906128
1774789951551584500,3.01558447265625,9.53849983215332,2.655169725418091,-0.8810662031173706
1774789951561686000,3.02568603515625,9.53849983215332,2.4803929328918457,-0.9672574996948242
1774789951602030000,3.066030029296875,9.916783332824707,2.1092917919158936,-1.1635819673538208
1774789951612131600,3.076131591796875,10.043676376342773,2.027888774871826,-1.1899182796478271
1774789951622202400,3.086202392578125,10.074800491333008,2.0661959648132324,-1.280897855758667
1774789951632273200,3.096273193359375,10.196905136108398,2.1523873805999756,-1.292868971824646
1774789951642374400,3.10637451171875,10.378864288330078,2.2361843585968018,-1.482010841369629
1774789951652414700,3.116414794921875,10.398017883300781,2.166752576828003,-1.4724340438842773
1774789951662485500,3.126485595703125,10.594342231750488,2.097320795059204,-1.6711528301239014
1774789951672586800,3.136586669921875,10.754754066467285,2.1092917919158936,-1.9153614044189453
1774789951712809000,3.17680908203125,10.182539939880371,2.382230758666992,-2.3774423599243164
1774789951722879700,3.186879638671875,10.168174743652344,2.3247697353363037,-2.3511061668395996
1774789951732981000,3.19698095703125,10.189722061157227,2.279279947280884,-2.3558945655822754
1774789951742990800,3.206990966796875,10.079588890075684,2.1068975925445557,-2.4205379486083984
1774789951753061600,3.2170615234375,9.95748519897461,1.9512743949890137,-2.5330653190612793
1774789951763163000,3.227162841796875,9.674968719482422,2.006340980529785,-2.7054479122161865
1774789951773233700,3.237233642578125,9.500192642211914,2.078166961669922,-2.8179752826690674
1774789951783335200,3.247335205078125,9.30386734008789,2.3056161403656006,-2.782062292098999
1774789951823679200,3.28767919921875,8.832210540771484,2.33913516998291,-2.827552318572998
1774789951833780700,3.29778076171875,8.892065048217773,2.121262788772583,-2.7748796939849854
1774789951843882000,3.307882080078125,9.006986618041992,1.8722656965255737,-2.7676970958709717
1774789951853952800,3.317952880859375,9.002198219299316,1.6615760326385498,-2.6862943172454834
1774789951864023600,3.3280234375,8.892065048217773,1.50355863571167,-2.695871114730835
1774789951874124800,3.338124755859375,8.880094528198242,1.4772224426269531,-2.7006595134735107
1774789951884195600,3.348195556640625,8.825027465820312,1.53707754611969,-2.5929205417633057
1774789951894266400,3.358266357421875,8.757989883422852,1.5873557329177856,-2.5091233253479004
1774789951934519000,3.39851904296875,8.35097599029541,1.7860745191574097,-2.492363929748535
1774789951944590000,3.408590087890625,8.300697326660156,1.6735470294952393,-2.2625205516815186
1774789951954691300,3.41869140625,8.159439086914062,1.6687586307525635,-2.1595699787139893
1774789951964731600,3.428731689453125,8.195352554321289,1.6424223184585571,-2.0183119773864746
1774789951974833000,3.4388330078125,8.180987358093262,1.5897499322891235,-2.0231003761291504
1774789951984873200,3.448873291015625,8.178592681884766,1.6376339197158813,-1.8962076902389526
1774789951994944000,3.458944091796875,8.197746276855469,1.7357962131500244,-1.9249382019042969
1774789952004953600,3.46895361328125,8.166622161865234,1.8722656965255737,-1.7980455160140991
1774789952015055000,3.47905517578125,8.075642585754395,2.051830768585205,-1.7142484188079834
1774789952025126000,3.4891259765625,8.037335395812988,2.207453966140747,-1.7405846118927002
1774789952035196700,3.49919677734375,8.066065788269043,2.3965959548950195,-1.766920804977417
1774789952045206500,3.50920654296875,8.180987358093262,2.5234885215759277,-1.900996208190918
1774789952055307800,3.519307861328125,8.29830265045166,2.518700122833252,-1.8842366933822632
1774789952065348000,3.52934814453125,8.209717750549316,2.4396915435791016,-2.0231003761291504
1774789952075419000,3.5394189453125,8.209717750549316,2.38462495803833,-2.032677173614502
1774789952085428500,3.549428466796875,8.31985092163086,2.319981336593628,-1.9608511924743652
1774789952095530000,3.559530029296875,8.44434928894043,2.188300371170044,-1.900996208190918
1774789952125712000,3.5897119140625,8.724471092224121,2.1930887699127197,-1.886630892753601
1774789952135782700,3.59978271484375,8.722076416015625,2.298433542251587,-1.9800047874450684
1774789952145853400,3.609853515625,8.628703117370605,2.456450939178467,-1.86508309841156
1774789952155924200,3.61992431640625,8.578424453735352,2.626439332962036,-1.800439715385437
1774789952165964500,3.629964599609375,8.556877136230469,2.626439332962036,-1.7597382068634033
1774789952176065800,3.640065673828125,8.700529098510742,2.765302896499634,-1.7334020137786865
1774789952186106000,3.650106201171875,8.650250434875488,2.676717519760132,-1.742978811264038
1774789952196177000,3.660177001953125,8.69095230102539,2.7533318996429443,-1.7118542194366455
1774789952206247700,3.67024755859375,8.65982723236084,2.7269957065582275,-1.7142484188079834
1774789952216349000,3.680348876953125,8.724471092224121,2.6886885166168213,-1.5753847360610962
1774789952256632300,3.72063232421875,8.939949035644531,2.985569477081299,-1.7334020137786865
1774789952286844700,3.7508447265625,9.253589630126953,3.066972494125366,-1.7477672100067139
1774789952296915500,3.76091552734375,9.23682975769043,2.9903578758239746,-1.8100165128707886
1774789952306986200,3.770986328125,9.299078941345215,3.0142998695373535,-1.7908629179000854
1774789952327127800,3.7911279296875,9.651026725769043,2.911349296569824,-1.6328455209732056
1774789952357279200,3.821279296875,9.955090522766113,2.9328970909118652,-1.5394717454910278
1774789952377481700,3.841481689453125,9.995792388916016,3.090914487838745,-1.5059528350830078
1774789952387552500,3.851552490234375,10.019734382629395,3.203441858291626,-1.6089035272598267
1774789952397654000,3.861654052734375,10.034099578857422,3.2297780513763428,-1.6041151285171509
1774789952407724800,3.871724853515625,10.036493301391602,3.0813376903533936,-1.522712230682373
1774789952417795600,3.881795654296875,10.20887565612793,2.8634653091430664,-1.4101848602294922
1774789952427836000,3.8918359375,10.292673110961914,2.6240451335906982,-1.280897855758667
1774789952468149500,3.9321494140625,11.441889762878418,1.3623007535934448,-2.3726539611816406
1774789952478250800,3.942250732421875,11.343728065490723,1.091755986213684,-2.7533318996429443
1774789952488321500,3.952321533203125,11.219228744506836,0.9959878921508789,-2.7892448902130127
1774789952498392600,3.962392578125,10.99896240234375,1.015141487121582,-2.691082715988159
1774789952508493800,3.972493896484375,10.989385604858398,1.235408067703247,-2.7078421115875244
1774789952518595000,3.982594970703125,10.795455932617188,1.501164436340332,-2.6431987285614014
1774789952528635400,3.992635498046875,10.44350814819336,1.8722656965255737,-2.604891538619995
1774789952558817300,4.0228173828125,8.920795440673828,1.9153614044189453,-1.6304513216018677
1774789952568918500,4.03291845703125,8.865729331970215,1.5825673341751099,-1.1348515748977661
1774789952579019800,4.043019775390625,8.96149730682373,1.278503656387329,-0.7709329724311829
1774789952589090800,4.0530908203125,9.224859237670898,1.0582371950149536,-0.7996633648872375
1774789952599161600,4.06316162109375,9.354146003723145,0.8906430602073669,-1.0821791887283325
1774789952609232400,4.073232421875,9.181763648986816,0.7541735172271729,-1.1899182796478271
1774789952619303200,4.08330322265625,9.071630477905273,0.6727706789970398,-1.2761094570159912
1774789952629343500,4.093343505859375,9.042900085449219,0.6727706789970398,-1.1228805780410767
1774789952649515500,4.113515625,9.433155059814453,0.6823474764823914,-1.3192051649093628
1774789952669657000,4.133656982421875,9.68694019317627,0.5051765441894531,-1.6903064250946045
1774789952679758300,4.14375830078125,9.773131370544434,0.2992752194404602,-1.7693150043487549
1774789952689829000,4.1538291015625,9.801861763000488,0.2777273952960968,-1.8602946996688843
1774789952699869400,4.163869384765625,9.703699111938477,0.16998831927776337,-1.8962076902389526
1774789952709909800,4.17390966796875,9.430760383605957,0.09576806426048279,-1.7980455160140991
1774789952719980500,4.18398046875,9.224859237670898,0.29209262132644653,-1.7166426181793213
1774789952760324900,4.224324951171875,8.24084186553955,1.4508862495422363,-1.434126853942871
1774789952770334500,4.23433447265625,8.152256965637207,1.558625340461731,-1.3048399686813354
1774789952780436000,4.24443603515625,8.070854187011719,1.6304513216018677,-1.2186486721038818
1774789952790506800,4.2545068359375,7.99184513092041,1.6208745241165161,-1.1324573755264282
1774789952800547000,4.264547119140625,7.927201747894287,1.7573440074920654,-1.036689281463623
1774789952810556700,4.274556640625,7.857769966125488,1.723825216293335,-0.8643068075180054
1774789952820658200,4.284658203125,7.82185697555542,1.9081788063049316,-0.7350199222564697
1774789952830729000,4.29472900390625,7.682993412017822,2.094926595687866,-0.730231523513794
1774789952840830200,4.304830322265625,7.572859764099121,2.183511972427368,-0.6847416758537292
1774789952850931500,4.314931396484375,7.735665798187256,2.2457611560821533,-0.6560112833976746
1774789952861032700,4.32503271484375,7.836222171783447,2.2146365642547607,-0.8044517636299133
1774789952871103700,4.335103759765625,8.216899871826172,2.183511972427368,-0.7589619159698486
1774789952891275800,4.35527587890625,8.724471092224121,1.6759412288665771,-0.993593692779541
1774789952901377000,4.365376953125,8.87051773071289,1.5921441316604614,-1.1444283723831177
1774789952911447800,4.37544775390625,8.956708908081055,1.6424223184585571,-1.259350061416626
1774789952921518600,4.3855185546875,9.059659004211426,1.845929503440857,-1.314416766166687
1774789952931589400,4.39558935546875,9.169792175292969,1.9273324012756348,-1.37906014919281
1774789952941691000,4.40569091796875,9.294290542602539,2.030282974243164,-1.5634137392044067
1774789952951731200,4.415731201171875,9.50498104095459,2.0422539710998535,-1.6136919260025024
1774789952971903200,4.4359033203125,9.825803756713867,2.0446481704711914,-1.6950948238372803
1774789952982004500,4.44600439453125,9.93354320526123,1.9776105880737305,-1.6543933153152466
1774789952992075300,4.4560751953125,10.007762908935547,2.0374655723571777,-1.702277421951294
1774789953002146000,4.46614599609375,9.952696800231934,2.054224967956543,-1.659181833267212
1774789953022318300,4.486318359375,9.952696800231934,2.3032219409942627,-1.7046716213226318
1774789953032389000,4.49638916015625,10.062829971313477,2.456450939178467,-1.7884687185287476
1774789953042460000,4.5064599609375,10.168174743652344,2.5306711196899414,-1.843535304069519
1774789953052530700,4.51653076171875,10.438719749450684,2.449268341064453,-2.0590133666992188
1774789953082804000,4.546803955078125,11.104307174682617,2.2577321529388428,-2.4013843536376953
1774789953092874800,4.556874755859375,11.310209274291992,2.3056161403656006,-2.736572504043579
1774789953102945800,4.56694580078125,11.183316230773926,2.31758713722229,-3.375824451446533
1774789953113047000,4.577047119140625,11.183316230773926,2.31758713722229,-3.375824451446533
1774789953123148300,4.587148193359375,10.714052200317383,2.432508945465088,-3.890577793121338
1774789953133219000,4.597218994140625,10.714052200317383,2.432508945465088,-4.129997730255127
1774789953143289900,4.607289794921875,10.757147789001465,2.248155355453491,-4.034229755401611
1774789953153330200,4.617330078125,11.037269592285156,1.7549498081207275,-3.804386615753174
1774789953163401000,4.62740087890625,11.228805541992188,1.0558429956436157,-3.818751811981201
1774789953183512000,4.647511962890625,10.94150161743164,0.5434837937355042,-4.113238334655762
1774789953203623200,4.667623046875,9.981427192687988,0.8212111592292786,-3.9815573692321777
1774789953213694000,4.67769384765625,9.624691009521484,1.1540051698684692,-3.778050184249878
1774789953223795200,4.687795166015625,9.481039047241211,1.455674648284912,-3.7900211811065674
1774789953233866000,4.697865966796875,9.284713745117188,1.6400281190872192,-3.7828385829925537
1774789953243936800,4.707936767578125,9.165003776550293,1.6496049165725708,-3.93367338180542
1774789953253977000,4.71797705078125,9.064447402954102,1.5753847360610962,-3.9384617805480957
1774789953264017400,4.728017333984375,8.954314231872559,1.381454348564148,-3.84269380569458
1774789953294199300,4.75819921875,8.528146743774414,1.3287819623947144,-3.1866824626922607
1774789953304300500,4.768300537109375,8.645462036132812,1.3766659498214722,-2.8443117141723633
1774789953314371300,4.778371337890625,8.877699851989746,1.414973258972168,-2.564189910888672
1774789953324442400,4.7884423828125,8.918401718139648,1.5203180313110352,-2.33913516998291
1774789953334513200,4.79851318359375,9.040505409240723,1.4939818382263184,-2.1978771686553955
1774789953344584000,4.808583984375,9.026140213012695,1.3886369466781616,-2.1499931812286377
1774789953354654700,4.81865478515625,8.822632789611816,1.3670891523361206,-2.1595699787139893
1774789953364756000,4.828755859375,8.678980827331543,1.4652514457702637,-2.1092917919158936
1774789953374826800,4.83882666015625,8.506598472595215,1.6065093278884888,-2.1380221843719482
1774789953415140600,4.879140625,8.070854187011719,1.98958158493042,-1.8507179021835327
1774789953425241900,4.889241943359375,8.02536392211914,1.8986018896102905,-1.7046716213226318
1774789953435312600,4.899312744140625,7.891288757324219,1.9991583824157715,-1.6041151285171509
1774789953445414000,4.909413818359375,7.762001991271973,2.1523873805999756,-1.577778935432434
1774789953455484700,4.919484619140625,7.6111674308776855,2.2457611560821533,-1.5921441316604614
1774789953465586200,4.929586181640625,7.441178798675537,2.319981336593628,-1.6400281190872192
1774789953505930200,4.96993017578125,7.735665798187256,2.0446481704711914,-1.6950948238372803
1774789953516001000,4.9800009765625,7.819462776184082,1.9608511924743652,-1.6376339197158813
1774789953526041300,4.990041259765625,7.876923561096191,1.9249382019042969,-1.5298948287963867
1774789953536142600,5.000142578125,7.848193168640137,2.078166961669922,-1.4676456451416016
1774789953546244000,5.010244140625,8.02536392211914,2.140416383743286,-1.436521053314209
1774789953556284400,5.020284423828125,8.24084186553955,2.27209734916687,-1.5179238319396973
1774789953566294000,5.0302939453125,8.394071578979492,2.3558945655822754,-1.4987702369689941
1774789953576395300,5.040395263671875,8.504204750061035,2.4588451385498047,-1.522712230682373
1774789953606577200,5.0705771484375,8.966285705566406,2.7030537128448486,-1.192312479019165
1774789953616678700,5.0806787109375,9.232041358947754,2.7509377002716064,-1.2449848651885986
1774789953626719000,5.090718994140625,9.308655738830566,2.717418909072876,-1.2090718746185303
1774789953636759000,5.100759033203125,9.533711433410645,2.7461493015289307,-1.2689268589019775
1774789953646769000,5.110768798828125,9.799467086791992,2.7126305103302,-1.335964560508728
1774789953656870100,5.1208701171875,10.017339706420898,2.7772738933563232,-1.4748282432556152
1774789953666941000,5.13094091796875,10.129867553710938,2.6815059185028076,-1.625662922859192
1774789953677011700,5.14101171875,10.218452453613281,2.695871114730835,-1.6376339197158813
1774789953687021600,5.151021484375,10.33098030090332,2.695871114730835,-1.6639702320098877
1774789953707224300,5.171224365234375,10.369287490844727,2.734178304672241,-1.7190368175506592
1774789953717325600,5.18132568359375,10.47942066192627,2.9017724990844727,-1.558625340461731
1774789953727366000,5.191365966796875,10.632649421691895,2.849100112915039,-1.414973258972168
1774789953737436700,5.201436767578125,10.845733642578125,2.4827871322631836,-1.2401964664459229
1774789953747507500,5.211507568359375,11.135432243347168,2.0925323963165283,-1.05105459690094
1774789953757547800,5.2215478515625,11.54244613647461,1.886630892753601,-1.0654197931289673
1774789953767588000,5.231588134765625,11.765107154846191,1.721431016921997,-1.5610195398330688
1774789953818003000,5.2820029296875,10.8505220413208,1.802833914756775,-1.8962076902389526
1774789953828104400,5.2921044921875,10.532093048095703,1.7262194156646729,-1.6400281190872192
1774789953838144800,5.302144775390625,10.319009780883789,1.6041151285171509,-1.5490485429763794
1774789953848215600,5.312215576171875,10.053253173828125,1.2282254695892334,-1.3910311460494995
1774789953858286300,5.322286376953125,9.832986831665039,0.9289502501487732,-0.9696516990661621
1774789953868357000,5.332357177734375,9.907206535339355,0.6392518281936646,-0.7326257228851318
1774789953878428000,5.342427978515625,9.950302124023438,0.4429273009300232,-0.6847416758537292
1774789953888498700,5.352498779296875,10.002974510192871,0.4381389021873474,-0.7829039692878723
1774789953898600000,5.362599853515625,9.84256362915039,0.395043283700943,-1.0654197931289673
1774789953938852600,5.4028525390625,9.576807022094727,0.22505496442317963,-1.5298948287963867
1774789953959025000,5.42302490234375,9.495404243469238,0.038307227194309235,-1.86508309841156
1774789953969095700,5.433095703125,9.354146003723145,-0.021547814831137657,-1.946485996246338
1774789953979197000,5.443197021484375,9.445125579833984,-0.07661445438861847,-1.944091796875
1774789953989267700,5.453267822265625,9.351752281188965,0.06464344263076782,-1.965639591217041
1774789953999308000,5.46330810546875,9.17697525024414,0.028730420395731926,-2.054224967956543
1774789954029520400,5.493520263671875,8.209717750549316,0.7757213711738586,-1.7932571172714233
1774789954039591200,5.503591064453125,8.058882713317871,0.8547300100326538,-1.678335428237915
1774789954049631500,5.513631591796875,7.893682956695557,0.933738648891449,-1.6376339197158813
1774789954059702300,5.523702392578125,7.850587368011475,1.0749965906143188,-1.534683346748352
1774789954069773000,5.53377294921875,7.879317760467529,1.036689281463623,-1.3503297567367554
1774789954079843800,5.54384375,7.9415669441223145,0.9241618514060974,-1.2880805730819702
1774789954089945000,5.553945068359375,7.8529815673828125,0.8930372595787048,-1.158793568611145
1774789954100015900,5.564015869140625,7.8098859786987305,1.091755986213684,-1.091755986213684
1774789954110087000,5.5740869140625,7.817068576812744,1.2401964664459229,-0.9145850539207458
1774789954140329700,5.604329833984375,7.881711959838867,1.7812861204147339,-0.9361328482627869
1774789954150431000,5.614430908203125,7.8529815673828125,1.8698714971542358,-0.9840168952941895
1774789954160501800,5.624501708984375,8.099584579467773,1.8483237028121948,-0.933738648891449
1774789954170603300,5.634603271484375,8.334216117858887,1.6903064250946045,-0.8762778043746948
1774789954180704500,5.64470458984375,8.75080680847168,1.3910311460494995,-1.0007762908935547
1774789954190805800,5.6548056640625,8.853757858276367,1.1468225717544556,-1.1779472827911377
1774789954200907000,5.664906982421875,8.947132110595703,1.170764684677124,-1.3646949529647827
1774789954210977800,5.674977783203125,9.090784072875977,1.2425906658172607,-1.460463047027588
1774789954231180500,5.6951806640625,9.435548782348633,1.86508309841156,-1.5275006294250488
1774789954241190400,5.7051904296875,9.672574996948242,2.006340980529785,-1.656787633895874
1774789954251261200,5.71526123046875,9.931148529052734,2.078166961669922,-1.764526605606079
1774789954261332000,5.72533203125,10.228029251098633,1.9991583824157715,-1.8626888990402222
1774789954271402800,5.73540283203125,10.44350814819336,1.7621324062347412,-1.965639591217041
1774789954281473500,5.7454736328125,10.625467300415039,1.5849615335464478,-2.03507137298584
1774789954291544300,5.75554443359375,10.625467300415039,1.6376339197158813,-2.1332337856292725
1774789954301615000,5.765614990234375,10.821791648864746,1.7118542194366455,-2.1763293743133545
1774789954311716400,5.77571630859375,10.92953109741211,1.8938134908676147,-2.4013843536376953
1774789954341898200,5.805898193359375,11.216835021972656,2.054224967956543,-2.942473888397217
1774789954351999700,5.815999755859375,11.27190113067627,2.1954829692840576,-3.043030261993408
1774789954362039800,5.826039794921875,11.511322021484375,2.1811177730560303,-3.0406360626220703
1774789954372080000,5.836080078125,11.954249382019043,2.0829553604125977,-3.0406360626220703
1774789954382151000,5.84615087890625,12.0021333694458,2.0853497982025146,-3.4093432426452637
1774789954392252400,5.85625244140625,11.662156105041504,2.1523873805999756,-4.072536945343018
1774789954402323200,5.8663232421875,11.051634788513184,2.315192937850952,-4.520252704620361
1774789954412394000,5.87639404296875,10.8505220413208,2.2649147510528564,-4.558559894561768
1774789954452738000,5.916738037109375,10.716446876525879,-0.016759412363171577,-4.01268196105957
1774789954462839600,5.926839599609375,10.503362655639648,-0.031124621629714966,-3.93367338180542
1774789954472910300,5.936910400390625,9.945513725280762,0.3447650372982025,-3.6798880100250244
1774789954482981000,5.946981201171875,9.68933391571045,0.6823474764823914,-3.383007049560547
1774789954493082400,5.957082275390625,9.433155059814453,1.0845733880996704,-3.1914708614349365
1774789954503122700,5.967122802734375,9.284713745117188,1.4245500564575195,-3.2297780513763428
1774789954513224000,5.977223876953125,8.951920509338379,1.6352397203445435,-3.2824504375457764
1774789954553568300,6.017568359375,8.250418663024902,1.8722656965255737,-2.52109432220459
1774789954563639000,6.02763916015625,8.118738174438477,1.7381904125213623,-2.274491548538208
1774789954573740300,6.037740234375,7.94635534286499,1.5969325304031372,-1.965639591217041
1774789954583841800,6.047841796875,7.934384346008301,1.5538369417190552,-1.6352397203445435
1774789954593943000,6.057943115234375,7.920019149780273,1.3910311460494995,-1.2856862545013428
1774789954604013800,6.068013916015625,7.881711959838867,1.4101848602294922,-1.1037269830703735
1774789954614084600,6.078084716796875,7.785943984985352,1.4053963422775269,-1.1540051698684692
1774789954624185900,6.088185791015625,7.8098859786987305,1.436521053314209,-1.2258312702178955
1774789954644297000,6.108296875,7.694964408874512,1.434126853942871,-1.45806884765625
1774789954654367700,6.11836767578125,7.668628215789795,1.5418659448623657,-1.479616641998291
1774789954664469000,6.128468994140625,7.467514991760254,1.6927006244659424,-1.5155296325683594
1774789954674570500,6.138570556640625,7.46033239364624,1.7549498081207275,-1.3455413579940796
1774789954684671700,6.148671630859375,7.5848307609558105,1.7310078144073486,-1.213860273361206
1774789954694773000,6.15877294921875,7.647080421447754,1.6639702320098877,-1.115697979927063
1774789954704843800,6.16884375,7.850587368011475,1.50355863571167,-1.0606313943862915
1774789954724985300,6.1889853515625,8.001421928405762,1.5059528350830078,-1.0965443849563599
1774789954735086800,6.1990869140625,7.99184513092041,1.656787633895874,-1.1516109704971313
1774789954765268700,6.229268798828125,8.022970199584961,2.451662540435791,-1.50355863571167
1774789954775309000,6.23930908203125,8.1139497756958,2.497152328491211,-1.5059528350830078
1774789954785379800,6.2493798828125,8.288725852966309,2.382230758666992,-1.656787633895874
1774789954795450600,6.25945068359375,8.489839553833008,2.1116859912872314,-1.7621324062347412
1774789954805551900,6.2695517578125,8.738836288452148,2.1164743900299072,-1.7525556087493896
1774789954815653000,6.279653076171875,8.856152534484863,2.360682964324951,-1.8100165128707886
1774789954825693400,6.289693359375,8.966285705566406,2.3295583724975586,-1.8602946996688843
1774789954835764200,6.29976416015625,9.016563415527344,2.4851813316345215,-1.7956513166427612
1774789954855875300,6.319875244140625,9.040505409240723,2.6671407222747803,-1.7525556087493896
1774789954865946000,6.329946044921875,9.160215377807617,2.8874073028564453,-1.6903064250946045
1774789954876017000,6.340016845703125,9.160215377807617,2.8874073028564453,-1.5682021379470825
1774789954886057200,6.35005712890625,9.531316757202148,3.026270866394043,-1.580173134803772
1774789954896128000,6.3601279296875,9.852140426635742,2.894589900970459,-1.4245500564575195
1774789954906198800,6.37019873046875,10.074800491333008,2.808398485183716,-1.455674648284912
1774789954916239000,6.380239013671875,10.295066833496094,2.5474305152893066,-1.5897499322891235
1774789954926310000,6.390309814453125,10.359710693359375,2.3127987384796143,-1.556231141090393
1774789954976663800,6.440663818359375,10.527304649353027,2.6431987285614014,-1.5682021379470825
1774789954996805600,6.4608056640625,11.159374237060547,2.0590133666992188,-1.0223240852355957
1774789955006815200,6.470815185546875,11.774683952331543,1.4460978507995605,-0.706289529800415
1774789955016855600,6.48085546875,12.648567199707031,0.9744400978088379,-1.1300631761550903
1774789955026926300,6.49092626953125,12.878411293029785,0.304063618183136,-2.099714994430542
1774789955037027600,6.501027587890625,12.22000503540039,0.014365210197865963,-3.2178070545196533
1774789955077311000,6.54131103515625,9.72285270690918,2.1308395862579346,-1.7094600200653076
1774789955087290000,6.5512900390625,9.885659217834473,1.8770540952682495,-1.2617442607879639
1774789955097391400,6.561391357421875,10.14902114868164,1.1563993692398071,-1.0199298858642578
1774789955107431700,6.571431640625,10.26394271850586,0.08619125932455063,-0.8379706144332886
1774789955117533200,6.581533203125,10.431536674499512,-0.9911994934082031,-0.8906430602073669
1774789955127512300,6.59151220703125,10.520122528076172,-1.766920804977417,-1.0534487962722778
1774789955137613600,6.601613525390625,10.57040023803711,-1.9129672050476074,-1.1851298809051514
1774789955147684400,6.611684326171875,10.431536674499512,-1.6903064250946045,-1.50355863571167
1774789955167826000,6.631825927734375,10.280701637268066,-0.6512228846549988,-2.183511972427368
1774789955177927400,6.641927490234375,10.156203269958496,-0.040701430290937424,-2.516305923461914
1774789955187998200,6.651998291015625,9.911994934082031,0.33758243918418884,-2.8586769104003906
1774789955198099500,6.662099365234375,9.787496566772461,0.5506663918495178,-2.9089550971984863
1774789955208139800,6.672139892578125,9.720458984375,0.5626373887062073,-2.9017724990844727
1774789955218241000,6.682240966796875,9.619902610778809,0.44532153010368347,-2.695871114730835
1774789955228342300,6.69234228515625,9.466673851013184,0.1149216815829277,-2.492363929748535
1774789955238413300,6.702413330078125,9.311050415039062,-0.07422025501728058,-2.3535003662109375
1774789955248453400,6.712453369140625,9.119514465332031,0.028730420395731926,-2.2888567447662354
1774789955258555000,6.722554931640625,8.966285705566406,0.2322375625371933,-2.1547815799713135
1774789955298868500,6.762868408203125,7.649474620819092,1.644816517829895,-1.5538369417190552
1774789955308939300,6.772939208984375,7.405265808105469,1.678335428237915,-1.4197616577148438
1774789955319010000,6.783010009765625,7.249642848968506,1.742978811264038,-1.2689268589019775
1774789955329050400,6.79305029296875,7.189787864685059,1.7597382068634033,-1.1851298809051514
1774789955339151600,6.803151611328125,7.283161640167236,1.656787633895874,-1.2210428714752197
1774789955349222400,6.813222412109375,7.383718013763428,1.455674648284912,-1.1635819673538208
1774789955379404300,6.843404296875,7.82185697555542,1.070208191871643,-0.8331822156906128
1774789955389505800,6.853505859375,7.936778545379639,1.1276689767837524,-0.8810662031173706
1774789955399607000,6.86360693359375,7.979874134063721,1.256955862045288,-1.0247182846069336
1774789955409677800,6.873677734375,8.092401504516602,1.381454348564148,-1.192312479019165
1774789955419748600,6.88374853515625,8.145073890686035,1.4724340438842773,-1.2258312702178955
1774789955439921000,6.9039208984375,8.367734909057617,1.50355863571167,-1.3072341680526733
1774789955449961000,6.9139609375,8.638279914855957,1.4077905416488647,-1.41257905960083
1774789955460062500,6.9240625,8.856152534484863,1.2713210582733154,-1.4413094520568848
1774789955490183200,6.95418310546875,9.318233489990234,1.292868971824646,-1.2306196689605713
1774789955500284400,6.964284423828125,9.512163162231445,1.3503297567367554,-1.2856862545013428
1774789955510355500,6.97435546875,9.588777542114258,1.659181833267212,-1.3958195447921753
1774789955520456700,6.984456787109375,9.617507934570312,1.9345149993896484,-1.3431471586227417
1774789955530558000,6.994557861328125,9.816226959228516,2.075772762298584,-1.4532804489135742
1774789955540628700,7.004628662109375,10.02452278137207,2.0207061767578125,-1.4652514457702637
1774789955550699500,7.014699462890625,10.079588890075684,2.073378562927246,-1.6543933153152466
1774789955560770300,7.024770263671875,10.187328338623047,2.032677173614502,-1.6184803247451782
1774789955570841000,7.034841064453125,10.359710693359375,1.9153614044189453,-1.5538369417190552
1774789955580911900,7.044911865234375,10.532093048095703,1.8148049116134644,-1.4867992401123047
1774789955591013400,7.055013427734375,10.864887237548828,1.8124107122421265,-1.6136919260025024
1774789955601114600,7.065114501953125,11.085153579711914,1.7956513166427612,-1.745373010635376
1774789955611185400,7.075185302734375,11.310209274291992,1.7286136150360107,-1.944091796875
1774789955621256200,7.085256103515625,11.544840812683105,1.7334020137786865,-2.212242364883423
1774789955631388200,7.09538818359375,11.805809020996094,1.900996208190918,-2.470816135406494
1774789955641459000,7.105458984375,11.796232223510742,2.030282974243164,-3.1435868740081787
1774789955651529700,7.11552978515625,11.508927345275879,2.1715409755706787,-3.8331170082092285
1774789955661600500,7.1256005859375,11.176133155822754,2.3056161403656006,-4.220977783203125
1774789955671701800,7.13570166015625,11.111490249633789,2.2649147510528564,-4.323928356170654
1774789955691843300,7.15584326171875,11.312602996826172,1.4508862495422363,-3.797203779220581
1774789955701914000,7.1659140625,11.276689529418945,0.7541735172271729,-3.5913026332855225
1774789955711954400,7.175954345703125,11.065999984741211,0.3280056416988373,-3.5649664402008057
1774789955722025200,7.186025146484375,10.65898609161377,0.21547815203666687,-3.49314022064209
1774789955732065500,7.1960654296875,10.493785858154297,0.3064578175544739,-3.3231520652770996
1774789955742166800,7.206166748046875,10.304644584655762,0.5889736413955688,-3.1651346683502197
1774789955752237600,7.216237548828125,10.287884712219238,0.8906430602073669,-3.047818660736084
1774789955762339000,7.226339111328125,10.034099578857422,1.2425906658172607,-3.157952070236206
1774789955772409900,7.236409912109375,9.62947940826416,1.53707754611969,-3.2824504375457764
1774789955782511000,7.246510986328125,9.217676162719727,1.8339585065841675,-3.270479440689087
1774789955812754000,7.27675390625,8.959102630615234,1.4293384552001953,-2.513911724090576
1774789955822824700,7.28682470703125,9.02135181427002,1.1444283723831177,-2.1954829692840576
1774789955832895700,7.296895751953125,9.241618156433105,0.9409212470054626,-1.867477297782898
1774789955842966500,7.306966552734375,9.246406555175781,0.8331822156906128,-1.4413094520568848
1774789955853006600,7.317006591796875,9.169792175292969,0.7445967197418213,-1.2042834758758545
1774789955863108000,7.327108154296875,8.973467826843262,0.5841852426528931,-1.05105459690094
1774789955903421700,7.367421630859375,7.807491779327393,1.8148049116134644,-1.1875240802764893
1774789955913523000,7.37752294921875,7.577648162841797,2.0183119773864746,-1.1324573755264282
1774789955923563300,7.387563232421875,7.393294811248779,2.1308395862579346,-0.9145850539207458
1774789955933634000,7.397634033203125,7.266402244567871,2.0207061767578125,-0.8810662031173706
1774789955943735600,7.407735595703125,7.223306655883789,1.7405846118927002,-0.7182605266571045
1774789955953836800,7.4178369140625,7.240066051483154,1.4269442558288574,-0.6871358752250671
1774789955963938000,7.42793798828125,7.261613845825195,1.2330138683319092,-0.6943184733390808
1774789955973978400,7.437978271484375,7.352593421936035,1.2282254695892334,-0.7709329724311829
1774789955994181000,7.45818115234375,7.232883453369141,1.6400281190872192,-0.8906430602073669
1774789956004282400,7.468282470703125,7.0317702293396,2.008735179901123,-0.9241618514060974
1774789956014353200,7.478353271484375,7.022193431854248,2.3774423599243164,-0.912190854549408
1774789956024424000,7.488423828125,7.096413612365723,2.5713725090026855,-1.1348515748977661
1774789956044596000,7.508595947265625,7.5848307609558105,2.5689783096313477,-1.3311761617660522
1774789956064768300,7.528768310546875,8.13789176940918,2.164358377456665,-1.4413094520568848
1774789956074869500,7.538869384765625,8.453926086425781,2.097320795059204,-1.4053963422775269
1774789956084940300,7.548940185546875,8.710105895996094,1.9057846069335938,-1.2737152576446533
1774789956095011000,7.559010986328125,9.01895809173584,1.824381709098816,-1.2018892765045166
1774789956105112300,7.5691123046875,9.220070838928223,2.0685901641845703,-1.0989385843276978
1774789956115213800,7.5792138671875,9.442731857299805,2.212242364883423,-1.1755530834197998
1774789956125284600,7.58928466796875,9.720458984375,2.3535003662109375,-1.1204863786697388
1774789956135355400,7.59935546875,10.065223693847656,2.387019157409668,-1.158793568611145
1774789956145426200,7.60942626953125,10.402806282043457,2.3702597618103027,-1.113303780555725
1774789956155527400,7.61952734375,10.773907661437988,2.363077163696289,-1.2090718746185303
1774789956165598200,7.62959814453125,11.058817863464355,2.22660756111145,-1.4317326545715332
1774789956205881300,7.66988134765625,11.470620155334473,2.2625205516815186,-1.7286136150360107
1774789956215952400,7.679952392578125,11.319786071777344,2.410961151123047,-1.5729905366897583
1774789956226023200,7.690023193359375,11.585541725158691,2.406172752380371,-1.3766659498214722
1774789956236124400,7.70012451171875,12.09550666809082,2.0614075660705566,-1.0773907899856567
1774789956246195200,7.7101953125,12.67011547088623,1.86508309841156,-1.139639973640442
1774789956256296400,7.72029638671875,12.919112205505371,1.5466543436050415,-1.6112977266311646
1774789956266367200,7.7303671875,12.631808280944824,1.280897855758667,-2.3104045391082764
1774789956276438000,7.74043798828125,12.140996932983398,0.9624691009521484,-2.626439332962036
1774789956286539500,7.75053955078125,11.192893028259277,0.871489405632019,-2.4205379486083984
1774789956326761500,7.790761474609375,10.079588890075684,1.5131354331970215,-0.667982280254364
1774789956346903300,7.8109033203125,10.235212326049805,0.4836287498474121,-0.3758896589279175
1774789956356974000,7.82097412109375,10.237606048583984,-0.2849099934101105,-0.33518823981285095
1774789956367044900,7.831044921875,10.139444351196289,-0.7565677165985107,-0.4429273009300232
1774789956377115600,7.84111572265625,10.055646896362305,-0.8571242094039917,-0.5410895943641663
1774789956387186400,7.8511865234375,9.911994934082031,-0.7805097699165344,-0.7350199222564697
1774789956397257200,7.86125732421875,9.624691009521484,-0.5722141861915588,-0.9361328482627869
1774789956407358500,7.8713583984375,9.533711433410645,-0.38546648621559143,-1.256955862045288
1774789956417429200,7.88142919921875,9.39245319366455,-0.09816227108240128,-1.482010841369629
1774789956427530800,7.89153076171875,9.306262016296387,-0.023942016065120697,-1.6184803247451782
1774789956437601500,7.9016015625,9.14585018157959,0.07661445438861847,-1.7836803197860718
1774789956447641600,7.9116416015625,9.028534889221191,-0.035913024097681046,-1.8267759084701538
1774789956457712600,7.921712646484375,8.968679428100586,-0.11252748221158981,-1.9393033981323242
1774789956467783400,7.931783447265625,8.966285705566406,-0.2825157940387726,-2.008735179901123
1774789956477854200,7.941854248046875,8.738836288452148,-0.6129156351089478,-2.008735179901123
1774789956487925000,7.951925048828125,8.561665534973145,-0.5985504388809204,-1.968033790588379
1774789956508036000,7.9720361328125,7.773972988128662,-0.1149216815829277,-1.699883222579956
1774789956518137300,7.982137451171875,7.311892032623291,0.4429273009300232,-1.5298948287963867
1774789956528238600,7.992238525390625,7.0557122230529785,1.0462661981582642,-1.338358759880066
1774789956538339800,8.00233984375,6.7277069091796875,1.4700398445129395,-1.1324573755264282
1774789956548411000,8.012410888671875,6.607996463775635,1.7932571172714233,-0.9888052940368652
1774789956558512000,8.02251220703125,6.675034523010254,1.9105730056762695,-0.8547300100326538
1774789956588694000,8.052694091796875,7.527369976043701,1.0079588890075684,-0.7230489253997803
1774789956598795300,8.062795166015626,7.649474620819092,0.9768342971801758,-0.6512228846549988
1774789956618967300,8.08296728515625,7.682993412017822,1.139639973640442,-0.5147533416748047
1774789956629038000,8.0930380859375,7.7763671875,1.5322890281677246,-0.4429273009300232
1774789956639139600,8.1031396484375,7.7763671875,1.5322890281677246,-0.3471592366695404
1774789956649180000,8.113179931640625,7.943961143493652,1.9560627937316895,-0.3495534360408783
1774789956659250700,8.123250732421875,8.169015884399414,2.1356279850006104,-0.3974374830722809
1774789956669352000,8.13335205078125,8.628703117370605,2.126051187515259,-0.5482721924781799
1774789956679453200,8.143453125,9.148244857788086,1.8842366933822632,-0.7924807667732239
1774789956689524000,8.15352392578125,9.516951560974121,1.6424223184585571,-0.8595184087753296
1774789956699594800,8.1635947265625,9.770736694335938,1.4844050407409668,-0.9457096457481384
1774789956719736300,8.183736328125,9.964667320251465,1.5418659448623657,-1.072602391242981
1774789956729746200,8.19374609375,10.055646896362305,1.8076223134994507,-1.213860273361206
1774789956749918200,8.213918212890626,10.498574256896973,2.011129379272461,-1.5298948287963867
1774789956759989200,8.2239892578125,10.718840599060059,1.7262194156646729,-1.6160861253738403
1774789956769998800,8.233998779296876,10.764330863952637,1.6950948238372803,-1.6352397203445435
1774789956780069600,8.244069580078126,10.797849655151367,1.7956513166427612,-1.6328455209732056
1774789956790140400,8.254140380859376,10.884040832519531,1.7621324062347412,-1.6711528301239014
1774789956800211200,8.264211181640626,11.022904396057129,1.9273324012756348,-1.7860745191574097
1774789956840494600,8.30449462890625,11.96861457824707,1.7405846118927002,-2.03507137298584
1774789956850565400,8.3145654296875,11.985373497009277,1.900996208190918,-2.4444799423217773
1774789956860666600,8.32466650390625,11.72201156616211,2.161964178085327,-3.1052796840667725
1774789956870737400,8.3347373046875,11.283872604370117,2.3127987384796143,-3.5936968326568604
1774789956880838700,8.344838623046876,10.967838287353516,2.185906171798706,-3.773261785507202
1774789956890909400,8.354909423828126,10.960655212402344,1.7956513166427612,-3.7397429943084717
1774789956900980200,8.364980224609376,11.173739433288574,1.091755986213684,-3.5865142345428467
1774789956931223300,8.395223388671875,11.281478881835938,-0.4357447028160095,-3.581725835800171
1774789956941294000,8.405294189453125,11.037269592285156,-0.31124621629714966,-3.557783842086792
1774789956951364900,8.41536474609375,10.852916717529297,-0.10055647045373917,-3.35667085647583
1774789956961435600,8.425435546875,10.522516250610352,0.05985504388809204,-3.2585084438323975
1774789956971537000,8.435536865234376,10.204087257385254,0.304063618183136,-3.2130186557769775
1774789956981607700,8.445607666015626,9.77791976928711,0.6200982332229614,-3.3470940589904785
1774789956991709200,8.455709228515625,9.296685218811035,1.1061211824417114,-3.227383852005005
1774789957001780000,8.465780029296875,8.93037223815918,1.259350061416626,-3.112462282180786
1774789957011850800,8.475850830078125,8.777143478393555,1.2737152576446533,-2.8802247047424316
1774789957042063000,8.50606298828125,8.528146743774414,1.0199298858642578,-1.7501614093780518
1774789957052134000,8.5161337890625,8.434772491455078,1.0414776802062988,-1.3455413579940796
1774789957062204700,8.52620458984375,8.283937454223633,0.9816226959228516,-1.036689281463623
1774789957072306000,8.536305908203126,8.061277389526367,1.039083480834961,-0.7781155705451965
1774789957082376700,8.546376708984376,7.860164165496826,1.2258312702178955,-0.6751648783683777
1774789957092447700,8.55644775390625,7.718906402587891,1.2665326595306396,-0.8236053586006165
1774789957102518500,8.5665185546875,7.575253963470459,1.403002142906189,-0.9217676520347595
1774789957112589300,8.57658935546875,7.489062786102295,1.5059528350830078,-1.0103530883789062
1774789957142832000,8.60683203125,7.484274387359619,1.7142484188079834,-1.048660397529602
1774789957152903000,8.61690283203125,7.527369976043701,1.699883222579956,-1.0007762908935547
1774789957162973700,8.6269736328125,7.548917770385742,1.5155296325683594,-1.139639973640442
1774789957173075000,8.637074951171876,7.620744228363037,1.3670891523361206,-1.0678139925003052
1774789957183146000,8.64714599609375,7.750030994415283,1.2976573705673218,-1.072602391242981
1774789957193247200,8.657247314453125,7.82185697555542,1.2210428714752197,-1.0893617868423462
1774789957203318000,8.667318115234375,7.817068576812744,1.3072341680526733,-1.2306196689605713
1774789957263773200,8.727773193359376,7.99184513092041,2.3271639347076416,-1.558625340461731
1774789957273844200,8.73784423828125,8.245630264282227,2.3247697353363037,-1.4867992401123047
1774789957283915000,8.7479150390625,8.487444877624512,2.126051187515259,-1.436521053314209
1774789957293985800,8.75798583984375,8.729259490966797,2.054224967956543,-1.455674648284912
1774789957304026000,8.768026123046875,9.105149269104004,2.0661959648132324,-1.4317326545715332
1774789957314097000,8.778096923828125,9.255983352661133,2.1787235736846924,-1.2952631711959839
1774789957334238500,8.798238525390625,9.593565940856934,2.049436569213867,-0.9576807022094727
1774789957344309200,8.808309326171875,9.945513725280762,1.9632453918457031,-0.8882488012313843
1774789957354380000,8.818380126953125,10.340557098388672,1.6879122257232666,-1.0055646896362305
1774789957364420400,8.82842041015625,10.716446876525879,1.5131354331970215,-1.2832920551300049
1774789957374460700,8.838460693359375,11.001357078552246,1.45806884765625,-1.534683346748352
1774789957384531500,8.848531494140625,11.118672370910645,1.7501614093780518,-1.7334020137786865
1774789957404703500,8.868703369140626,11.015722274780273,2.1787235736846924,-1.7381904125213623
1774789957414743800,8.878743896484375,10.991780281066895,2.3367409706115723,-1.580173134803772
1774789957424814600,8.888814697265625,11.02051067352295,2.367865562438965,-1.5179238319396973
1774789957444956200,8.9089560546875,11.183316230773926,2.2146365642547607,-1.072602391242981
1774789957455057400,8.919057373046876,11.379640579223633,1.9704279899597168,-0.6153098344802856
1774789957465128200,8.929128173828126,11.994950294494629,1.580173134803772,-0.4572925269603729
1774789957475199000,8.939198974609376,12.507309913635254,1.1516109704971313,-0.768538773059845
1774789957485270000,8.94927001953125,12.555193901062012,0.8475474119186401,-1.7262194156646729
1774789957495371300,8.959371337890625,12.131420135498047,0.6224924325942993,-2.631227731704712
1774789957505411600,8.96941162109375,11.17852783203125,0.9983820915222168,-2.8395233154296875
1774789957515512800,8.979512939453125,10.41956615447998,1.5945383310317993,-2.408566951751709
1774789957525583600,8.98958349609375,9.947908401489258,1.9081788063049316,-1.647210717201233
1774789957555735000,9.019735107421875,10.412383079528809,1.0438719987869263,-0.545877993106842
1774789957565805800,9.029805908203125,10.486603736877441,0.12449848651885986,-0.6655880808830261
1774789957575876600,9.039876708984375,10.38604736328125,-0.6847416758537292,-0.9457096457481384
1774789957585947400,9.049947509765625,10.426748275756836,-1.0127472877502441,-1.170764684677124
1774789957596018200,9.06001806640625,10.541669845581055,-1.1228805780410767,-1.3670891523361206
1774789957606089000,9.0700888671875,10.548852920532227,-1.1516109704971313,-1.5634137392044067
1774789957616190200,9.080190185546876,10.369287490844727,-1.1228805780410767,-1.9153614044189453
1774789957626261000,9.090260986328126,10.098742485046387,-1.0654197931289673,-2.2625205516815186
1774789957636362500,9.100362548828125,9.758766174316406,-0.5817909836769104,-2.516305923461914
1774789957656534500,9.120534423828126,9.363722801208496,0.15801730751991272,-2.52109432220459
1774789957676676000,9.140676025390626,9.002198219299316,0.42377370595932007,-2.3511061668395996
1774789957686747000,9.150746826171876,8.609549522399902,0.19632454216480255,-2.1978771686553955
1774789957696817700,9.160817626953126,8.202534675598145,0.023942016065120697,-1.8626888990402222
1774789957706858000,9.17085791015625,7.908048152923584,-0.031124621629714966,-1.5873557329177856
1774789957716959200,9.180959228515626,7.6782050132751465,0.21787235140800476,-1.1851298809051514
1774789957727060700,9.191060791015625,7.393294811248779,0.5434837937355042,-1.0965443849563599
1774789957737070300,9.2010703125,7.357381820678711,0.8595184087753296,-1.0342950820922852
1774789957757151000,9.22115087890625,7.292738437652588,1.1827356815338135,-0.7326257228851318
1774789957767191300,9.23119140625,7.0772600173950195,1.1540051698684692,-0.6488286852836609
1774789957777262000,9.241261962890626,6.892906665802002,1.0797849893569946,-0.569819986820221
1774789957787302400,9.251302490234375,6.8043212890625,1.0103530883789062,-0.5889736413955688
1774789957797373200,9.261373291015625,6.799532890319824,1.2473790645599365,-0.5315127968788147
1774789957807444000,9.27144384765625,6.852205276489258,1.2880805730819702,-0.47405192255973816
1774789957817545200,9.281545166015626,7.208941459655762,1.3646949529647827,-0.4357447028160095
1774789957827585500,9.29158544921875,7.5632829666137695,1.2737152576446533,-0.3926490843296051
1774789957837686800,9.301686767578126,7.888894557952881,1.1875240802764893,-0.395043283700943
1774789957847727000,9.31172705078125,8.106766700744629,1.0582371950149536,-0.43335050344467163
1774789957857798000,9.3217978515625,8.47547435760498,1.0342950820922852,-0.5578489899635315
1774789957867807700,9.331807861328125,8.765172004699707,1.0582371950149536,-0.6919242739677429
1774789957877909000,9.341908935546876,8.918401718139648,1.1994950771331787,-0.790086567401886
1774789957887979800,9.351979736328126,8.992621421813965,1.625662922859192,-0.7637503147125244
1774789957898081300,9.362081298828125,9.107542991638184,1.8818424940109253,-0.7972691655158997
1774789957908152000,9.372152099609375,9.210494041442871,2.1092917919158936,-0.8810662031173706
1774789957918253300,9.38225341796875,9.41639518737793,2.056619167327881,-1.0414776802062988
1774789957928354600,9.3923544921875,9.615114212036133,2.1092917919158936,-1.2761094570159912
1774789957938425300,9.40242529296875,9.96945571899414,1.9752163887023926,-1.4221558570861816
1774789957968668400,9.43266845703125,10.666168212890625,1.4963760375976562,-1.6735470294952393
1774789957998880800,9.462880859375,10.807426452636719,1.6879122257232666,-1.8507179021835327
1774789958008982000,9.47298193359375,10.917559623718262,1.6304513216018677,-1.9967641830444336
1774789958019083300,9.483083251953126,11.140220642089844,1.7549498081207275,-2.070984363555908
1774789958029154000,9.493154052734376,11.293449401855469,1.7956513166427612,-2.1475989818573
1774789958089640000,9.553639892578126,11.724405288696289,2.051830768585205,-4.489128112792969
1774789958099710700,9.563710693359376,11.106701850891113,1.7118542194366455,-4.3406877517700195
1774789958109781500,9.573781494140626,10.831368446350098,1.1971008777618408,-3.8714241981506348
1774789958119883000,9.583883056640625,10.697293281555176,0.40940847992897034,-3.3662476539611816
1774789958140024600,9.604024658203125,10.888829231262207,-0.5650315880775452,-2.889801502227783
1774789958150065000,9.61406494140625,10.83855152130127,-0.40940847992897034,-2.829946517944336
1774789958160166100,9.624166259765625,10.876858711242676,-0.15801730751991272,-2.832340717315674
1774789958170206500,9.63420654296875,10.852916717529297,-0.1412578970193863,-2.920926094055176
1774789958180307700,9.6443076171875,10.536881446838379,-0.05027823522686958,-3.160346269607544
1774789958190378500,9.65437841796875,10.041281700134277,0.22744916379451752,-3.3901896476745605
1774789958200449300,9.66444921875,9.313444137573242,0.8403648138046265,-3.2800562381744385
1774789958210459100,9.674459228515625,8.669404029846191,1.4101848602294922,-2.964021682739258
1774789958220590800,9.6845908203125,8.540117263793945,1.824381709098816,-2.43011474609375
1774789958230661600,9.69466162109375,8.702922821044922,1.922544002532959,-2.075772762298584
1774789958240702000,9.704701904296876,8.83699893951416,1.8124107122421265,-1.7860745191574097
1774789958250711800,9.7147119140625,8.937555313110352,1.434126853942871,-1.6184803247451782
1774789958260813000,9.72481298828125,8.762778282165527,0.912190854549408,-1.338358759880066
1774789958280985300,9.7449853515625,8.185775756835938,0.8236053586006165,-0.6153098344802856
1774789958290995000,9.754994873046876,7.9415669441223145,1.280897855758667,-0.2849099934101105
1774789958301096200,9.76509619140625,7.570465564727783,1.742978811264038,-0.20350714027881622
1774789958311167200,9.775167236328125,7.570465564727783,1.742978811264038,-0.20350714027881622
1774789958321238000,9.785238037109375,7.134721279144287,2.3798365592956543,-0.22505496442317963
1774789958341410000,9.80541015625,7.06528902053833,2.2816741466522217,-0.4572925269603729
1774789958351480800,9.815480712890626,6.936002254486084,2.0446481704711914,-0.38067805767059326
1774789958361551600,9.825551513671876,6.933608055114746,1.6711528301239014,-0.3926490843296051
1774789958371561500,9.8355615234375,7.017405033111572,1.3718775510787964,-0.3064578175544739
1774789958381632300,9.84563232421875,7.117961883544922,1.2234370708465576,-0.17238251864910126
1774789958391672600,9.855672607421875,7.2137298583984375,1.259350061416626,-0.2106897532939911
1774789958401743400,9.865743408203125,7.139509677886963,1.3120225667953491,-0.23702596127986908
1774789958411783700,9.87578369140625,7.079654216766357,1.3239935636520386,-0.3016694188117981
1774789958421885000,9.885885009765625,7.208941459655762,1.4437036514282227,-0.24899697303771973
1774789958431986200,9.895986083984376,7.723694801330566,1.381454348564148,-0.3280056416988373
1774789958442057000,9.906056884765626,8.142680168151855,1.2114660739898682,-0.3902548849582672
1774789958452158200,9.916158203125,8.549694061279297,1.0749965906143188,-0.6751648783683777
1774789958462229000,9.92622900390625,8.75080680847168,0.9145850539207458,-1.048660397529602
1774789958492411000,9.956410888671876,8.973467826843262,1.2258312702178955,-1.091755986213684
1774789958502512400,9.966512451171875,9.184157371520996,1.5107412338256836,-0.9911994934082031
1774789958512583200,9.976583251953125,9.344569206237793,1.8387469053268433,-0.9911994934082031
1774789958522684400,9.986684326171876,9.75397777557373,1.8986018896102905,-1.0773907899856567
1774789958532724700,9.996724853515625,9.926360130310059,1.6136919260025024,-1.338358759880066
1774789958542826000,10.006825927734376,9.947908401489258,1.3431471586227417,-1.3886369466781616
1774789958552896800,10.016896728515626,10.022128105163574,1.4101848602294922,-1.290474772453308
1774789958583139800,10.047139892578125,10.402806282043457,1.3287819623947144,-1.381454348564148
1774789958593149400,10.0571494140625,10.24239444732666,1.7717092037200928,-1.5059528350830078
1774789958603251000,10.0672509765625,10.074800491333008,1.9584569931030273,-1.455674648284912
1774789958623423000,10.087423095703125,10.228029251098633,2.229001760482788,-0.9409212470054626
1774789958643534000,10.1075341796875,11.228805541992188,1.7573440074920654,-0.7445967197418213
1774789958653604900,10.11760498046875,12.215216636657715,1.359906554222107,-1.237802267074585
1774789958663675600,10.127675537109376,12.492944717407227,1.0319008827209473,-1.9967641830444336
1774789958673777000,10.13777685546875,12.325350761413574,0.6847416758537292,-2.6623523235321045
1774789958683878400,10.14787841796875,11.724405288696289,0.7134721279144287,-2.784456491470337
1774789958693918500,10.15791845703125,11.197681427001953,0.6727706789970398,-2.382230758666992
1774789958704020000,10.16802001953125,11.058817863464355,0.4644751250743866,-1.9919757843017578
1774789958714060300,10.178060302734375,11.166556358337402,0.2944868206977844,-1.6711528301239014
1774789958724131000,10.188131103515625,11.195286750793457,0.35673606395721436,-1.5442601442337036
1774789958734201900,10.198201904296875,10.986991882324219,0.5195417404174805,-1.2952631711959839
1774789958744303000,10.20830322265625,11.125855445861816,0.5746083855628967,-0.8978256583213806
1774789958754374000,10.218373779296876,11.190498352050781,0.5267243981361389,-0.545877993106842
1774789958764475100,10.22847509765625,11.061211585998535,0.5410895943641663,-0.40701428055763245
1774789958774546000,10.2385458984375,10.819397926330566,0.6177040338516235,-0.4213795065879822
1774789958784616700,10.24861669921875,10.515334129333496,0.6655880808830261,-0.4141969084739685
1774789958794687500,10.2586875,10.563218116760254,0.6751648783683777,-0.40940847992897034
1774789958804758500,10.268758544921875,10.505757331848145,0.5195417404174805,-0.5674257874488831
1774789958814859800,10.27885986328125,10.335768699645996,0.45010992884635925,-0.8738836050033569
1774789958824930600,10.2889306640625,10.11789608001709,0.5770025849342346,-1.0127472877502441
1774789958834971000,10.298970947265625,10.077195167541504,0.6847416758537292,-0.9911994934082031
1774789958845072100,10.309072021484376,10.134655952453613,0.6488286852836609,-0.9959878921508789
1774789958855143000,10.319142822265626,10.050858497619629,0.7613561153411865,-1.0247182846069336
1774789958865244200,10.329244140625,9.86889934539795,0.6440402865409851,-1.0462661981582642
1774789958875284500,10.339284423828126,9.607931137084961,0.5003881454467773,-1.0247182846069336
1774789958885324800,10.34932470703125,9.23443603515625,0.5267243981361389,-0.8212111592292786
1774789958905466400,10.36946630859375,8.487444877624512,0.24181437492370605,-0.4429273009300232
1774789958915537200,10.379537109375,8.034940719604492,0.31603461503982544,-0.363918662071228
1774789958925608000,10.38960791015625,7.649474620819092,0.43095630407333374,-0.35434186458587646
1774789958935648300,10.399648193359376,7.522581577301025,0.6200982332229614,-0.40462008118629456
1774789958945688600,10.4096884765625,7.623138427734375,0.6655880808830261,-0.5195417404174805
1774789958955759400,10.41975927734375,7.68538761138916,0.5482721924781799,-0.6129156351089478
1774789958965830100,10.429830078125,7.534552574157715,0.24181437492370605,-0.5746083855628967
1774789958975901000,10.43990087890625,7.271190643310547,0.11971008777618408,-0.5003881454467773
1774789958986002400,10.45000244140625,7.175422668457031,-0.026336219161748886,-0.5003881454467773
1774789959016184300,10.480184326171875,7.19936466217041,0.6200982332229614,-0.4908113479614258
1774789959026285600,10.49028564453125,7.402871608734131,0.8020575642585754,-0.24899697303771973
1774789959036356400,10.5003564453125,7.800309181213379,0.6631938815116882,-0.16759411990642548
1774789959046427100,10.51042724609375,8.073247909545898,0.5722141861915588,-0.29209262132644653
1774789959056498000,10.520497802734376,8.209717750549316,0.5195417404174805,-0.31842881441116333
1774789959066568700,10.530568603515626,8.315062522888184,0.43335050344467163,-0.395043283700943
1774789959076639500,10.540639404296876,8.276755332946777,0.545877993106842,-0.33758243918418884
1774789959086710300,10.550710205078126,8.53293514251709,0.9313444495201111,-0.17238251864910126
1774789959106882600,10.570882568359375,8.942343711853027,1.556231141090393,-0.08619125932455063
1774789959116922600,10.580922607421876,9.277531623840332,1.5514427423477173,-0.1412578970193863
1774789959126993400,10.590993408203126,9.500192642211914,1.3287819623947144,-0.05506663769483566
1774789959137064400,10.601064453125,9.583989143371582,1.1444283723831177,-0.05746084079146385
1774789959147135200,10.61113525390625,10.093954086303711,1.0893617868423462,-0.07182604819536209
1774789959157206000,10.6212060546875,10.295066833496094,0.9816226959228516,-0.038307227194309235
1774789959167276800,10.63127685546875,10.60391902923584,1.1037269830703735,-0.17956513166427612
1774789959177347600,10.64134765625,11.027692794799805,1.2521674633026123,-0.24660277366638184
1774789959187418400,10.65141845703125,11.276689529418945,1.2330138683319092,-0.45250412821769714
1774789959207529500,10.671529541015625,11.628637313842773,1.4939818382263184,-0.4596867263317108
1774789959217600300,10.681600341796875,11.657367706298828,1.7166426181793213,-0.4620809257030487
1774789959227640600,10.691640625,11.710040092468262,1.7477672100067139,-0.4572925269603729
1774789959237711400,10.70171142578125,11.856086730957031,1.8626888990402222,-0.5339069962501526
1774789959267923700,10.731923828125,12.816162109375,1.647210717201233,-1.5945383310317993
1774789959278025000,10.74202490234375,12.504915237426758,1.5753847360610962,-2.2697031497955322
1774789959288095700,10.752095703125,12.284648895263672,1.50355863571167,-2.827552318572998
1774789959298197200,10.762197265625,11.820174217224121,1.414973258972168,-2.762908697128296
1774789959308298500,10.772298583984375,11.39400577545166,1.1851298809051514,-2.3942017555236816
1774789959318338800,10.7823388671875,11.092336654663086,0.7445967197418213,-2.2840683460235596
1774789959328409600,10.79240966796875,10.335768699645996,0.21547815203666687,-2.2218191623687744
1774789959338510800,10.8025107421875,9.979032516479492,0.08379705995321274,-2.185906171798706
1774789959348612000,10.812612060546876,10.17296314239502,0.08140286058187485,-2.1763293743133545
1774789959358683000,10.822682861328126,10.244789123535156,0.44771572947502136,-2.315192937850952
1774789959368784400,10.832784423828125,10.216058731079102,0.9241618514060974,-2.4181437492370605
1774789959378885600,10.8428857421875,10.3549222946167,1.4508862495422363,-2.3942017555236816
1774789959388956400,10.852956298828126,10.414777755737305,1.5203180313110352,-2.2385785579681396
1774789959399027200,10.863027099609376,10.158597946166992,1.4508862495422363,-2.279279947280884
1774789959419199200,10.88319921875,9.289502143859863,1.314416766166687,-2.0231003761291504
1774789959439310300,10.903310302734376,8.777143478393555,1.8076223134994507,-1.4077905416488647
1774789959449381000,10.913381103515626,8.638279914855957,2.0183119773864746,-1.0749965906143188
1774789959459482600,10.923482666015625,8.528146743774414,1.8291701078414917,-0.7134721279144287
1774789959469584000,10.933583984375,8.497021675109863,1.41257905960083,-0.40222588181495667
1774789959479593700,10.94359375,8.501810073852539,0.9552865028381348,-0.2082955539226532
1774789959489664500,10.95366455078125,8.374917984008789,0.5961562395095825,0.028730420395731926
1774789959499765800,10.963765869140625,8.087613105773926,0.3974374830722809,0.10773907601833344
1774789959509867000,10.973866943359376,7.745242595672607,0.3902548849582672,0.2849099934101105
1774789959519937800,10.983937744140626,7.371747016906738,0.5913678407669067,0.28730419278144836
1774789959530039300,10.994039306640625,7.129932880401611,0.7086837291717529,0.23942017555236816
1774789959540110000,11.004110107421875,7.007828235626221,0.9720458984375,0.19153612852096558
1774789959550180900,11.014180908203125,7.06528902053833,0.9911994934082031,0.09576806426048279
1774789959560251600,11.024251708984375,7.187393665313721,0.9888052940368652,0.026336219161748886
1774789959570322400,11.034322509765625,7.19936466217041,0.7996633648872375,0.08140286058187485
1774789959580423700,11.044423583984376,7.259219646453857,0.7158663272857666,0.0933738648891449
1774789959590494500,11.054494384765626,7.117961883544922,0.667982280254364,0.0933738648891449
1774789959600565200,11.064565185546876,7.156269073486328,0.7469909191131592,0.11013327538967133
1774789959630777600,11.094777587890626,7.747636795043945,1.2497732639312744,0.1604115068912506
1774789959640818000,11.10481787109375,8.099584579467773,1.2713210582733154,-0.07661445438861847
1774789959650919400,11.11491943359375,8.374917984008789,1.173158884048462,-0.16998831927776337
1774789959660990200,11.124990234375,8.585607528686523,1.0127472877502441,-0.2537853717803955
1774789959681131800,11.1451318359375,8.801085472106934,1.3407529592514038,-0.31364041566848755
1774789959691172000,11.155172119140625,9.097966194152832,1.6855180263519287,-0.1364694982767105
1774789959701273300,11.1652734375,9.263166427612305,1.8986018896102905,-0.038307227194309235
1774789959721415000,11.185414794921876,9.9000244140625,1.8387469053268433,0.016759412363171577
1774789959741556500,11.205556396484376,10.311826705932617,1.7741034030914307,-0.17717093229293823
1774789959751627300,11.215627197265626,10.615890502929688,1.7980455160140991,-0.1867477297782898
1774789959761698000,11.225697998046876,11.027692794799805,1.7357962131500244,-0.30885201692581177
1774789959771738400,11.23573828125,11.329362869262695,1.601720929145813,-0.42377370595932007
1774789959781839600,11.245839599609376,11.60708999633789,1.5322890281677246,-0.44771572947502136
1774789959791910400,11.255910400390626,11.621455192565918,1.5107412338256836,-0.3758896589279175
1774789959802012000,11.266011962890625,11.654973983764648,1.558625340461731,-0.33279404044151306
1774789959812052200,11.27605224609375,11.729193687438965,1.7190368175506592,-0.33758243918418884
1774789959822153500,11.286153564453125,11.872846603393555,1.8148049116134644,-0.36152446269989014
1774789959832254700,11.296254638671876,11.925518989562988,1.987187385559082,-0.40222588181495667
1774789959902750500,11.36675048828125,12.045228958129883,0.4692635238170624,-1.6903064250946045
1774789959973246000,11.437245849609376,10.213664054870605,-1.335964560508728,0.569819986820221
1774789959993418000,11.45741796875,10.596736907958984,-1.3886369466781616,0.363918662071228
1774789960003488800,11.46748876953125,10.606313705444336,-1.4628572463989258,-0.016759412363171577
1774789960013498600,11.47749853515625,10.235212326049805,-1.6400281190872192,-0.5482721924781799
1774789960023569400,11.4875693359375,10.235212326049805,-1.6400281190872192,-0.5482721924781799
1774789960033640200,11.49764013671875,9.617507934570312,-1.8100165128707886,-1.048660397529602
1774789960043711000,11.5077109375,9.016563415527344,-1.678335428237915,-1.2330138683319092
1774789960053781800,11.51778173828125,8.547300338745117,-1.1971008777618408,-1.3311761617660522
1774789960114206700,11.578206787109375,7.738059997558594,-0.6392518281936646,-1.292868971824646
1774789960124277500,11.588277587890625,7.565677165985107,-0.7757213711738586,-1.1037269830703735
1774789960134409200,11.5984091796875,7.359776020050049,-0.6392518281936646,-0.7565677165985107
1774789960144480000,11.60847998046875,7.350199222564697,-0.05267243832349777,-0.5003881454467773
1774789960154550800,11.61855078125,7.230489253997803,0.5770025849342346,-0.24660277366638184
1774789960164621800,11.628621826171875,7.017405033111572,1.1827356815338135,-0.038307227194309235
1774789960174723000,11.63872314453125,7.041347026824951,1.525106430053711,0.06464344263076782
1774789960184763400,11.648763427734375,7.046135425567627,1.5275006294250488,0.1388636976480484
1774789960194834200,11.658834228515625,7.117961883544922,1.3479355573654175,0.040701430290937424
1774789960204905000,11.668905029296875,7.314286231994629,0.9672574996948242,0
1774789960214975700,11.678975830078125,7.491456985473633,0.6440402865409851,0.05267243832349777
1774789960225077000,11.689076904296876,7.790732383728027,0.49320554733276367,0.26096799969673157
1774789960235178200,11.69917822265625,8.145073890686035,0.3758896589279175,0.40462008118629456
1774789960245249000,11.7092490234375,8.42040729522705,0.3974374830722809,0.33279404044151306
1774789960255320000,11.719320068359375,8.640673637390137,0.33758243918418884,0.19632454216480255
1774789960265390800,11.729390869140625,8.662221908569336,0.47884035110473633,0.07182604819536209
1774789960275461600,11.739461669921875,8.777143478393555,0.6440402865409851,0.10295066982507706
1774789960285532400,11.749532470703125,8.899248123168945,0.8667010068893433,0.011971008032560349
1774789960295633700,11.759633544921876,9.011775016784668,0.9983820915222168,-0.06703764945268631
1774789960305735000,11.76973486328125,9.229647636413574,1.0797849893569946,-0.08858546614646912
1774789960315805700,11.7798056640625,9.44991397857666,1.2761094570159912,-0.14604631066322327
1774789960325876500,11.78987646484375,9.830592155456543,1.2832920551300049,-0.21547815203666687
1774789960346048800,11.810048828125,10.345345497131348,1.0223240852355957,-0.1628057211637497
1774789960356119600,11.82011962890625,10.572794914245605,0.9433154463768005,-0.14604631066322327
1774789960386362400,11.8503623046875,11.027692794799805,1.0223240852355957,-0.24181437492370605
1774789960396402700,11.860402587890626,11.30302619934082,1.1755530834197998,-0.3471592366695404
1774789960426615000,11.890614990234376,11.741165161132812,1.601720929145813,-1.0007762908935547
1774789960436685800,11.900685791015626,11.956643104553223,1.680729627609253,-1.194706678390503
1774789960446726100,11.91072607421875,12.114660263061523,1.644816517829895,-1.4532804489135742
1774789960456766500,11.920766357421876,12.600683212280273,1.699883222579956,-1.656787633895874
1774789960466837200,11.930837158203126,12.684480667114258,1.86508309841156,-2.3319525718688965
1774789960476908000,11.940907958984376,12.452242851257324,1.8363527059555054,-2.9544448852539062
1774789960497049600,11.961049560546876,12.289437294006348,1.0558429956436157,-3.5960910320281982
1774789960507090000,11.97108984375,12.042834281921387,0.24660277366638184,-3.4404678344726562
1774789960517160700,11.98116064453125,11.678915977478027,-0.5793967843055725,-3.1866824626922607
1774789960527231500,11.9912314453125,11.190498352050781,-0.8786720037460327,-2.9520506858825684
1774789960537302300,12.00130224609375,10.984597206115723,-0.7182605266571045,-2.853888511657715
1774789960547373000,12.011373046875,11.164162635803223,-0.23942017555236816,-2.829946517944336
1774789960557443800,12.02144384765625,11.365275382995605,0.08858546614646912,-2.9688100814819336
1774789960567484200,12.031484130859376,11.420342445373535,0.13168109953403473,-3.0597896575927734
1774789960577555000,12.041554931640626,11.077971458435059,0.06464344263076782,-3.0861260890960693
1774789960597727200,12.061727294921875,10.228029251098633,-0.016759412363171577,-2.343923568725586
1774789960607798000,12.071798095703125,9.864110946655273,-0.1364694982767105,-2.0877439975738525
1774789960617838300,12.08183837890625,9.552865028381348,-0.20111294090747833,-1.8531121015548706
1774789960627939600,12.091939697265625,9.174580574035645,-0.26096799969673157,-1.6184803247451782
1774789960638010400,12.10201025390625,8.87291145324707,-0.21547815203666687,-1.2473790645599365
1774789960648081200,12.1120810546875,8.710105895996094,-0.2298433631658554,-0.849941611289978
1774789960658182400,12.122182373046876,8.702922821044922,-0.15801730751991272,-0.5195417404174805
1774789960688395000,12.15239501953125,7.893682956695557,0.17717093229293823,0.035913024097681046
1774789960698465800,12.1624658203125,7.560888767242432,0.30885201692581177,0.1173158809542656
1774789960708567000,12.172567138671875,7.2352776527404785,0.3878606855869293,0.17238251864910126
1774789960718607400,12.182607421875,7.074865818023682,0.47644615173339844,0.14604631066322327
1774789960728678100,12.19267822265625,6.981492042541504,0.5123591423034668,0.002394201699644327
1774789960738779400,12.202779296875,6.854599475860596,0.689530074596405,-0.1173158809542656
1774789960748880600,12.212880615234376,6.682217121124268,0.7350199222564697,-0.17238251864910126
1774789960758982100,12.222982177734375,6.811503887176514,0.7230489253997803,-0.090979665517807
1774789960789225000,12.253224853515626,6.830657482147217,0.8906430602073669,-0.12210428714752197
1774789960799295700,12.263295654296876,6.921637058258057,1.0462661981582642,-0.2849099934101105
1774789960809366500,12.273366455078126,7.0126166343688965,1.2066776752471924,-0.395043283700943
1774789960819437300,12.283437255859376,7.161057472229004,1.3120225667953491,-0.6248866319656372
1774789960829538800,12.293538818359375,7.422025203704834,1.2090718746185303,-0.8882488012313843
1774789960839640000,12.30364013671875,7.6997528076171875,1.2018892765045166,-0.9744400978088379
1774789960849710800,12.3137109375,8.001421928405762,1.1516109704971313,-0.8451532125473022
1774789960859812000,12.32381201171875,8.2312650680542,1.2066776752471924,-0.7781155705451965
1774789960869883000,12.3338828125,8.530540466308594,1.2090718746185303,-0.545877993106842
1774789960900034300,12.364034423828125,9.466673851013184,1.3503297567367554,-0.11971008777618408
1774789960910135600,12.374135498046876,10.093954086303711,1.1971008777618408,-0.06224924325942993
1774789960920206300,12.384206298828126,10.342951774597168,0.9576807022094727,0.028730420395731926
1774789960930277000,12.394277099609376,10.606313705444336,0.7972691655158997,0.019153613597154617
1774789960940378600,12.404378662109375,10.855310440063477,0.8667010068893433,-0.05506663769483566
1774789960950449400,12.414449462890625,11.094730377197266,0.8547300100326538,-0.16759411990642548
1774789960960520200,12.424520263671875,11.384428977966309,1.1635819673538208,-0.2801215946674347
1774789960970591000,12.434591064453125,11.5065336227417,1.3311761617660522,-0.37828385829925537
1774789960990702000,12.4547021484375,11.626243591308594,1.1779472827911377,-0.4572925269603729
1774789961010782500,12.474782470703126,11.614272117614746,0.9145850539207458,-0.26815059781074524
1774789961020853500,12.484853515625,11.60948371887207,0.8906430602073669,-0.05506663769483566
1774789961030924300,12.49492431640625,11.604695320129395,0.8044517636299133,0.272938996553421
1774789961041025500,12.505025634765625,11.817779541015625,0.4668693244457245,0.5626373887062073
1774789961051096300,12.515096435546875,12.54561710357666,0.2082955539226532,0.5793967843055725
1774789961061197600,12.525197509765626,13.362039566040039,-0.090979665517807,-0.2513911724090576
1774789961071298800,12.535298828125,13.555970191955566,-0.7972691655158997,-1.5322890281677246
1774789961081369900,12.545369873046875,12.749124526977539,-1.3215993642807007,-2.5737667083740234
1774789961091410000,12.555409912109376,11.81299114227295,-1.2689268589019775,-2.87064790725708
1774789961101511400,12.565511474609375,10.608707427978516,-0.5363011956214905,-2.343923568725586
1774789961111612700,12.57561279296875,10.065223693847656,0.37828385829925537,-1.3311761617660522
1774789961121683500,12.585683349609376,9.763554573059082,0.933738648891449,-0.5099649429321289
1774789961131754200,12.595754150390626,10.0580415725708,0.8643068075180054,-0.043095629662275314
1774789961141855500,12.60585546875,10.24239444732666,0.2082955539226532,-0.13407529890537262
1774789961151895800,12.615895751953126,10.29746150970459,-0.828393816947937,-0.3878606855869293
1774789961161966600,12.625966552734376,10.376470565795898,-1.7717092037200928,-0.5410895943641663
1774789961172037400,12.636037353515626,10.450690269470215,-2.322375535964966,-0.49559974670410156
1774789961212259600,12.676259521484376,9.847352027893066,-0.8140285611152649,-1.0414776802062988
1774789961222360800,12.68636083984375,9.514557838439941,-0.40462008118629456,-1.41257905960083
1774789961232431900,12.696431884765625,9.275136947631836,-0.304063618183136,-1.6376339197158813
1774789961242502700,12.706502685546875,9.14345645904541,-0.30885201692581177,-1.7070658206939697
1774789961252512300,12.71651220703125,9.071630477905273,-0.38307225704193115,-1.6759412288665771
1774789961262613800,12.72661376953125,8.992621421813965,-0.272938996553421,-1.6112977266311646
1774789961272684500,12.7366845703125,8.78193187713623,-0.4429273009300232,-1.3479355573654175
1774789961282724600,12.746724609375,8.611943244934082,-0.45010992884635925,-1.1324573755264282
1774789961292734500,12.756734375,8.422801971435547,-0.49320554733276367,-0.9361328482627869
1774789961312937200,12.776937255859375,7.857769966125488,-0.1867477297782898,-0.6631938815116882
1774789961322977500,12.7869775390625,7.51779317855835,-0.047884032130241394,-0.569819986820221
1774789961333017600,12.797017578125,7.393294811248779,0.30885201692581177,-0.35673606395721436
1774789961343119000,12.807119140625,7.156269073486328,0.40940847992897034,-0.2585737705230713
1774789961353190000,12.81718994140625,7.058106422424316,0.5985504388809204,-0.2322375625371933
1774789961363230200,12.827230224609375,7.089231014251709,0.5410895943641663,-0.26336219906806946
1774789961373209300,12.837209228515626,7.029376029968262,0.38307225704193115,-0.3447650372982025
1774789961383310600,12.847310546875,6.909666061401367,0.31364041566848755,-0.3974374830722809
1774789961393412000,12.857412109375,6.866570472717285,0.2059013396501541,-0.2968810200691223
1774789961413462000,12.8774619140625,6.983886241912842,0.3519476354122162,-0.11971008777618408
1774789961423563300,12.887563232421876,7.295132637023926,0.3998316824436188,-0.2059013396501541
1774789961433664800,12.897664794921875,7.728483200073242,0.43335050344467163,-0.35913026332855225
1774789961443766000,12.90776611328125,8.334216117858887,0.28730419278144836,-0.42856210470199585
1774789961453806300,12.917806396484375,8.686163902282715,0.15562310814857483,-0.48602294921875
1774789961463907600,12.927907470703126,8.743624687194824,0.05506663769483566,-0.44532153010368347
1774789961473978400,12.937978271484376,8.760383605957031,0.15083470940589905,-0.3495534360408783
1774789961484049200,12.948049072265626,8.848969459533691,0.3208230137825012,-0.13407529890537262
1774789961494059000,12.95805908203125,9.08838939666748,0.6129156351089478,0.09576806426048279
1774789961504160300,12.96816015625,9.375694274902344,0.8331822156906128,-0.023942016065120697
1774789961534342100,12.998342041015626,10.261548042297363,0.5195417404174805,-0.5650315880775452
1774789961544443400,13.008443359375,10.496180534362793,0.2825157940387726,-0.4812345504760742
1774789961554514200,13.01851416015625,10.876858711242676,0.26336219906806946,-0.49799394607543945
1774789961564615700,13.02861572265625,11.065999984741211,0.2992752194404602,-0.4644751250743866
1774789961574656000,13.038656005859375,11.286267280578613,0.2346317619085312,-0.6009446382522583
1774789961584757200,13.04875732421875,11.57596492767334,0.2106897532939911,-0.5770025849342346
1774789961645182000,13.109181884765626,13.383587837219238,0.9983820915222168,-1.6903064250946045
1774789961665323500,13.129323486328126,12.696451187133789,0.9002198576927185,-3.026270866394043
1774789961675425000,13.139425048828125,12.236764907836914,0.8020575642585754,-3.1507694721221924
1774789961685526300,13.1495263671875,11.884817123413086,0.5267243981361389,-2.935291290283203
1774789961695597000,13.15959716796875,11.568782806396484,-0.10773907601833344,-2.626439332962036
1774789961705667800,13.169667724609376,11.568782806396484,-0.10773907601833344,-2.626439332962036
1774789961715738600,13.179738525390626,11.068394660949707,-1.2952631711959839,-2.387019157409668
1774789961725779000,13.189779052734375,11.068394660949707,-1.2952631711959839,-2.3511061668395996
1774789961766062000,13.23006201171875,10.943896293640137,-0.5602431893348694,-2.9735984802246094
1774789961776072000,13.240072021484375,10.620678901672363,0.08619125932455063,-2.849100112915039
1774789961786142700,13.250142822265625,10.271124839782715,0.43335050344467163,-2.736572504043579
1774789961796183000,13.26018310546875,9.998186111450195,0.3519476354122162,-2.5258827209472656
1774789961806253800,13.27025390625,9.672574996948242,0.12210428714752197,-2.322375535964966
1774789961816294100,13.280294189453125,9.41400146484375,-0.15083470940589905,-2.078166961669922
1774789961826365000,13.290364990234375,9.165003776550293,-0.4596867263317108,-1.824381709098816
1774789961846537000,13.310536865234376,8.710105895996094,-0.26815059781074524,-1.2689268589019775
1774789961856577300,13.320577392578125,8.528146743774414,0.11971008777618408,-0.9528923034667969
1774789961866648000,13.33064794921875,8.315062522888184,0.5626373887062073,-0.6727706789970398
1774789961876718800,13.34071875,8.125920295715332,0.8259995579719543,-0.507570743560791
1774789961886820000,13.350820068359376,7.9846625328063965,0.8212111592292786,-0.2849099934101105
1774789961896891000,13.360890869140626,7.726089000701904,0.7709329724311829,-0.28969839215278625
1774789961906992400,13.370992431640625,7.484274387359619,0.7134721279144287,-0.20350714027881622
1774789961917063200,13.381063232421875,7.29034423828125,0.507570743560791,-0.090979665517807
1774789961947306000,13.411305908203126,7.105990409851074,0.26575639843940735,0.07422025501728058
1774789961957376800,13.421376708984376,7.220912456512451,0.15562310814857483,-0.004788403399288654
1774789961967478000,13.43147802734375,7.295132637023926,0.0454898327589035,-0.12210428714752197
1774789961977549000,13.441549072265625,7.043741226196289,0.13168109953403473,-0.17477671802043915
1774789961987589000,13.451589111328126,6.900089263916016,0.2944868206977844,-0.17956513166427612
1774789961997660000,13.461659912109376,6.823474884033203,0.5027823448181152,-0.31842881441116333
1774789962007731000,13.47173095703125,6.8378400802612305,0.5961562395095825,-0.1843535304069519
1774789962017771000,13.48177099609375,7.173028469085693,0.47644615173339844,-0.15801730751991272
1774789962027872500,13.49187255859375,7.508216381072998,0.40701428055763245,-0.1149216815829277
1774789962037943300,13.501943359375,7.955932140350342,0.49559974670410156,-0.1388636976480484
1774789962058054400,13.522054443359375,8.585607528686523,-0.014365210197865963,-0.45010992884635925
1774789962118479000,13.58247900390625,9.86650562286377,1.414973258972168,-0.3447650372982025
1774789962128550000,13.5925498046875,10.299856185913086,1.2641384601593018,-0.3447650372982025
1774789962138590200,13.602590087890626,10.627861022949219,0.9528923034667969,-0.5913678407669067
1774789962148661000,13.612660888671876,10.862493515014648,0.8259995579719543,-0.646434485912323
1774789962158731800,13.622731689453126,11.097125053405762,0.7158663272857666,-0.6751648783683777
1774789962168802600,13.632802490234376,11.314997673034668,0.8379706144332886,-0.751779317855835
1774789962178873300,13.642873291015626,11.305420875549316,0.9265560507774353,-0.849941611289978
1774789962188913700,13.65291357421875,11.291055679321289,1.0678139925003052,-0.9433154463768005
1774789962219065000,13.683065185546875,11.45146656036377,0.912190854549408,-0.629675030708313
1774789962229136000,13.693135986328125,11.492168426513672,0.8882488012313843,-0.5051765441894531
1774789962239206700,13.70320654296875,11.583148002624512,0.9097966551780701,-0.3495534360408783
1774789962249277400,13.71327734375,11.892000198364258,0.6847416758537292,-0.026336219161748886
1774789962289560600,13.753560546875,12.868834495544434,-1.2234370708465576,-1.455674648284912
1774789962299631400,13.76363134765625,12.27507209777832,-1.4508862495422363,-1.6376339197158813
1774789962309732900,13.77373291015625,11.389217376708984,-0.993593692779541,-1.3886369466781616
1774789962319803600,13.7838037109375,10.83855152130127,-0.33758243918418884,-0.849941611289978
1774789962329874400,13.79387451171875,10.563218116760254,0.22266076505184174,-0.17477671802043915
1774789962339914800,13.803914794921875,10.589553833007812,0.44771572947502136,0.11971008777618408
1774789962349985500,13.813985595703125,10.65898609161377,0.1843535304069519,0.2513911724090576
1774789962360025900,13.82402587890625,10.575188636779785,-0.730231523513794,0.19871874153614044
1774789962450632400,13.914632568359375,8.947132110595703,-0.7996633648872375,-1.50355863571167
1774789962460642300,13.924642333984375,8.741230010986328,-0.7637503147125244,-1.5610195398330688
1774789962500895000,13.96489501953125,7.661445617675781,-0.47165772318840027,-0.9409212470054626
1774789962520945000,13.98494482421875,7.304709434509277,-0.27054479718208313,-0.6129156351089478
1774789962541117200,14.0051171875,6.926425457000732,0.023942016065120697,-0.2082955539226532
1774789962581461200,14.045461181640626,6.773196697235107,0.2298433631658554,-0.019153613597154617
1774789962591532000,14.055531982421876,6.9024834632873535,0.23942017555236816,0.002394201699644327
1774789962631784700,14.09578466796875,7.632715225219727,0.35913026332855225,0.05985504388809204
1774789962641855500,14.10585546875,7.790732383728027,0.6105214357376099,0.13407529890537262
1774789962732523300,14.196523193359376,10.618284225463867,0.5003881454467773,0.019153613597154617
1774789962752695600,14.216695556640625,10.979808807373047,0.48602294921875,-0.45489832758903503
1774789962762766300,14.226766357421875,10.99896240234375,0.3663128614425659,-0.6512228846549988
1774789962772837000,14.236837158203125,11.099518775939941,0.5123591423034668,-0.7613561153411865
1774789962782877200,14.246877197265626,11.195286750793457,0.8571242094039917,-0.6919242739677429
1774789962803019000,14.26701904296875,11.652579307556152,1.1994950771331787,-0.7733271718025208
1774789962813059000,14.27705908203125,11.695674896240234,1.3335703611373901,-0.8068459630012512
1774789962833231400,14.2972314453125,12.18409252166748,1.2018892765045166,-0.7948749661445618
1774789962843302100,14.30730224609375,12.536040306091309,1.161187767982483,-0.8427590131759644
1774789962853342500,14.317342529296875,12.914323806762695,1.3958195447921753,-1.2330138683319092
1774789962863382800,14.3273828125,13.017274856567383,1.5275006294250488,-1.8579005002975464
1774789962873484000,14.337484130859375,12.732364654541016,1.623268723487854,-2.4157495498657227
1774789962883554800,14.347554931640625,12.440272331237793,1.625662922859192,-2.612074136734009
1774789962903635500,14.367635498046875,11.662156105041504,0.9600749015808105,-2.6168625354766846
1774789962913706200,14.377706298828125,11.166556358337402,0.21787235140800476,-2.432508945465088
1774789962923777000,14.387777099609375,10.984597206115723,-0.31603461503982544,-2.2002713680267334
1774789962933847800,14.397847900390625,11.092336654663086,-0.6655880808830261,-1.9608511924743652
1774789962943888100,14.40788818359375,11.152191162109375,-0.6943184733390808,-1.922544002532959
1774789962953959000,14.417958984375,11.14500904083252,-0.9002198576927185,-1.8794482946395874
1774789962964029700,14.42802978515625,10.975020408630371,-0.9026140570640564,-1.965639591217041
1774789962974039300,14.438039306640626,10.72602367401123,-0.8619126081466675,-2.1356279850006104
1774789962984079600,14.44807958984375,10.292673110961914,-0.8954314589500427,-2.2912509441375732
1774789963014231000,14.47823095703125,9.160215377807617,-0.3974374830722809,-1.6376339197158813
1774789963034372600,14.49837255859375,8.779537200927734,-0.5339069962501526,-1.5466543436050415
1774789963044443400,14.508443359375,8.580819129943848,-0.6033388376235962,-1.4628572463989258
1774789963054483700,14.518483642578126,8.382100105285645,-0.6847416758537292,-1.213860273361206
1774789963064585000,14.5285849609375,8.14028549194336,-0.6919242739677429,-0.8858546018600464
1774789963074625300,14.538625244140626,7.805097579956055,-0.6177040338516235,-0.5722141861915588
1774789963084726800,14.548726806640625,7.51779317855835,-0.3495534360408783,-0.33279404044151306
1774789963094797600,14.558797607421875,7.364564418792725,0,-0.09816227108240128
1774789963104898800,14.56889892578125,7.12035608291626,0.42616790533065796,-0.15083470940589905
1774789963114969600,14.578969482421876,7.070077419281006,0.7445967197418213,-0.12210428714752197
1774789963125040400,14.589040283203126,7.0317702293396,0.9409212470054626,-0.23942017555236816
1774789963135080700,14.599080810546875,7.01979923248291,0.8188169598579407,-0.24420857429504395
1774789963145182000,14.609181884765626,7.0557122230529785,0.6943184733390808,-0.304063618183136
1774789963155252700,14.619252685546876,6.88332986831665,0.5482721924781799,-0.2059013396501541
1774789963165293000,14.62929296875,6.794744491577148,0.6057330369949341,-0.1173158809542656
1774789963175333400,14.63933349609375,6.584054470062256,0.667982280254364,-0.05746084079146385
1774789963185434600,14.6494345703125,6.619967937469482,0.8954314589500427,0.12210428714752197
1774789963195475000,14.659474853515626,6.842628479003906,1.0989385843276978,0.14844051003456116
1774789963225748500,14.68974853515625,8.08043098449707,0.8547300100326538,-0.22266076505184174
1774789963235819300,14.6998193359375,8.293514251708984,0.4620809257030487,-0.42856210470199585
1774789963245890000,14.70989013671875,8.315062522888184,0.2968810200691223,-0.5770025849342346
1774789963255899600,14.719899658203126,8.315062522888184,0.2968810200691223,-0.5770025849342346
1774789963266001200,14.730001220703125,8.35097599029541,0.31603461503982544,-0.5171475410461426
1774789963276072000,14.740072021484375,8.44434928894043,0.6033388376235962,-0.28969839215278625
1774789963286173200,14.750173095703126,8.743624687194824,0.727837324142456,-0.2106897532939911
1774789963296244000,14.760243896484376,9.155426979064941,0.8978256583213806,-0.2777273952960968
1774789963306314800,14.770314697265626,9.727641105651855,0.7972691655158997,-0.3711012601852417
1774789963316385500,14.780385498046876,10.24239444732666,0.8571242094039917,-0.4908113479614258
1774789963326487000,14.790487060546875,10.620678901672363,0.8810662031173706,-0.5291185975074768
1774789963336557800,14.800557861328125,10.917559623718262,1.015141487121582,-0.3495534360408783
1774789963346598000,14.810597900390626,11.21444034576416,1.0869675874710083,-0.3016694188117981
1774789963356669000,14.8206689453125,11.563994407653809,1.1324573755264282,-0.17956513166427612
1774789963366739700,14.83073974609375,11.769895553588867,0.9217676520347595,-0.37828385829925537
1774789963376810500,14.840810546875,11.994950294494629,0.7805097699165344,-0.6584054827690125
1774789963386881300,14.85088134765625,11.908759117126465,0.5770025849342346,-0.8044517636299133
1774789963396952000,14.8609521484375,11.882423400878906,0.7637503147125244,-0.7805097699165344
1774789963417093600,14.88109375,11.657367706298828,1.6304513216018677,-0.43095630407333374
1774789963427164400,14.891164306640626,11.520898818969727,1.8124107122421265,-0.24660277366638184
1774789963437265700,14.901265625,11.496956825256348,1.8291701078414917,-0.07900865375995636
1774789963447306000,14.911305908203126,11.44907283782959,1.6424223184585571,0.2513911724090576
1774789963457346300,14.92134619140625,11.887211799621582,0.9026140570640564,0.5913678407669067
1774789963467417000,14.9314169921875,12.440272331237793,0.13168109953403473,0.6488286852836609
1774789963477518300,14.941518310546876,12.854469299316406,-0.40940847992897034,0.2753331959247589
1774789963487589000,14.951589111328126,12.96460247039795,-0.9481038451194763,-0.5650315880775452
1774789963517801700,14.9818017578125,10.390835762023926,-0.6129156351089478,-1.1563993692398071
1774789963527903000,14.991903076171875,9.634267807006836,0.1867477297782898,-0.31842881441116333
1774789963537973800,15.001973876953125,9.35654067993164,0.45489832758903503,0.4884171485900879
1774789963548044500,15.01204443359375,9.677363395690918,0.08379705995321274,0.8810662031173706
1774789963558115300,15.022115234375,9.96945571899414,-0.8595184087753296,0.8954314589500427
1774789963568186000,15.03218603515625,10.196905136108398,-2.10210919380188,0.6009446382522583
1774789963578287400,15.042287353515626,10.378864288330078,-3.028665065765381,0.3711012601852417
1774789963588297200,15.052297119140626,10.615890502929688,-3.268085241317749,0.3447650372982025
1774789963598398500,15.0623984375,10.685321807861328,-2.9472622871398926,0.24899697303771973
1774789963608500000,15.0725,10.532093048095703,-2.5929205417633057,-0.047884032130241394
1774789963638712300,15.10271240234375,9.404424667358398,-1.525106430053711,-1.2497732639312744
1774789963648752600,15.112752685546875,9.026140213012695,-1.3120225667953491,-1.338358759880066
1774789963658854000,15.12285400390625,8.9064302444458,-1.173158884048462,-1.357512354850769
1774789963668894200,15.132894287109375,8.860940933227539,-1.0869675874710083,-1.4389152526855469
1774789963678995500,15.142995361328126,8.671798706054688,-1.0079588890075684,-1.3982137441635132
1774789963689035800,15.153035888671875,8.377311706542969,-0.9744400978088379,-1.3551181554794312
1774789963699137000,15.163136962890626,8.288725852966309,-0.8690952062606812,-1.1971008777618408
1774789963709207800,15.173207763671876,8.037335395812988,-0.9433154463768005,-1.1180921792984009
1774789963729349400,15.193349365234376,7.529764175415039,-0.395043283700943,-0.9265560507774353
1774789963739389700,15.2033896484375,7.182605266571045,0.15322890877723694,-0.8403648138046265
1774789963749460500,15.21346044921875,6.794744491577148,0.4357447028160095,-0.9002198576927185
1774789963759531300,15.22353125,6.476315498352051,0.8236053586006165,-0.7709329724311829
1774789963769571600,15.233571533203126,6.090848922729492,1.0342950820922852,-0.6751648783683777
1774789963779673000,15.243673095703125,5.899312973022461,0.7661445140838623,-0.5746083855628967
1774789963789743900,15.253743896484375,6.200982570648193,0.3998316824436188,-0.3256114423274994
1774789963799814700,15.263814697265625,6.643909931182861,0.16519992053508759,-0.13407529890537262
1774789963809885400,15.273885498046875,7.216124057769775,-0.016759412363171577,0.10295066982507706
1774789963819956200,15.283956298828125,7.673416614532471,-0.14844051003456116,0.3495534360408783
1774789963840036900,15.304036865234375,8.214506149291992,-0.12449848651885986,0.5626373887062073
1774789963860178400,15.324178466796875,8.506598472595215,0.22026655077934265,0.6009446382522583
1774789963870249200,15.334249267578125,8.815450668334961,0.4189853072166443,0.6631938815116882
1774789963880320000,15.344320068359375,9.0859956741333,0.6200982332229614,0.6129156351089478
1774789963890421200,15.354421142578126,9.612719535827637,0.6272808313369751,0.43095630407333374
1774789963900461600,15.364461669921875,10.002974510192871,0.5363011956214905,0.4189853072166443
1774789963910502000,15.374501953125,10.412383079528809,0.33518823981285095,0.2537853717803955
1774789963920572700,15.38457275390625,10.730812072753906,0.2513911724090576,0.18914192914962769
1774789963930674000,15.394673828125,10.972626686096191,0.12210428714752197,0.026336219161748886
1774789963950785000,15.414784912109376,11.293449401855469,0.30885201692581177,-0.028730420395731926
1774789963960825300,15.424825439453125,11.353304862976074,0.33997663855552673,-0.1388636976480484
1774789963970896100,15.434896240234375,11.362881660461426,0.3232172429561615,-0.11971008777618408
1774789963980967000,15.444966796875,11.386823654174805,0.3758896589279175,-0.1843535304069519
1774789963991037700,15.45503759765625,11.494562149047852,0.304063618183136,-0.3016694188117981
1774789964001108500,15.4651083984375,11.695674896240234,0.26815059781074524,-0.4381389021873474
1774789964011179300,15.47517919921875,11.911153793334961,0.40462008118629456,-0.5554547905921936
1774789964021280500,15.485280517578126,12.050017356872559,0.43335050344467163,-0.7230489253997803
1774789964031351600,15.4953515625,12.392388343811035,0.3687070608139038,-0.8619126081466675
1774789964061594400,15.525594482421875,12.334927558898926,0.4836287498474121,-2.4420857429504395
1774789964071665200,15.5356650390625,12.155362129211426,0.24181437492370605,-2.913743495941162
