time,seconds_elapsed,z,y,x
1774789947572875500,-0.96312451171875,9.123656272888184,2.825015068054199,-2.224539041519165
1774789947582646300,-0.953353759765625,9.108047485351562,2.846043586730957,-2.261390447616577
1774789947592456200,-0.943543701171875,9.076240539550781,2.9023666381835938,-2.3170053958892822
1774789947602366000,-0.933634033203125,9.102030754089355,2.859055280685425,-2.269191026687622
1774789947612406000,-0.923593994140625,9.119016647338867,2.847581386566162,-2.214771270751953
1774789947622476800,-0.913523193359375,9.119861602783203,2.8533167839050293,-2.20388126373291
1774789947632547800,-0.9034521484375,9.124096870422363,2.854898691177368,-2.184215784072876
1774789947642588000,-0.893412109375,9.131525039672852,2.8457112312316895,-2.1650781631469727
1774789947652658700,-0.88334130859375,9.141268730163574,2.8290162086486816,-2.1457512378692627
1774789947662729700,-0.873270263671875,9.156547546386719,2.8010056018829346,-2.1171655654907227
1774789947692942000,-0.843057861328125,9.175735473632812,2.771209478378296,-2.0728394985198975
1774789947713022500,-0.8229775390625,9.184793472290039,2.7618539333343506,-2.04502534866333
1774789947723093500,-0.812906494140625,9.190159797668457,2.7601184844970703,-2.0231404304504395
1774789947733164300,-0.802835693359375,9.192719459533691,2.7629261016845703,-2.0076210498809814
1774789947743204400,-0.792795654296875,9.194438934326172,2.7689473628997803,-1.991385579109192
1774789947753244700,-0.78275537109375,9.19500732421875,2.7736082077026367,-1.9822531938552856
1774789947763315500,-0.7726845703125,9.198481559753418,2.7787225246429443,-1.9588338136672974
1774789947813669600,-0.722330322265625,9.232599258422852,2.714067220687866,-1.8876776695251465
1774789947823710000,-0.7122900390625,9.241418838500977,2.694718360900879,-1.8721789121627808
1774789947833780700,-0.70221923828125,9.250219345092773,2.6755990982055664,-1.8560692071914673
1774789947853952800,-0.682047119140625,9.2595853805542,2.6680943965911865,-1.819814682006836
1774789947864023600,-0.6719765625,9.260966300964355,2.6725409030914307,-1.8062158823013306
1774789947884104200,-0.651895751953125,9.261685371398926,2.681528091430664,-1.7891291379928589
1774789947894205400,-0.641794677734375,9.26296329498291,2.684264659881592,-1.778379201889038
1774789947904276200,-0.631723876953125,9.265183448791504,2.6840357780456543,-1.767122507095337
1774789947914377500,-0.62162255859375,9.270679473876953,2.6743967533111572,-1.7528523206710815
1774789947924448300,-0.6115517578125,9.275625228881836,2.66300368309021,-1.744012475013733
1774789947934519000,-0.60148095703125,9.27847671508789,2.6559791564941406,-1.7395509481430054
1774789947944590000,-0.591409912109375,9.28515338897705,2.6374545097351074,-1.732093334197998
1774789947954660900,-0.581339111328125,9.28868293762207,2.6281726360321045,-1.7272741794586182
1774789947964731600,-0.571268310546875,9.289837837219238,2.626305103302002,-1.723900318145752
1774789947994974500,-0.541025634765625,9.284796714782715,2.64670991897583,-1.7198445796966553
1774789948005075700,-0.53092431640625,9.283387184143066,2.6521129608154297,-1.7191298007965088
1774789948015146500,-0.520853515625,9.282963752746582,2.653705358505249,-1.7189555168151855
1774789948025217300,-0.51078271484375,9.28357982635498,2.6514811515808105,-1.7190613746643066
1774789948035257600,-0.500742431640625,9.28368091583252,2.6507389545440674,-1.7196646928787231
1774789948045359000,-0.490640869140625,9.286879539489746,2.6400697231292725,-1.7188011407852173
1774789948055460400,-0.48053955078125,9.288684844970703,2.634688138961792,-1.7173056602478027
1774789948065561600,-0.4704384765625,9.289190292358398,2.633613348007202,-1.716219425201416
1774789948095804700,-0.4401953125,9.292173385620117,2.628931999206543,-1.7072254419326782
1774789948115976700,-0.420023193359375,9.292288780212402,2.6317970752716064,-1.7021760940551758
1774789948126047500,-0.409952392578125,9.291561126708984,2.635067939758301,-1.7010873556137085
1774789948136148700,-0.399851318359375,9.29110336303711,2.63726544380188,-1.7001808881759644
1774789948146250200,-0.389749755859375,9.290143013000488,2.6429262161254883,-1.6966348886489868
1774789948156321000,-0.379678955078125,9.288750648498535,2.6497490406036377,-1.6936132907867432
1774789948166391800,-0.369608154296875,9.287834167480469,2.654510974884033,-1.691184163093567
1774789948176462600,-0.359537353515625,9.286648750305176,2.6593337059020996,-1.690112590789795
1774789948206675000,-0.329324951171875,9.292492866516113,2.6421751976013184,-1.6848996877670288
1774789948216776200,-0.319223876953125,9.295547485351562,2.632659435272217,-1.6829451322555542
1774789948226847000,-0.309153076171875,9.298049926757812,2.624901294708252,-1.6812328100204468
1774789948236917800,-0.299082275390625,9.298412322998047,2.6242098808288574,-1.6803113222122192
1774789948246988500,-0.289011474609375,9.296894073486328,2.629457712173462,-1.6805071830749512
1774789948257090000,-0.278909912109375,9.294215202331543,2.6386911869049072,-1.6808518171310425
1774789948267160800,-0.268839111328125,9.291213989257812,2.649522066116333,-1.6804050207138062
1774789948277201200,-0.258798828125,9.28963851928711,2.6559743881225586,-1.6789292097091675
1774789948317453800,-0.218546142578125,9.291099548339844,2.6535027027130127,-1.6747466325759888
1774789948327524600,-0.208475341796875,9.293012619018555,2.646655559539795,-1.6749696731567383
1774789948337625900,-0.1983740234375,9.29542064666748,2.6386446952819824,-1.6742485761642456
1774789948347727000,-0.18827294921875,9.297530174255371,2.631802558898926,-1.6733038425445557
1774789948357798000,-0.1782021484375,9.298818588256836,2.627617120742798,-1.6727229356765747
1774789948367838200,-0.168161865234375,9.299488067626953,2.6259255409240723,-1.6716545820236206
1774789948377939500,-0.158060546875,9.299530982971191,2.6256918907165527,-1.6717805862426758
1774789948388041000,-0.147958984375,9.29866886138916,2.62815523147583,-1.6727041006088257
1774789948428385000,-0.107614990234375,9.291454315185547,2.652275800704956,-1.67472243309021
1774789948438455800,-0.097544189453125,9.291528701782227,2.6531267166137695,-1.6729639768600464
1774789948448557300,-0.087442626953125,9.292509078979492,2.6499218940734863,-1.6725964546203613
1774789948458628000,-0.077371826171875,9.29413890838623,2.6445653438568115,-1.6720175743103027
1774789948468729300,-0.067270751953125,9.296194076538086,2.638430118560791,-1.6702884435653687
1774789948478739200,-0.0572607421875,9.298436164855957,2.632556676864624,-1.667067527770996
1774789948488779500,-0.047220458984375,9.300209999084473,2.627635955810547,-1.664933204650879
1774789948518961400,-0.01703857421875,9.301714897155762,2.6287100315093994,-1.6548048257827759
1774789948529032200,-0.0069677734375,9.301358222961426,2.6322531700134277,-1.6511733531951904
1774789948539072300,0.003072265625,9.30054759979248,2.6389076709747314,-1.6451059579849243
1774789948549173800,0.013173828125,9.300650596618652,2.641927719116211,-1.639664649963379
1774789948559183400,0.023183349609375,9.302621841430664,2.6375174522399902,-1.6355791091918945
1774789948569223700,0.0332236328125,9.306512832641602,2.6260602474212646,-1.631875991821289
1774789948579264000,0.043263916015625,9.311494827270508,2.6111247539520264,-1.6274161338806152
1774789948589334800,0.053334716796875,9.315871238708496,2.5987017154693604,-1.6222434043884277
1774789948599405600,0.063405517578125,9.318219184875488,2.5937869548797607,-1.616618037223816
1774789948609446000,0.07344580078125,9.318107604980469,2.5967092514038086,-1.6125602722167969
1774789948639689000,0.10368896484375,9.309990882873535,2.630612373352051,-1.6044683456420898
1774789948649790200,0.113790283203125,9.30909538269043,2.63478422164917,-1.6028203964233398
1774789948659861000,0.123861083984375,9.310612678527832,2.6314327716827393,-1.5995125770568848
1774789948669931800,0.133931884765625,9.314294815063477,2.6211607456207275,-1.5949374437332153
1774789948679941600,0.143941650390625,9.319249153137207,2.6062121391296387,-1.59048330783844
1774789948690012400,0.154012451171875,9.324202537536621,2.591242551803589,-1.5859071016311646
1774789948700083200,0.164083251953125,9.327994346618652,2.579820156097412,-1.5822240114212036
1774789948710154000,0.174154052734375,9.328646659851074,2.578721046447754,-1.5801711082458496
1774789948750406700,0.21440673828125,9.315667152404785,2.6334259510040283,-1.5664576292037964
1774789948760477400,0.2244775390625,9.315503120422363,2.6373088359832764,-1.5608969926834106
1774789948770578700,0.23457861328125,9.315876007080078,2.6383371353149414,-1.5569261312484741
1774789948780680000,0.244679931640625,9.318411827087402,2.6319499015808105,-1.5525559186935425
1774789948790750700,0.254750732421875,9.323240280151367,2.6182620525360107,-1.5467010736465454
1774789948800821800,0.26482177734375,9.324827194213867,2.613975763320923,-1.5443822145462036
1774789948810892500,0.274892578125,9.327073097229004,2.607952356338501,-1.5410006046295166
1774789948820993800,0.284993896484375,9.327193260192871,2.609217405319214,-1.5381309986114502
1774789948831064600,0.295064697265625,9.326871871948242,2.612382173538208,-1.5346970558166504
1774789948861246500,0.32524658203125,9.320544242858887,2.639697313308716,-1.526383399963379
1774789948871286800,0.335286865234375,9.320317268371582,2.6420953273773193,-1.5236197710037231
1774789948881388000,0.345387939453125,9.322877883911133,2.635063886642456,-1.5201234817504883
1774789948891489300,0.3554892578125,9.325560569763184,2.627178907394409,-1.517310619354248
1774789948901560000,0.36556005859375,9.32872200012207,2.617482900619507,-1.514631986618042
1774789948911661600,0.37566162109375,9.33057975769043,2.6118955612182617,-1.5128332376480103
1774789948921732400,0.385732421875,9.334905624389648,2.597186326980591,-1.5114718675613403
1774789948931833600,0.39583349609375,9.33627986907959,2.592905282974243,-1.5103346109390259
1774789948962046000,0.4260458984375,9.339402198791504,2.582880735397339,-1.5082026720046997
1774789948972116700,0.43611669921875,9.33901309967041,2.584474802017212,-1.50788152217865
1774789948982187500,0.4461875,9.338569641113281,2.5852246284484863,-1.5093441009521484
1774789948992289000,0.4562890625,9.338797569274902,2.5842459201812744,-1.5096098184585571
1774789949002329000,0.4663291015625,9.340033531188965,2.5797436237335205,-1.5096606016159058
1774789949012430600,0.4764306640625,9.341819763183594,2.5751585960388184,-1.5064358711242676
1774789949022471000,0.486470947265625,9.345864295959473,2.560936689376831,-1.505597472190857
1774789949052683300,0.516683349609375,9.35179328918457,2.5422110557556152,-1.5005050897598267
1774789949062754000,0.526754150390625,9.35196590423584,2.542762517929077,-1.49849534034729
1774789949072855300,0.536855224609375,9.35086441040039,2.5487492084503174,-1.4951918125152588
1774789949082895600,0.5468955078125,9.349968910217285,2.553671360015869,-1.4923912286758423
1774789949092996900,0.556996826171875,9.351255416870117,2.5505261421203613,-1.4897067546844482
1774789949103067600,0.567067626953125,9.353654861450195,2.5426769256591797,-1.4880578517913818
1774789949113138400,0.577138427734375,9.35837459564209,2.5282042026519775,-1.4830368757247925
1774789949123209200,0.587209228515625,9.36194896697998,2.5187008380889893,-1.4766350984573364
1774789949133310700,0.597310791015625,9.363317489624023,2.5154759883880615,-1.4734513759613037
1774789949173593900,0.63759375,9.36515998840332,2.521613121032715,-1.451077938079834
1774789949183695000,0.647695068359375,9.36734390258789,2.5156211853027344,-1.4473779201507568
1774789949193766000,0.657765869140625,9.369641304016113,2.509392499923706,-1.443313479423523
1774789949203806200,0.66780615234375,9.371405601501465,2.504981756210327,-1.4395198822021484
1774789949213907700,0.67790771484375,9.37181568145752,2.5057694911956787,-1.4354689121246338
1774789949224009000,0.688009033203125,9.370849609375,2.511154890060425,-1.432363748550415
1774789949254221300,0.71822119140625,9.36660385131836,2.528273820877075,-1.4300155639648438
1774789949274363000,0.73836279296875,9.365551948547363,2.5342233180999756,-1.426373839378357
1774789949284433700,0.74843359375,9.364871978759766,2.538104772567749,-1.4239314794540405
1774789949294504400,0.75850439453125,9.364270210266113,2.5405662059783936,-1.4235056638717651
1774789949304606000,0.76860595703125,9.362956047058105,2.5474226474761963,-1.4198869466781616
1774789949314676700,0.7786767578125,9.362227439880371,2.5522167682647705,-1.4160759449005127
1774789949324747500,0.78874755859375,9.36201286315918,2.5541937351226807,-1.4139288663864136
1774789949334818300,0.798818359375,9.361557960510254,2.557392120361328,-1.4111539125442505
1774789949385263900,0.849263916015625,9.35782241821289,2.5775692462921143,-1.3991743326187134
1774789949395365000,0.859365234375,9.35741138458252,2.5799977779388428,-1.397445559501648
1774789949405405400,0.869405517578125,9.357760429382324,2.580305576324463,-1.3945366144180298
1774789949415506700,0.879506591796875,9.359058380126953,2.576888084411621,-1.3921400308609009
1774789949425577500,0.889577392578125,9.360368728637695,2.5728976726531982,-1.3907111883163452
1774789949435648300,0.899648193359375,9.36146354675293,2.5692079067230225,-1.3901646137237549
1774789949445688600,0.9096884765625,9.361454963684082,2.5695040225982666,-1.3896790742874146
1774789949486002400,0.95000244140625,9.353143692016602,2.5982062816619873,-1.3922700881958008
1774789949496103700,0.960103759765625,9.351685523986816,2.6016969680786133,-1.39554762840271
1774789949506174500,0.970174560546875,9.352254867553711,2.598510265350342,-1.3976669311523438
1774789949516245200,0.980245361328125,9.352877616882324,2.5963134765625,-1.3975787162780762
1774789949526316000,0.99031591796875,9.35464096069336,2.5890917778015137,-1.3991703987121582
1774789949536386800,1.00038671875,9.356210708618164,2.5824239253997803,-1.4009957313537598
1774789949546457600,1.01045751953125,9.357102394104004,2.5777885913848877,-1.4035799503326416
1774789949566599200,1.03059912109375,9.353391647338867,2.587639093399048,-1.4101663827896118
1774789949576700700,1.04070068359375,9.350870132446289,2.5958569049835205,-1.4117861986160278
1774789949586771500,1.050771484375,9.348092079162598,2.60475492477417,-1.4137942790985107
1774789949596842200,1.06084228515625,9.345841407775879,2.612149238586426,-1.4150292873382568
1774789949606943500,1.070943603515625,9.34444808959961,2.615894079208374,-1.4173120260238647
1774789949617044700,1.081044677734375,9.345067024230957,2.6129403114318848,-1.4186813831329346
1774789949627115500,1.091115478515625,9.346552848815918,2.6079659461975098,-1.4180450439453125
1774789949637217000,1.101217041015625,9.34891128540039,2.5984413623809814,-1.4199811220169067
1774789949647287800,1.111287841796875,9.351752281188965,2.5878520011901855,-1.420612096786499
1774789949687601400,1.151601318359375,9.35466194152832,2.5756893157958984,-1.4235581159591675
1774789949697702700,1.16170263671875,9.352218627929688,2.5826995372772217,-1.4269042015075684
1774789949707773400,1.1717734375,9.350635528564453,2.5878593921661377,-1.4279285669326782
1774789949717875000,1.181875,9.349519729614258,2.5909574031829834,-1.429613709449768
1774789949727945700,1.19194580078125,9.349172592163086,2.5912647247314453,-1.4313286542892456
1774789949737986000,1.201986083984375,9.349640846252441,2.5880393981933594,-1.4341084957122803
1774789949748056800,1.212056884765625,9.35001277923584,2.5855283737182617,-1.4362075328826904
1774789949758097200,1.22209716796875,9.350281715393066,2.584409713745117,-1.4364683628082275
1774789949768137200,1.23213720703125,9.350510597229004,2.582775831222534,-1.4379191398620605
1774789949818521900,1.28252197265625,9.350823402404785,2.578035354614258,-1.4443784952163696
1774789949828592600,1.292592529296875,9.351449966430664,2.575498580932617,-1.4448492527008057
1774789949838663400,1.302663330078125,9.352386474609375,2.5712180137634277,-1.4464081525802612
1774789949848764700,1.3127646484375,9.353282928466797,2.5671215057373047,-1.4478825330734253
1774789949858866200,1.3228662109375,9.35384464263916,2.563966989517212,-1.4498449563980103
1774789949868937000,1.33293701171875,9.353314399719238,2.5649538040161133,-1.451517105102539
1774789949879007700,1.3430078125,9.35304069519043,2.565192222595215,-1.4528648853302002
1774789949889048000,1.353048095703125,9.351347923278809,2.569552183151245,-1.4560481309890747
1774789949899118800,1.363118896484375,9.351346015930176,2.5698862075805664,-1.4554754495620728
1774789949909189600,1.373189697265625,9.351231575012207,2.5703721046447754,-1.4553509950637817
1774789949919260400,1.383260498046875,9.351327896118164,2.5698306560516357,-1.4556844234466553
1774789949929300700,1.39330078125,9.351607322692871,2.567934513092041,-1.4572335481643677
1774789949939371500,1.40337158203125,9.35175609588623,2.5659704208374023,-1.4597340822219849
1774789949949442300,1.4134423828125,9.352577209472656,2.560835123062134,-1.4634944200515747
1774789949959543600,1.42354345703125,9.353489875793457,2.5569729804992676,-1.4644076824188232
1774789949989786400,1.453786376953125,9.356950759887695,2.542860746383667,-1.466873049736023
1774789950009928200,1.47392822265625,9.357357025146484,2.5408666133880615,-1.4677400588989258
1774789950019968300,1.48396826171875,9.357658386230469,2.538386106491089,-1.4701077938079834
1774789950030069800,1.49406982421875,9.357956886291504,2.536404848098755,-1.4716238975524902
1774789950040171000,1.5041708984375,9.35842227935791,2.5340158939361572,-1.472780466079712
1774789950050180900,1.514180908203125,9.358343124389648,2.5339863300323486,-1.4733332395553589
1774789950060251600,1.524251708984375,9.357917785644531,2.5353050231933594,-1.473767638206482
1774789950070322400,1.534322509765625,9.357767105102539,2.536452293395996,-1.4727472066879272
1774789950100534800,1.56453466796875,9.359628677368164,2.529989719390869,-1.4720391035079956
1774789950110605600,1.57460546875,9.360422134399414,2.525521755218506,-1.4746603965759277
1774789950120706800,1.584706787109375,9.361379623413086,2.52241587638855,-1.4738976955413818
1774789950130747100,1.5947470703125,9.361884117126465,2.520432710647583,-1.4740897417068481
1774789950140818000,1.60481787109375,9.362038612365723,2.5200822353363037,-1.4737035036087036
1774789950150919400,1.61491943359375,9.362249374389648,2.519902229309082,-1.4726762771606445
1774789950160990200,1.624990234375,9.36386775970459,2.5152292251586914,-1.470369815826416
1774789950171030300,1.6350302734375,9.364531517028809,2.514320135116577,-1.4676955938339233
1774789950191202600,1.65520263671875,9.36623477935791,2.5109622478485107,-1.4625673294067383
1774789950211374600,1.67537451171875,9.367756843566895,2.5085289478302,-1.4569792747497559
1774789950221445400,1.6854453125,9.368528366088867,2.5072779655456543,-1.4541704654693604
1774789950231546600,1.695546630859375,9.369236946105957,2.5066566467285156,-1.4506721496582031
1774789950241648000,1.705648193359375,9.370301246643066,2.5059187412261963,-1.4450644254684448
1774789950251688400,1.7156884765625,9.37091064453125,2.5048985481262207,-1.4428811073303223
1774789950261759200,1.72575927734375,9.371756553649902,2.503884792327881,-1.4391427040100098
1774789950271860500,1.735860595703125,9.372725486755371,2.502934217453003,-1.434482216835022
1774789950281931300,1.74593115234375,9.37325382232666,2.503676176071167,-1.4297268390655518
1774789950292002000,1.756001953125,9.373329162597656,2.504246711730957,-1.4282294511795044
1774789950322214400,1.78621435546875,9.371006965637207,2.5155420303344727,-1.4236102104187012
1774789950342417200,1.806417236328125,9.3702392578125,2.5174577236175537,-1.425275444984436
1774789950352488000,1.816488037109375,9.369946479797363,2.5175631046295166,-1.4270137548446655
1774789950362589200,1.826589111328125,9.369928359985352,2.51712965965271,-1.4278969764709473
1774789950372690400,1.8366904296875,9.368643760681152,2.5210163593292236,-1.4294685125350952
1774789950413034800,1.87703466796875,9.37052059173584,2.512418270111084,-1.4322991371154785
1774789950423105500,1.88710546875,9.373169898986816,2.50105357170105,-1.4348535537719727
1774789950433176300,1.89717626953125,9.374456405639648,2.4942312240600586,-1.438320279121399
1774789950443216600,1.907216552734375,9.375053405761719,2.4911484718322754,-1.439771056175232
1774789950453318000,1.91731787109375,9.374892234802246,2.4893717765808105,-1.443887710571289
1774789950473459700,1.937459716796875,9.372139930725098,2.493497371673584,-1.4545972347259521
1774789950483469300,1.94746923828125,9.371416091918945,2.4935827255249023,-1.4591106176376343
1774789950513712400,1.97771240234375,9.372227668762207,2.487471580505371,-1.4643146991729736
1774789950523722000,1.987721923828125,9.372430801391602,2.484483242034912,-1.4680880308151245
1774789950533792800,1.997792724609375,9.373101234436035,2.481828451156616,-1.468297004699707
1774789950543863600,2.007863525390625,9.373065948486328,2.479781150817871,-1.4719778299331665
1774789950553965000,2.017965087890625,9.373465538024902,2.4783217906951904,-1.4718891382217407
1774789950563974700,2.027974609375,9.373112678527832,2.4781956672668457,-1.4743454456329346
1774789950574076200,2.038076171875,9.373616218566895,2.4771859645843506,-1.4728379249572754
1774789950594217700,2.0582177734375,9.374454498291016,2.474580764770508,-1.471879482269287
1774789950644541200,2.108541259765625,9.383318901062012,2.443610668182373,-1.467136263847351
1774789950654612000,2.118612060546875,9.384198188781738,2.440455198287964,-1.4667603969573975
1774789950664682800,2.128682861328125,9.384637832641602,2.440199851989746,-1.4643683433532715
1774789950674753500,2.13875341796875,9.384047508239746,2.442965269088745,-1.4635411500930786
1774789950684824300,2.14882421875,9.383265495300293,2.445810317993164,-1.463805079460144
1774789950694925600,2.158925537109375,9.382753372192383,2.448209285736084,-1.4630783796310425
1774789950704966000,2.1689658203125,9.382905006408691,2.4473986625671387,-1.463462233543396
1774789950715036700,2.17903662109375,9.383269309997559,2.4452948570251465,-1.464643120765686
1774789950765482200,2.229482177734375,9.3793363571167,2.4597561359405518,-1.46561861038208
1774789950775553000,2.239552978515625,9.379164695739746,2.4605865478515625,-1.465325951576233
1774789950785623800,2.249623779296875,9.380842208862305,2.455397129058838,-1.4632868766784668
1774789950795725300,2.259725341796875,9.382149696350098,2.451754331588745,-1.4610167741775513
1774789950805765400,2.269765380859375,9.3844575881958,2.4443283081054688,-1.458631992340088
1774789950815867000,2.279866943359375,9.38577938079834,2.440542697906494,-1.4564622640609741
1774789950825907200,2.2899072265625,9.386770248413086,2.438953399658203,-1.452730417251587
1774789950876322000,2.340322021484375,9.39421272277832,2.418260335922241,-1.4391573667526245
1774789950886423600,2.350423583984375,9.396004676818848,2.4130685329437256,-1.4361737966537476
1774789950896494300,2.360494384765625,9.39834213256836,2.405318021774292,-1.4338724613189697
1774789950906595600,2.370595703125,9.401039123535156,2.394385576248169,-1.4344909191131592
1774789950916666400,2.380666259765625,9.401970863342285,2.391463279724121,-1.4332618713378906
1774789950926737200,2.390737060546875,9.403495788574219,2.386103868484497,-1.4321914911270142
1774789950956949500,2.420949462890625,9.406645774841309,2.3762974739074707,-1.4277994632720947
1774789950967051000,2.431051025390625,9.407334327697754,2.3713700771331787,-1.4314563274383545
1774789950977121800,2.441121826171875,9.408370971679688,2.3686742782592773,-1.429100513458252
1774789950987223000,2.45122314453125,9.409616470336914,2.360944986343384,-1.4336806535720825
1774789950997293800,2.4612939453125,9.411004066467285,2.357098340988159,-1.430903673171997
1774789951007395000,2.47139501953125,9.411944389343262,2.351853370666504,-1.4333438873291016
1774789951017465900,2.4814658203125,9.412822723388672,2.351367473602295,-1.4283665418624878
1774789951027567400,2.4915673828125,9.413202285766602,2.3506314754486084,-1.4270730018615723
1774789951037638100,2.50163818359375,9.41404914855957,2.3500216007232666,-1.4224878549575806
1774789951078043400,2.54204345703125,9.426375389099121,2.3122382164001465,-1.4026381969451904
1774789951088114200,2.5521142578125,9.431532859802246,2.2965877056121826,-1.3936463594436646
1774789951098154500,2.562154541015625,9.435334205627441,2.284545421600342,-1.387699007987976
1774789951108225300,2.572225341796875,9.438477516174316,2.2741177082061768,-1.3834434747695923
1774789951118296000,2.582296142578125,9.441056251525879,2.265859365463257,-1.3793911933898926
1774789951128366800,2.592366943359375,9.443652153015137,2.259373426437378,-1.3722442388534546
1774789951138407200,2.6024072265625,9.44627571105957,2.2509171962738037,-1.3680766820907593
1774789951158579200,2.6225791015625,9.452154159545898,2.229816436767578,-1.3620158433914185
1774789951168650000,2.63264990234375,9.455862045288086,2.216357469558716,-1.3582404851913452
1774789951178720800,2.642720703125,9.459061622619629,2.202700614929199,-1.3581737279891968
1774789951188791600,2.65279150390625,9.461650848388672,2.191218137741089,-1.3587144613265991
1774789951198862300,2.6628623046875,9.463374137878418,2.1804537773132324,-1.3640216588974
1774789951208933000,2.67293310546875,9.463258743286133,2.181678533554077,-1.3628625869750977
1774789951219004000,2.68300390625,9.460994720458984,2.1859655380249023,-1.3716906309127808
1774789951229075000,2.693074951171875,9.459325790405273,2.1901283264160156,-1.3765459060668945
1774789951239176200,2.70317626953125,9.458500862121582,2.193359613418579,-1.3770663738250732
1774789951279489800,2.74348974609375,9.466852188110352,2.140143871307373,-1.4031708240509033
1774789951289560600,2.753560546875,9.467315673828125,2.137502431869507,-1.404063105583191
1774789951299662000,2.763662109375,9.467185020446777,2.133169651031494,-1.4115192890167236
1774789951309732900,2.77373291015625,9.466689109802246,2.1299784183502197,-1.4196395874023438
1774789951319803600,2.7838037109375,9.466324806213379,2.1261656284332275,-1.4277617931365967
1774789951329874400,2.79387451171875,9.466554641723633,2.119584321975708,-1.4360008239746094
1774789951339945200,2.8039453125,9.468626022338867,2.1005914211273193,-1.4501838684082031
1774789951350016000,2.81401611328125,9.470807075500488,2.085325241088867,-1.4579472541809082
1774789951390299100,2.854299072265625,9.475311279296875,2.0383079051971436,-1.4947129487991333
1774789951400370000,2.864369873046875,9.475383758544922,2.0364696979522705,-1.4967576265335083
1774789951410471400,2.874471435546875,9.474234580993652,2.0346598625183105,-1.506456971168518
1774789951420572700,2.88457275390625,9.4727144241333,2.0291988849639893,-1.523298978805542
1774789951430643500,2.8946435546875,9.47282886505127,2.0317323207855225,-1.5192004442214966
1774789951440744700,2.90474462890625,9.473411560058594,2.0255606174468994,-1.5238038301467896
1774789951450846000,2.914845947265625,9.474189758300781,2.0149576663970947,-1.5329914093017578
1774789951460916700,2.924916748046875,9.473885536193848,2.008314847946167,-1.5435500144958496
1774789951471018200,2.935018310546875,9.473587989807129,2.0091352462768555,-1.5443097352981567
1774789951501200100,2.9652001953125,9.463997840881348,2.0344526767730713,-1.5697531700134277
1774789951511301400,2.97530126953125,9.458270072937012,2.0535221099853516,-1.5794199705123901
1774789951521372200,2.9853720703125,9.452665328979492,2.079676628112793,-1.578748106956482
1774789951531443000,2.99544287109375,9.446682929992676,2.1029458045959473,-1.5837280750274658
1774789951541513700,3.005513671875,9.441844940185547,2.1213371753692627,-1.5880390405654907
1774789951551584500,3.01558447265625,9.437381744384766,2.1357991695404053,-1.5951733589172363
1774789951561686000,3.02568603515625,9.433609008789062,2.147724151611328,-1.601462960243225
1774789951571787300,3.035787353515625,9.432199478149414,2.154620409011841,-1.6005035638809204
1774789951602030000,3.066030029296875,9.42082405090332,2.183640241622925,-1.6279397010803223
1774789951612131600,3.076131591796875,9.415961265563965,2.1970791816711426,-1.6379578113555908
1774789951622202400,3.086202392578125,9.406511306762695,2.2246439456939697,-1.6549568176269531
1774789951632273200,3.096273193359375,9.399810791015625,2.2451648712158203,-1.665285348892212
1774789951642374400,3.10637451171875,9.392544746398926,2.2668404579162598,-1.6768810749053955
1774789951652414700,3.116414794921875,9.389416694641113,2.2763383388519287,-1.6815258264541626
1774789951662485500,3.126485595703125,9.38002872467041,2.301619291305542,-1.6994106769561768
1774789951702738200,3.16673828125,9.364681243896484,2.3311994075775146,-1.7431740760803223
1774789951712809000,3.17680908203125,9.362868309020996,2.333904266357422,-1.7492797374725342
1774789951722879700,3.186879638671875,9.359613418579102,2.3403162956237793,-1.7581101655960083
1774789951732981000,3.19698095703125,9.356476783752441,2.3457143306732178,-1.7675820589065552
1774789951742990800,3.206990966796875,9.353751182556152,2.3480067253112793,-1.7789292335510254
1774789951753061600,3.2170615234375,9.35125732421875,2.3469173908233643,-1.7934184074401855
1774789951763163000,3.227162841796875,9.347735404968262,2.346123695373535,-1.8127167224884033
1774789951773233700,3.237233642578125,9.341950416564941,2.3510966300964355,-1.8359477519989014
1774789951823679200,3.28767919921875,9.276834487915039,2.4989492893218994,-1.9662110805511475
1774789951833780700,3.29778076171875,9.267014503479004,2.528040885925293,-1.9753077030181885
1774789951843882000,3.307882080078125,9.264289855957031,2.5306801795959473,-1.9846874475479126
1774789951853952800,3.317952880859375,9.26187515258789,2.536973714828491,-1.987919569015503
1774789951864023600,3.3280234375,9.260636329650879,2.541480541229248,-1.9879364967346191
1774789951874124800,3.338124755859375,9.259782791137695,2.5462722778320312,-1.9857748746871948
1774789951884195600,3.348195556640625,9.258615493774414,2.5544168949127197,-1.9807521104812622
1774789951934519000,3.39851904296875,9.251185417175293,2.623234987258911,-1.9247328042984009
1774789951944590000,3.408590087890625,9.253129959106445,2.620468854904175,-1.9191417694091797
1774789951954691300,3.41869140625,9.262795448303223,2.601339340209961,-1.8984318971633911
1774789951964731600,3.428731689453125,9.266690254211426,2.5916898250579834,-1.8926160335540771
1774789951974833000,3.4388330078125,9.274245262145996,2.572056770324707,-1.8823614120483398
1774789951984873200,3.448873291015625,9.280436515808105,2.5554449558258057,-1.8744561672210693
1774789952004953600,3.46895361328125,9.285609245300293,2.5429811477661133,-1.8657699823379517
1774789952015055000,3.47905517578125,9.28513240814209,2.545498847961426,-1.8647078275680542
1774789952025126000,3.4891259765625,9.283827781677246,2.5495989322662354,-1.8656038045883179
1774789952035196700,3.49919677734375,9.282316207885742,2.552854061126709,-1.8686692714691162
1774789952045206500,3.50920654296875,9.280671119689941,2.5538551807403564,-1.8754603862762451
1774789952055307800,3.519307861328125,9.280267715454102,2.551225423812866,-1.8810282945632935
1774789952065348000,3.52934814453125,9.280001640319824,2.5492072105407715,-1.8850749731063843
1774789952075419000,3.5394189453125,9.281094551086426,2.540388822555542,-1.891586184501648
1774789952085428500,3.549428466796875,9.282960891723633,2.529071092605591,-1.897586464881897
1774789952125712000,3.5897119140625,9.293326377868652,2.469337224960327,-1.9253160953521729
1774789952135782700,3.59978271484375,9.295899391174316,2.452158212661743,-1.934831976890564
1774789952145853400,3.609853515625,9.299098014831543,2.429141044616699,-1.9484432935714722
1774789952155924200,3.61992431640625,9.29963207244873,2.4234254360198975,-1.9530094861984253
1774789952165964500,3.629964599609375,9.301161766052246,2.410114288330078,-1.9621716737747192
1774789952176065800,3.640065673828125,9.303275108337402,2.3897509574890137,-1.9770047664642334
1774789952186106000,3.650106201171875,9.304715156555176,2.3755075931549072,-1.987365961074829
1774789952196177000,3.660177001953125,9.306303977966309,2.361001968383789,-1.997188925743103
1774789952206247700,3.67024755859375,9.306848526000977,2.3551523685455322,-2.001551866531372
1774789952216349000,3.680348876953125,9.308728218078613,2.340640068054199,-2.009817123413086
1774789952286844700,3.7508447265625,9.295387268066406,2.36044979095459,-2.0480329990386963
1774789952296915500,3.76091552734375,9.293974876403809,2.3687384128570557,-2.044872522354126
1774789952317057000,3.78105712890625,9.296663284301758,2.3665108680725098,-2.0352046489715576
1774789952347239000,3.811239013671875,9.304322242736816,2.3568460941314697,-2.0112786293029785
1774789952367380500,3.83138037109375,9.309913635253906,2.351550817489624,-1.9915093183517456
1774789952387552500,3.851552490234375,9.312827110290527,2.3644495010375977,-1.9624011516571045
1774789952397654000,3.861654052734375,9.313081741333008,2.3703296184539795,-1.954082727432251
1774789952407724800,3.871724853515625,9.315324783325195,2.379460096359253,-1.9321688413619995
1774789952417795600,3.881795654296875,9.316794395446777,2.3823421001434326,-1.9215021133422852
1774789952468149500,3.9321494140625,9.335514068603516,2.36007022857666,-1.8570488691329956
1774789952478250800,3.942250732421875,9.337658882141113,2.352940320968628,-1.8553131818771362
1774789952488321500,3.952321533203125,9.341791152954102,2.3421785831451416,-1.8481135368347168
1774789952498392600,3.962392578125,9.346244812011719,2.3324692249298096,-1.8378498554229736
1774789952508493800,3.972493896484375,9.350109100341797,2.326829671859741,-1.825294017791748
1774789952518595000,3.982594970703125,9.353245735168457,2.3243274688720703,-1.812369465827942
1774789952528635400,3.992635498046875,9.35588550567627,2.322352170944214,-1.801243543624878
1774789952558817300,4.0228173828125,9.36935043334961,2.2838568687438965,-1.7803505659103394
1774789952568918500,4.03291845703125,9.377228736877441,2.2625608444213867,-1.766008734703064
1774789952579019800,4.043019775390625,9.386309623718262,2.237727165222168,-1.749332308769226
1774789952589090800,4.0530908203125,9.390860557556152,2.2258174419403076,-1.7400718927383423
1774789952599161600,4.06316162109375,9.394813537597656,2.2143030166625977,-1.7334147691726685
1774789952609232400,4.073232421875,9.39069938659668,2.22594952583313,-1.7407723665237427
1774789952619303200,4.08330322265625,9.390204429626465,2.2268052101135254,-1.7423511743545532
1774789952649515500,4.113515625,9.378061294555664,2.2673680782318115,-1.755391001701355
1774789952669657000,4.133656982421875,9.381026268005371,2.2438745498657227,-1.7696809768676758
1774789952679758300,4.14375830078125,9.385217666625977,2.215207099914551,-1.7835158109664917
1774789952689829000,4.1538291015625,9.392050743103027,2.178842782974243,-1.792320728302002
1774789952699869400,4.163869384765625,9.40152645111084,2.130549192428589,-1.8006772994995117
1774789952709909800,4.17390966796875,9.408098220825195,2.096072196960449,-1.8068114519119263
1774789952750223600,4.2142236328125,9.411025047302246,2.069450855255127,-1.8221882581710815
1774789952770334500,4.23433447265625,9.40939998626709,2.068570613861084,-1.8315584659576416
1774789952780436000,4.24443603515625,9.410737991333008,2.057945489883423,-1.836643934249878
1774789952790506800,4.2545068359375,9.412761688232422,2.0441765785217285,-1.841645359992981
1774789952800547000,4.264547119140625,9.414053916931152,2.0323569774627686,-1.848103404045105
1774789952810556700,4.274556640625,9.414200782775879,2.0247652530670166,-1.8556771278381348
1774789952820658200,4.284658203125,9.413098335266113,2.0211260318756104,-1.8652108907699585
1774789952830729000,4.29472900390625,9.40906047821045,2.0223021507263184,-1.8842114210128784
1774789952850931500,4.314931396484375,9.39997386932373,2.0377871990203857,-1.9126665592193604
1774789952861032700,4.32503271484375,9.393893241882324,2.05106520652771,-1.9282869100570679
1774789952871103700,4.335103759765625,9.391030311584473,2.0589189529418945,-1.9338511228561401
1774789952891275800,4.35527587890625,9.380640983581543,2.0776259899139404,-1.9640341997146606
1774789952901377000,4.365376953125,9.374213218688965,2.08065128326416,-1.9913331270217896
1774789952911447800,4.37544775390625,9.369990348815918,2.084038257598877,-2.007596969604492
1774789952921518600,4.3855185546875,9.364570617675781,2.094058036804199,-2.022404670715332
1774789952931589400,4.39558935546875,9.362621307373047,2.1001429557800293,-2.0251212120056152
1774789952941691000,4.40569091796875,9.355778694152832,2.1198549270629883,-2.0361762046813965
1774789952971903200,4.4359033203125,9.337663650512695,2.1687681674957275,-2.0675768852233887
1774789952982004500,4.44600439453125,9.337398529052734,2.169498920440674,-2.0680103302001953
1774789952992075300,4.4560751953125,9.335887908935547,2.1701831817626953,-2.0741002559661865
1774789953002146000,4.46614599609375,9.335470199584961,2.167856454849243,-2.0784099102020264
1774789953022318300,4.486318359375,9.332218170166016,2.17165207862854,-2.0890233516693115
1774789953032389000,4.49638916015625,9.328348159790039,2.1817147731781006,-2.0958123207092285
1774789953042460000,4.5064599609375,9.323474884033203,2.1948862075805664,-2.103728771209717
1774789953052530700,4.51653076171875,9.314273834228516,2.217621326446533,-2.1205787658691406
1774789953092874800,4.556874755859375,9.28644847869873,2.2870094776153564,-2.1683757305145264
1774789953102945800,4.56694580078125,9.276586532592773,2.3105456829071045,-2.1855649948120117
1774789953113047000,4.577047119140625,9.264433860778809,2.3364219665527344,-2.2094757556915283
1774789953123148300,4.587148193359375,9.260527610778809,2.341506242752075,-2.2204456329345703
1774789953133219000,4.597218994140625,9.258319854736328,2.337728500366211,-2.2335877418518066
1774789953143289900,4.607289794921875,9.256265640258789,2.333507537841797,-2.2464818954467773
1774789953153330200,4.617330078125,9.260441780090332,2.3118371963500977,-2.25167179107666
1774789953183512000,4.647511962890625,9.291285514831543,2.181910276412964,-2.2542564868927
1774789953203623200,4.667623046875,9.303825378417969,2.1082398891448975,-2.2725608348846436
1774789953213694000,4.67769384765625,9.296977043151855,2.1155426502227783,-2.2937052249908447
1774789953223795200,4.687795166015625,9.286101341247559,2.137932300567627,-2.3168835639953613
1774789953233866000,4.697865966796875,9.27751636505127,2.1492514610290527,-2.3406829833984375
1774789953243936800,4.707936767578125,9.258977890014648,2.1935627460479736,-2.3727622032165527
1774789953253977000,4.71797705078125,9.24969482421875,2.2000420093536377,-2.4027788639068604
1774789953294199300,4.75819921875,9.234660148620605,2.196897029876709,-2.462738037109375
1774789953304300500,4.768300537109375,9.237214088439941,2.1971487998962402,-2.4529166221618652
1774789953314371300,4.778371337890625,9.240007400512695,2.198082685470581,-2.441533327102661
1774789953324442400,4.7884423828125,9.243110656738281,2.199483633041382,-2.4284915924072266
1774789953334513200,4.79851318359375,9.249311447143555,2.195988893508911,-2.407956838607788
1774789953344584000,4.808583984375,9.253097534179688,2.188992500305176,-2.3997695446014404
1774789953354654700,4.81865478515625,9.258544921875,2.180138111114502,-2.386784076690674
1774789953364756000,4.828755859375,9.263978004455566,2.172011375427246,-2.373072624206543
1774789953415140600,4.879140625,9.275354385375977,2.1905417442321777,-2.3107831478118896
1774789953425241900,4.889241943359375,9.278133392333984,2.191755533218384,-2.2984418869018555
1774789953435312600,4.899312744140625,9.28154468536377,2.1902525424957275,-2.2860686779022217
1774789953445414000,4.909413818359375,9.284643173217773,2.189384937286377,-2.274287700653076
1774789953455484700,4.919484619140625,9.28680419921875,2.1914539337158203,-2.263446569442749
1774789953465586200,4.929586181640625,9.288344383239746,2.200120210647583,-2.2486698627471924
1774789953505930200,4.96993017578125,9.293656349182129,2.2104475498199463,-2.2163591384887695
1774789953516001000,4.9800009765625,9.296859741210938,2.2056140899658203,-2.207723617553711
1774789953526041300,4.990041259765625,9.300285339355469,2.2002904415130615,-2.198591470718384
1774789953536142600,5.000142578125,9.303322792053223,2.1969377994537354,-2.1890745162963867
1774789953546244000,5.010244140625,9.305673599243164,2.2003233432769775,-2.1756389141082764
1774789953556284400,5.020284423828125,9.306051254272461,2.208165407180786,-2.1660585403442383
1774789953566294000,5.0302939453125,9.3062105178833,2.213771104812622,-2.159642457962036
1774789953606577200,5.0705771484375,9.315442085266113,2.240659713745117,-2.0910210609436035
1774789953616678700,5.0806787109375,9.318679809570312,2.2505924701690674,-2.0657753944396973
1774789953626719000,5.090718994140625,9.32388687133789,2.2621195316314697,-2.029369354248047
1774789953636759000,5.100759033203125,9.328052520751953,2.268434762954712,-2.0030019283294678
1774789953646769000,5.110768798828125,9.33411979675293,2.2679708003997803,-1.9750701189041138
1774789953656870100,5.1208701171875,9.33828353881836,2.2681665420532227,-1.9550622701644897
1774789953666941000,5.13094091796875,9.342327117919922,2.2686960697174072,-1.935024619102478
1774789953677011700,5.14101171875,9.34451675415039,2.2698779106140137,-1.923031210899353
1774789953707224300,5.171224365234375,9.357985496520996,2.2724475860595703,-1.8532370328903198
1774789953717325600,5.18132568359375,9.36430835723877,2.2666525840759277,-1.8282232284545898
1774789953727366000,5.191365966796875,9.372188568115234,2.254734754562378,-1.8024007081985474
1774789953737436700,5.201436767578125,9.384908676147461,2.229975700378418,-1.7666597366333008
1774789953747507500,5.211507568359375,9.389970779418945,2.220050096511841,-1.7522051334381104
1774789953757547800,5.2215478515625,9.397337913513184,2.2040820121765137,-1.7327607870101929
1774789953807901700,5.271901611328125,9.4207181930542,2.1392366886138916,-1.6864514350891113
1774789953818003000,5.2820029296875,9.425823211669922,2.127288341522217,-1.6729850769042969
1774789953828104400,5.2921044921875,9.429450988769531,2.1175618171691895,-1.6648646593093872
1774789953838144800,5.302144775390625,9.437641143798828,2.091137409210205,-1.6518046855926514
1774789953848215600,5.312215576171875,9.452878952026367,2.0323290824890137,-1.6380205154418945
1774789953858286300,5.322286376953125,9.46808910369873,1.975680947303772,-1.619373083114624
1774789953868357000,5.332357177734375,9.481916427612305,1.9221450090408325,-1.6028168201446533
1774789953878428000,5.342427978515625,9.49195671081543,1.8791557550430298,-1.5943421125411987
1774789953888498700,5.352498779296875,9.49864387512207,1.8519693613052368,-1.5863059759140015
1774789953908670700,5.372670654296875,9.501618385314941,1.8156062364578247,-1.6103432178497314
1774789953938852600,5.4028525390625,9.486976623535156,1.828682780265808,-1.6803523302078247
1774789953959025000,5.42302490234375,9.482933044433594,1.7991061210632324,-1.7342393398284912
1774789953969095700,5.433095703125,9.482124328613281,1.7748830318450928,-1.7633734941482544
1774789953979197000,5.443197021484375,9.483497619628906,1.7384651899337769,-1.7920403480529785
1774789953989267700,5.453267822265625,9.483966827392578,1.7061479091644287,-1.8203908205032349
1774789953999308000,5.46330810546875,9.481961250305176,1.672290325164795,-1.8617831468582153
1774789954029520400,5.493520263671875,9.476714134216309,1.633593201637268,-1.9218840599060059
1774789954039591200,5.503591064453125,9.474294662475586,1.6235761642456055,-1.9421964883804321
1774789954049631500,5.513631591796875,9.472084999084473,1.6129183769226074,-1.9617546796798706
1774789954059702300,5.523702392578125,9.470799446105957,1.597609281539917,-1.9804002046585083
1774789954069773000,5.53377294921875,9.470747947692871,1.5753270387649536,-1.9984160661697388
1774789954079843800,5.54384375,9.471192359924316,1.54990553855896,-2.0161073207855225
1774789954089945000,5.553945068359375,9.471305847167969,1.5262458324432373,-2.0335500240325928
1774789954100015900,5.564015869140625,9.470701217651367,1.5074824094772339,-2.050290822982788
1774789954140329700,5.604329833984375,9.461155891418457,1.486520528793335,-2.108832597732544
1774789954150431000,5.614430908203125,9.45846939086914,1.4854918718338013,-2.1215691566467285
1774789954160501800,5.624501708984375,9.456952095031738,1.4798370599746704,-2.13226056098938
1774789954170603300,5.634603271484375,9.456571578979492,1.470162272453308,-2.1406240463256836
1774789954180704500,5.64470458984375,9.457343101501465,1.457138180732727,-2.146113395690918
1774789954190805800,5.6548056640625,9.457622528076172,1.4385030269622803,-2.1574249267578125
1774789954200907000,5.664906982421875,9.456953048706055,1.4329177141189575,-2.164062738418579
1774789954231180500,5.6951806640625,9.449833869934082,1.4802358150482178,-2.163318634033203
1774789954241190400,5.7051904296875,9.437935829162598,1.5412296056747437,-2.172640800476074
1774789954251261200,5.71526123046875,9.434015274047852,1.5643062591552734,-2.173177719116211
1774789954261332000,5.72533203125,9.42577075958252,1.6012946367263794,-2.181992769241333
1774789954271402800,5.73540283203125,9.418688774108887,1.6307315826416016,-2.190756320953369
1774789954281473500,5.7454736328125,9.413055419921875,1.6536883115768433,-2.197746992111206
1774789954291544300,5.75554443359375,9.408031463623047,1.6737205982208252,-2.204084873199463
1774789954301615000,5.765614990234375,9.403092384338379,1.694653034210205,-2.209158420562744
1774789954341898200,5.805898193359375,9.375565528869629,1.8194289207458496,-2.2268426418304443
1774789954351999700,5.815999755859375,9.369057655334473,1.8511145114898682,-2.2281224727630615
1774789954362039800,5.826039794921875,9.363043785095215,1.8826208114624023,-2.227001190185547
1774789954372080000,5.836080078125,9.356589317321777,1.91596257686615,-2.225693702697754
1774789954382151000,5.84615087890625,9.34924030303955,1.9523305892944336,-2.224972724914551
1774789954392252400,5.85625244140625,9.34166145324707,1.987654209136963,-2.2255303859710693
1774789954402323200,5.8663232421875,9.333953857421875,2.0249602794647217,-2.2242355346679688
1774789954412394000,5.87639404296875,9.333109855651855,2.0335426330566406,-2.219942808151245
1774789954452738000,5.916738037109375,9.36854076385498,1.9215844869613647,-2.169872760772705
1774789954462839600,5.926839599609375,9.3814697265625,1.8721555471420288,-2.1571829319000244
1774789954472910300,5.936910400390625,9.389654159545898,1.8352493047714233,-2.1532862186431885
1774789954482981000,5.946981201171875,9.391164779663086,1.8223458528518677,-2.15765643119812
1774789954493082400,5.957082275390625,9.384894371032715,1.8360756635665894,-2.1732425689697266
1774789954503122700,5.967122802734375,9.371989250183105,1.8708529472351074,-2.1991162300109863
1774789954513224000,5.977223876953125,9.351669311523438,1.9355789422988892,-2.2293946743011475
1774789954553568300,6.017568359375,9.323484420776367,2.0489983558654785,-2.246025323867798
1774789954563639000,6.02763916015625,9.322635650634766,2.0658211708068848,-2.234107494354248
1774789954573740300,6.037740234375,9.327055931091309,2.0698165893554688,-2.211848497390747
1774789954583841800,6.047841796875,9.333303451538086,2.0593862533569336,-2.195171594619751
1774789954593943000,6.057943115234375,9.337425231933594,2.051105260848999,-2.185370922088623
1774789954604013800,6.068013916015625,9.346076965332031,2.032027006149292,-2.166124105453491
1774789954614084600,6.078084716796875,9.354291915893555,2.0136282444000244,-2.1477673053741455
1774789954644297000,6.108296875,9.371991157531738,1.9797693490982056,-2.101590394973755
1774789954654367700,6.11836767578125,9.37623119354248,1.9751497507095337,-2.086975336074829
1774789954664469000,6.128468994140625,9.380550384521484,1.970289945602417,-2.0721054077148438
1774789954674570500,6.138570556640625,9.385320663452148,1.9632986783981323,-2.0570881366729736
1774789954684671700,6.148671630859375,9.390868186950684,1.952484369277954,-2.042005777359009
1774789954694773000,6.15877294921875,9.397058486938477,1.9376697540283203,-2.0275890827178955
1774789954704843800,6.16884375,9.404035568237305,1.9175693988800049,-2.01430606842041
1774789954724985300,6.1889853515625,9.422083854675293,1.8518753051757812,-1.9913005828857422
1774789954765268700,6.229268798828125,9.43100643157959,1.8270349502563477,-1.9719175100326538
1774789954775309000,6.23930908203125,9.430376052856445,1.8317855596542358,-1.9705212116241455
1774789954785379800,6.2493798828125,9.430367469787598,1.833085060119629,-1.9693564176559448
1774789954795450600,6.25945068359375,9.432804107666016,1.8230241537094116,-1.9670212268829346
1774789954805551900,6.2695517578125,9.433530807495117,1.820884108543396,-1.9655177593231201
1774789954815653000,6.279653076171875,9.435205459594727,1.8148685693740845,-1.9630446434020996
1774789954825693400,6.289693359375,9.436701774597168,1.8111464977264404,-1.9592832326889038
1774789954855875300,6.319875244140625,9.434894561767578,1.8438045978546143,-1.9374028444290161
1774789954865946000,6.329946044921875,9.432063102722168,1.8711389303207397,-1.924943447113037
1774789954876017000,6.340016845703125,9.430901527404785,1.8959614038467407,-1.9062597751617432
1774789954886057200,6.35005712890625,9.429726600646973,1.910592794418335,-1.897438883781433
1774789954896128000,6.3601279296875,9.431282043457031,1.9160363674163818,-1.8841748237609863
1774789954906198800,6.37019873046875,9.433112144470215,1.9189215898513794,-1.8720391988754272
1774789954916239000,6.380239013671875,9.436070442199707,1.9151980876922607,-1.860909342765808
1774789954926310000,6.390309814453125,9.44224739074707,1.9016828536987305,-1.8433533906936646
1774789954976663800,6.440663818359375,9.455862045288086,1.9137470722198486,-1.7591545581817627
1774789954996805600,6.4608056640625,9.46420955657959,1.9095067977905273,-1.718403935432434
1774789955006815200,6.470815185546875,9.470126152038574,1.89668869972229,-1.699902057647705
1774789955016855600,6.48085546875,9.473649978637695,1.8865411281585693,-1.691542387008667
1774789955026926300,6.49092626953125,9.480152130126953,1.8596545457839966,-1.6848667860031128
1774789955037027600,6.501027587890625,9.488889694213867,1.8172149658203125,-1.681990146636963
1774789955077311000,6.54131103515625,9.495462417602539,1.8211257457733154,-1.6401488780975342
1774789955087290000,6.5512900390625,9.497855186462402,1.828450083732605,-1.617996096611023
1774789955097391400,6.561391357421875,9.507681846618652,1.794415831565857,-1.5982646942138672
1774789955107431700,6.571431640625,9.525716781616211,1.7113001346588135,-1.5819461345672607
1774789955117533200,6.581533203125,9.538525581359863,1.647737979888916,-1.5722233057022095
1774789955127512300,6.59151220703125,9.56331729888916,1.4926297664642334,-1.5765148401260376
1774789955137613600,6.601613525390625,9.572181701660156,1.4333549737930298,-1.5777218341827393
1774789955147684400,6.611684326171875,9.578701972961426,1.3714362382888794,-1.5931144952774048
1774789955167826000,6.631825927734375,9.560977935791016,1.4155421257019043,-1.6596148014068604
1774789955177927400,6.641927490234375,9.55416488647461,1.4370607137680054,-1.680229663848877
1774789955187998200,6.651998291015625,9.53885555267334,1.493453025817871,-1.717620849609375
1774789955198099500,6.662099365234375,9.522832870483398,1.5423554182052612,-1.7627209424972534
1774789955208139800,6.672139892578125,9.518439292907715,1.5408551692962646,-1.7875869274139404
1774789955218241000,6.682240966796875,9.517699241638184,1.498608112335205,-1.8270115852355957
1774789955228342300,6.69234228515625,9.52245807647705,1.424288272857666,-1.8613375425338745
1774789955238413300,6.702413330078125,9.525786399841309,1.3823076486587524,-1.8759000301361084
1774789955258555000,6.722554931640625,9.53332805633545,1.2848963737487793,-1.9065920114517212
1774789955308939300,6.772939208984375,9.524466514587402,1.2863539457321167,-1.9494136571884155
1774789955319010000,6.783010009765625,9.521932601928711,1.297592282295227,-1.9543391466140747
1774789955329050400,6.79305029296875,9.520415306091309,1.302164077758789,-1.9586848020553589
1774789955339151600,6.803151611328125,9.519306182861328,1.3001015186309814,-1.96543550491333
1774789955349222400,6.813222412109375,9.519074440002441,1.2990140914916992,-1.96727454662323
1774789955379404300,6.843404296875,9.513972282409668,1.3080806732177734,-1.9858607053756714
1774789955389505800,6.853505859375,9.510673522949219,1.323026418685913,-1.9917547702789307
1774789955399607000,6.86360693359375,9.508934020996094,1.332190990447998,-1.9939483404159546
1774789955409677800,6.873677734375,9.50456428527832,1.3538049459457397,-2.0002119541168213
1774789955419748600,6.88374853515625,9.497847557067871,1.3864145278930664,-2.009758472442627
1774789955439921000,6.9039208984375,9.49069595336914,1.423651933670044,-2.017498016357422
1774789955449961000,6.9139609375,9.489517211914062,1.431520700454712,-2.0174713134765625
1774789955490183200,6.95418310546875,9.484821319580078,1.4760550260543823,-2.0074408054351807
1774789955500284400,6.964284423828125,9.485678672790527,1.4899497032165527,-1.99307119846344
1774789955510355500,6.97435546875,9.483558654785156,1.5237005949020386,-1.9775840044021606
1774789955520456700,6.984456787109375,9.483559608459473,1.5418570041656494,-1.9634568691253662
1774789955530558000,6.994557861328125,9.479657173156738,1.5693010091781616,-1.960556149482727
1774789955540628700,7.004628662109375,9.475640296936035,1.5945996046066284,-1.9595624208450317
1774789955550699500,7.014699462890625,9.471391677856445,1.6175366640090942,-1.961301565170288
1774789955570841000,7.034841064453125,9.464189529418945,1.6507396697998047,-1.9683865308761597
1774789955580911900,7.044911865234375,9.46368408203125,1.6550284624099731,-1.9672198295593262
1774789955591013400,7.055013427734375,9.461005210876465,1.663501262664795,-1.9729517698287964
1774789955601114600,7.065114501953125,9.454609870910645,1.6809170246124268,-1.9887806177139282
1774789955611185400,7.075185302734375,9.448634147644043,1.698682188987732,-2.0020456314086914
1774789955621256200,7.085256103515625,9.440656661987305,1.7235872745513916,-2.018324136734009
1774789955631388200,7.09538818359375,9.436144828796387,1.7378085851669312,-2.0272068977355957
1774789955651529700,7.11552978515625,9.412776947021484,1.8098002672195435,-2.0723555088043213
1774789955661600500,7.1256005859375,9.39663314819336,1.855161190032959,-2.1052424907684326
1774789955691843300,7.15584326171875,9.389824867248535,1.8509455919265747,-2.139056444168091
1774789955701914000,7.1659140625,9.396621704101562,1.8133515119552612,-2.141408920288086
1774789955711954400,7.175954345703125,9.408849716186523,1.7464618682861328,-2.143317937850952
1774789955722025200,7.186025146484375,9.414397239685059,1.708491563796997,-2.149552583694458
1774789955732065500,7.1960654296875,9.415352821350098,1.691536784172058,-2.1587531566619873
1774789955742166800,7.206166748046875,9.41442584991455,1.6861909627914429,-2.1669652462005615
1774789955752237600,7.216237548828125,9.406839370727539,1.7114126682281494,-2.180098533630371
1774789955762339000,7.226339111328125,9.394485473632812,1.7563745975494385,-2.197540044784546
1774789955782511000,7.246510986328125,9.362363815307617,1.859344720840454,-2.2493045330047607
1774789955812754000,7.27675390625,9.340612411499023,1.944252610206604,-2.267871379852295
1774789955822824700,7.28682470703125,9.349233627319336,1.9340481758117676,-2.2409114837646484
1774789955832895700,7.296895751953125,9.361474990844727,1.9019775390625,-2.217129707336426
1774789955842966500,7.306966552734375,9.376276016235352,1.8607406616210938,-2.189401626586914
1774789955853006600,7.317006591796875,9.385581016540527,1.8351244926452637,-2.1710774898529053
1774789955863108000,7.327108154296875,9.403213500976562,1.7844126224517822,-2.136780023574829
1774789955893320400,7.357320556640625,9.422497749328613,1.7478585243225098,-2.081325054168701
1774789955913523000,7.37752294921875,9.425077438354492,1.7605313062667847,-2.0588455200195312
1774789955923563300,7.387563232421875,9.426555633544922,1.7692443132400513,-2.044553756713867
1774789955933634000,7.397634033203125,9.43228816986084,1.7610689401626587,-2.0250837802886963
1774789955943735600,7.407735595703125,9.435240745544434,1.7536982297897339,-2.017714738845825
1774789955953836800,7.4178369140625,9.447845458984375,1.706811547279358,-1.9988480806350708
1774789955963938000,7.42793798828125,9.452571868896484,1.6889535188674927,-1.9916619062423706
1774789955994181000,7.45818115234375,9.467824935913086,1.6442896127700806,-1.9562699794769287
1774789956004282400,7.468282470703125,9.465944290161133,1.6655164957046509,-1.9473952054977417
1774789956014353200,7.478353271484375,9.464395523071289,1.6798536777496338,-1.9426029920578003
1774789956044596000,7.508595947265625,9.455672264099121,1.7581967115402222,-1.9155666828155518
1774789956064768300,7.528768310546875,9.460527420043945,1.7551268339157104,-1.894293189048767
1774789956084940300,7.548940185546875,9.47339153289795,1.7190343141555786,-1.8628387451171875
1774789956095011000,7.559010986328125,9.479996681213379,1.705343246459961,-1.8416961431503296
1774789956105112300,7.5691123046875,9.485098838806152,1.704698085784912,-1.815843105316162
1774789956115213800,7.5792138671875,9.488389015197754,1.7214529514312744,-1.7825415134429932
1774789956125284600,7.58928466796875,9.489554405212402,1.7406296730041504,-1.7575418949127197
1774789956135355400,7.59935546875,9.489335060119629,1.7608283758163452,-1.7384990453720093
1774789956145426200,7.60942626953125,9.488771438598633,1.7799557447433472,-1.722022533416748
1774789956155527400,7.61952734375,9.488572120666504,1.7943737506866455,-1.7081029415130615
1774789956165598200,7.62959814453125,9.489758491516113,1.804243564605713,-1.6910290718078613
1774789956205881300,7.66988134765625,9.497245788574219,1.8177064657211304,-1.6336015462875366
1774789956215952400,7.679952392578125,9.498064994812012,1.8302642107009888,-1.6147065162658691
1774789956226023200,7.690023193359375,9.498435974121094,1.8377801179885864,-1.603951334953308
1774789956236124400,7.70012451171875,9.498918533325195,1.8581535816192627,-1.577405571937561
1774789956246195200,7.7101953125,9.499505043029785,1.8630144596099854,-1.5681122541427612
1774789956256296400,7.72029638671875,9.50267505645752,1.8602039813995361,-1.552155613899231
1774789956266367200,7.7303671875,9.504620552062988,1.8533204793930054,-1.5484730005264282
1774789956276438000,7.74043798828125,9.510682106018066,1.829209566116333,-1.5399044752120972
1774789956326761500,7.790761474609375,9.538491249084473,1.769856333732605,-1.4335942268371582
1774789956336832500,7.80083251953125,9.544496536254883,1.752463459968567,-1.4148699045181274
1774789956346903300,7.8109033203125,9.552906036376953,1.7145168781280518,-1.4045648574829102
1774789956356974000,7.82097412109375,9.563373565673828,1.6594828367233276,-1.399422526359558
1774789956367044900,7.831044921875,9.573742866516113,1.5981155633926392,-1.3999489545822144
1774789956377115600,7.84111572265625,9.582152366638184,1.542771816253662,-1.4044920206069946
1774789956397257200,7.86125732421875,9.59007740020752,1.4747989177703857,-1.4232994318008423
1774789956407358500,7.8713583984375,9.591185569763184,1.4594510793685913,-1.4316232204437256
1774789956417429200,7.88142919921875,9.578481674194336,1.5063652992248535,-1.467629313468933
1774789956427530800,7.89153076171875,9.575566291809082,1.51192307472229,-1.480882167816162
1774789956437601500,7.9016015625,9.568806648254395,1.5308889150619507,-1.5048903226852417
1774789956447641600,7.9116416015625,9.564769744873047,1.5253374576568604,-1.5358753204345703
1774789956457712600,7.921712646484375,9.565982818603516,1.4961917400360107,-1.5568448305130005
1774789956467783400,7.931783447265625,9.567837715148926,1.4708002805709839,-1.5695880651474
1774789956477854200,7.941854248046875,9.573003768920898,1.409023642539978,-1.5945656299591064
1774789956508036000,7.9720361328125,9.579554557800293,1.3284279108047485,-1.6241298913955688
1774789956518137300,7.982137451171875,9.577655792236328,1.3330109119415283,-1.6315585374832153
1774789956528238600,7.992238525390625,9.574564933776855,1.3510613441467285,-1.63484787940979
1774789956538339800,8.00233984375,9.570908546447754,1.3737974166870117,-1.6373074054718018
1774789956548411000,8.012410888671875,9.567831039428711,1.3927724361419678,-1.6392662525177002
1774789956558512000,8.02251220703125,9.566227912902832,1.402023434638977,-1.640730857849121
1774789956588694000,8.052694091796875,9.571852684020996,1.3606611490249634,-1.6427481174468994
1774789956618967300,8.08296728515625,9.580493927001953,1.3038057088851929,-1.6384773254394531
1774789956629038000,8.0930380859375,9.579586029052734,1.3132522106170654,-1.6362409591674805
1774789956639139600,8.1031396484375,9.57874870300293,1.3219962120056152,-1.6341044902801514
1774789956649180000,8.113179931640625,9.575033187866211,1.3502354621887207,-1.632786512374878
1774789956659250700,8.123250732421875,9.573592185974121,1.3642091751098633,-1.6296188831329346
1774789956669352000,8.13335205078125,9.568228721618652,1.4023346900939941,-1.628753900527954
1774789956679453200,8.143453125,9.567070007324219,1.41896390914917,-1.6211411952972412
1774789956689524000,8.15352392578125,9.56562614440918,1.4435163736343384,-1.6079320907592773
1774789956709635000,8.173635009765626,9.563538551330566,1.4731621742248535,-1.593393087387085
1774789956729746200,8.19374609375,9.555289268493652,1.5220681428909302,-1.5969135761260986
1774789956749918200,8.213918212890626,9.54280948638916,1.5830127000808716,-1.6122183799743652
1774789956759989200,8.2239892578125,9.539566040039062,1.5979264974594116,-1.6166950464248657
1774789956769998800,8.233998779296876,9.533397674560547,1.6239429712295532,-1.6271204948425293
1774789956780069600,8.244069580078126,9.528785705566406,1.640932559967041,-1.6370593309402466
1774789956790140400,8.254140380859376,9.525708198547363,1.6493126153945923,-1.6465232372283936
1774789956840494600,8.30449462890625,9.494776725769043,1.7371399402618408,-1.7326136827468872
1774789956850565400,8.3145654296875,9.48514175415039,1.7639949321746826,-1.7580642700195312
1774789956860666600,8.32466650390625,9.474835395812988,1.7893755435943604,-1.787739634513855
1774789956870737400,8.3347373046875,9.469114303588867,1.8012144565582275,-1.8060688972473145
1774789956880838700,8.344838623046876,9.460954666137695,1.8127154111862183,-1.837059497833252
1774789956890909400,8.354909423828126,9.456995964050293,1.8084629774093628,-1.8614729642868042
1774789956900980200,8.364980224609376,9.4594144821167,1.7729337215423584,-1.8832308053970337
1774789956911081700,8.375081787109375,9.461395263671875,1.7533442974090576,-1.8916047811508179
1774789956931223300,8.395223388671875,9.474003791809082,1.657448172569275,-1.9148145914077759
1774789956941294000,8.405294189453125,9.47644329071045,1.628644347190857,-1.9274133443832397
1774789956951364900,8.41536474609375,9.475661277770996,1.6170098781585693,-1.9410064220428467
1774789956961435600,8.425435546875,9.471563339233398,1.6225614547729492,-1.956317663192749
1774789956971537000,8.435536865234376,9.465656280517578,1.637451171875,-1.9724372625350952
1774789956981607700,8.445607666015626,9.459449768066406,1.6496704816818237,-1.991932988166809
1774789956991709200,8.455709228515625,9.452319145202637,1.648158311843872,-2.0267295837402344
1774789957001780000,8.465780029296875,9.44816780090332,1.652456521987915,-2.0425219535827637
1774789957042063000,8.50606298828125,9.46699047088623,1.5845870971679688,-2.0088698863983154
1774789957052134000,8.5161337890625,9.481948852539062,1.522752046585083,-1.9860154390335083
1774789957062204700,8.52620458984375,9.487162590026855,1.5021271705627441,-1.976803183555603
1774789957072306000,8.536305908203126,9.498044967651367,1.4593141078948975,-1.9565097093582153
1774789957082376700,8.546376708984376,9.50351619720459,1.4405583143234253,-1.943798542022705
1774789957092447700,8.55644775390625,9.50733470916748,1.4299334287643433,-1.932941198348999
1774789957102518500,8.5665185546875,9.508917808532715,1.427108645439148,-1.927234411239624
1774789957142832000,8.60683203125,9.513304710388184,1.4577382802963257,-1.8821314573287964
1774789957152903000,8.61690283203125,9.51674747467041,1.4502286911010742,-1.870495080947876
1774789957162973700,8.6269736328125,9.521512031555176,1.4343088865280151,-1.85848069190979
1774789957173075000,8.637074951171876,9.526867866516113,1.414971947669983,-1.8458175659179688
1774789957183146000,8.64714599609375,9.531892776489258,1.3977515697479248,-1.8329458236694336
1774789957193247200,8.657247314453125,9.53433895111084,1.3902097940444946,-1.8259481191635132
1774789957203318000,8.667318115234375,9.539164543151855,1.3803850412368774,-1.8081104755401611
1774789957213388800,8.677388916015625,9.540712356567383,1.3833184242248535,-1.797671914100647
1774789957263773200,8.727773193359376,9.54142951965332,1.4517228603363037,-1.738968014717102
1774789957273844200,8.73784423828125,9.543086051940918,1.45986008644104,-1.7229936122894287
1774789957283915000,8.7479150390625,9.543739318847656,1.4658983945846558,-1.7142250537872314
1774789957293985800,8.75798583984375,9.547284126281738,1.4715405702590942,-1.6894724369049072
1774789957304026000,8.768026123046875,9.547937393188477,1.4788694381713867,-1.679351568222046
1774789957314097000,8.778096923828125,9.550924301147461,1.4837751388549805,-1.6579010486602783
1774789957344309200,8.808309326171875,9.564017295837402,1.4963748455047607,-1.568702220916748
1774789957354380000,8.818380126953125,9.568233489990234,1.4948257207870483,-1.5442783832550049
1774789957364420400,8.82842041015625,9.569791793823242,1.4936788082122803,-1.5357086658477783
1774789957374460700,8.838460693359375,9.570953369140625,1.4959484338760376,-1.526231288909912
1774789957384531500,8.848531494140625,9.57091999053955,1.5034319162368774,-1.519066333770752
1774789957404703500,8.868703369140626,9.568952560424805,1.5314010381698608,-1.5034458637237549
1774789957414743800,8.878743896484375,9.568114280700684,1.5468544960021973,-1.4929200410842896
1774789957444956200,8.9089560546875,9.573318481445312,1.5570772886276245,-1.4482656717300415
1774789957455057400,8.919057373046876,9.577787399291992,1.5464116334915161,-1.4300256967544556
1774789957465128200,8.929128173828126,9.582707405090332,1.529907464981079,-1.4147398471832275
1774789957475199000,8.939198974609376,9.588220596313477,1.5029351711273193,-1.4062697887420654
1774789957485270000,8.94927001953125,9.590747833251953,1.4838014841079712,-1.4093533754348755
1774789957495371300,8.959371337890625,9.591751098632812,1.4724609851837158,-1.4144103527069092
1774789957505411600,8.96941162109375,9.592825889587402,1.4543086290359497,-1.4258573055267334
1774789957515512800,8.979512939453125,9.592561721801758,1.4487659931182861,-1.4332568645477295
1774789957555735000,9.019735107421875,9.584547996520996,1.5490202903747559,-1.3810776472091675
1774789957565805800,9.029805908203125,9.590476989746094,1.5183967351913452,-1.3739043474197388
1774789957575876600,9.039876708984375,9.600028038024902,1.456360101699829,-1.3743582963943481
1774789957585947400,9.049947509765625,9.608550071716309,1.3889967203140259,-1.3845021724700928
1774789957606089000,9.0700888671875,9.614211082458496,1.3070518970489502,-1.4244073629379272
1774789957616190200,9.080190185546876,9.610246658325195,1.3077424764633179,-1.4502947330474854
1774789957626261000,9.090260986328126,9.602395057678223,1.331601619720459,-1.4802863597869873
1774789957656534500,9.120534423828126,9.569561958312988,1.4248881340026855,-1.6011128425598145
1774789957676676000,9.140676025390626,9.566203117370605,1.4045181274414062,-1.6387434005737305
1774789957686747000,9.150746826171876,9.567644119262695,1.3872369527816772,-1.645039439201355
1774789957696817700,9.160817626953126,9.577722549438477,1.3124438524246216,-1.6477620601654053
1774789957706858000,9.17085791015625,9.581652641296387,1.282963752746582,-1.648125410079956
1774789957716959200,9.180959228515626,9.58880615234375,1.2296676635742188,-1.6471484899520874
1774789957727060700,9.191060791015625,9.594250679016113,1.1868174076080322,-1.6468772888183594
1774789957757151000,9.22115087890625,9.597794532775879,1.1418670415878296,-1.6579720973968506
1774789957767191300,9.23119140625,9.596487998962402,1.1438854932785034,-1.6641298532485962
1774789957777262000,9.241261962890626,9.594047546386719,1.1495198011398315,-1.6742868423461914
1774789957787302400,9.251302490234375,9.592179298400879,1.1539255380630493,-1.6819411516189575
1774789957797373200,9.261373291015625,9.591204643249512,1.1565264463424683,-1.6857109069824219
1774789957807444000,9.27144384765625,9.588884353637695,1.1612592935562134,-1.6956325769424438
1774789957817545200,9.281545166015626,9.58498477935791,1.1686503887176514,-1.7125163078308105
1774789957827585500,9.29158544921875,9.583883285522461,1.1712279319763184,-1.716915488243103
1774789957837686800,9.301686767578126,9.581031799316406,1.1695373058319092,-1.7339001893997192
1774789957847727000,9.31172705078125,9.580034255981445,1.1640480756759644,-1.7430826425552368
1774789957857798000,9.3217978515625,9.580172538757324,1.160654067993164,-1.7445803880691528
1774789957867807700,9.331807861328125,9.579370498657227,1.1580636501312256,-1.7506955862045288
1774789957877909000,9.341908935546876,9.577582359313965,1.1661696434020996,-1.7550932168960571
1774789957887979800,9.351979736328126,9.571798324584961,1.2026786804199219,-1.7619922161102295
1774789957898081300,9.362081298828125,9.570192337036133,1.2237051725387573,-1.7562302350997925
1774789957908152000,9.372152099609375,9.561720848083496,1.286301612854004,-1.757642388343811
1774789957918253300,9.38225341796875,9.559415817260742,1.3200902938842773,-1.7450861930847168
1774789957928354600,9.3923544921875,9.55033016204834,1.3818268775939941,-1.7470356225967407
1774789957958567000,9.42256689453125,9.538654327392578,1.444879412651062,-1.7597715854644775
1774789957998880800,9.462880859375,9.518874168395996,1.5198463201522827,-1.803187608718872
1774789958008982000,9.47298193359375,9.513155937194824,1.539528727531433,-1.8166192770004272
1774789958019083300,9.483083251953126,9.509705543518066,1.5517385005950928,-1.8242788314819336
1774789958029154000,9.493154052734376,9.506174087524414,1.5640617609024048,-1.8321449756622314
1774789958089640000,9.553639892578126,9.413644790649414,1.8493095636367798,-2.0331552028656006
1774789958099710700,9.563710693359376,9.40931224822998,1.8521153926849365,-2.0505833625793457
1774789958109781500,9.573781494140626,9.411931991577148,1.8203227519989014,-2.066967725753784
1774789958119883000,9.583883056640625,9.418656349182129,1.7821160554885864,-2.0696287155151367
1774789958129923300,9.59392333984375,9.42355728149414,1.7552785873413086,-2.0702552795410156
1774789958140024600,9.604024658203125,9.431548118591309,1.7142244577407837,-2.0682637691497803
1774789958150065000,9.61406494140625,9.437935829162598,1.6753038167953491,-2.0710158348083496
1774789958170206500,9.63420654296875,9.442503929138184,1.6227400302886963,-2.091944694519043
1774789958180307700,9.6443076171875,9.43233871459961,1.6507261991500854,-2.115767240524292
1774789958190378500,9.65437841796875,9.427130699157715,1.659733533859253,-2.1318726539611816
1774789958200449300,9.66444921875,9.412046432495117,1.6941750049591064,-2.171069860458374
1774789958210459100,9.674459228515625,9.395561218261719,1.7705252170562744,-2.181525468826294
1774789958220590800,9.6845908203125,9.390246391296387,1.7971726655960083,-2.182621479034424
1774789958230661600,9.69466162109375,9.384562492370605,1.8404337167739868,-2.170985698699951
1774789958240702000,9.704701904296876,9.384435653686523,1.8649336099624634,-2.150527000427246
1774789958250711800,9.7147119140625,9.391752243041992,1.8582972288131714,-2.124175786972046
1774789958280985300,9.7449853515625,9.439773559570312,1.7142056226730347,-2.0304079055786133
1774789958290995000,9.754994873046876,9.456263542175293,1.672874093055725,-1.9877041578292847
1774789958301096200,9.76509619140625,9.460458755493164,1.6672362089157104,-1.9724174737930298
1774789958311167200,9.775167236328125,9.465214729309082,1.6797337532043457,-1.9387105703353882
1774789958321238000,9.785238037109375,9.466114044189453,1.6877137422561646,-1.9273552894592285
1774789958341410000,9.80541015625,9.469635009765625,1.7090668678283691,-1.8908964395523071
1774789958351480800,9.815480712890626,9.47297477722168,1.7089508771896362,-1.8741950988769531
1774789958371561500,9.8355615234375,9.486711502075195,1.671555757522583,-1.8380955457687378
1774789958381632300,9.84563232421875,9.489656448364258,1.6629031896591187,-1.8307257890701294
1774789958391672600,9.855672607421875,9.494492530822754,1.6467175483703613,-1.8202574253082275
1774789958401743400,9.865743408203125,9.495694160461426,1.642486333847046,-1.8178073167800903
1774789958411783700,9.87578369140625,9.494918823242188,1.6432039737701416,-1.821203351020813
1774789958421885000,9.885885009765625,9.49313735961914,1.6460957527160645,-1.8278695344924927
1774789958431986200,9.895986083984376,9.491363525390625,1.6481441259384155,-1.8352205753326416
1774789958442057000,9.906056884765626,9.491074562072754,1.648017168045044,-1.8368258476257324
1774789958452158200,9.916158203125,9.48818588256836,1.6479848623275757,-1.8517168760299683
1774789958472269300,9.936269287109376,9.486767768859863,1.6470234394073486,-1.8598227500915527
1774789958492411000,9.956410888671876,9.48458480834961,1.660412073135376,-1.8590492010116577
1774789958502512400,9.966512451171875,9.484088897705078,1.67587149143219,-1.847671389579773
1774789958512583200,9.976583251953125,9.484465599060059,1.6958463191986084,-1.8274022340774536
1774789958522684400,9.986684326171876,9.487059593200684,1.716779351234436,-1.7940857410430908
1774789958532724700,9.996724853515625,9.491294860839844,1.7204298973083496,-1.7680010795593262
1774789958542826000,10.006825927734376,9.495597839355469,1.715388536453247,-1.7496978044509888
1774789958552896800,10.016896728515626,9.50872802734375,1.6950123310089111,-1.6974717378616333
1774789958583139800,10.047139892578125,9.540903091430664,1.6419010162353516,-1.563879132270813
1774789958593149400,10.0571494140625,9.548540115356445,1.6387685537338257,-1.5199347734451294
1774789958603251000,10.0672509765625,9.55532455444336,1.6408803462982178,-1.474339246749878
1774789958623423000,10.087423095703125,9.567214965820312,1.6568673849105835,-1.3760703802108765
1774789958643534000,10.1075341796875,9.57674789428711,1.6595404148101807,-1.304687261581421
1774789958653604900,10.11760498046875,9.584989547729492,1.6478935480117798,-1.2580957412719727
1774789958663675600,10.127675537109376,9.590046882629395,1.6331597566604614,-1.238624095916748
1774789958683878400,10.14787841796875,9.597670555114746,1.6021276712417603,-1.2199549674987793
1774789958693918500,10.15791845703125,9.606701850891113,1.567610740661621,-1.1934255361557007
1774789958704020000,10.16802001953125,9.613323211669922,1.542289137840271,-1.172917366027832
1774789958714060300,10.178060302734375,9.617227554321289,1.5260554552078247,-1.1620993614196777
1774789958724131000,10.188131103515625,9.631250381469727,1.4630628824234009,-1.1264348030090332
1774789958734201900,10.198201904296875,9.637272834777832,1.4322800636291504,-1.1144193410873413
1774789958744303000,10.20830322265625,9.649557113647461,1.3660190105438232,-1.0910608768463135
1774789958754374000,10.218373779296876,9.660316467285156,1.3048757314682007,-1.070507287979126
1774789958764475100,10.22847509765625,9.668872833251953,1.2533804178237915,-1.0546674728393555
1774789958784616700,10.24861669921875,9.680171012878418,1.1782704591751099,-1.0374802350997925
1774789958794687500,10.2586875,9.682674407958984,1.1601314544677734,-1.0345511436462402
1774789958804758500,10.268758544921875,9.6831693649292,1.1561366319656372,-1.0343879461288452
1774789958814859800,10.27885986328125,9.681371688842773,1.1654584407806396,-1.0407336950302124
1774789958824930600,10.2889306640625,9.681473731994629,1.1632401943206787,-1.0422694683074951
1774789958834971000,10.298970947265625,9.679393768310547,1.1748840808868408,-1.0485128164291382
1774789958845072100,10.309072021484376,9.677940368652344,1.183516025543213,-1.052203893661499
1774789958855143000,10.319142822265626,9.676581382751465,1.1917749643325806,-1.0553812980651855
1774789958865244200,10.329244140625,9.677083015441895,1.1871699094772339,-1.0559710264205933
1774789958875284500,10.339284423828126,9.678139686584473,1.178370475769043,-1.0561381578445435
1774789958905466400,10.36946630859375,9.687071800231934,1.1270090341567993,-1.0299869775772095
1774789958915537200,10.379537109375,9.690844535827637,1.1076850891113281,-1.0153576135635376
1774789958925608000,10.38960791015625,9.693939208984375,1.0936766862869263,-1.000905156135559
1774789958935648300,10.399648193359376,9.696318626403809,1.0905410051345825,-0.9810786247253418
1774789958945688600,10.4096884765625,9.696624755859375,1.0977783203125,-0.9699109196662903
1774789958955759400,10.41975927734375,9.696606636047363,1.1025313138961792,-0.9646934866905212
1774789958965830100,10.429830078125,9.696568489074707,1.1112229824066162,-0.9550513029098511
1774789958975901000,10.43990087890625,9.697450637817383,1.1121524572372437,-0.9449635148048401
1774789959016184300,10.480184326171875,9.699549674987793,1.1250840425491333,-0.9073634147644043
1774789959026285600,10.49028564453125,9.698882102966309,1.1334967613220215,-0.9040205478668213
1774789959036356400,10.5003564453125,9.698982238769531,1.1345901489257812,-0.9015785455703735
1774789959046427100,10.51042724609375,9.699378967285156,1.1325756311416626,-0.8998454809188843
1774789959056498000,10.520497802734376,9.700551986694336,1.1226600408554077,-0.8996196985244751
1774789959066568700,10.530568603515626,9.701922416687012,1.1108198165893555,-0.8995406031608582
1774789959076639500,10.540639404296876,9.701926231384277,1.110363245010376,-0.9000639915466309
1774789959106882600,10.570882568359375,9.697319030761719,1.1507434844970703,-0.8989925384521484
1774789959116922600,10.580922607421876,9.695457458496094,1.168312907218933,-0.8964056372642517
1774789959126993400,10.590993408203126,9.694621086120605,1.1814913749694824,-0.8881351351737976
1774789959137064400,10.601064453125,9.695552825927734,1.1850111484527588,-0.8731603622436523
1774789959147135200,10.61113525390625,9.6948881149292,1.190609335899353,-0.8729235529899597
1774789959157206000,10.6212060546875,9.69555377960205,1.1899631023406982,-0.8663832545280457
1774789959167276800,10.63127685546875,9.692986488342285,1.2023661136627197,-0.8779038190841675
1774789959177347600,10.64134765625,9.692163467407227,1.2074968814849854,-0.8799455761909485
1774789959187418400,10.65141845703125,9.689212799072266,1.2222692966461182,-0.891968309879303
1774789959207529500,10.671529541015625,9.681238174438477,1.267073631286621,-0.9157174825668335
1774789959227640600,10.691640625,9.671496391296387,1.3263272047042847,-0.9345607161521912
1774789959237711400,10.70171142578125,9.668514251708984,1.3465911149978638,-0.9364372491836548
1774789959267923700,10.731923828125,9.640110969543457,1.51865553855896,-0.9655739665031433
1774789959278025000,10.74202490234375,9.636625289916992,1.5353748798370361,-0.9738917946815491
1774789959288095700,10.752095703125,9.630776405334473,1.5602704286575317,-0.992004930973053
1774789959308298500,10.772298583984375,9.630399703979492,1.5554906129837036,-1.0031179189682007
1774789959318338800,10.7823388671875,9.631745338439941,1.5454620122909546,-1.0056920051574707
1774789959328409600,10.79240966796875,9.637063980102539,1.5123423337936401,-1.0050885677337646
1774789959338510800,10.8025107421875,9.64590835571289,1.456510066986084,-1.0027023553848267
1774789959348612000,10.812612060546876,9.64887523651123,1.4317678213119507,-1.0097718238830566
1774789959358683000,10.822682861328126,9.650397300720215,1.4162931442260742,-1.0170278549194336
1774789959368784400,10.832784423828125,9.644089698791504,1.445265293121338,-1.0359150171279907
1774789959378885600,10.8428857421875,9.63589859008789,1.4840646982192993,-1.0570733547210693
1774789959388956400,10.852956298828126,9.627462387084961,1.523341178894043,-1.077857255935669
1774789959419199200,10.88319921875,9.613801002502441,1.5627421140670776,-1.1415096521377563
1774789959439310300,10.903310302734376,9.611233711242676,1.5765255689620972,-1.1441758871078491
1774789959449381000,10.913381103515626,9.609160423278809,1.5918463468551636,-1.1403735876083374
1774789959459482600,10.923482666015625,9.608855247497559,1.6000994443893433,-1.1313568353652954
1774789959469584000,10.933583984375,9.611715316772461,1.5894978046417236,-1.1219693422317505
1774789959479593700,10.94359375,9.614286422729492,1.5790369510650635,-1.114685297012329
1774789959489664500,10.95366455078125,9.620577812194824,1.54957115650177,-1.1016777753829956
1774789959499765800,10.963765869140625,9.627009391784668,1.5185967683792114,-1.0885512828826904
1774789959509867000,10.973866943359376,9.634903907775879,1.481423258781433,-1.0697685480117798
1774789959530039300,10.994039306640625,9.640395164489746,1.4590708017349243,-1.0508497953414917
1774789959540110000,11.004110107421875,9.64218807220459,1.4540576934814453,-1.0413007736206055
1774789959550180900,11.014180908203125,9.643651962280273,1.4499002695083618,-1.0335161685943604
1774789959560251600,11.024251708984375,9.645383834838867,1.4429363012313843,-1.0270801782608032
1774789959570322400,11.034322509765625,9.6477632522583,1.431025743484497,-1.0213844776153564
1774789959580423700,11.044423583984376,9.651031494140625,1.4130349159240723,-1.0155317783355713
1774789959590494500,11.054494384765626,9.654770851135254,1.3914233446121216,-1.009814977645874
1774789959630777600,11.094777587890626,9.663604736328125,1.3382576704025269,-0.9970940947532654
1774789959640818000,11.10481787109375,9.664101600646973,1.335984706878662,-0.9953256249427795
1774789959650919400,11.11491943359375,9.665772438049316,1.3222678899765015,-0.9974151849746704
1774789959660990200,11.124990234375,9.669291496276855,1.2964280843734741,-0.9972238540649414
1774789959671061000,11.13506103515625,9.669719696044922,1.2960717678070068,-0.993524432182312
1774789959681131800,11.1451318359375,9.672687530517578,1.277076005935669,-0.9892326593399048
1774789959691172000,11.155172119140625,9.675424575805664,1.2643868923187256,-0.9787105917930603
1774789959701273300,11.1652734375,9.678074836730957,1.258326768875122,-0.9601395726203918
1774789959721415000,11.185414794921876,9.68184757232666,1.2730361223220825,-0.9008924961090088
1774789959741556500,11.205556396484376,9.686774253845215,1.2593483924865723,-0.8665100336074829
1774789959751627300,11.215627197265626,9.690496444702148,1.2429219484329224,-0.8484113216400146
1774789959761698000,11.225697998046876,9.691801071166992,1.2381685972213745,-0.8404250741004944
1774789959771738400,11.23573828125,9.694132804870605,1.2278646230697632,-0.8285660743713379
1774789959781839600,11.245839599609376,9.697653770446777,1.2121002674102783,-0.810372531414032
1774789959802012000,11.266011962890625,9.701509475708008,1.1978428363800049,-0.7850321531295776
1774789959822153500,11.286153564453125,9.705964088439941,1.193514347076416,-0.7349672317504883
1774789959842325500,11.306325439453126,9.70768928527832,1.202370285987854,-0.6967555284500122
1774789959902750500,11.36675048828125,9.7188720703125,1.1754841804504395,-0.5763339996337891
1774789959973246000,11.437245849609376,9.746000289916992,1.0352128744125366,-0.3379448354244232
1774789959993418000,11.45741796875,9.755544662475586,0.9389133453369141,-0.343786358833313
1774789960003488800,11.46748876953125,9.756062507629395,0.9260084629058838,-0.363513708114624
1774789960013498600,11.47749853515625,9.754396438598633,0.9258601069450378,-0.4061073958873749
1774789960023569400,11.4875693359375,9.75538158416748,0.9091389179229736,-0.4199870228767395
1774789960033640200,11.49764013671875,9.758787155151367,0.8433453440666199,-0.4745878279209137
1774789960043711000,11.5077109375,9.759331703186035,0.8256193995475769,-0.4941355288028717
1774789960114206700,11.578206787109375,9.75664234161377,0.730772078037262,-0.666556715965271
1774789960124277500,11.588277587890625,9.758462905883789,0.6918594241142273,-0.681253969669342
1774789960134409200,11.5984091796875,9.759636878967285,0.6616147756576538,-0.6943727135658264
1774789960144480000,11.60847998046875,9.760196685791016,0.6466485857963562,-0.7005610466003418
1774789960164621800,11.628621826171875,9.757601737976074,0.6563749313354492,-0.7271660566329956
1774789960174723000,11.63872314453125,9.754834175109863,0.6815159916877747,-0.741032600402832
1774789960184763400,11.648763427734375,9.752030372619629,0.7055063247680664,-0.7553427219390869
1774789960194834200,11.658834228515625,9.749850273132324,0.7202747464179993,-0.7694175839424133
1774789960204905000,11.668905029296875,9.748603820800781,0.7225386500358582,-0.782972514629364
1774789960214975700,11.678975830078125,9.748230934143066,0.7134593725204468,-0.7958283424377441
1774789960225077000,11.689076904296876,9.748608589172363,0.6958292126655579,-0.8067481517791748
1774789960235178200,11.69917822265625,9.749337196350098,0.6752170920372009,-0.815407931804657
1774789960245249000,11.7092490234375,9.749988555908203,0.6562437415122986,-0.8230659365653992
1774789960265390800,11.729390869140625,9.75081729888916,0.6260246634483337,-0.8366895914077759
1774789960275461600,11.739461669921875,9.750809669494629,0.6199412941932678,-0.8412905931472778
1774789960285532400,11.749532470703125,9.7493314743042,0.6339364051818848,-0.8479589223861694
1774789960295633700,11.759633544921876,9.748862266540527,0.6445287466049194,-0.8453751802444458
1774789960305735000,11.76973486328125,9.747076034545898,0.6724834442138672,-0.8441928029060364
1774789960315805700,11.7798056640625,9.7451171875,0.7060011029243469,-0.839423656463623
1774789960325876500,11.78987646484375,9.74246597290039,0.7485166192054749,-0.8333515524864197
1774789960346048800,11.810048828125,9.740554809570312,0.782020092010498,-0.8248805999755859
1774789960356119600,11.82011962890625,9.739277839660645,0.7970678210258484,-0.8255525827407837
1774789960386362400,11.8503623046875,9.735217094421387,0.8352954387664795,-0.8355953693389893
1774789960396402700,11.860402587890626,9.73253059387207,0.8581546545028687,-0.8436846137046814
1774789960426615000,11.890614990234376,9.718676567077637,0.9649989008903503,-0.8868448138237
1774789960436685800,11.900685791015626,9.716327667236328,0.9819941520690918,-0.8938899040222168
1774789960446726100,11.91072607421875,9.709646224975586,1.0293221473693848,-0.9130476713180542
1774789960456766500,11.920766357421876,9.705196380615234,1.0569496154785156,-0.9286623597145081
1774789960476908000,11.940907958984376,9.69897747039795,1.083389163017273,-0.9625413417816162
1774789960497049600,11.961049560546876,9.700510025024414,1.0230556726455688,-1.0118542909622192
1774789960507090000,11.97108984375,9.705684661865234,0.9611901044845581,-1.0228352546691895
1774789960517160700,11.98116064453125,9.708627700805664,0.9231957197189331,-1.0298792123794556
1774789960527231500,11.9912314453125,9.715059280395508,0.848635196685791,-1.0333603620529175
1774789960537302300,12.00130224609375,9.719938278198242,0.7861710786819458,-1.0368847846984863
1774789960547373000,12.011373046875,9.72230052947998,0.7485894560813904,-1.0425379276275635
1774789960557443800,12.02144384765625,9.721583366394043,0.7448011040687561,-1.0518884658813477
1774789960567484200,12.031484130859376,9.717947959899902,0.774535596370697,-1.0639415979385376
1774789960577555000,12.041554931640626,9.709641456604004,0.8505612015724182,-1.0815714597702026
1774789960597727200,12.061727294921875,9.702400207519531,0.8990254402160645,-1.1070549488067627
1774789960607798000,12.071798095703125,9.701135635375977,0.8961572647094727,-1.1203874349594116
1774789960617838300,12.08183837890625,9.702322959899902,0.8672649264335632,-1.1327693462371826
1774789960627939600,12.091939697265625,9.705140113830566,0.8435915112495422,-1.1264996528625488
1774789960638010400,12.10201025390625,9.708720207214355,0.8204616904258728,-1.112650752067566
1774789960648081200,12.1120810546875,9.712682723999023,0.7967381477355957,-1.0951653718948364
1774789960658182400,12.122182373046876,9.718597412109375,0.7598776817321777,-1.0685646533966064
1774789960688395000,12.15239501953125,9.72797679901123,0.6996612548828125,-1.0233843326568604
1774789960698465800,12.1624658203125,9.731523513793945,0.6797161102294922,-1.0029091835021973
1774789960708567000,12.172567138671875,9.732658386230469,0.674411416053772,-0.9954484105110168
1774789960718607400,12.182607421875,9.734397888183594,0.6664655208587646,-0.9837231636047363
1774789960728678100,12.19267822265625,9.735957145690918,0.6589908599853516,-0.9732733964920044
1774789960738779400,12.202779296875,9.73816967010498,0.6449210047721863,-0.9604800343513489
1774789960748880600,12.212880615234376,9.738927841186523,0.6395362019538879,-0.9563866257667542
1774789960758982100,12.222982177734375,9.741218566894531,0.6193986535072327,-0.9462558627128601
1774789960789225000,12.253224853515626,9.74447250366211,0.5857301950454712,-0.9341102838516235
1774789960799295700,12.263295654296876,9.7454195022583,0.5730401277542114,-0.9320977926254272
1774789960809366500,12.273366455078126,9.74555492401123,0.5711548328399658,-0.9318491816520691
1774789960819437300,12.283437255859376,9.745076179504395,0.5745115876197815,-0.9347826242446899
1774789960829538800,12.293538818359375,9.744697570800781,0.5780693888664246,-0.9365304112434387
1774789960839640000,12.30364013671875,9.744105339050293,0.5834363102912903,-0.9393619894981384
1774789960849710800,12.3137109375,9.74424934387207,0.5805572271347046,-0.939653754234314
1774789960859812000,12.32381201171875,9.744361877441406,0.5796494483947754,-0.9390440583229065
1774789960869883000,12.3338828125,9.745299339294434,0.5724930763244629,-0.9336909055709839
1774789960900034300,12.364034423828125,9.750134468078613,0.5662400126457214,-0.8857995271682739
1774789960910135600,12.374135498046876,9.753108024597168,0.5569949150085449,-0.8585011959075928
1774789960920206300,12.384206298828126,9.75541877746582,0.5484845638275146,-0.8374665379524231
1774789960930277000,12.394277099609376,9.757431983947754,0.540938675403595,-0.8187175393104553
1774789960940378600,12.404378662109375,9.758490562438965,0.5392640829086304,-0.8071231245994568
1774789960950449400,12.414449462890625,9.759275436401367,0.5531357526779175,-0.7880141139030457
1774789960960520200,12.424520263671875,9.759299278259277,0.5636261701583862,-0.7802538871765137
1774789960970591000,12.434591064453125,9.758469581604004,0.593493640422821,-0.7684003114700317
1774789960990702000,12.4547021484375,9.75657844543457,0.6549325585365295,-0.7420446872711182
1774789961010782500,12.474782470703126,9.759305000305176,0.6674606800079346,-0.6934382915496826
1774789961020853500,12.484853515625,9.761898040771484,0.6540946364402771,-0.6692512631416321
1774789961030924300,12.49492431640625,9.764554023742676,0.63973468542099,-0.6439041495323181
1774789961041025500,12.505025634765625,9.766048431396484,0.6321943402290344,-0.6285105347633362
1774789961051096300,12.515096435546875,9.7673921585083,0.6311609745025635,-0.60833740234375
1774789961061197600,12.525197509765626,9.766886711120605,0.639595091342926,-0.6076441407203674
1774789961071298800,12.535298828125,9.766362190246582,0.6439821124076843,-0.611421525478363
1774789961091410000,12.555409912109376,9.763164520263672,0.6603855490684509,-0.644117534160614
1774789961101511400,12.565511474609375,9.762022018432617,0.6596921682357788,-0.6619111895561218
1774789961111612700,12.57561279296875,9.760919570922852,0.6664891242980957,-0.6712925434112549
1774789961121683500,12.585683349609376,9.760335922241211,0.6834878921508789,-0.6626299619674683
1774789961131754200,12.595754150390626,9.759885787963867,0.7068600654602051,-0.6444916725158691
1774789961141855500,12.60585546875,9.761857986450195,0.6874405741691589,-0.6355582475662231
1774789961151895800,12.615895751953126,9.766051292419434,0.6252723336219788,-0.6353492736816406
1774789961161966600,12.625966552734376,9.7691650390625,0.5737410187721252,-0.6361015439033508
1774789961172037400,12.636037353515626,9.774250984191895,0.4567296802997589,-0.6525360345840454
1774789961212259600,12.676259521484376,9.767746925354004,0.41800981760025024,-0.7660216689109802
1774789961222360800,12.68636083984375,9.7645845413208,0.43257468938827515,-0.7975913882255554
1774789961232431900,12.696431884765625,9.758516311645508,0.47983190417289734,-0.8435052633285522
1774789961242502700,12.706502685546875,9.751336097717285,0.5227782130241394,-0.8991914987564087
1774789961252512300,12.71651220703125,9.749143600463867,0.5241975784301758,-0.9218536615371704
1774789961262613800,12.72661376953125,9.74629020690918,0.494394987821579,-0.9673601388931274
1774789961272684500,12.7366845703125,9.745746612548828,0.47439897060394287,-0.9827242493629456
1774789961282724600,12.746724609375,9.745244026184082,0.4325626790523529,-1.0067218542099
1774789961312937200,12.776937255859375,9.742212295532227,0.3418164849281311,-1.069040298461914
1774789961322977500,12.7869775390625,9.73983097076416,0.3249470889568329,-1.0956716537475586
1774789961333017600,12.797017578125,9.73808765411377,0.3226224482059479,-1.1117336750030518
1774789961343119000,12.807119140625,9.736210823059082,0.3252616226673126,-1.1272926330566406
1774789961353190000,12.81718994140625,9.73427963256836,0.3303447365760803,-1.1423954963684082
1774789961363230200,12.827230224609375,9.733352661132812,0.3332909643650055,-1.1494147777557373
1774789961373209300,12.837209228515626,9.731374740600586,0.3380363881587982,-1.1646702289581299
1774789961383310600,12.847310546875,9.728702545166016,0.3408249318599701,-1.185990333557129
1774789961393412000,12.857412109375,9.727947235107422,0.341089129447937,-1.1920918226242065
1774789961413462000,12.8774619140625,9.725200653076172,0.35153183341026306,-1.2113163471221924
1774789961423563300,12.887563232421876,9.723072052001953,0.3750901222229004,-1.2212973833084106
1774789961433664800,12.897664794921875,9.722476959228516,0.3843306303024292,-1.2231606245040894
1774789961443766000,12.90776611328125,9.72146224975586,0.40058067440986633,-1.226008415222168
1774789961453806300,12.917806396484375,9.721221923828125,0.4101724922657013,-1.224744439125061
1774789961463907600,12.927907470703126,9.721879959106445,0.4092090129852295,-1.2198303937911987
1774789961473978400,12.937978271484376,9.723960876464844,0.4045838415622711,-1.2046959400177002
1774789961484049200,12.948049072265626,9.725929260253906,0.40780121088027954,-1.1875994205474854
1774789961494059000,12.95805908203125,9.7280912399292,0.42151814699172974,-1.1648869514465332
1774789961534342100,12.998342041015626,9.735304832458496,0.5063833594322205,-1.0666738748550415
1774789961544443400,13.008443359375,9.736580848693848,0.5156841278076172,-1.050452709197998
1774789961554514200,13.01851416015625,9.737892150878906,0.520037055015564,-1.036050796508789
1774789961564615700,13.02861572265625,9.73954963684082,0.5188694000244141,-1.0209420919418335
1774789961574656000,13.038656005859375,9.7406005859375,0.5146562457084656,-1.0130220651626587
1774789961584757200,13.04875732421875,9.741425514221191,0.5100722312927246,-1.0073884725570679
1774789961645182000,13.109181884765626,9.73257064819336,0.6038545370101929,-1.0405893325805664
1774789961665323500,13.129323486328126,9.725113868713379,0.6444097757339478,-1.0850307941436768
1774789961675425000,13.139425048828125,9.723508834838867,0.646092414855957,-1.0983291864395142
1774789961685526300,13.1495263671875,9.723058700561523,0.6251577734947205,-1.1143083572387695
1774789961695597000,13.15959716796875,9.724751472473145,0.5817297101020813,-1.1230319738388062
1774789961705667800,13.169667724609376,9.729513168334961,0.5010787844657898,-1.120665192604065
1774789961715738600,13.179738525390626,9.732935905456543,0.4403029680252075,-1.1164602041244507
1774789961766062000,13.23006201171875,9.73930835723877,0.29730677604675293,-1.1080912351608276
1774789961776072000,13.240072021484375,9.737878799438477,0.32098260521888733,-1.1140373945236206
1774789961786142700,13.250142822265625,9.735830307006836,0.3496778905391693,-1.1232565641403198
1774789961796183000,13.26018310546875,9.73383903503418,0.36784690618515015,-1.1346668004989624
1774789961806253800,13.27025390625,9.730669975280762,0.3688485026359558,-1.1612025499343872
1774789961816294100,13.280294189453125,9.731756210327148,0.33054694533348083,-1.1636327505111694
1774789961846537000,13.310536865234376,9.737378120422363,0.2232414036989212,-1.1419371366500854
1774789961856577300,13.320577392578125,9.739581108093262,0.19279378652572632,-1.1286121606826782
1774789961866648000,13.33064794921875,9.741198539733887,0.17781011760234833,-1.1170601844787598
1774789961876718800,13.34071875,9.742268562316895,0.17674656212329865,-1.1078587770462036
1774789961886820000,13.350820068359376,9.743091583251953,0.18443572521209717,-1.099331259727478
1774789961896891000,13.360890869140626,9.743700981140137,0.1924697607755661,-1.0925358533859253
1774789961906992400,13.370992431640625,9.744871139526367,0.18693454563617706,-1.083017349243164
1774789961917063200,13.381063232421875,9.746305465698242,0.1663324534893036,-1.0734279155731201
1774789961947306000,13.411305908203126,9.74799919128418,0.14233404397964478,-1.0614280700683594
1774789961957376800,13.421376708984376,9.748294830322266,0.14210572838783264,-1.0587494373321533
1774789961967478000,13.43147802734375,9.748452186584473,0.14324434101581573,-1.0571444034576416
1774789961977549000,13.441549072265625,9.74850845336914,0.15151090919971466,-1.0554697513580322
1774789961987589000,13.451589111328126,9.748504638671875,0.17726033926010132,-1.0514814853668213
1774789961997660000,13.461659912109376,9.748392105102539,0.2029387354850769,-1.0478827953338623
1774789962007731000,13.47173095703125,9.748130798339844,0.23206236958503723,-1.0442659854888916
1774789962017771000,13.48177099609375,9.747868537902832,0.2564927041530609,-1.0409808158874512
1774789962027872500,13.49187255859375,9.747856140136719,0.2665438652038574,-1.0385710000991821
1774789962058054400,13.522054443359375,9.750029563903809,0.2403242439031601,-1.024476170539856
1774789962118479000,13.58247900390625,9.755331039428711,0.35383039712905884,-0.9373985528945923
1774789962128550000,13.5925498046875,9.755552291870117,0.3767164647579193,-0.9261111617088318
1774789962138590200,13.602590087890626,9.756393432617188,0.39671820402145386,-0.9087284207344055
1774789962158731800,13.622731689453126,9.759319305419922,0.3889715373516083,-0.8802136182785034
1774789962168802600,13.632802490234376,9.760144233703613,0.38617143034935,-0.8722715377807617
1774789962178873300,13.642873291015626,9.76221752166748,0.38418489694595337,-0.8496382832527161
1774789962188913700,13.65291357421875,9.763413429260254,0.39003852009773254,-0.833074688911438
1774789962219065000,13.683065185546875,9.767470359802246,0.40605542063713074,-0.7759033441543579
1774789962229136000,13.693135986328125,9.76962661743164,0.4077509641647339,-0.7473423480987549
1774789962239206700,13.70320654296875,9.772951126098633,0.40571027994155884,-0.7037106156349182
1774789962249277400,13.71327734375,9.77422046661377,0.4043424725532532,-0.6866634488105774
1774789962289560600,13.753560546875,9.783105850219727,0.3069489300251007,-0.6058065891265869
1774789962299631400,13.76363134765625,9.784808158874512,0.2688637375831604,-0.5963438749313354
1774789962309732900,13.77373291015625,9.78557014465332,0.2477448582649231,-0.5929787158966064
1774789962319803600,13.7838037109375,9.786835670471191,0.23106281459331512,-0.5786504149436951
1774789962329874400,13.79387451171875,9.787702560424805,0.24515074491500854,-0.5578225255012512
1774789962339914800,13.803914794921875,9.787973403930664,0.27959907054901123,-0.5364596843719482
1774789962349985500,13.813985595703125,9.788152694702148,0.30910345911979675,-0.5166309475898743
1774789962430460400,13.89446044921875,9.787615776062012,0.18790455162525177,-0.5810897350311279
1774789962450632400,13.914632568359375,9.78329086303711,0.2605661153793335,-0.6242764592170715
1774789962460642300,13.924642333984375,9.781242370605469,0.28779688477516174,-0.6440891623497009
1774789962490885000,13.954885009765626,9.779539108276367,0.26417258381843567,-0.6791331171989441
1774789962520945000,13.98494482421875,9.779685974121094,0.2102278172969818,-0.6956472396850586
1774789962531046100,13.995046142578126,9.77956485748291,0.20217421650886536,-0.6997331976890564
1774789962581461200,14.045461181640626,9.773744583129883,0.3033047616481781,-0.743182361125946
1774789962621714000,14.0857138671875,9.767224311828613,0.353182315826416,-0.8043491840362549
1774789962641855500,14.10585546875,9.763242721557617,0.37446722388267517,-0.8421750664710999
1774789962722452500,14.186452392578126,9.763128280639648,0.3406864106655121,-0.8576939105987549
1774789962752695600,14.216695556640625,9.757922172546387,0.40423306822776794,-0.8887829184532166
1774789962762766300,14.226766357421875,9.753567695617676,0.4475801885128021,-0.9154042601585388
1774789962772837000,14.236837158203125,9.752243041992188,0.46051573753356934,-0.9230780601501465
1774789962803019000,14.26701904296875,9.743825912475586,0.5094881653785706,-0.984212338924408
1774789962813059000,14.27705908203125,9.742619514465332,0.5164873600006104,-0.9924742579460144
1774789962833231400,14.2972314453125,9.736324310302734,0.5542380213737488,-1.0330545902252197
1774789962843302100,14.30730224609375,9.732834815979004,0.5852146148681641,-1.0487374067306519
1774789962853342500,14.317342529296875,9.728119850158691,0.6271900534629822,-1.0680344104766846
1774789962863382800,14.3273828125,9.722333908081055,0.6739130020141602,-1.091991662979126
1774789962873484000,14.337484130859375,9.718945503234863,0.6985191106796265,-1.1065925359725952
1774789962903635500,14.367635498046875,9.706457138061523,0.7675643563270569,-1.1687262058258057
1774789962913706200,14.377706298828125,9.706502914428711,0.7555925846099854,-1.1761258840560913
1774789962923777000,14.387777099609375,9.708392143249512,0.7328283190727234,-1.1749297380447388
1774789962933847800,14.397847900390625,9.712291717529297,0.7033129930496216,-1.160658359527588
1774789962943888100,14.40788818359375,9.713595390319824,0.6905189752578735,-1.1574236154556274
1774789962953959000,14.417958984375,9.7154541015625,0.6777731776237488,-1.1493276357650757
1774789962964029700,14.42802978515625,9.716425895690918,0.6795951724052429,-1.1399985551834106
1774789962974039300,14.438039306640626,9.716267585754395,0.6856337189674377,-1.137734055519104
1774789962984079600,14.44807958984375,9.715861320495605,0.6808828711509705,-1.1440424919128418
1774789963014231000,14.47823095703125,9.717276573181152,0.6694955825805664,-1.1387287378311157
1774789963034372600,14.49837255859375,9.720595359802246,0.6556839346885681,-1.118256688117981
1774789963044443400,14.508443359375,9.723620414733887,0.6374353170394897,-1.1023963689804077
1774789963054483700,14.518483642578126,9.72773265838623,0.6040525436401367,-1.0847676992416382
1774789963064585000,14.5285849609375,9.732476234436035,0.5598214864730835,-1.065784215927124
1774789963074625300,14.538625244140626,9.736979484558105,0.5150940418243408,-1.0470401048660278
1774789963094797600,14.558797607421875,9.743136405944824,0.45636865496635437,-1.016560673713684
1774789963104898800,14.56889892578125,9.744793891906738,0.44413289427757263,-1.0060406923294067
1774789963114969600,14.578969482421876,9.745779037475586,0.43963682651519775,-0.9984474778175354
1774789963125040400,14.589040283203126,9.746359825134277,0.4389566481113434,-0.9930586218833923
1774789963135080700,14.599080810546875,9.74682331085205,0.4379577040672302,-0.9889466166496277
1774789963145182000,14.609181884765626,9.747376441955566,0.4334050416946411,-0.9854898452758789
1774789963155252700,14.619252685546876,9.748202323913574,0.42217159271240234,-0.9821929931640625
1774789963165293000,14.62929296875,9.749248504638672,0.40724503993988037,-0.9781084656715393
1774789963175333400,14.63933349609375,9.750544548034668,0.3880227208137512,-0.9729878306388855
1774789963185434600,14.6494345703125,9.750926971435547,0.38338807225227356,-0.9709897041320801
1774789963215647000,14.67964697265625,9.750524520874023,0.3894338309764862,-0.9726201891899109
1774789963225748500,14.68974853515625,9.750096321105957,0.3907202184200287,-0.9763981103897095
1774789963235819300,14.6998193359375,9.750033378601074,0.3830361068248749,-0.9800628423690796
1774789963245890000,14.70989013671875,9.750422477722168,0.3695955276489258,-0.9813480973243713
1774789963255899600,14.719899658203126,9.751011848449707,0.3571089506149292,-0.9801172614097595
1774789963266001200,14.730001220703125,9.751615524291992,0.3447587490081787,-0.9785262942314148
1774789963276072000,14.740072021484375,9.752279281616211,0.3410700261592865,-0.9731999635696411
1774789963286173200,14.750173095703126,9.752724647521973,0.3449195921421051,-0.9673513174057007
1774789963296244000,14.760243896484376,9.753132820129395,0.362038254737854,-0.9569254517555237
1774789963306314800,14.770314697265626,9.754522323608398,0.38913390040397644,-0.9318003058433533
1774789963316385500,14.780385498046876,9.755053520202637,0.4034591615200043,-0.9200804233551025
1774789963326487000,14.790487060546875,9.755928039550781,0.40692564845085144,-0.9092116355895996
1774789963336557800,14.800557861328125,9.757967948913574,0.3996928632259369,-0.890340268611908
1774789963356669000,14.8206689453125,9.761277198791504,0.3913535475730896,-0.8571430444717407
1774789963366739700,14.83073974609375,9.762160301208496,0.3896090090274811,-0.8478356599807739
1774789963376810500,14.840810546875,9.763757705688477,0.38441941142082214,-0.8316545486450195
1774789963386881300,14.85088134765625,9.76555347442627,0.37781667709350586,-0.8134034276008606
1774789963417093600,14.88109375,9.772563934326172,0.3837405741214752,-0.7211899161338806
1774789963427164400,14.891164306640626,9.774415016174316,0.3988604247570038,-0.6871035099029541
1774789963437265700,14.901265625,9.775336265563965,0.40930166840553284,-0.667574942111969
1774789963447306000,14.911305908203126,9.777616500854492,0.41680940985679626,-0.628389298915863
1774789963457346300,14.92134619140625,9.780370712280273,0.41093721985816956,-0.5881023406982422
1774789963467417000,14.9314169921875,9.78304386138916,0.3965834975242615,-0.5524177551269531
1774789963477518300,14.941518310546876,9.785223960876465,0.37884530425071716,-0.5256001353263855
1774789963487589000,14.951589111328126,9.786107063293457,0.3676052987575531,-0.5170637369155884
1774789963517801700,14.9818017578125,9.790122985839844,0.31021493673324585,-0.4771091043949127
1774789963527903000,14.991903076171875,9.790739059448242,0.3244761526584625,-0.45444971323013306
1774789963537973800,15.001973876953125,9.791357040405273,0.33758798241615295,-0.43098512291908264
1774789963548044500,15.01204443359375,9.793112754821777,0.3631421625614166,-0.36531296372413635
1774789963558115300,15.022115234375,9.795063972473145,0.3445681929588318,-0.32920005917549133
1774789963568186000,15.03218603515625,9.797247886657715,0.29798656702041626,-0.30908262729644775
1774789963578287400,15.042287353515626,9.79940414428711,0.2261723428964615,-0.30154067277908325
1774789963588297200,15.052297119140626,9.80075740814209,0.15583762526512146,-0.3020747900009155
1774789963598398500,15.0623984375,9.801117897033691,0.11040070652961731,-0.31031373143196106
1774789963638712300,15.10271240234375,9.794260025024414,0.21132753789424896,-0.4451950788497925
1774789963648752600,15.112752685546875,9.79271125793457,0.2244441658258438,-0.47204193472862244
1774789963658854000,15.12285400390625,9.792043685913086,0.22044998407363892,-0.48750555515289307
1774789963668894200,15.132894287109375,9.79149055480957,0.1972758173942566,-0.5081208944320679
1774789963678995500,15.142995361328126,9.7913179397583,0.1553615778684616,-0.5256928205490112
1774789963689035800,15.153035888671875,9.791189193725586,0.10377369821071625,-0.5405693650245667
1774789963699137000,15.163136962890626,9.79089641571045,0.050149641931056976,-0.5533760786056519
1774789963709207800,15.173207763671876,9.790121078491211,-0.022117020562291145,-0.5687054991722107
1774789963729349400,15.193349365234376,9.78904914855957,-0.07838139683008194,-0.582031786441803
1774789963739389700,15.2033896484375,9.788442611694336,-0.09553389996290207,-0.5896162390708923
1774789963749460500,15.21346044921875,9.78775405883789,-0.0853874459862709,-0.6024573445320129
1774789963759531300,15.22353125,9.787317276000977,-0.0671418234705925,-0.6118015646934509
1774789963769571600,15.233571533203126,9.787070274353027,-0.05694642663002014,-0.6167757511138916
1774789963779673000,15.243673095703125,9.7864990234375,-0.04286060854792595,-0.6268774271011353
1774789963789743900,15.253743896484375,9.785285949707031,-0.03836991637945175,-0.6458292603492737
1774789963799814700,15.263814697265625,9.78419017791748,-0.045659389346838,-0.6617618799209595
1774789963809885400,15.273885498046875,9.783625602722168,-0.05159873515367508,-0.6696188449859619
1774789963829996500,15.29399658203125,9.780801773071289,-0.09306138753890991,-0.7054422497749329
1774789963860178400,15.324178466796875,9.775847434997559,-0.12531709671020508,-0.7664790153503418
1774789963870249200,15.334249267578125,9.775853157043457,-0.12033958733081818,-0.7671964168548584
1774789963880320000,15.344320068359375,9.774763107299805,-0.09092783182859421,-0.7849326133728027
1774789963890421200,15.354421142578126,9.776495933532715,-0.06673935055732727,-0.7655442357063293
1774789963900461600,15.364461669921875,9.776457786560059,-0.02025778405368328,-0.7686633467674255
1774789963910502000,15.374501953125,9.776047706604004,0.0056166802532970905,-0.7741172313690186
1774789963920572700,15.38457275390625,9.776058197021484,0.017737509682774544,-0.7737957835197449
1774789963950785000,15.414784912109376,9.773669242858887,0.07114780694246292,-0.8004422187805176
1774789963960825300,15.424825439453125,9.772212982177734,0.10699543356895447,-0.8141246438026428
1774789963970896100,15.434896240234375,9.771954536437988,0.12088342756032944,-0.8152838349342346
1774789963980967000,15.444966796875,9.77043628692627,0.16006341576576233,-0.8266491889953613
1774789963991037700,15.45503759765625,9.770101547241211,0.17171065509319305,-0.8282638788223267
1774789964001108500,15.4651083984375,9.768561363220215,0.19810590147972107,-0.8404533267021179
1774789964011179300,15.47517919921875,9.76742172241211,0.21474745869636536,-0.849555253982544
1774789964021280500,15.485280517578126,9.766035079956055,0.2326957881450653,-0.8606986403465271
1774789964041422300,15.50542236328125,9.763333320617676,0.26666349172592163,-0.881255030632019
1774789964061594400,15.525594482421875,9.75777816772461,0.3130858242511749,-0.9263561964035034
1774789964071665200,15.5356650390625,9.754359245300293,0.30849355459213257,-0.963175356388092
1774789964081705500,15.54570556640625,9.752885818481445,0.28388503193855286,-0.9854012131690979
1774789964091776300,15.5557763671875,9.752358436584473,0.24578577280044556,-1.0007350444793701
1774789964101847000,15.565846923828126,9.752368927001953,0.20562219619750977,-1.0096616744995117
1774789964111948300,15.5759482421875,9.752429008483887,0.17408648133277893,-1.0149948596954346
1774789964121988600,15.585988525390626,9.75209903717041,0.15812259912490845,-1.020755410194397
1774789964162241300,15.6262412109375,9.74726676940918,0.24685518443584442,-1.0489243268966675
1774789964172342500,15.636342529296876,9.744933128356934,0.2708302438259125,-1.0645747184753418
1774789964182413600,15.64641357421875,9.74141788482666,0.31506770849227905,-1.0843911170959473
1774789964192453600,15.65645361328125,9.738275527954102,0.34608936309814453,-1.1029973030090332
1774789964202524400,15.6665244140625,9.736420631408691,0.3606950342655182,-1.1146323680877686
1774789964212626000,15.6766259765625,9.734211921691895,0.349363774061203,-1.1372946500778198
1774789964222666200,15.686666259765625,9.732874870300293,0.3147302567958832,-1.1586556434631348
1774789964252848000,15.71684814453125,9.740336418151855,0.25960397720336914,-1.10853111743927
1774789964262919000,15.7269189453125,9.744302749633789,0.24212639033794403,-1.0771892070770264
1774789964272989700,15.73698974609375,9.747001647949219,0.22663161158561707,-1.0559210777282715
1774789964283060500,15.747060546875,9.749775886535645,0.20469895005226135,-1.0345776081085205
1774789964293131300,15.75713134765625,9.75119686126709,0.19229057431221008,-1.0235143899917603
1774789964303232500,15.767232421875,9.75389575958252,0.16036805510520935,-1.0030850172042847
1774789964313272800,15.77727294921875,9.757314682006836,0.10928822308778763,-0.9763479232788086
1774789964323343600,15.787343505859376,9.759157180786133,0.08040636032819748,-0.960612952709198
1774789964333384000,15.797384033203125,9.760618209838867,0.05992496758699417,-0.9471659064292908
1774789964373697500,15.837697509765626,9.764019966125488,0.06600780040025711,-0.9110115766525269
1774789964383737900,15.84773779296875,9.764288902282715,0.07290077954530716,-0.9075943827629089
1774789964393808600,15.85780859375,9.764668464660645,0.0843673124909401,-0.9025072455406189
1774789964403879400,15.86787939453125,9.764850616455078,0.09788864850997925,-0.8991694450378418
1774789964413919700,15.877919677734376,9.764775276184082,0.10640807449817657,-0.8990123867988586
1774789964424021000,15.88802099609375,9.764567375183105,0.11452548205852509,-0.9002825021743774
1774789964434092000,15.898092041015625,9.764408111572266,0.122138611972332,-0.9010061025619507
1774789964444162800,15.908162841796875,9.76445198059082,0.1277141571044922,-0.8997459411621094
1774789964474375200,15.938375244140625,9.76787281036377,0.18045836687088013,-0.852347731590271
1774789964484476400,15.948476318359376,9.769079208374023,0.20875918865203857,-0.8318089246749878
1774789964494577700,15.95857763671875,9.769848823547363,0.23910978436470032,-0.8144083619117737
1774789964504679200,15.96867919921875,9.770469665527344,0.2633582651615143,-0.7993492484092712
1774789964514750000,15.97875,9.771721839904785,0.2815043330192566,-0.7775508165359497
1774789964524820700,15.98882080078125,9.772363662719727,0.2868077754974365,-0.7674902081489563
1774789964534830300,15.998830322265626,9.773606300354004,0.29169321060180664,-0.7496244311332703
1774789964544931800,16.008931884765627,9.774945259094238,0.29347482323646545,-0.7312325239181519
1774789964575113700,16.03911376953125,9.779961585998535,0.2813919186592102,-0.6660040616989136
1774789964585184500,16.0491845703125,9.78195571899414,0.27386680245399475,-0.6393260955810547
1774789964595255300,16.05925537109375,9.784997940063477,0.26310476660728455,-0.5957955121994019
1774789964605295600,16.069295654296877,9.78605842590332,0.26112034916877747,-0.579012393951416
1774789964615336000,16.0793359375,9.788714408874512,0.2573035955429077,-0.5340948104858398
1774789964625437200,16.089437255859377,9.789712905883789,0.25538894534111023,-0.5164135098457336
1774789964635477500,16.0994775390625,9.791064262390137,0.2536528706550598,-0.4910351037979126
1774789964645517600,16.109517578125,9.791922569274902,0.2504803240299225,-0.4752781093120575
1774789964685770500,16.1497705078125,9.79491138458252,0.12572786211967468,-0.46292534470558167
1774789964695841300,16.15984130859375,9.796143531799316,0.07611160725355148,-0.447397917509079
1774789964705942500,16.169942626953127,9.796929359436035,0.06300899386405945,-0.4319595694541931
1774789964716013300,16.180013427734377,9.79755687713623,0.06228221207857132,-0.41758280992507935
1774789964726084000,16.190083984375,9.797830581665039,0.07547817379236221,-0.40890446305274963
1774789964736155000,16.20015478515625,9.797962188720703,0.07562045753002167,-0.4057092070579529
1774789964746256100,16.210256103515626,9.798073768615723,0.036378223448991776,-0.4084439277648926
1774789964806620000,16.270619873046876,9.790611267089844,-0.04729657247662544,-0.5586425065994263
1774789964816660200,16.28066015625,9.78783130645752,0.003963432740420103,-0.6072230339050293
1774789964826761500,16.290761474609376,9.78621768951416,0.03152882307767868,-0.6319336891174316
1774789964836832500,16.30083251953125,9.78261661529541,0.09760008752346039,-0.6791712045669556
1774789964846872600,16.31087255859375,9.781103134155273,0.11101987212896347,-0.6986311674118042
1774789964877054500,16.341054443359376,9.776348114013672,0.08729447424411774,-0.7653607130050659
1774789964887125200,16.351125244140626,9.7750825881958,0.035962991416454315,-0.7853929400444031
1774789964897196000,16.361196044921876,9.774706840515137,0.014272262342274189,-0.7907549142837524
1774789964907267000,16.37126708984375,9.773881912231445,-0.02803494967520237,-0.8005233407020569
1774789964917307100,16.38130712890625,9.77295970916748,-0.06407851725816727,-0.8096485137939453
1774789964927378000,16.3913779296875,9.77204418182373,-0.08930202573537827,-0.8182663321495056
1774789964937479400,16.4014794921875,9.771173477172852,-0.10258246958255768,-0.8270557522773743
1774789964947550200,16.41155029296875,9.77034854888916,-0.10651035606861115,-0.8362537026405334
1774789964977793000,16.44179296875,9.767860412597656,-0.11554690450429916,-0.8636764287948608
1774789964987833300,16.451833251953126,9.76702880859375,-0.11943230777978897,-0.8725036978721619
1774789964997843200,16.46184326171875,9.766145706176758,-0.11947529762983322,-0.8823299407958984
1774789965007944400,16.4719443359375,9.76520824432373,-0.11428660154342651,-0.8933310508728027
1774789965018015200,16.48201513671875,9.764291763305664,-0.10348457098007202,-0.9045867323875427
1774789965028086000,16.4920859375,9.763358116149902,-0.08821409940719604,-0.91621333360672
1774789965038096000,16.502095947265627,9.76254653930664,-0.07064034789800644,-0.9263218641281128
1774789965048136200,16.51213623046875,9.761958122253418,-0.05324409157037735,-0.9336652159690857
1774789965058176500,16.522176513671877,9.761661529541016,-0.038761209696531296,-0.9374641180038452
1774789965088449800,16.55244970703125,9.766585350036621,-0.005974133498966694,-0.8855316638946533
1774789965098490000,16.562489990234376,9.768170356750488,0.002295929007232189,-0.8678856492042542
1774789965108591400,16.57259130859375,9.767970085144043,0.04539453610777855,-0.8689611554145813
1774789965118662100,16.582662109375,9.768058776855469,0.08632244169712067,-0.864851176738739
1774789965128733000,16.59273291015625,9.76844596862793,0.11279790103435516,-0.8573927879333496
1774789965138834400,16.60283447265625,9.767834663391113,0.18552164733409882,-0.8516889810562134
1774789965148905200,16.6129052734375,9.767805099487305,0.2116401493549347,-0.8459184169769287
1774789965158976000,16.62297607421875,9.76712417602539,0.249641552567482,-0.8434136509895325
1774789965189158000,16.653157958984377,9.76620101928711,0.29917216300964355,-0.8379709720611572
1774789965199228700,16.663228759765627,9.7666654586792,0.2930651009082794,-0.8347131013870239
1774789965209269000,16.67326904296875,9.76723861694336,0.28431469202041626,-0.83102947473526
1774789965219339800,16.68333984375,9.7677001953125,0.2790406346321106,-0.8273764848709106
1774789965229410600,16.69341064453125,9.767833709716797,0.28230011463165283,-0.824697732925415
1774789965239420200,16.703420166015626,9.767399787902832,0.296200692653656,-0.8249606490135193
1774789965249460500,16.71346044921875,9.76550579071045,0.3291475772857666,-0.8348276019096375
1774789965269602000,16.73360205078125,9.76246452331543,0.35567474365234375,-0.859168291091919
1774789965289744000,16.753743896484377,9.759391784667969,0.3279527425765991,-0.903946042060852
1774789965299784000,16.763783935546876,9.759047508239746,0.3108043670654297,-0.9136675000190735
1774789965309885400,16.773885498046877,9.759689331054688,0.2653195261955261,-0.9211251139640808
1774789965319956200,16.783956298828127,9.760732650756836,0.21531733870506287,-0.9231076240539551
