time,seconds_elapsed,z,y,x
1777560073919819300,0.0938193359375,0,0,0
1777560073938349300,0.112349365234375,0.03402137756347656,-0.07315731048583984,0.17037034034729004
1777560073975409200,0.1494091796875,-0.1721360683441162,0.18949222564697266,0.1039280891418457
1777560073993939200,0.167939208984375,0.42347264289855957,0.037200927734375,-0.5227667093276978
1777560074012469200,0.18646923828125,0.49159717559814453,-0.14600276947021484,-0.7756541967391968
1777560074030999300,0.204999267578125,0.3704826831817627,-0.21652603149414062,-0.464424729347229
1777560074049529300,0.223529296875,0.6497225761413574,-0.6155004501342773,-0.5119209885597229
1777560074068059100,0.24205908203125,1.0442173480987549,-1.222987174987793,-0.8992698788642883
1777560074086589200,0.260589111328125,1.3051378726959229,-1.359161376953125,-1.3809106349945068
1777560074105119200,0.279119140625,0.9684171676635742,-0.8272247314453125,-1.2587220668792725
1777560074123649000,0.29764892578125,-0.48528480529785156,0.045685768127441406,-0.9157629609107971
1777560074142179000,0.316178955078125,-1.4851675033569336,1.1156463623046875,-0.8083987832069397
1777560074160709000,0.334709228515625,-1.1773638725280762,1.23317289352417,-0.5970773100852966
1777560074179239200,0.3532392578125,-0.47345685958862305,-0.031341552734375,-1.45302414894104
1777560074197769200,0.371769287109375,0.1079864501953125,-0.7773237228393555,-1.8243060111999512
1777560074216299000,0.390299072265625,0.7458899021148682,-1.8973760604858398,-1.0871554613113403
1777560074234829000,0.4088291015625,1.1767950057983398,-4.728949546813965,-0.20681485533714294
1777560074253359000,0.427359130859375,0.29099059104919434,-5.73834228515625,-0.21133488416671753
1777560074271889200,0.44588916015625,-0.4166262149810791,-1.7117910385131836,0.7579444050788879
1777560074290419200,0.464419189453125,-3.422253131866455,2.6652278900146484,1.9395503997802734
1777560074308949200,0.48294921875,-6.277615547180176,5.674077987670898,4.480806350708008
1777560074327479000,0.50147900390625,-3.2220077514648438,5.759526252746582,5.862269878387451
1777560074346009000,0.520009033203125,1.200165033340454,2.6020641326904297,3.9071884155273438
1777560074364539100,0.5385390625,1.1319880485534668,-1.4255542755126953,0.18015539646148682
1777560074383069000,0.55706884765625,-0.4928901195526123,-4.455910682678223,-2.521601676940918
1777560074401599000,0.575598876953125,-2.5754528045654297,-5.034555435180664,-2.144688129425049
1777560074420129000,0.59412890625,-2.8157920837402344,-3.3756103515625,-0.9719976186752319
1777560074438659000,0.6126591796875,-2.4107744693756104,-0.42225170135498047,0.20750963687896729
1777560074457189000,0.631189208984375,-1.5771127939224243,1.2887773513793945,0.037678420543670654
1777560074475719000,0.649718994140625,-1.34084153175354,1.6007375717163086,-0.8214418888092041
1777560074494249000,0.6682490234375,-2.454834461212158,1.5894365310668945,-1.59779953956604
1777560074512779000,0.686779052734375,-3.9578232765197754,0.9144954681396484,-1.661335825920105
1777560074531308800,0.705308837890625,-2.9375016689300537,-0.017538070678710938,-0.6760704517364502
1777560074549838800,0.7238388671875,-0.25023984909057617,-0.7836132049560547,0.46101564168930054
1777560074568369000,0.742368896484375,-0.2198682427406311,-1.4757537841796875,0.6778722405433655
1777560074586899000,0.76089892578125,0.06516110897064209,-1.2186918258666992,0.7823036313056946
1777560074605429000,0.779428955078125,0.8269160985946655,0.05122089385986328,0.7247925996780396
1777560074623959000,0.797958984375,0.11153680086135864,1.1663570404052734,0.08450344204902649
1777560074642488800,0.81648876953125,-2.1209585666656494,1.6115570068359375,-1.0887925624847412
1777560074661019000,0.835018798828125,-2.7460639476776123,1.2056169509887695,-2.7821156978607178
1777560074679549000,0.853548828125,-1.3859796524047852,0.6719093322753906,-4.240670204162598
1777560074698078700,0.87207861328125,0.20714060962200165,-0.09077167510986328,-4.556641578674316
1777560074716608800,0.89060888671875,1.8236562013626099,-0.02659320831298828,-3.043015480041504
1777560074735138800,0.909138916015625,1.848853588104248,0.24631690979003906,-1.2299542427062988
1777560074753668900,0.9276689453125,0.45694050192832947,0.3723258972167969,-0.3354254961013794
1777560074772199000,0.946198974609375,-0.3841484785079956,0.7183685302734375,-0.5053666234016418
1777560074790728700,0.964728759765625,-0.6769297122955322,0.8193349838256836,-1.0806972980499268
1777560074809258800,0.9832587890625,-0.03753960132598877,0.42247867584228516,-1.1485227346420288
1777560074827788800,1.001788818359375,0.6466243267059326,-0.2462940216064453,-0.7320340871810913
1777560074846318800,1.02031884765625,0.7310900688171387,-0.12128734588623047,0.24098461866378784
1777560074864849000,1.038848876953125,0.5395980477333069,-0.06416702270507812,0.4144755005836487
1777560074883378700,1.057378662109375,0.40230101346969604,0.18726253509521484,0.2277611792087555
1777560074901908700,1.07590869140625,0.6452069282531738,0.44085216522216797,-0.839104413986206
1777560074920438800,1.094438720703125,1.5998064279556274,0.014659881591796875,-1.9415082931518555
1777560074938968800,1.11296875,1.6363540887832642,-0.8945255279541016,-2.7363903522491455
1777560074957498600,1.13149853515625,1.1991963386535645,-1.4393939971923828,-2.722987413406372
1777560074976028700,1.150028564453125,1.2764301300048828,-0.9268293380737305,-1.6389732360839844
1777560074994558700,1.168558837890625,0.9239116907119751,-0.5850248336791992,-0.5532997846603394
1777560075013088800,1.1870888671875,0.152449369430542,-0.5553712844848633,-0.49277472496032715
1777560075031618800,1.205618896484375,0.6512759923934937,-0.9952402114868164,-1.806418776512146
1777560075050148600,1.224148681640625,1.86021888256073,-2.0495481491088867,-3.1309080123901367
1777560075068678700,1.2426787109375,2.6171715259552,-3.4255781173706055,-3.35353684425354
1777560075087208700,1.261208740234375,1.8815796375274658,-4.160861968994141,-2.694166421890259
1777560075105738800,1.27973876953125,1.5488879680633545,-4.355396270751953,-2.5996954441070557
1777560075124268500,1.2982685546875,2.7998416423797607,-3.3248939514160156,-2.640488624572754
1777560075142798600,1.316798583984375,2.897033929824829,-0.9464263916015625,-1.77060866355896
1777560075161328600,1.33532861328125,1.7768644094467163,1.2485074996948242,-0.018992960453033447
1777560075179858700,1.353858642578125,1.1605902910232544,1.5321969985961914,1.1711677312850952
1777560075198388500,1.372388427734375,-0.5312050580978394,0.3720712661743164,0.9544851779937744
1777560075216918500,1.39091845703125,-4.0213727951049805,-1.4161529541015625,0.3882750868797302
1777560075235448600,1.409448486328125,-4.556118965148926,-3.347959518432617,-0.024036049842834473
1777560075253978600,1.427978515625,-2.8602118492126465,-3.661229133605957,0.28665417432785034
1777560075272508700,1.4465087890625,-1.9492876529693604,-2.5113840103149414,-0.4474285840988159
1777560075291038700,1.465038818359375,-3.05599308013916,-1.178339958190918,-0.017342746257781982
1777560075309568500,1.483568603515625,-5.146615028381348,-0.6599349975585938,1.328583002090454
1777560075328098600,1.5020986328125,-3.716839551925659,-0.176116943359375,1.814771294593811
1777560075346628600,1.520628662109375,-1.9764701128005981,-0.5829782485961914,-0.23402178287506104
1777560075365158700,1.53915869140625,-1.6845486164093018,-0.8130683898925781,-2.7134876251220703
1777560075383688700,1.557688720703125,-5.845891952514648,0.8413171768188477,-2.0679750442504883
1777560075402218500,1.576218505859375,-6.725434303283691,1.9396095275878906,-0.9995142221450806
1777560075420748500,1.59474853515625,-6.850696563720703,2.0216169357299805,-0.5348039865493774
1777560075439278600,1.613278564453125,-5.689851760864258,2.3606815338134766,-0.09651708602905273
1777560075457808600,1.63180859375,-3.988696336746216,3.051619529724121,0.3146486282348633
1777560075476338700,1.650338623046875,-2.7502236366271973,3.611456871032715,0.9085833430290222
1777560075494868500,1.668868408203125,-2.3538341522216797,4.025285243988037,1.7254408597946167
1777560075513398500,1.6873984375,-2.126124620437622,4.425344944000244,2.0155696868896484
1777560075531928600,1.705928466796875,-1.636094570159912,4.682858467102051,1.514655590057373
1777560075550458600,1.724458740234375,-0.9420413970947266,4.19528865814209,0.8462533950805664
1777560075568988400,1.742988525390625,0.5413501262664795,3.210508346557617,0.6316455602645874
1777560075587518500,1.7615185546875,2.325885057449341,1.4976930618286133,1.4637606143951416
1777560075606048500,1.780048583984375,4.153463363647461,-1.1675081253051758,2.917539119720459
1777560075624578600,1.79857861328125,6.972134590148926,-6.941448211669922,1.2059012651443481
1777560075643108600,1.817108642578125,8.436676025390625,-13.684322357177734,-3.65516996383667
1777560075661638400,1.835638427734375,3.7715680599212646,-9.910524368286133,-4.172351837158203
1777560075680168400,1.85416845703125,1.6537060737609863,-0.548457145690918,-0.42840591073036194
1777560075698698500,1.872698486328125,0.3332176208496094,5.267505168914795,1.974929690361023
1777560075717228500,1.891228515625,-0.982975959777832,7.857680320739746,3.021434783935547
1777560075735758600,1.909758544921875,-0.34774065017700195,6.359236717224121,3.541249990463257
1777560075754288600,1.92828857421875,3.160771369934082,-0.4555349349975586,2.4188623428344727
1777560075772818700,1.946818603515625,4.773283004760742,-10.677563667297363,-1.6222437620162964
1777560075791348500,1.965348388671875,-0.45536184310913086,-11.467718124389648,-1.483307123184204
1777560075809878500,1.98387841796875,-11.952338218688965,-1.3404054641723633,-0.6165186166763306
1777560075828408600,2.00240869140625,-12.086917877197266,5.597825050354004,7.250175476074219
1777560075846938600,2.020938720703125,-4.6531219482421875,7.607974052429199,9.1138334274292
1777560075865468700,2.03946875,-0.22704648971557617,7.600485324859619,7.3174147605896
1777560075883998700,2.057998779296875,-2.8504679203033447,5.703147888183594,2.654717445373535
1777560075902528500,2.076528564453125,-11.002802848815918,-1.5146780014038086,-1.6161010265350342
1777560075921058600,2.09505859375,-11.78788948059082,-10.9458589553833,-5.078111171722412
1777560075939588600,2.113588623046875,-4.7469868659973145,-10.453216552734375,-7.064300537109375
1777560075958118700,2.13211865234375,1.5742576122283936,-4.5765380859375,-8.586459159851074
1777560075976648700,2.150648681640625,2.60921573638916,-0.5364313125610352,-5.724172592163086
1777560075995178500,2.169178466796875,0.10158681869506836,2.5030031204223633,-0.17313235998153687
1777560076013708500,2.18770849609375,-2.135634183883667,4.156627178192139,3.9900360107421875
1777560076032238600,2.206238525390625,-2.4089419841766357,4.097092628479004,4.596202850341797
1777560076050768600,2.2247685546875,-0.2933056950569153,2.0938987731933594,2.8171143531799316
1777560076069298700,2.243298583984375,1.5826529264450073,-0.5441303253173828,0.1400061845779419
1777560076087828500,2.261828369140625,1.88473641872406,-1.1055717468261719,-1.491258144378662
1777560076106358800,2.28035888671875,2.1126933097839355,-0.10165119171142578,-1.8894226551055908
1777560076124888800,2.298888916015625,0.7816141247749329,1.1659917831420898,-1.4214403629302979
1777560076143418600,2.317418701171875,-1.740082859992981,1.7852458953857422,-0.7286633849143982
1777560076161948700,2.33594873046875,-1.9595839977264404,2.200963020324707,0.015575170516967773
1777560076180478700,2.354478759765625,-0.42374634742736816,1.4525842666625977,0.12830528616905212
1777560076199008800,2.3730087890625,2.061631679534912,0.03185272216796875,-0.846348762512207
1777560076217538800,2.391538818359375,2.724724054336548,-1.0718612670898438,-1.8472908735275269
1777560076236068600,2.410068603515625,1.4712311029434204,-1.7939462661743164,-1.9855023622512817
1777560076254598700,2.4285986328125,0.6586934328079224,-1.8611068725585938,-1.0219601392745972
1777560076273128700,2.447128662109375,2.048797845840454,-1.2176227569580078,-0.20062054693698883
1777560076291658800,2.46565869140625,3.073580265045166,-0.7482671737670898,-0.9054869413375854
1777560076310188800,2.484188720703125,2.6827645301818848,-0.5824375152587891,-1.7285611629486084
1777560076328718800,2.50271875,0.9205420017242432,-1.43487548828125,-2.7029271125793457
1777560076347249000,2.521248779296875,-0.22843265533447266,-2.937795639038086,-3.367938756942749
1777560076365778700,2.53977880859375,2.171931505203247,-3.7746009826660156,-3.381972551345825
1777560076384308700,2.558308837890625,4.857529163360596,-3.587855339050293,-3.1570301055908203
1777560076402838800,2.5768388671875,3.977630853652954,-2.469026565551758,-2.744999647140503
1777560076421368800,2.595368896484375,2.8470401763916016,-2.3839778900146484,-3.0642337799072266
1777560076439899000,2.61389892578125,2.569715738296509,-2.8215560913085938,-3.7673234939575195
1777560076458429000,2.632428955078125,0.39458608627319336,-2.507322311401367,-3.639221429824829
1777560076476959000,2.650958984375,-0.4540448784828186,-1.0683650970458984,-2.1451172828674316
1777560076495489000,2.669489013671875,1.3363893032073975,0.7693967819213867,0.7884193658828735
1777560076514018800,2.688018798828125,-1.9396730661392212,0.44385433197021484,1.7689861059188843
1777560076532549000,2.706549072265625,-2.981293201446533,-2.3230667114257812,2.889763593673706
1777560076551079000,2.725078857421875,-2.7729406356811523,-5.180903434753418,3.643832206726074
1777560076569609000,2.74360888671875,-0.6702437400817871,-5.088184356689453,2.040303945541382
1777560076588139000,2.762138916015625,-0.3140610456466675,-2.43142032623291,0.9707422256469727
1777560076606669000,2.7806689453125,-3.1559770107269287,-0.6188688278198242,-0.11641131341457367
1777560076625199000,2.79919921875,-6.9374284744262695,-0.3610363006591797,-1.206285834312439
1777560076643729200,2.817729248046875,-5.152117729187012,-0.18071460723876953,-1.4661887884140015
1777560076662259200,2.83625927734375,-3.372363328933716,-0.2903470993041992,-2.2944188117980957
1777560076680789200,2.854789306640625,-4.095292568206787,-0.6854190826416016,-2.598238706588745
1777560076699319000,2.873319091796875,-4.781364917755127,-0.11632823944091797,-1.398567795753479
1777560076717849000,2.89184912109375,-6.343682765960693,1.279658317565918,-0.10236527025699615
1777560076736379100,2.910379150390625,-7.1914191246032715,2.2955074310302734,0.44275999069213867
1777560076754909200,2.9289091796875,-6.521141052246094,3.2124881744384766,1.010315179824829
1777560076773439200,2.947439208984375,-5.159153938293457,4.056589126586914,1.5251173973083496
1777560076791969300,2.96596923828125,-3.9549684524536133,5.0023322105407715,1.6002929210662842
1777560076810499300,2.984499267578125,-3.486131191253662,5.57224178314209,1.6236016750335693
1777560076829029400,3.003029296875,-2.6272244453430176,5.467124938964844,1.550796627998352
1777560076847559400,3.021559326171875,-1.446580410003662,5.29676628112793,1.3799235820770264
1777560076866089200,3.040089111328125,0.2275853157043457,4.696603298187256,1.7828145027160645
1777560076884619300,3.058619384765625,3.849471092224121,3.425638198852539,3.249863386154175
1777560076903149300,3.0771494140625,7.4462432861328125,0.07289791107177734,5.5512518882751465
1777560076921679400,3.095679443359375,11.733394622802734,-8.840744972229004,4.071307182312012
1777560076940209400,3.11420947265625,7.981550216674805,-21.530742645263672,-5.551255226135254
1777560076958739500,3.132739501953125,1.493175983428955,-12.109515190124512,-6.660769462585449
1777560076977269500,3.15126953125,0.6250290870666504,0.2098064422607422,-0.4769802689552307
1777560076995799600,3.169799560546875,-0.18556880950927734,6.931873321533203,2.4095611572265625
1777560077014329600,3.18832958984375,-1.3818747997283936,10.844532012939453,2.8582887649536133
1777560077032859600,3.206859619140625,0.45357179641723633,10.133919715881348,2.453047752380371
1777560077051389700,3.2253896484375,3.865342617034912,1.4183759689331055,-0.36036649346351624
1777560077069919700,3.243919677734375,1.954620361328125,-8.332595825195312,-1.9107086658477783
1777560077088449800,3.26244970703125,0.4570274353027344,-13.250940322875977,3.7756242752075195
1777560077106979800,3.280979736328125,-15.365470886230469,-6.160140037536621,1.4933032989501953
1777560077125509600,3.299509521484375,-9.775032043457031,2.854343891143799,6.031196594238281
1777560077144040000,3.3180400390625,-1.6206879615783691,7.033503532409668,7.4785895347595215
1777560077162569700,3.33656982421875,-0.7392301559448242,8.17386245727539,4.267714023590088
1777560077181099800,3.355099853515625,-7.3980913162231445,6.528557777404785,1.4265003204345703
1777560077199630000,3.373630126953125,-12.424371719360352,1.3097648620605469,-0.313093900680542
1777560077218159900,3.392159912109375,-8.555536270141602,-9.337187767028809,-1.4190573692321777
1777560077236690000,3.41068994140625,-3.6104495525360107,-13.950920104980469,-7.758893013000488
1777560077255220000,3.429219970703125,3.3243913650512695,-6.614789962768555,-9.57289981842041
1777560077273750000,3.44775,3.6996045112609863,-0.1623363494873047,-6.496374607086182
1777560077292280000,3.466280029296875,-1.1447701454162598,2.9227514266967773,-1.6270394325256348
1777560077310810000,3.48481005859375,-4.281172275543213,4.564558029174805,3.3052334785461426
1777560077329340200,3.503340087890625,-1.7247673273086548,4.221521377563477,3.704806327819824
1777560077347870200,3.5218701171875,0.6431394219398499,2.8403024673461914,2.8687081336975098
1777560077366400300,3.540400146484375,2.9482619762420654,0.2014141082763672,1.1232457160949707
1777560077384930300,3.558930419921875,2.742921829223633,-0.7280054092407227,-0.7868332266807556
1777560077403460400,3.57746044921875,1.910844326019287,0.34691715240478516,-1.606112003326416
1777560077421990400,3.595990478515625,0.41591110825538635,1.3626070022583008,-1.7635829448699951
1777560077440520400,3.6145205078125,-1.6163121461868286,2.039605140686035,-0.5889182090759277
1777560077459050500,3.633050537109375,-1.7216763496398926,1.7186412811279297,0.06170371174812317
1777560077477580500,3.65158056640625,1.5049270391464233,0.3930940628051758,-0.6987441778182983
1777560077496110600,3.670110595703125,3.617448329925537,-0.888005256652832,-2.2807135581970215
1777560077514640600,3.688640625,2.9207816123962402,-1.8018407821655273,-3.3593504428863525
1777560077533170700,3.707170654296875,0.8560230731964111,-1.9637346267700195,-3.008943557739258
1777560077551700700,3.72570068359375,0.8172042369842529,-1.3608160018920898,-1.3282970190048218
1777560077570230800,3.744230712890625,2.365736484527588,-0.8447189331054688,-0.44020554423332214
1777560077588760600,3.762760498046875,3.844003200531006,-1.2290315628051758,-1.7108408212661743
1777560077607291000,3.781290771484375,2.677846670150757,-1.8629751205444336,-2.9585986137390137
1777560077625820700,3.799820556640625,2.0228025913238525,-3.061945915222168,-2.930246591567993
1777560077644351000,3.81835107421875,3.1191771030426025,-4.095765113830566,-3.429445743560791
1777560077662880800,3.836880859375,4.406641960144043,-3.403970718383789,-3.8021202087402344
1777560077681410800,3.855410888671875,2.399522304534912,-2.9249210357666016,-4.340749740600586
1777560077699941000,3.873941162109375,0.38103926181793213,-3.416378974914551,-4.348519802093506
1777560077718471000,3.892470947265625,1.031790018081665,-2.6906185150146484,-3.4989335536956787
1777560077737001200,3.911001220703125,2.3461382389068604,-1.2967987060546875,-1.7930316925048828
1777560077755531000,3.929531005859375,0.27183830738067627,0.04648017883300781,0.8728182315826416
1777560077774061300,3.948061279296875,-2.724558115005493,-1.1830720901489258,2.618842601776123
1777560077792591000,3.966591064453125,-2.798149824142456,-4.390456199645996,3.9341297149658203
1777560077811121400,3.985121337890625,-1.1628317832946777,-6.6327009201049805,3.6170101165771484
1777560077829651200,4.003651123046875,0.2988349199295044,-5.537172317504883,1.3940536975860596
1777560077848181500,4.022181396484375,-0.7508819103240967,-2.896045684814453,0.4260321259498596
1777560077866711300,4.040711181640625,-4.809510231018066,-0.8376131057739258,-0.6218058466911316
1777560077885241600,4.05924169921875,-6.756085395812988,0.056549072265625,-1.7778809070587158
1777560077903771400,4.077771484375,-5.25579309463501,0.5592889785766602,-1.7983345985412598
1777560077922301700,4.0963017578125,-4.244740009307861,0.2951021194458008,-2.661668539047241
1777560077940831700,4.114831787109375,-5.156205654144287,0.2675018310546875,-2.360605239868164
1777560077959361500,4.133361572265625,-6.951659202575684,0.8641548156738281,-0.8234246969223022
1777560077977891800,4.151891845703125,-6.722246170043945,1.9154582023620605,0.5518109798431396
1777560077996422000,4.170421875,-6.9344162940979,3.15126895904541,0.9701195955276489
1777560078014952000,4.188951904296875,-6.696036338806152,4.075131893157959,1.1334404945373535
1777560078033482000,4.20748193359375,-4.293552875518799,4.682100296020508,1.4493526220321655
1777560078052012000,4.226011962890625,-3.213453769683838,4.829403400421143,1.6347730159759521
1777560078070542000,4.2445419921875,-2.4230308532714844,4.600927352905273,1.671616554260254
1777560078089072000,4.263072021484375,-2.0574471950531006,4.257477760314941,1.458686351776123
1777560078107602200,4.281602294921875,-1.9359279870986938,4.550031661987305,1.322845697402954
1777560078126132200,4.30013232421875,-0.2733175754547119,4.562321662902832,1.7070815563201904
1777560078144662300,4.318662353515625,2.982839822769165,3.5516271591186523,2.4879395961761475
1777560078163192300,4.3371923828125,6.685137748718262,0.6875524520874023,3.967233896255493
1777560078181722400,4.355722412109375,11.04855728149414,-6.543048858642578,3.0170578956604004
1777560078200252400,4.37425244140625,10.968710899353027,-19.86473846435547,-5.1996684074401855
1777560078218782500,4.392782470703125,2.4707181453704834,-14.677116394042969,-6.6276164054870605
1777560078237312500,4.4113125,1.2939090728759766,-0.41663074493408203,-0.16470712423324585
1777560078255842600,4.429842529296875,0.9649066925048828,8.211101531982422,2.301628351211548
1777560078274372600,4.44837255859375,-0.5109930038452148,12.613458633422852,4.422395706176758
1777560078292902700,4.466902587890625,-0.5904359817504883,7.446388244628906,4.579488754272461
1777560078311432700,4.4854326171875,1.7050070762634277,-3.237344741821289,3.65645694732666
1777560078329962800,4.503962646484375,-0.06858706474304199,-12.416460037231445,3.243056535720825
1777560078348492800,4.522492919921875,-10.178768157958984,-9.54986572265625,-2.1092357635498047
1777560078367023000,4.541023193359375,-11.345165252685547,0.5985441207885742,2.0645055770874023
1777560078385553000,4.559552978515625,-2.922637939453125,4.485081672668457,5.303349494934082
1777560078404083200,4.578083251953125,-2.5257792472839355,6.033830165863037,1.6311136484146118
1777560078422613000,4.596613037109375,-7.003356456756592,6.202332496643066,0.4558662474155426
1777560078441143300,4.615143310546875,-9.038968086242676,3.3124608993530273,1.063480019569397
1777560078459673300,4.63367333984375,-7.938427925109863,-5.177257537841797,0.31872469186782837
1777560078478203400,4.652203369140625,-5.224954128265381,-12.461812973022461,-5.790850639343262
1777560078496733400,4.6707333984375,-0.7290443181991577,-7.583709716796875,-8.909958839416504
1777560078515263500,4.689263427734375,2.4730443954467773,-1.8515548706054688,-7.020431995391846
1777560078533793500,4.70779345703125,1.7818608283996582,1.620849609375,-3.628549575805664
1777560078552323600,4.726323486328125,-1.4566469192504883,4.282748222351074,1.3014423847198486
1777560078570853600,4.744853515625,-2.092031717300415,4.890984535217285,4.070464134216309
1777560078589383700,4.7633837890625,-0.22100555896759033,3.628262519836426,3.812887668609619
1777560078607913700,4.781913818359375,1.2692264318466187,0.8987588882446289,2.433175563812256
1777560078626443800,4.80044384765625,2.1370229721069336,-0.7387990951538086,0.12261736392974854
1777560078644973800,4.818973876953125,3.3924243450164795,-0.3480415344238281,-1.7875335216522217
1777560078663504100,4.837504150390625,1.0141456127166748,1.1200180053710938,-2.0768022537231445
1777560078682034000,4.856033935546875,-1.3912484645843506,2.1072206497192383,-0.9249457120895386
1777560078700564200,4.874564208984375,-1.5908050537109375,2.059945583343506,-0.15035173296928406
1777560078719094300,4.89309423828125,1.732994556427002,0.32752132415771484,-0.7690120935440063
1777560078737624300,4.911624267578125,3.5542876720428467,-1.5548162460327148,-2.5602755546569824
1777560078756154400,4.930154296875,2.9948935508728027,-2.1330184936523438,-3.3942031860351562
1777560078774684400,4.948684326171875,1.155131220817566,-1.6592388153076172,-2.059636116027832
1777560078793214500,4.96721435546875,0.5716907978057861,-1.3470516204833984,-0.8675721883773804
1777560078811744500,4.98574462890625,1.7472078800201416,-0.9474544525146484,-1.6533548831939697
1777560078830274600,5.004274658203125,2.425889253616333,-0.8891096115112305,-3.1326780319213867
1777560078848804600,5.0228046875,2.094944953918457,-1.4563179016113281,-3.36281156539917
1777560078867334700,5.041334716796875,2.4875638484954834,-2.8394289016723633,-2.2055861949920654
1777560078885864700,5.05986474609375,4.307240962982178,-4.204591751098633,-2.2786011695861816
1777560078904394800,5.078394775390625,3.829806327819824,-3.9386091232299805,-3.0389161109924316
1777560078922925000,5.096925048828125,2.8854804039001465,-3.422060966491699,-4.012799263000488
1777560078941455000,5.115455078125,2.422114610671997,-4.167263984680176,-4.740683078765869
1777560078959985200,5.133985107421875,1.105904221534729,-3.0284461975097656,-4.019145488739014
1777560078978515200,5.15251513671875,2.377101182937622,-1.764871597290039,-2.155837059020996
1777560078997045200,5.171045166015625,0.8717976808547974,0.08744430541992188,0.7861827611923218
1777560079015575300,5.1895751953125,-2.7894554138183594,-0.9420270919799805,2.659921646118164
1777560079034105300,5.208105224609375,-4.224708557128906,-3.4261064529418945,4.561600685119629
1777560079052635400,5.226635498046875,-2.5147407054901123,-5.240928649902344,5.230383396148682
1777560079071165700,5.245165771484375,0.404075026512146,-4.47788143157959,2.799730062484741
1777560079089695700,5.26369580078125,0.9149553775787354,-2.937082290649414,0.506618082523346
1777560079108225800,5.282225830078125,-2.9926843643188477,-1.6805858612060547,-1.1029629707336426
1777560079126755800,5.300755859375,-5.916144371032715,-1.2493982315063477,-2.4035191535949707
1777560079145286000,5.319285888671875,-4.104458808898926,-0.3755350112915039,-2.8607027530670166
1777560079163816000,5.33781591796875,-5.7283220291137695,0.15421009063720703,-3.5753014087677
1777560079182346000,5.356345947265625,-7.109903335571289,0.3317604064941406,-2.5887837409973145
1777560079200876000,5.3748759765625,-7.474262237548828,1.3408684730529785,-0.8314774632453918
1777560079219406000,5.393406005859375,-7.042640686035156,2.603516101837158,0.5805511474609375
1777560079237936400,5.411936279296875,-7.027078628540039,3.604487419128418,0.7492722272872925
1777560079256466400,5.430466552734375,-6.124444961547852,4.345298767089844,1.2519583702087402
1777560079274996500,5.44899658203125,-5.2350616455078125,5.037656784057617,1.6037683486938477
1777560079293526500,5.467526611328125,-4.7474846839904785,5.863842964172363,1.6121864318847656
1777560079312056600,5.486056640625,-3.140289068222046,5.925697326660156,1.1294400691986084
1777560079330586600,5.504586669921875,-2.422797441482544,6.036008834838867,1.1578569412231445
1777560079349116700,5.52311669921875,-0.5450971126556396,5.9271321296691895,1.3653361797332764
1777560079367646700,5.541646728515625,3.4056661128997803,4.604515075683594,2.672532081604004
1777560079386177000,5.560177001953125,8.083749771118164,1.200897216796875,6.08955717086792
1777560079404707000,5.57870703125,12.758705139160156,-7.7067108154296875,8.032251358032227
1777560079423237000,5.597237060546875,9.092109680175781,-23.69711685180664,-2.2245032787323
1777560079441767200,5.61576708984375,2.1207785606384277,-15.666264533996582,-7.019689083099365
1777560079460297200,5.634297119140625,0.7352485656738281,-0.21841907501220703,-1.3539879322052002
1777560079478827300,5.6528271484375,0.36136531829833984,7.265021324157715,1.0344609022140503
1777560079497357600,5.671357666015625,-1.5150272846221924,11.45426082611084,3.4196395874023438
1777560079515887400,5.689887451171875,0.945467472076416,9.342007637023926,3.763071298599243
1777560079534417700,5.708417724609375,1.0744729042053223,-0.4954795837402344,2.7326912879943848
1777560079552947700,5.72694775390625,0.9151926040649414,-10.318625450134277,3.9493443965911865
1777560079571477800,5.745477783203125,-10.321175575256348,-11.452001571655273,-1.7972371578216553
1777560079590007800,5.7640078125,-12.133609771728516,-2.1861515045166016,1.5596262216567993
1777560079608537900,5.782537841796875,-3.7264935970306396,2.7130327224731445,3.9275014400482178
1777560079627068000,5.80106787109375,-1.8487623929977417,5.11149263381958,1.3962730169296265
1777560079645598200,5.81959814453125,-5.424633979797363,5.811307430267334,-0.3806430697441101
1777560079664128300,5.838128173828125,-9.787510871887207,4.314667701721191,0.5076621770858765
1777560079682658300,5.856658203125,-8.784822463989258,-2.269367218017578,1.0260463953018188
1777560079701188400,5.875188232421875,-5.427864074707031,-11.90696907043457,-2.2824742794036865
1777560079719718400,5.893718505859375,-1.3472869396209717,-10.363791465759277,-7.164827823638916
1777560079738248400,5.91224853515625,3.5097367763519287,-2.3892030715942383,-5.866561412811279
1777560079756778500,5.930778564453125,3.9232778549194336,1.828338623046875,-3.8451731204986572
1777560079775308800,5.949308837890625,-0.5095239877700806,4.443070411682129,-0.2301241159439087
1777560079793838800,5.9678388671875,-3.3860433101654053,5.745296001434326,2.8163020610809326
1777560079812369000,5.986368896484375,-2.0003392696380615,4.594959259033203,2.624516487121582
1777560079830899000,6.00489892578125,0.5504791140556335,1.939101219177246,1.942493200302124
1777560079849429000,6.023428955078125,3.051912307739258,-1.0704545974731445,-0.6363551616668701
1777560079867959000,6.041958984375,3.847402811050415,-0.9812898635864258,-2.4412591457366943
1777560079886489300,6.0604892578125,2.4342541694641113,0.604914665222168,-3.1321117877960205
1777560079905019400,6.079019287109375,0.7010408639907837,1.6604595184326172,-2.4547247886657715
1777560079923549400,6.097549560546875,-0.9302623271942139,1.6939592361450195,-1.012351632118225
1777560079942079500,6.11607958984375,0.5022979378700256,1.034062385559082,-0.3712724447250366
1777560079960609500,6.134609619140625,2.1030728816986084,-0.18153667449951172,-0.5478418469429016
1777560079979139600,6.1531396484375,3.0810129642486572,-1.8425483703613281,-1.2687721252441406
1777560079997669600,6.171669677734375,2.5512919425964355,-2.5011987686157227,-1.4094957113265991
1777560080016200000,6.190199951171875,0.24601078033447266,-1.220036506652832,-1.2820264101028442
1777560080034730000,6.20872998046875,-0.7052021026611328,0.18300151824951172,-1.3474427461624146
1777560080053260000,6.227260009765625,1.0048233270645142,-0.24681854248046875,-1.4002892971038818
1777560080071790000,6.2457900390625,2.3485915660858154,-1.9695711135864258,-1.004179835319519
1777560080090320400,6.2643203125,3.616936206817627,-3.7934255599975586,-1.12164306640625
1777560080108850200,6.28285009765625,3.315854072570801,-4.3738555908203125,-2.2251105308532715
1777560080127380500,6.30138037109375,3.1685667037963867,-3.6719589233398438,-2.8948614597320557
1777560080145910500,6.31991064453125,3.132380247116089,-2.7401742935180664,-3.6274328231811523
1777560080164440600,6.338440673828125,2.232027292251587,-3.20845890045166,-4.470386505126953
1777560080182970600,6.356970703125,2.4379379749298096,-3.527096748352051,-4.289306163787842
1777560080201500700,6.375500732421875,1.6318542957305908,-2.3899316787719727,-3.423264265060425
1777560080220031000,6.394031005859375,3.3274078369140625,-0.7305746078491211,-1.154887080192566
1777560080238561000,6.41256103515625,0.7097156047821045,0.7474737167358398,0.8048564195632935
1777560080257091000,6.431091064453125,-2.0704925060272217,-0.3119220733642578,2.5367019176483154
1777560080275621000,6.44962109375,-3.679812431335449,-2.804950714111328,4.034548282623291
1777560080294151200,6.468151123046875,-2.330435037612915,-5.188283920288086,4.596184730529785
1777560080312681200,6.48668115234375,-0.027646899223327637,-4.197124481201172,2.704448699951172
1777560080331211500,6.50521142578125,0.8715550899505615,-2.543452262878418,1.1269972324371338
1777560080349741600,6.523741455078125,-3.7170250415802,-1.8629779815673828,-0.6164575815200806
1777560080368271600,6.542271728515625,-5.527719020843506,-1.1165399551391602,-2.013932466506958
1777560080386801700,6.5608017578125,-3.731450319290161,-0.4452657699584961,-2.8188579082489014
1777560080405331700,6.579331787109375,-4.270991325378418,-0.10767173767089844,-3.260247230529785
1777560080423862000,6.597862060546875,-6.068505764007568,0.41283321380615234,-2.193382501602173
1777560080442392000,6.61639208984375,-8.199285507202148,1.8016595840454102,-0.8724801540374756
1777560080460922000,6.634922119140625,-7.233166694641113,2.9907302856445312,0.32156336307525635
1777560080479452200,6.6534521484375,-6.136479377746582,3.7533092498779297,0.3383495807647705
1777560080497982200,6.671982177734375,-5.4890594482421875,4.2172064781188965,0.7030022740364075
1777560080516512300,6.69051220703125,-5.016570091247559,4.387160778045654,1.1049048900604248
1777560080535042600,6.70904248046875,-3.760097026824951,5.2271013259887695,1.3372080326080322
1777560080553572600,6.727572509765625,-3.0844078063964844,5.509019374847412,0.8194116353988647
1777560080572102700,6.7461025390625,-1.8148930072784424,5.801155090332031,0.8502001166343689
1777560080590632700,6.7646328125,-0.21797776222229004,5.643418312072754,1.294445276260376
1777560080609162800,6.783162841796875,3.054248571395874,4.4628705978393555,2.2713022232055664
1777560080627693000,6.801693115234375,8.677251815795898,1.125624656677246,4.744812488555908
1777560080646223000,6.82022314453125,13.673864364624023,-7.873849868774414,7.057404518127441
1777560080664753200,6.838753173828125,9.04500675201416,-23.131237030029297,-1.736588716506958
1777560080683283200,6.857283203125,2.2575178146362305,-14.202953338623047,-7.0368852615356445
1777560080701813500,6.8758134765625,-0.33351850509643555,-0.06642532348632812,-1.0361641645431519
1777560080720343600,6.894343505859375,-0.17336201667785645,7.811522483825684,1.4156700372695923
1777560080738873600,6.91287353515625,1.617715835571289,11.748461723327637,2.167968273162842
1777560080757403600,6.931403564453125,2.902315616607666,6.004975318908691,2.2185494899749756
1777560080775933700,6.94993359375,-0.758446455001831,-5.801855087280273,-0.885642945766449
1777560080794463700,6.968463623046875,-0.0575556755065918,-9.377738952636719,2.4215211868286133
1777560080812993800,6.986993896484375,-13.170230865478516,-4.945250511169434,-0.6270958185195923
1777560080831524000,7.005524169921875,-11.681851387023926,1.1331901550292969,5.541667938232422
1777560080850054100,7.02405419921875,-1.6298620700836182,3.816469192504883,8.115087509155273
1777560080868584200,7.042584228515625,-1.7375493049621582,5.742504119873047,5.377529144287109
1777560080887114200,7.0611142578125,-7.171363830566406,5.459120273590088,3.2821013927459717
1777560080905644500,7.07964453125,-9.44334602355957,1.4013681411743164,2.3352019786834717
1777560080924174600,7.098174560546875,-8.064949035644531,-6.795060157775879,0.9640002250671387
1777560080942704600,7.11670458984375,-4.831394195556641,-12.230266571044922,-5.599054336547852
1777560080961234700,7.135234619140625,0.20611250400543213,-7.298262596130371,-9.373594284057617
1777560080979764700,7.1537646484375,3.610629081726074,-0.8923587799072266,-7.9456939697265625
1777560080998295000,7.172294921875,2.9627323150634766,1.953446388244629,-4.468505859375
1777560081016825000,7.1908251953125,-0.5713889598846436,3.7831435203552246,0.8681212663650513
1777560081035355100,7.209355224609375,-3.1138358116149902,3.952850341796875,2.6457533836364746
1777560081053885200,7.22788525390625,-2.070840835571289,2.9567699432373047,2.3939309120178223
1777560081072415500,7.24641552734375,0.6974237561225891,0.9375495910644531,0.9674054384231567
1777560081090945500,7.264945556640625,2.2792625427246094,-0.40837764739990234,-0.6095321178436279
1777560081109475600,7.2834755859375,3.3922741413116455,0.3226137161254883,-1.391218662261963
1777560081128005600,7.302005615234375,1.5276849269866943,1.5655698776245117,-0.7322667837142944
1777560081146535700,7.32053564453125,-1.3691327571868896,2.454657554626465,0.5761314630508423
1777560081165066000,7.33906591796875,-1.8012125492095947,3.106104850769043,1.0641611814498901
1777560081183596000,7.357595947265625,1.326537847518921,1.894829273223877,-0.17285189032554626
1777560081202126000,7.3761259765625,3.8722500801086426,-0.3486948013305664,-2.228092670440674
1777560081220656000,7.39465625,3.3850104808807373,-2.45318603515625,-3.528862953186035
1777560081239186400,7.4131865234375,1.964356780052185,-3.607781410217285,-3.852511405944824
1777560081257716200,7.43171630859375,1.4306029081344604,-3.1208019256591797,-3.8234148025512695
1777560081276246500,7.45024658203125,2.1761209964752197,-1.7688302993774414,-2.9434778690338135
1777560081294776600,7.468776611328125,2.541186809539795,-1.0916767120361328,-1.7257733345031738
1777560081313306600,7.487306640625,1.88297700881958,-1.9535675048828125,-0.9856425523757935
1777560081331836700,7.505836669921875,2.6067192554473877,-3.8852033615112305,-0.9689370393753052
1777560081350366700,7.52436669921875,5.435370445251465,-4.886871337890625,-2.281858444213867
1777560081368897000,7.54289697265625,5.403100967407227,-3.327216148376465,-3.126906394958496
1777560081387427000,7.561427001953125,3.5110061168670654,-2.178380012512207,-3.577268600463867
1777560081405957000,7.57995703125,1.797240972518921,-2.204723358154297,-3.9534051418304443
1777560081424487200,7.598487060546875,1.6603537797927856,-1.608011245727539,-4.394527435302734
1777560081443017500,7.617017578125,1.3533296585083008,-0.8975458145141602,-3.18076753616333
1777560081461547500,7.635547607421875,-1.6508371829986572,-0.3031501770019531,-0.4577372372150421
1777560081480077600,7.65407763671875,-2.8924880027770996,-2.5528106689453125,2.2206525802612305
1777560081498607600,7.672607666015625,-2.721334457397461,-5.5391950607299805,5.0933661460876465
1777560081517137700,7.6911376953125,-0.7046564817428589,-6.509352684020996,4.18117618560791
1777560081535668000,7.70966796875,0.6871062517166138,-4.667471885681152,1.1049965620040894
1777560081554198000,7.728197998046875,-0.6329936981201172,-1.9633893966674805,0.17996671795845032
1777560081572728000,7.74672802734375,-6.214310646057129,-0.5379972457885742,-1.5503790378570557
1777560081591258000,7.765258056640625,-5.206372261047363,-0.057847023010253906,-2.5659515857696533
1777560081609788400,7.783788330078125,-2.9832448959350586,0.13492965698242188,-3.1638126373291016
1777560081628318500,7.802318359375,-4.75420618057251,0.03307056427001953,-3.28672456741333
1777560081646848500,7.8208486328125,-7.134247779846191,0.43062591552734375,-1.738620400428772
1777560081665378600,7.839378662109375,-7.099316596984863,1.9056992530822754,-0.036974310874938965
1777560081683908600,7.85790869140625,-7.262360572814941,3.211970329284668,0.46200865507125854
1777560081702439000,7.87643896484375,-7.127142429351807,4.260724067687988,0.5600592494010925
1777560081720969000,7.894968994140625,-5.857222080230713,4.678443431854248,0.8312207460403442
1777560081739499000,7.9134990234375,-4.260495185852051,5.599599838256836,1.0646313428878784
1777560081758029000,7.932029052734375,-3.3152239322662354,6.135059356689453,0.8154870271682739
1777560081776559000,7.95055908203125,-2.128726005554199,6.070443153381348,0.780243456363678
1777560081795089400,7.96908935546875,-1.0331676006317139,6.0024333000183105,0.9738589525222778
1777560081813619500,7.987619384765625,1.498537302017212,5.097675800323486,1.3238184452056885
1777560081832149500,8.0061494140625,6.01815128326416,3.0309386253356934,2.8895528316497803
1777560081850679600,8.024679443359375,8.708335876464844,-1.3696889877319336,6.789801597595215
1777560081869209900,8.0432099609375,13.138351440429688,-13.953361511230469,5.589606761932373
1777560081887740000,8.061739990234376,6.298781394958496,-23.665611267089844,-5.261486053466797
1777560081906270000,8.08027001953125,2.4258828163146973,-8.766121864318848,-5.203115463256836
1777560081924800000,8.098800048828124,-0.10635256767272949,4.410962104797363,-0.6826085448265076
1777560081943330000,8.117330078125,-0.3428328037261963,11.400546073913574,-0.27103686332702637
1777560081961860400,8.1358603515625,1.7878823280334473,13.260273933410645,0.34111523628234863
1777560081980390400,8.154390380859375,3.2835867404937744,4.0993242263793945,-0.2585834264755249
1777560081998920400,8.17292041015625,-0.28338122367858887,-7.399619102478027,4.572617053985596
1777560082017450500,8.191450439453124,-3.310192823410034,-16.7624568939209,5.929832458496094
1777560082035980800,8.209980712890625,-19.958709716796875,-6.807679176330566,-0.15787595510482788
1777560082054510800,8.2285107421875,-7.7983222007751465,2.4620018005371094,4.202762603759766
1777560082073041000,8.247041015625,-0.9639654159545898,6.935339450836182,5.1882805824279785
1777560082091571000,8.265571044921876,-1.4057475328445435,9.627286911010742,4.657838821411133
1777560082110101000,8.28410107421875,-7.678902626037598,7.346818923950195,3.5155253410339355
1777560082128631300,8.30263134765625,-10.603873252868652,-0.6678886413574219,2.6264097690582275
1777560082147161300,8.321161376953125,-7.930299282073975,-13.759737014770508,-1.4109280109405518
1777560082165691400,8.33969140625,-3.0686452388763428,-12.762836456298828,-8.97684383392334
1777560082184221400,8.358221435546875,5.250522136688232,-4.36799430847168,-10.28555679321289
1777560082202751700,8.376751708984376,4.384673118591309,1.1167993545532227,-7.241114139556885
1777560082221281800,8.39528173828125,-1.950986623764038,4.424890995025635,-0.6607798933982849
1777560082239811800,8.413811767578125,-2.924269676208496,5.399463653564453,3.6412932872772217
1777560082258342000,8.432341796875,-1.1205674409866333,5.288509845733643,5.192802429199219
1777560082276872000,8.450871826171875,1.292304277420044,2.886557102203369,4.595832347869873
1777560082295402200,8.46940234375,2.765180826187134,-0.3594217300415039,0.8375047445297241
1777560082313932300,8.487932373046876,2.053135871887207,-0.6860818862915039,-1.937347650527954
1777560082332462300,8.50646240234375,1.3434953689575195,0.5329685211181641,-3.08097243309021
1777560082350992400,8.524992431640625,0.10674178600311279,1.9749059677124023,-1.852921962738037
1777560082369522700,8.543522705078125,-0.293617844581604,1.8624029159545898,-0.1459234058856964
1777560082388052700,8.562052734375,2.4616928100585938,0.4743642807006836,-0.07442662119865417
1777560082406582800,8.580582763671876,3.2570786476135254,-1.289642333984375,-1.7517046928405762
1777560082425112800,8.59911279296875,2.239290714263916,-3.0007734298706055,-3.4088563919067383
1777560082443643000,8.617642822265625,0.8236125707626343,-2.567584991455078,-4.131718158721924
1777560082462173200,8.636173095703125,1.075965404510498,-1.0220365524291992,-3.6616034507751465
1777560082480703200,8.654703125,2.6944916248321533,-0.810150146484375,-2.8597750663757324
1777560082499233300,8.6732333984375,2.942991018295288,-1.3744783401489258,-1.9021029472351074
1777560082517763300,8.691763427734376,2.4984118938446045,-3.381101608276367,-1.521033763885498
1777560082536293400,8.71029345703125,3.668489456176758,-4.3091325759887695,-1.7806235551834106
1777560082554823700,8.72882373046875,4.330397605895996,-4.157930374145508,-2.6184234619140625
1777560082573353700,8.747353759765625,3.7934999465942383,-3.5755481719970703,-3.485193967819214
1777560082591883800,8.7658837890625,2.5717122554779053,-4.270625114440918,-4.432447910308838
1777560082610413800,8.784413818359376,1.1530104875564575,-4.220301628112793,-4.4583659172058105
1777560082628944100,8.802944091796874,1.3929357528686523,-2.690243721008301,-2.663217306137085
1777560082647474200,8.82147412109375,1.7611806392669678,0.2045459747314453,0.8873963952064514
1777560082666004200,8.840004150390625,-2.6643269062042236,0.36115360260009766,2.538961410522461
1777560082684534300,8.8585341796875,-3.568845748901367,-1.9541349411010742,3.780015468597412
1777560082703064300,8.877064208984375,-2.1000940799713135,-4.627536773681641,4.822938442230225
1777560082721594600,8.8955947265625,0.19900155067443848,-4.887989044189453,2.33897066116333
1777560082740124700,8.914124755859374,0.9688209295272827,-3.387269973754883,0.21705809235572815
1777560082758654700,8.93265478515625,-2.166954517364502,-2.01242733001709,-1.1803462505340576
1777560082777184800,8.951184814453125,-5.142718315124512,-1.6657533645629883,-2.2412302494049072
1777560082795715000,8.969715087890625,-5.853724956512451,-1.3162841796875,-3.012377977371216
1777560082814245000,8.9882451171875,-5.762909889221191,-0.07081127166748047,-3.505012035369873
1777560082832775200,9.006775146484374,-5.794386863708496,0.37566089630126953,-2.873335599899292
1777560082851305200,9.02530517578125,-7.022528648376465,1.3202433586120605,-1.3243370056152344
1777560082869835300,9.043835205078125,-7.969608306884766,2.687786102294922,0.2997209429740906
1777560082888365600,9.062365478515625,-7.2195587158203125,3.959742546081543,0.9166121482849121
1777560082906895600,9.0808955078125,-6.309202194213867,4.649357318878174,1.1061681509017944
1777560082925425700,9.09942578125,-5.055386543273926,5.076321125030518,1.661078691482544
1777560082943955700,9.117955810546874,-4.383232116699219,6.017005443572998,1.859129548072815
1777560082962486000,9.136486083984375,-3.7901265621185303,5.8822760581970215,1.2622590065002441
1777560082981016000,9.15501611328125,-2.255474090576172,6.058994293212891,1.173492431640625
1777560082999546000,9.173546142578125,0.010733604431152344,6.04699182510376,1.5239348411560059
1777560083018076200,9.192076171875,3.5829968452453613,4.841742515563965,2.7014410495758057
1777560083036606200,9.210606201171874,8.307464599609375,1.8290023803710938,6.3613810539245605
1777560083055136500,9.229136474609374,13.838078498840332,-7.695245742797852,9.316709518432617
1777560083073666600,9.24766650390625,8.890646934509277,-26.0931453704834,-2.3307127952575684
1777560083092196600,9.266196533203125,1.9827723503112793,-14.316984176635742,-5.697782039642334
1777560083110726700,9.2847265625,1.5110225677490234,1.0146450996398926,-0.7730410695075989
1777560083129256700,9.303256591796876,1.3264336585998535,8.27232837677002,1.1871333122253418
1777560083147787000,9.321787109375,1.4785246849060059,11.703012466430664,2.3214330673217773
1777560083166317000,9.340317138671875,2.09621524810791,5.68640661239624,2.5109481811523438
1777560083184847000,9.35884716796875,-2.7078287601470947,-4.732595443725586,1.662922978401184
1777560083203377200,9.377377197265625,-0.5299642086029053,-8.61318588256836,1.341064691543579
1777560083221907500,9.395907470703126,-16.771257400512695,-5.434972763061523,-0.8766646385192871
1777560083240437200,9.414437255859376,-9.157517433166504,0.08411312103271484,5.18511962890625
1777560083258967600,9.432967529296874,-2.4567654132843018,2.028315544128418,4.650919437408447
1777560083277497600,9.45149755859375,-3.556840419769287,4.797450065612793,1.3221091032028198
1777560083296027600,9.470027587890625,-6.2682013511657715,5.6743083000183105,0.7511994242668152
1777560083314558000,9.488557861328125,-8.17257022857666,1.6065435409545898,0.6182228922843933
1777560083333088000,9.507087890625,-6.0747175216674805,-7.119858741760254,0.3958188593387604
1777560083351618000,9.5256181640625,-4.65287446975708,-11.542048454284668,-4.868363857269287
1777560083370148000,9.544148193359375,-0.34087806940078735,-5.189000129699707,-6.988288402557373
1777560083388678400,9.562678466796875,3.791600227355957,0.08516693115234375,-5.826249599456787
1777560083407208400,9.58120849609375,1.191946029663086,3.132892608642578,-2.930051803588867
1777560083425738500,9.599738525390626,-2.4866526126861572,4.772289276123047,0.5901107788085938
1777560083444268500,9.6182685546875,-2.4305548667907715,4.288858413696289,1.4068779945373535
1777560083462798600,9.636798583984374,-0.5632062554359436,2.6680030822753906,1.1561388969421387
1777560083481329000,9.655328857421875,1.2290847301483154,-0.24636459350585938,0.3054307699203491
1777560083499859000,9.67385888671875,3.0882508754730225,-1.6895980834960938,-0.9525871872901917
1777560083518389000,9.692388916015625,3.8577170372009277,-0.8032550811767578,-1.0902912616729736
1777560083536919000,9.7109189453125,2.4823191165924072,1.209625244140625,-0.013556063175201416
1777560083555449300,9.729449462890624,-1.0238215923309326,2.484071731567383,0.9142084121704102
1777560083573979100,9.747979248046875,-2.4372799396514893,3.277486801147461,1.1953412294387817
1777560083592509400,9.766509521484375,0.48006927967071533,2.4470272064208984,-0.3357824385166168
1777560083611039500,9.78503955078125,3.4566922187805176,0.22765636444091797,-2.6553359031677246
1777560083629569500,9.803569580078126,3.3931984901428223,-1.808100700378418,-3.9186456203460693
1777560083648099600,9.822099609375,1.6739070415496826,-2.443600654602051,-3.691122531890869
1777560083666629600,9.840629638671874,1.144915223121643,-2.2431278228759766,-2.9652278423309326
1777560083685160000,9.859159912109375,1.5738626718521118,-1.4489316940307617,-2.648225784301758
1777560083703690000,9.87768994140625,2.0179522037506104,-1.028580665588379,-2.468843698501587
1777560083722220000,9.896219970703125,2.6617612838745117,-1.3328313827514648,-1.6261799335479736
1777560083740750000,9.91475,3.2375898361206055,-2.277801513671875,-0.3032950758934021
1777560083759280400,9.9332802734375,3.0168633460998535,-4.275408744812012,-1.0697898864746094
1777560083777810400,9.951810546875,3.538079023361206,-4.566580772399902,-2.8190948963165283
1777560083796340500,9.970340576171875,3.2873826026916504,-3.7542829513549805,-4.2874531745910645
1777560083814870500,9.98887060546875,2.4409377574920654,-4.68863582611084,-5.256368160247803
1777560083833400600,10.007400634765625,1.9186443090438843,-4.135598182678223,-4.923822402954102
1777560083851931000,10.025930908203126,2.7701117992401123,-1.8421831130981445,-2.4960081577301025
1777560083870461000,10.0444609375,1.4966129064559937,0.14147281646728516,0.41330406069755554
1777560083888991000,10.062990966796875,-1.9632714986801147,-0.054892539978027344,2.851085662841797
1777560083907521000,10.08152099609375,-2.816606044769287,-2.296114921569824,4.460239887237549
1777560083926051300,10.10005126953125,-2.7563440799713135,-4.391355514526367,5.460385799407959
1777560083944581400,10.118581298828126,-0.8919543623924255,-3.4370927810668945,3.616025447845459
1777560083963111400,10.137111328125,0.41710102558135986,-1.8038301467895508,1.344467043876648
1777560083981641500,10.155641357421874,-1.6477731466293335,-1.261733055114746,-0.38052186369895935
1777560084000171500,10.174171630859375,-4.102169513702393,-1.737833023071289,-1.7313411235809326
1777560084018701600,10.19270166015625,-3.7695653438568115,-1.7505455017089844,-2.0866541862487793
1777560084037231600,10.211231689453125,-3.3735671043395996,-1.1657218933105469,-2.2414486408233643
1777560084055762000,10.229761962890626,-6.028059959411621,-1.0435762405395508,-2.2276461124420166
1777560084074292000,10.2482919921875,-7.855843544006348,-0.5859670639038086,-1.0904711484909058
1777560084092822000,10.266822021484375,-7.415189266204834,0.9912309646606445,0.1310616135597229
1777560084111352000,10.28535205078125,-7.539312362670898,3.0971031188964844,1.032261610031128
1777560084129882400,10.30388232421875,-6.99686861038208,5.015585899353027,0.7486673593521118
1777560084148412400,10.322412353515626,-5.566439628601074,5.779611587524414,0.6311535835266113
1777560084166942500,10.3409423828125,-5.421014308929443,6.305337905883789,0.5430419445037842
1777560084185472500,10.359472412109374,-4.46626091003418,6.249107360839844,0.4384700059890747
1777560084204002600,10.37800244140625,-2.72944712638855,6.352926731109619,0.3248339295387268
1777560084222532600,10.39653271484375,-0.8321607112884521,6.4381327629089355,0.4466670751571655
1777560084241063000,10.41506298828125,2.8924708366394043,5.481589317321777,1.2944573163986206
1777560084259593000,10.433593017578126,10.528064727783203,2.700411319732666,4.632558345794678
1777560084278123000,10.452123046875,12.507017135620117,-4.622004508972168,6.520596981048584
1777560084296653300,10.4706533203125,10.256194114685059,-20.83985137939453,-0.8470727205276489
1777560084315183400,10.489183349609375,2.1019132137298584,-17.16510581970215,-6.2451910972595215
1777560084333713400,10.50771337890625,1.0599536895751953,-2.527897834777832,-0.7141411900520325
1777560084352243500,10.526243408203126,0.9959802627563477,5.768827438354492,2.4196624755859375
1777560084370773500,10.5447734375,1.2209539413452148,9.954756736755371,4.111571788787842
1777560084389303600,10.563303466796874,1.2041358947753906,6.966792583465576,5.558378219604492
1777560084407833600,10.58183349609375,-1.6926262378692627,-1.8503236770629883,3.803140878677368
1777560084426364000,10.600364013671875,-1.807729721069336,-6.756897926330566,3.955803871154785
1777560084444894000,10.61889404296875,-7.768349647521973,-4.947168350219727,-1.101608157157898
1777560084463424000,10.637424072265626,-9.86699104309082,0.5509929656982422,2.4147911071777344
1777560084481954000,10.6559541015625,-3.9774341583251953,2.7945165634155273,3.319429397583008
1777560084500484400,10.674484375,-2.9942626953125,3.790119171142578,0.6838667392730713
1777560084519014400,10.693014404296875,-8.267400741577148,3.4731454849243164,-1.7121624946594238
1777560084537544400,10.71154443359375,-8.878835678100586,0.6026115417480469,-0.8982468843460083
1777560084556074500,10.730074462890625,-5.7502031326293945,-3.6307926177978516,-0.05004298686981201
1777560084574604500,10.7486044921875,-3.5390210151672363,-10.150078773498535,-3.642747402191162
1777560084593134800,10.767134765625,-2.122408151626587,-7.97108268737793,-6.675036907196045
1777560084611665000,10.785664794921875,1.006415605545044,-1.3710126876831055,-5.696681499481201
1777560084630195000,10.80419482421875,2.4046082496643066,1.669154167175293,-2.7326345443725586
1777560084648725000,10.82272509765625,0.6462788581848145,3.3387012481689453,0.7681670188903809
1777560084667255000,10.841255126953126,-1.3657174110412598,3.8506946563720703,2.5015785694122314
1777560084685785000,10.85978515625,-0.7665667533874512,3.1996097564697266,2.2355358600616455
1777560084704315400,10.8783154296875,0.2152734100818634,1.1838579177856445,0.5630254149436951
1777560084722845400,10.896845458984375,1.7124955654144287,0.3124971389770508,-1.046235203742981
1777560084741375500,10.91537548828125,2.9045019149780273,0.5089149475097656,-2.1243176460266113
1777560084759905500,10.933905517578125,1.853178858757019,1.7493858337402344,-2.0068418979644775
1777560084778435600,10.952435546875,-1.0189648866653442,2.935213088989258,-0.5157092809677124
1777560084796966000,10.9709658203125,-2.5363595485687256,3.192729949951172,0.9187585115432739
1777560084815496000,10.989495849609375,0.7992263436317444,2.0254549980163574,0.17852282524108887
1777560084834026000,11.00802587890625,4.008326053619385,0.40113258361816406,-1.5744367837905884
1777560084852556000,11.02655615234375,3.0093002319335938,-1.6625308990478516,-3.4847381114959717
1777560084871086000,11.045086181640626,1.2023658752441406,-3.173525810241699,-3.7198386192321777
1777560084889616100,11.0636162109375,1.1511383056640625,-3.0979509353637695,-2.67997407913208
1777560084908146400,11.082146484375,1.5124502182006836,-1.973088264465332,-1.111417531967163
1777560084926676500,11.100676513671875,1.296177864074707,-1.1046266555786133,-1.6863362789154053
1777560084945206500,11.11920654296875,1.1638286113739014,-2.1684656143188477,-2.69789457321167
1777560084963736600,11.137736572265625,3.2354178428649902,-3.8126840591430664,-1.8182045221328735
1777560084982266600,11.1562666015625,7.225790500640869,-4.139440536499023,-0.8400084972381592
1777560085000797000,11.174796875,5.041236877441406,-3.618387222290039,-1.933692216873169
1777560085019326700,11.19332666015625,2.926281452178955,-3.3391199111938477,-4.416491508483887
1777560085037857000,11.21185693359375,1.7387560606002808,-3.9956960678100586,-5.800409317016602
1777560085056387000,11.230386962890625,0.3130650520324707,-3.5460948944091797,-5.434924125671387
1777560085074917000,11.248917236328126,1.3218543529510498,-2.096912384033203,-3.8752617835998535
1777560085093447200,11.267447265625,1.9084317684173584,0.6345977783203125,0.25915443897247314
1777560085111977500,11.2859775390625,-1.379495620727539,1.1115741729736328,2.7548797130584717
1777560085130507500,11.304507568359375,-2.5451741218566895,-1.6305971145629883,3.735438108444214
1777560085149037600,11.32303759765625,-2.1890854835510254,-4.340676307678223,5.207728862762451
1777560085167567600,11.341567626953125,-0.31157875061035156,-5.820293426513672,3.6697070598602295
1777560085186097700,11.36009765625,1.2502583265304565,-5.249739646911621,0.14351950585842133
1777560085204627700,11.378627685546874,-1.699061632156372,-3.290956497192383,-1.0123504400253296
1777560085223157800,11.39715771484375,-6.813384056091309,-1.7273149490356445,-2.7782223224639893
1777560085241688000,11.41568798828125,-4.341526031494141,-0.5901155471801758,-2.9348442554473877
1777560085260218000,11.434218017578125,-3.3004558086395264,0.28496265411376953,-3.577282190322876
1777560085278748200,11.452748046875,-5.666706562042236,0.6122121810913086,-3.276301383972168
1777560085297278200,11.4712783203125,-7.420650482177734,1.279923439025879,-1.7890101671218872
1777560085315808500,11.48980859375,-7.332683563232422,2.133965492248535,-0.15107786655426025
1777560085334338600,11.508338623046875,-6.7606730461120605,2.970010757446289,0.9641571640968323
1777560085352868600,11.52686865234375,-6.178755283355713,3.144927501678467,1.1783933639526367
1777560085371398700,11.545398681640625,-5.583098411560059,3.857933521270752,1.7227532863616943
1777560085389928700,11.5639287109375,-4.982893466949463,4.520113945007324,1.7883288860321045
1777560085408458800,11.582458740234374,-4.233121871948242,5.184582233428955,1.715311050415039
1777560085426988800,11.60098876953125,-3.244189739227295,5.5815958976745605,1.688002347946167
1777560085445519000,11.61951904296875,-2.3635730743408203,5.488085746765137,1.3410389423370361
1777560085464049200,11.638049072265625,0.024073123931884766,5.333906650543213,1.3635454177856445
1777560085482579200,11.6565791015625,4.898026943206787,4.484267711639404,3.430939197540283
1777560085501109200,11.675109130859376,9.19914722442627,1.425283432006836,7.401210784912109
1777560085519639600,11.6936396484375,14.011556625366211,-8.416617393493652,6.894306659698486
1777560085538169600,11.712169677734375,7.174102306365967,-22.510101318359375,-3.5777196884155273
1777560085556699600,11.73069970703125,2.8622684478759766,-12.956719398498535,-5.723578929901123
1777560085575229700,11.749229736328125,1.5752549171447754,0.21953678131103516,-0.8916201591491699
1777560085593759700,11.767759765625,0.761228084564209,6.5865478515625,-0.15414589643478394
1777560085612289800,11.786289794921874,2.594766616821289,8.661927223205566,1.9655084609985352
1777560085630819800,11.80481982421875,-0.8338580131530762,3.4820494651794434,1.4260962009429932
1777560085649350100,11.82335009765625,-1.2658584117889404,-1.7971649169921875,3.120307445526123
1777560085667880200,11.841880126953125,-6.838728904724121,-4.39463996887207,2.5066843032836914
1777560085686410200,11.86041015625,-16.193538665771484,-1.990264892578125,3.561555862426758
1777560085704940300,11.878940185546876,-5.269809246063232,-0.03927421569824219,6.625564098358154
1777560085723470600,11.897470703125,-2.157719135284424,2.6066718101501465,4.361953258514404
1777560085742000600,11.916000732421875,-4.080378532409668,4.122439384460449,1.5811351537704468
1777560085760530700,11.93453076171875,-7.316910743713379,2.281705856323242,0.24085015058517456
1777560085779060700,11.953060791015625,-7.177535533905029,-3.403353691101074,-0.3803248405456543
1777560085797590800,11.9715908203125,-3.438286304473877,-9.553237915039062,-3.4576122760772705
1777560085816120800,11.990120849609376,-1.3597564697265625,-7.841719627380371,-8.400209426879883
1777560085834651000,12.00865087890625,2.5152931213378906,-2.222548484802246,-8.054191589355469
1777560085853181200,12.02718115234375,2.128244161605835,1.522481918334961,-4.866346836090088
1777560085871711200,12.045711181640625,-1.2901949882507324,3.9429969787597656,-0.3538948893547058
1777560085890241300,12.0642412109375,-2.67108416557312,4.537453651428223,2.7699761390686035
1777560085908771300,12.082771240234376,0.4088040888309479,3.6756982803344727,3.7800979614257812
1777560085927301600,12.101301513671874,1.64351224899292,2.0122461318969727,2.8634164333343506
1777560085945831700,12.119831787109375,1.0941798686981201,0.8706321716308594,0.29172027111053467
1777560085964361700,12.13836181640625,0.8404769897460938,0.3813343048095703,-1.9245132207870483
1777560085982891800,12.156891845703125,-0.16367042064666748,0.9767665863037109,-2.6322667598724365
1777560086001421800,12.175421875,-1.3732726573944092,2.137448310852051,-0.829627513885498
1777560086019951900,12.193951904296876,-0.07648694515228271,2.0533885955810547,0.33266353607177734
1777560086038482000,12.21248193359375,2.901122808456421,0.7304935455322266,-0.36905497312545776
1777560086057012200,12.23101220703125,4.00825309753418,-1.5045347213745117,-2.1510605812072754
1777560086075542000,12.2495419921875,3.737241744995117,-3.1924734115600586,-3.096585512161255
1777560086094072300,12.268072265625,2.226630926132202,-2.6386985778808594,-2.7272093296051025
1777560086112602400,12.286602294921876,0.14823698997497559,-1.8215932846069336,-2.063992500305176
1777560086131132700,12.305132568359374,1.2448482513427734,-1.1690845489501953,-2.5036191940307617
1777560086149662700,12.323662841796875,3.8020901679992676,-0.9343862533569336,-2.734894037246704
1777560086168192800,12.34219287109375,4.32631778717041,-1.8379716873168945,-2.8583290576934814
1777560086186722800,12.360722900390625,3.476405382156372,-2.633127212524414,-2.358875036239624
1777560086205252900,12.3792529296875,2.276285171508789,-3.5468387603759766,-3.02356219291687
1777560086223783000,12.397782958984376,1.806872010231018,-3.9974822998046875,-3.8681893348693848
1777560086242313000,12.41631298828125,2.333784818649292,-4.988859176635742,-4.609745025634766
1777560086260843300,12.43484326171875,1.9716010093688965,-5.214422225952148,-4.261602401733398
1777560086279373300,12.453373291015625,1.1521291732788086,-3.9001588821411133,-3.074993133544922
1777560086297903400,12.4719033203125,3.518725872039795,-1.0506229400634766,-0.45251214504241943
1777560086316433400,12.490433349609376,0.410435289144516,0.3923015594482422,1.2237040996551514
1777560086334963700,12.508963623046874,-2.696810245513916,-1.176051139831543,2.541883707046509
1777560086353493800,12.52749365234375,-3.7063143253326416,-3.6880006790161133,4.13077974319458
1777560086372023800,12.54602392578125,-2.346534252166748,-4.851346015930176,4.442569255828857
1777560086390553900,12.564553955078125,-0.3137134313583374,-3.5939064025878906,2.2556498050689697
1777560086409084000,12.583083984375,-0.770456075668335,-2.123859405517578,0.4560888707637787
1777560086427614200,12.6016142578125,-4.733811378479004,-1.5298337936401367,-1.3734652996063232
1777560086446144300,12.620144287109374,-3.4376327991485596,-1.0420036315917969,-1.9104061126708984
1777560086464674300,12.63867431640625,-1.667773962020874,-0.7746391296386719,-2.639512777328491
1777560086483204400,12.657204345703125,-5.1636152267456055,-1.1830120086669922,-3.8144218921661377
1777560086501734700,12.675734619140625,-7.35050630569458,-0.648228645324707,-2.8213717937469482
1777560086520264400,12.694264404296876,-7.466902732849121,1.5019569396972656,-0.8525831699371338
1777560086538794800,12.712794677734376,-7.157961845397949,3.866025924682617,0.608204185962677
1777560086557324800,12.73132470703125,-7.2785162925720215,5.302140235900879,0.9951204061508179
1777560086575854800,12.749854736328125,-5.782166004180908,5.937835693359375,1.4183659553527832
1777560086594385000,12.768385009765625,-4.408349514007568,5.962345600128174,0.9537159204483032
1777560086612915000,12.7869150390625,-3.8650972843170166,6.13570499420166,0.3323429822921753
1777560086631445200,12.8054453125,-2.2656164169311523,5.8618316650390625,0.3692963123321533
1777560086649975300,12.823975341796874,-1.3545811176300049,5.328836441040039,0.6131646037101746
1777560086668505300,12.84250537109375,-0.09311771392822266,5.042903900146484,1.3818410634994507
1777560086687035400,12.861035400390625,3.420102119445801,4.136081218719482,2.453662872314453
1777560086705565700,12.879565673828125,6.682567119598389,1.5273351669311523,4.558749675750732
1777560086724095700,12.898095703125,10.842944145202637,-5.469683647155762,5.610107898712158
1777560086742625800,12.916625732421876,12.319559097290039,-22.41127586364746,-3.0052413940429688
1777560086761155800,12.93515576171875,3.296100378036499,-17.713733673095703,-7.633898735046387
1777560086779686000,12.953685791015625,2.716947555541992,-1.0892248153686523,-1.2147198915481567
1777560086798216200,12.97221630859375,0.6081352233886719,7.736536026000977,1.1885970830917358
1777560086816746200,12.990746337890625,0.06048727035522461,12.034525871276855,1.9472142457962036
1777560086835276300,13.0092763671875,1.7698147296905518,8.118422508239746,3.4998726844787598
1777560086853806300,13.027806396484374,0.8239901065826416,-2.987882614135742,1.8699432611465454
1777560086872336600,13.046336669921875,0.958045482635498,-10.071676254272461,3.163964033126831
1777560086890866700,13.06486669921875,-19.286855697631836,-7.26798152923584,-0.9789829254150391
1777560086909396700,13.083396728515625,-11.940120697021484,-0.6744174957275391,5.860290050506592
1777560086927926800,13.1019267578125,-3.350386142730713,3.1120567321777344,6.92826509475708
1777560086946456800,13.120456787109376,-1.6866340637207031,6.276793003082275,4.871155261993408
1777560086964987100,13.138987060546874,-5.71417236328125,6.270526885986328,3.016014337539673
1777560086983517200,13.15751708984375,-8.528158187866211,1.7354011535644531,3.132220506668091
1777560087002047200,13.176047119140625,-8.15534496307373,-6.426198959350586,2.411105155944824
1777560087020577300,13.194577392578125,-6.665274620056152,-13.654662132263184,-4.52622652053833
1777560087039107600,13.213107666015626,-0.3057904839515686,-8.156281471252441,-10.030521392822266
1777560087057637600,13.2316376953125,6.1011223793029785,-1.2126989364624023,-9.455735206604004
1777560087076167700,13.250167724609375,2.9802355766296387,2.878751277923584,-4.794177532196045
1777560087094698000,13.268697998046875,-2.2244908809661865,5.075213432312012,0.7340893149375916
1777560087113228000,13.28722802734375,-2.80165433883667,5.103672027587891,3.8830790519714355
1777560087131758000,13.305758056640625,-0.44847407937049866,4.220713138580322,4.800755977630615
1777560087150288100,13.3242880859375,1.914202094078064,1.4550466537475586,3.1595423221588135
1777560087168818200,13.342818115234374,2.7758264541625977,-0.8119258880615234,-1.3841660022735596
1777560087187348500,13.361348388671875,3.7481532096862793,-0.09579849243164062,-3.5307424068450928
1777560087205878500,13.37987841796875,2.0158421993255615,1.339625358581543,-3.6547043323516846
1777560087224408600,13.39840869140625,-1.4926996231079102,2.6310482025146484,-1.1354154348373413
1777560087242938600,13.416938720703126,-1.8524113893508911,1.4850482940673828,-0.36917561292648315
1777560087261469000,13.435468994140624,1.5614299774169922,0.12213325500488281,-0.7660125494003296
1777560087279999000,13.4539990234375,3.882039785385132,-1.7002143859863281,-1.968083381652832
1777560087298529000,13.472529052734375,3.1845107078552246,-1.699615478515625,-1.9965444803237915
1777560087317059000,13.49105908203125,-0.4700620174407959,-0.8193960189819336,-1.850782871246338
1777560087335589000,13.509589111328125,-0.3041841983795166,-0.6051597595214844,-2.27756667137146
1777560087354119400,13.528119384765626,1.8859000205993652,-0.9817485809326172,-2.1732587814331055
1777560087372649500,13.5466494140625,3.9277377128601074,-2.3846330642700195,-1.9326521158218384
1777560087391179500,13.565179443359375,4.19504451751709,-3.6865549087524414,-1.5820729732513428
1777560087409709800,13.583709716796875,4.155909538269043,-4.7188005447387695,-1.5647602081298828
1777560087428240000,13.602239990234375,3.0410702228546143,-4.608001708984375,-2.5263445377349854
1777560087446770000,13.62077001953125,3.199524402618408,-4.160140037536621,-4.5052642822265625
1777560087465300000,13.639300048828124,2.51348876953125,-4.5976362228393555,-5.287210941314697
1777560087483830300,13.657830322265625,1.8196206092834473,-4.341194152832031,-4.53860330581665
1777560087502360300,13.6763603515625,3.3021504878997803,-2.637272834777832,-2.5896823406219482
1777560087520890400,13.694890380859375,3.208815336227417,0.669097900390625,0.27106738090515137
1777560087539420400,13.71342041015625,-1.5313589572906494,0.9432744979858398,1.857390284538269
1777560087557950500,13.731950439453126,-3.7530710697174072,-1.799692153930664,2.638216495513916
1777560087576480800,13.750480712890624,-2.904555320739746,-4.768440246582031,4.196417331695557
1777560087595010800,13.7690107421875,0.42625999450683594,-6.304993629455566,2.887101888656616
1777560087613541000,13.787541015625,1.3684794902801514,-5.096247673034668,0.2944977879524231
1777560087632071200,13.8060712890625,-3.6401174068450928,-3.0097389221191406,-1.300133466720581
1777560087650601200,13.824601318359376,-6.230777740478516,-1.2459373474121094,-2.6837687492370605
1777560087669131300,13.84313134765625,-3.534341335296631,-0.2084188461303711,-2.970916509628296
1777560087687661300,13.861661376953125,-3.35431170463562,0.4049034118652344,-3.457179069519043
1777560087706191600,13.880191650390625,-6.051560401916504,0.4244232177734375,-3.205153465270996
1777560087724721700,13.8987216796875,-7.8487958908081055,0.8417453765869141,-1.9254056215286255
1777560087743251700,13.917251708984375,-7.4890456199646,1.902115821838379,-0.36384302377700806
1777560087761782000,13.935781982421876,-7.268630027770996,2.8843441009521484,-0.06262791156768799
1777560087780312000,13.95431201171875,-6.281883716583252,4.435826778411865,0.7899950742721558
1777560087798842000,13.972842041015625,-5.594930648803711,5.774226188659668,1.0386888980865479
1777560087817372200,13.9913720703125,-4.321906566619873,6.165806770324707,1.4266576766967773
1777560087835902500,14.00990234375,-4.0021281242370605,5.869489669799805,1.243361234664917
1777560087854432500,14.0284326171875,-3.2395517826080322,5.167950630187988,1.0039243698120117
1777560087872962600,14.046962646484374,-1.5269503593444824,5.114644527435303,1.1269443035125732
1777560087891492900,14.065492919921875,0.6967177391052246,5.0362725257873535,1.7601003646850586
1777560087910023000,14.08402294921875,4.095577716827393,3.920499801635742,3.475525379180908
1777560087928553000,14.102552978515625,7.297661781311035,0.19983673095703125,6.231949329376221
1777560087947083000,14.1210830078125,13.80399227142334,-9.518396377563477,6.395320892333984
1777560087965613300,14.13961328125,8.519282341003418,-25.690448760986328,-4.122380256652832
1777560087984143400,14.158143310546874,3.130422592163086,-13.033796310424805,-5.676810264587402
1777560088002673400,14.17667333984375,1.9326162338256836,2.0626001358032227,-0.11354577541351318
1777560088021203700,14.19520361328125,0.3547244071960449,9.185385704040527,-0.14478707313537598
1777560088039733800,14.213733642578125,0.7697973251342773,11.783496856689453,0.11975181102752686
1777560088058263800,14.232263916015626,1.057950496673584,5.001639366149902,0.4440695643424988
1777560088076793900,14.2507939453125,-2.252685070037842,-4.234289169311523,2.2020089626312256
1777560088095324200,14.26932421875,-1.097905158996582,-9.660521507263184,4.044137001037598
1777560088113854200,14.287854248046875,-18.589740753173828,-5.471283912658691,2.891368865966797
1777560088132384300,14.30638427734375,-10.360572814941406,0.049109458923339844,7.081976890563965
1777560088150914600,14.32491455078125,-2.609015941619873,3.623720169067383,6.504359245300293
1777560088169444600,14.343444580078126,0.6173791885375977,6.413714408874512,4.323992729187012
1777560088187974700,14.361974609375,-5.333471775054932,6.278960704803467,1.6554455757141113
1777560088206505000,14.3805048828125,-8.68733024597168,0.9510660171508789,0.4010806679725647
1777560088225035000,14.399034912109375,-6.135881423950195,-8.863139152526855,-1.130307674407959
1777560088243565000,14.41756494140625,-6.094005107879639,-12.331034660339355,-8.196416854858398
1777560088262095400,14.436095458984376,1.3247737884521484,-4.746594429016113,-10.349769592285156
1777560088280625400,14.45462548828125,5.152505874633789,0.46566009521484375,-7.490252494812012
1777560088299155500,14.473155517578125,0.808985710144043,3.0655641555786133,-2.1701409816741943
1777560088317685500,14.491685546875,-2.874173641204834,4.403210639953613,2.1470460891723633
1777560088336215800,14.5102158203125,-2.240102767944336,4.192996501922607,4.497617244720459
1777560088354745900,14.528745849609376,0.8953031301498413,2.9023914337158203,4.389477729797363
1777560088373276000,14.54727587890625,2.0278000831604004,1.2282257080078125,2.5121724605560303
1777560088391806200,14.56580615234375,2.954153060913086,-0.41959667205810547,-0.7927011847496033
1777560088410336300,14.584336181640625,2.480442523956299,-0.16643905639648438,-2.628033399581909
1777560088428866300,14.6028662109375,-0.1880626678466797,1.184432029724121,-2.2025797367095947
1777560088447396600,14.621396728515625,-2.4319653511047363,2.515270233154297,-1.0238914489746094
1777560088465926700,14.6399267578125,-0.020003676414489746,2.2595996856689453,-1.4122742414474487
1777560088484456700,14.658456787109374,4.1816487312316895,0.209716796875,-2.8002562522888184
1777560088502987000,14.676987060546875,5.178457260131836,-2.1442012786865234,-3.7875468730926514
1777560088521517000,14.69551708984375,2.809380292892456,-2.467082977294922,-3.5413119792938232
1777560088540047000,14.714047119140625,0.013349771499633789,-1.8007793426513672,-1.9434620141983032
1777560088558577200,14.7325771484375,-0.23806357383728027,-1.4298639297485352,-1.2444489002227783
1777560088577107500,14.751107421875,1.553171992301941,-1.045302391052246,-1.4218122959136963
1777560088595637500,14.769637451171874,2.774592876434326,-1.8288297653198242,-1.9648256301879883
1777560088614167600,14.78816748046875,3.1758460998535156,-3.0833139419555664,-1.6822073459625244
1777560088632697900,14.80669775390625,3.6454105377197266,-3.8608274459838867,-1.557079553604126
1777560088651228000,14.825227783203125,3.13631534576416,-3.9803714752197266,-2.9419102668762207
1777560088669758200,14.84375830078125,2.0873916149139404,-3.871903419494629,-4.558815002441406
1777560088688288300,14.862288330078124,2.079885959625244,-4.459160804748535,-5.830246925354004
1777560088706818300,14.880818359375,1.8051637411117554,-4.090991973876953,-5.263186454772949
1777560088725348600,14.8993486328125,3.2039899826049805,-1.9629850387573242,-1.4293264150619507
1777560088743878700,14.917878662109375,3.754499912261963,0.21162796020507812,1.5277081727981567
1777560088762408700,14.93640869140625,-1.267009973526001,1.000814437866211,2.513051748275757
1777560088780939000,14.95493896484375,-3.8326117992401123,-0.8361740112304688,2.5530731678009033
1777560088799469000,14.973468994140624,-4.107995986938477,-3.2637405395507812,3.1088075637817383
1777560088817999000,14.9919990234375,-1.2133188247680664,-5.232236862182617,2.542600631713867
1777560088836529400,15.010529296875,0.31197309494018555,-4.9535722732543945,0.9197640419006348
1777560088855059500,15.0290595703125,-0.5036641359329224,-3.795503616333008,-0.4111486077308655
1777560088873589800,15.04758984375,-3.8600618839263916,-2.6114883422851562,-1.0565794706344604
1777560088892119800,15.066119873046874,-5.639512062072754,-1.0934648513793945,-1.837839126586914
1777560088910649900,15.08464990234375,-3.157090425491333,0.03714466094970703,-2.3551251888275146
1777560088929180200,15.10318017578125,-4.7211527824401855,0.5462636947631836,-2.676863670349121
1777560088947710200,15.121710205078125,-6.8232879638671875,0.7269153594970703,-2.6106059551239014
1777560088966240300,15.140240234375,-6.803045272827148,1.5082025527954102,-0.8315840363502502
1777560088984770600,15.1587705078125,-7.1557464599609375,2.4083547592163086,-0.1438724398612976
1777560089003300600,15.177300537109375,-6.749934196472168,3.446347713470459,0.5862339735031128
1777560089021830700,15.19583056640625,-6.0334086418151855,4.571366786956787,1.0014173984527588
1777560089040361000,15.21436083984375,-5.2574591636657715,5.5316925048828125,1.4055111408233643
1777560089058891000,15.23289111328125,-4.667996406555176,5.675131797790527,1.6752824783325195
1777560089077421300,15.25142138671875,-3.7378451824188232,5.747509002685547,1.6763641834259033
1777560089095951400,15.269951416015624,-1.9047350883483887,5.752197742462158,1.5456206798553467
1777560089114481400,15.2884814453125,0.2606015205383301,5.5327467918396,1.8569610118865967
1777560089133011700,15.30701171875,4.325897216796875,4.234980583190918,3.0352706909179688
1777560089151541800,15.325541748046875,8.919328689575195,0.6710109710693359,5.449935436248779
1777560089170071800,15.34407177734375,12.675287246704102,-8.732481956481934,4.9716715812683105
1777560089188602000,15.36260205078125,8.8112154006958,-23.249713897705078,-4.855873107910156
1777560089207132200,15.381132080078125,2.3729240894317627,-13.405027389526367,-6.218956470489502
1777560089225662500,15.399662353515625,1.0543451309204102,0.9120044708251953,-0.28849297761917114
1777560089244192500,15.418192626953125,0.6551694869995117,8.922213554382324,1.4316987991333008
1777560089262722600,15.43672265625,-0.9631857872009277,12.819795608520508,1.2033886909484863
1777560089281252900,15.4552529296875,1.152379035949707,9.938840866088867,0.752155065536499
1777560089299783000,15.473782958984375,3.172534942626953,0.2577199935913086,-0.3155701160430908
1777560089318313000,15.49231298828125,0.45734381675720215,-9.386344909667969,3.7430789470672607
1777560089336843300,15.51084326171875,-3.9822463989257812,-14.728026390075684,2.849946975708008
1777560089355373300,15.529373291015625,-16.464515686035156,-5.002728462219238,0.9080579280853271
1777560089373903600,15.547903564453126,-6.360344886779785,2.829461097717285,4.941755294799805
1777560089392433700,15.56643359375,-0.6740589141845703,6.687614917755127,5.475543022155762
1777560089410963700,15.584963623046875,-3.1917264461517334,8.580450057983398,3.3607685565948486
1777560089429494000,15.603493896484375,-7.554950714111328,6.848006725311279,1.516387939453125
1777560089448024000,15.622024169921875,-8.3065824508667,0.9550638198852539,1.1516960859298706
1777560089466554000,15.64055419921875,-6.059069633483887,-8.556720733642578,-0.7478718757629395
1777560089485084400,15.65908447265625,-4.019075393676758,-13.854951858520508,-7.360553741455078
1777560089503614500,15.677614501953125,0.8147845268249512,-6.58941650390625,-9.007513046264648
1777560089522144800,15.696144775390625,4.829504013061523,-0.6934967041015625,-6.055081844329834
1777560089540674800,15.7146748046875,1.1902947425842285,2.685626983642578,-1.8994182348251343
1777560089559205000,15.733205078125,-2.1223535537719727,4.687398910522461,1.594596266746521
1777560089577735200,15.751735107421876,-2.58994722366333,4.7897138595581055,3.2736473083496094
1777560089596265500,15.770265380859374,-0.37663865089416504,3.362201690673828,3.155024766921997
1777560089614795500,15.78879541015625,1.2108988761901855,0.9268102645874023,2.305593490600586
1777560089633325600,15.80732568359375,3.2979886531829834,-1.1805601119995117,0.12954369187355042
1777560089651856000,15.82585595703125,4.219322204589844,-0.6295881271362305,-1.6701514720916748
1777560089670386000,15.844385986328126,2.771125316619873,1.3551349639892578,-2.9428467750549316
1777560089688916200,15.862916259765624,-1.1500170230865479,2.7829771041870117,-2.3574657440185547
1777560089707446300,15.8814462890625,-3.973836660385132,3.4332809448242188,-0.6140560507774353
1777560089725976300,15.899976318359375,0.323022723197937,1.6456971168518066,-0.628621518611908
1777560089744506600,15.918506591796875,4.879955291748047,-0.6887235641479492,-1.4243714809417725
1777560089763036700,15.93703662109375,3.8130321502685547,-2.900139808654785,-2.776799440383911
1777560089781567000,15.95556689453125,1.2179055213928223,-2.8756637573242188,-2.8630013465881348
1777560089800097000,15.974096923828125,-0.1069638729095459,-1.8498773574829102,-2.1917953491210938
1777560089818627300,15.99262744140625,1.6632697582244873,-1.6095800399780273,-1.29404878616333
1777560089837157400,16.011157470703125,3.256815195083618,-2.4676513671875,-0.9386950731277466
1777560089855687700,16.029687744140624,3.601701259613037,-4.034603118896484,-1.2614232301712036
1777560089874217700,16.0482177734375,4.732522010803223,-5.140707969665527,-2.2649831771850586
1777560089892747800,16.066747802734376,5.1366071701049805,-4.897455215454102,-3.300017833709717
1777560089911278000,16.085278076171875,2.7698771953582764,-3.919191360473633,-4.36263370513916
1777560089929808400,16.103808349609373,1.3106613159179688,-3.6152381896972656,-5.033195495605469
1777560089948338400,16.12233837890625,1.2294986248016357,-3.8169498443603516,-4.910691261291504
1777560089966868500,16.140868408203126,0.8395525217056274,-2.432806968688965,-2.30790376663208
1777560089985398800,16.159398681640624,2.7546892166137695,-0.2487621307373047,1.600111722946167
1777560090003928800,16.1779287109375,1.7836289405822754,0.6581125259399414,2.7318716049194336
1777560090022459100,16.196459228515625,-2.317392587661743,-0.19984149932861328,3.0627174377441406
1777560090040989200,16.2149892578125,-4.487236022949219,-2.2078590393066406,3.499119281768799
1777560090059519500,16.23351953125,-2.846680164337158,-3.2172069549560547,4.068026542663574
1777560090078049500,16.252049560546876,-0.7098643779754639,-2.94301700592041,2.143324613571167
1777560090096579800,16.270579833984375,-0.5833715200424194,-2.817148208618164,0.4754345417022705
1777560090115110000,16.28910986328125,-1.7365447282791138,-2.3994455337524414,-0.14660757780075073
1777560090133640000,16.307639892578123,-3.0817158222198486,-1.8749284744262695,-1.2779920101165771
1777560090152170200,16.326170166015626,-3.4498560428619385,-1.0546503067016602,-2.317765235900879
1777560090170700500,16.344700439453124,-5.169316291809082,-0.15636062622070312,-2.9823877811431885
1777560090189230600,16.363230712890626,-6.501797676086426,0.13016700744628906,-2.54024600982666
1777560090207761000,16.381760986328125,-6.482091903686523,0.8983554840087891,-1.0127532482147217
1777560090226291000,16.400291015625,-6.724658012390137,2.2011427879333496,0.12682753801345825
1777560090244821000,16.418821044921874,-6.340356826782227,3.700810432434082,0.6170242428779602
1777560090263351300,16.437351318359376,-5.779613971710205,5.0063276290893555,0.8133206367492676
1777560090281881600,16.455881591796874,-4.215531826019287,5.638275146484375,1.1977207660675049
1777560090300411600,16.47441162109375,-4.441549777984619,5.652839660644531,0.8233221769332886
1777560090318942000,16.49294189453125,-4.071166038513184,5.2566118240356445,0.06903165578842163
1777560090337472000,16.511471923828125,-2.6236791610717773,5.122384071350098,0.06097126007080078
1777560090356002000,16.530001953125,-0.09188079833984375,5.447120666503906,0.8811023831367493
1777560090374532400,16.548532470703126,4.1047749519348145,4.849749565124512,2.444685220718384
1777560090393062700,16.567062744140625,8.611669540405273,2.0413570404052734,5.405387878417969
1777560090411592700,16.5855927734375,15.124272346496582,-7.091794967651367,4.4159440994262695
1777560090430122800,16.604122802734373,10.530659675598145,-24.247358322143555,-3.6396708488464355
1777560090448653000,16.622653076171876,1.9196205139160156,-14.612564086914062,-6.073412895202637
1777560090467183400,16.641183349609374,0.7570173740386963,0.7736854553222656,0.21438944339752197
1777560090485713400,16.65971337890625,-0.006020545959472656,8.352434158325195,1.4862637519836426
1777560090504243700,16.67824365234375,0.9043760299682617,12.983316421508789,2.9181156158447266
1777560090522773800,16.696773681640625,-2.689537525177002,7.582114219665527,1.696895718574524
1777560090541304000,16.715303955078124,0.10663008689880371,-0.6439065933227539,3.9207160472869873
1777560090559834000,16.733834228515626,-1.9240987300872803,-9.843063354492188,5.961030960083008
1777560090578364400,16.752364501953124,-15.778899192810059,-8.86196517944336,-1.19349205493927
1777560090596894700,16.770894775390627,-6.764636993408203,-3.16921329498291,1.8149257898330688
1777560090615424800,16.7894248046875,-2.002523183822632,1.7812747955322266,3.247682809829712
1777560090633955000,16.807955078125,-3.7677319049835205,5.232499599456787,2.613931179046631
1777560090652485000,16.826485107421874,-6.878871917724609,5.404077053070068,2.399195432662964
1777560090671015400,16.845015380859376,-7.530970573425293,1.6707849502563477,2.9165172576904297
1777560090689545500,16.86354541015625,-5.818305015563965,-4.9501752853393555,1.9802976846694946
1777560090708075800,16.88207568359375,-5.3912200927734375,-10.272680282592773,-4.128466606140137
1777560090726605800,16.900605712890624,0.5984182357788086,-6.356751441955566,-7.917735576629639
1777560090745136000,16.91913623046875,4.693565368652344,-0.8422584533691406,-7.918018817901611
1777560090763666400,16.93766650390625,1.3294551372528076,2.975003242492676,-4.198965549468994
1777560090782196500,16.956196533203126,-2.9394307136535645,5.289482116699219,0.1066863089799881
1777560090800726800,16.974726806640625,-1.9695007801055908,4.982129096984863,2.455592632293701
1777560090819256800,16.9932568359375,0.07435190677642822,3.5327281951904297,3.5296056270599365
1777560090837787100,17.011787109375,1.9475359916687012,0.997711181640625,2.115690231323242
1777560090856317400,17.0303173828125,3.088505744934082,-0.3876075744628906,-0.9371353387832642
1777560090874847500,17.048847412109374,3.019369602203369,-0.2596902847290039,-2.4857633113861084
1777560090893377800,17.067377685546877,0.585150957107544,0.3409385681152344,-1.9397528171539307
1777560090911907800,17.085907958984375,-0.6309835910797119,1.6162967681884766,-0.22693055868148804
1777560090930438100,17.104438232421874,2.3138914108276367,0.9506998062133789,-0.546150267124176
1777560090948968200,17.12296826171875,4.055112361907959,-0.24879741668701172,-2.215468168258667
1777560090967498500,17.14149853515625,2.615081548690796,-1.1215925216674805,-3.4029440879821777
1777560090986028800,17.16002880859375,0.9232032299041748,-1.4678735733032227,-3.450582981109619
1777560091004558800,17.178558837890623,0.47811174392700195,-1.0824604034423828,-2.1939444541931152
1777560091023089200,17.197089111328125,1.1387791633605957,-0.8295574188232422,-1.405613899230957
1777560091041619500,17.215619384765624,1.8989094495773315,-1.3737220764160156,-1.2459166049957275
1777560091060149500,17.2341494140625,2.264949083328247,-2.5387277603149414,-1.0287387371063232
1777560091078679800,17.2526796875,2.9552693367004395,-4.118227958679199,-0.6788389086723328
1777560091097209900,17.2712099609375,4.790650367736816,-5.059115409851074,-1.392594814300537
1777560091115740200,17.289740234375,6.023874759674072,-4.340701103210449,-3.076005220413208
1777560091134270500,17.3082705078125,3.930664300918579,-3.4365806579589844,-4.632386684417725
1777560091152800500,17.326800537109374,1.0749239921569824,-3.826807975769043,-5.785645484924316
1777560091171330800,17.345330810546876,-0.33331048488616943,-4.2254638671875,-5.673480987548828
1777560091189861000,17.363861083984375,1.1335415840148926,-3.6644554138183594,-2.762582778930664
1777560091208391400,17.382391357421874,3.3227651119232178,-0.6679315567016602,2.6126840114593506
1777560091226921500,17.40092138671875,-0.7044109106063843,0.3034791946411133,4.393060207366943
1777560091245451800,17.41945166015625,-3.71720027923584,-0.7917718887329102,5.34035062789917
1777560091263981800,17.43798193359375,-3.882178783416748,-2.2293291091918945,6.304902076721191
1777560091282512100,17.45651220703125,-2.3221006393432617,-2.3276443481445312,4.250391483306885
1777560091301042400,17.47504248046875,0.9351876974105835,-2.6349258422851562,1.6410645246505737
1777560091319572500,17.493572509765624,1.636101245880127,-3.5220232009887695,-0.38442403078079224
1777560091338102800,17.512102783203126,-2.3017845153808594,-3.657710075378418,-2.156832218170166
1777560091356633000,17.530633056640625,-5.501006126403809,-3.3220224380493164,-3.8474535942077637
1777560091375163400,17.549163330078127,-5.635296821594238,-1.5633697509765625,-3.8949387073516846
1777560091393693400,17.567693359375,-6.983189582824707,-0.4011354446411133,-2.7938168048858643
1777560091412223700,17.5862236328125,-6.83169412612915,1.3840694427490234,-1.2987439632415771
1777560091430753800,17.60475390625,-6.9325151443481445,3.435544967651367,-0.1467142105102539
1777560091449284000,17.6232841796875,-5.982924938201904,5.299942493438721,0.7611134052276611
1777560091467814400,17.641814453125,-4.840470790863037,6.330760955810547,1.0536348819732666
1777560091486344400,17.660344482421873,-4.112545967102051,5.95995569229126,0.33469879627227783
1777560091504874800,17.678874755859376,-4.40084171295166,5.916990280151367,-0.11037552356719971
1777560091523405000,17.697405029296874,-5.262198448181152,6.644956111907959,-0.0034722089767456055
1777560091541935400,17.715935302734376,-4.483091354370117,7.120841979980469,0.6774170398712158
1777560091560465700,17.734465576171875,-2.052565097808838,7.019869327545166,1.8024065494537354
1777560091578995700,17.75299560546875,1.8348209857940674,5.48686408996582,2.959529399871826
1777560091597526000,17.771526123046876,11.451181411743164,1.1842575073242188,5.509588241577148
1777560091616056300,17.790056396484374,17.009918212890625,-9.832502365112305,7.159912109375
1777560091634586400,17.80858642578125,10.080018043518066,-28.77776336669922,1.5472426414489746
1777560091653116700,17.82711669921875,1.8114795684814453,-16.114288330078125,-4.565276622772217
1777560091671647000,17.84564697265625,-1.2464818954467773,0.8817682266235352,-1.6877002716064453
1777560091690177000,17.864177001953124,0.8795418739318848,9.936944007873535,0.1252899169921875
1777560091708707300,17.882707275390626,1.3942146301269531,13.844738960266113,-0.11423599720001221
1777560091727237600,17.901237548828124,4.26678991317749,8.514060020446777,-1.3197410106658936
1777560091745767700,17.919767578125,-1.2122721672058105,-3.132190704345703,-3.256464958190918
1777560091764298000,17.938298095703125,-1.3253300189971924,-7.715888023376465,6.73607873916626
1777560091782828300,17.956828369140624,-12.083412170410156,-6.986087799072266,4.831521987915039
1777560091801358600,17.975358642578126,-12.006563186645508,-1.0380754470825195,6.093189239501953
1777560091819889000,17.993888916015624,0.08005023002624512,2.089667320251465,5.230391502380371
1777560091838419000,18.0124189453125,-3.1880545616149902,4.547504425048828,-0.5293713212013245
1777560091856949200,18.03094921875,-8.30943489074707,4.261932849884033,-3.251596212387085
1777560091875479600,18.0494794921875,-7.64968204498291,1.3700361251831055,-1.5736651420593262
1777560091894009900,18.068009765625,-6.01547908782959,-3.4252099990844727,-0.09164649248123169
1777560091912540200,18.0865400390625,-3.556751012802124,-10.425505638122559,-3.0581440925598145
1777560091931070200,18.1050703125,-1.6296372413635254,-8.973104476928711,-7.291714668273926
1777560091949600500,18.1236005859375,1.5024008750915527,-2.867971420288086,-6.232690811157227
1777560091968130800,18.142130859375,1.7544031143188477,1.1695938110351562,-2.903275966644287
1777560091986661000,18.1606611328125,-0.48063188791275024,3.7135024070739746,0.4248802661895752
1777560092005191200,18.179191162109376,-1.0805598497390747,5.0266218185424805,2.8979551792144775
1777560092023721500,18.197721435546875,0.4177466332912445,4.634245872497559,3.1518423557281494
1777560092042251800,18.216251708984377,1.2739653587341309,2.7928476333618164,2.4948770999908447
1777560092060781800,18.23478173828125,1.0204339027404785,0.1724872589111328,-0.12901513278484344
1777560092079312100,18.25331201171875,3.157543182373047,-0.7818574905395508,-2.188264846801758
1777560092097842400,18.271842529296876,2.0539605617523193,0.13908958435058594,-2.7367005348205566
1777560092116372700,18.290372802734375,0.8189041614532471,1.245835304260254,-2.4458930492401123
1777560092134903000,18.308903076171877,-1.3869067430496216,2.080794334411621,-0.70551598072052
1777560092153433000,18.32743310546875,-1.2354241609573364,1.9265780448913574,0.4276047348976135
1777560092171963400,18.34596337890625,2.0511035919189453,1.024465560913086,0.06462061405181885
1777560092190493700,18.36449365234375,4.147541046142578,-0.7651863098144531,-1.5040303468704224
1777560092209024000,18.38302392578125,3.0697813034057617,-2.6593875885009766,-2.477421283721924
1777560092227554300,18.40155419921875,1.3361825942993164,-3.0385780334472656,-2.6364493370056152
1777560092246084400,18.42008447265625,0.4962245225906372,-2.202594757080078,-2.0654492378234863
1777560092264614700,18.43861474609375,1.5294349193572998,-1.076324462890625,-2.225757122039795
1777560092283145000,18.45714501953125,1.3108773231506348,-1.505326271057129,-2.7556018829345703
1777560092301675300,18.47567529296875,2.0058724880218506,-2.8392372131347656,-2.1018025875091553
1777560092320205600,18.49420556640625,3.954678535461426,-4.221120834350586,-2.129523992538452
1777560092338735600,18.512735595703123,3.932352066040039,-4.559825897216797,-2.8120357990264893
1777560092357266000,18.531265869140626,2.1563355922698975,-4.13587760925293,-3.16727876663208
1777560092375796200,18.549796142578124,1.6996279954910278,-4.822644233703613,-3.7823173999786377
1777560092394326500,18.568326416015626,3.9768433570861816,-4.967616081237793,-3.5550856590270996
1777560092412856800,18.58685693359375,3.267728567123413,-2.643733024597168,-1.1243939399719238
1777560092431387000,18.605386962890623,3.871321201324463,0.34272098541259766,1.0552312135696411
1777560092449917200,18.623917236328126,0.3872066140174866,1.3549833297729492,1.3864455223083496
1777560092468447500,18.642447509765624,-2.917081832885742,0.14922237396240234,1.4719735383987427
1777560092486977800,18.660977783203126,-3.9213614463806152,-2.0846681594848633,2.2192463874816895
1777560092505508000,18.679508056640625,-2.3020544052124023,-4.1473894119262695,3.128399610519409
1777560092524038100,18.6980380859375,-0.08877122402191162,-4.622702598571777,1.6425743103027344
1777560092542568400,18.716568359375,0.3878840208053589,-3.3619165420532227,0.5317471027374268
1777560092561098800,18.7350986328125,-2.371178150177002,-2.3485841751098633,-0.5840620994567871
1777560092579629000,18.753629150390626,-4.2328104972839355,-1.6592292785644531,-1.3915919065475464
1777560092598159000,18.7721591796875,-3.7867300510406494,-0.7901506423950195,-2.2363624572753906
1777560092616689700,18.790689697265623,-4.052570343017578,0.134307861328125,-2.256873607635498
1777560092635219700,18.8092197265625,-6.997784614562988,0.12131023406982422,-2.0369672775268555
1777560092653750000,18.82775,-7.115952491760254,0.7701692581176758,-1.234992504119873
1777560092672280300,18.8462802734375,-6.798962593078613,2.124847412109375,-0.3368490934371948
1777560092690810400,18.864810302734377,-6.917348861694336,3.831571578979492,-0.36251378059387207
1777560092709340700,18.883340576171875,-6.0013813972473145,5.618844032287598,-0.23859810829162598
1777560092727871000,18.90187109375,-4.605413913726807,6.084965229034424,-0.18881046772003174
1777560092746401300,18.9204013671875,-4.0867228507995605,6.273406505584717,0.050047993659973145
1777560092764931600,18.938931640625,-3.5816338062286377,6.437331199645996,-0.4601973295211792
1777560092783462000,18.9574619140625,-2.6890978813171387,6.638501167297363,-0.2799304723739624
1777560092801992000,18.975991943359375,0.01587533950805664,6.121693134307861,0.7739039659500122
1777560092820522200,18.994522216796874,5.7302961349487305,3.855283737182617,2.3545026779174805
1777560092839052500,19.013052490234376,13.014077186584473,-0.8533859252929688,6.259505748748779
1777560092857582800,19.031582763671874,11.999155044555664,-11.638445854187012,10.699422836303711
1777560092876113200,19.050113037109377,5.67078971862793,-22.734743118286133,-0.8075503706932068
1777560092894643500,19.0686435546875,2.758679151535034,-10.674689292907715,-5.142745494842529
1777560092913173500,19.087173583984374,0.566641092300415,1.2830314636230469,-0.8356636166572571
1777560092931703800,19.105703857421876,0.9904179573059082,8.207386016845703,1.1465444564819336
1777560092950234000,19.124234130859374,2.884308338165283,12.17498779296875,0.8811866044998169
1777560092968764400,19.142764404296877,3.2089500427246094,6.880242824554443,0.9156579971313477
1777560092987294700,19.161294677734375,-2.9707722663879395,-3.764044761657715,-0.08146297931671143
1777560093005824800,19.17982470703125,2.7003304958343506,-9.267938613891602,4.175668716430664
1777560093024355000,19.19835498046875,-18.729440689086914,-6.460844039916992,-2.098930597305298
1777560093042885400,19.216885498046874,-11.33629322052002,0.854705810546875,5.62911319732666
1777560093061415700,19.235415771484377,-0.642542839050293,3.5145792961120605,5.876355171203613
1777560093079946000,19.253946044921875,-2.5169289112091064,5.753922462463379,2.2828688621520996
1777560093098476300,19.272476318359374,-6.167174339294434,5.356803894042969,-0.34522414207458496
1777560093117006300,19.29100634765625,-9.044706344604492,1.6223702430725098,0.11942607164382935
1777560093135536600,19.30953662109375,-8.637129783630371,-7.175355911254883,1.320260763168335
1777560093154067000,19.32806689453125,-7.138120174407959,-14.098509788513184,-2.1808714866638184
1777560093172597200,19.34659716796875,0.07575976848602295,-7.243721008300781,-6.7438273429870605
1777560093191127600,19.36512744140625,6.3473734855651855,-1.1514415740966797,-6.946789741516113
1777560093209657900,19.383657958984376,3.0091793537139893,3.0768957138061523,-3.6492958068847656
1777560093228188000,19.40218798828125,-1.0685442686080933,5.001704216003418,1.346551537513733
1777560093246718200,19.42071826171875,-2.5626072883605957,5.549826145172119,4.17387056350708
1777560093265248500,19.43924853515625,-0.856533944606781,3.9434762001037598,4.001960277557373
1777560093283778800,19.45777880859375,0.6965866684913635,1.996068000793457,2.3408420085906982
1777560093302309000,19.47630908203125,1.5100181102752686,0.14504146575927734,-0.28064852952957153
1777560093320839200,19.494839111328126,1.5914467573165894,0.16064929962158203,-1.9844292402267456
1777560093339369500,19.513369384765625,0.060361623764038086,1.4579906463623047,-1.3652321100234985
1777560093357899800,19.531899658203123,-1.4473028182983398,2.6733388900756836,0.5557703971862793
1777560093376430000,19.55043017578125,0.8180731534957886,1.4372053146362305,0.22047683596611023
1777560093394960400,19.56896044921875,4.534140110015869,-1.1831579208374023,-1.9774835109710693
1777560093413490700,19.58749072265625,4.765331268310547,-3.471101760864258,-3.7976253032684326
1777560093432020700,19.606020751953125,2.6108105182647705,-2.766629219055176,-4.095616340637207
1777560093450551000,19.624551025390623,0.4136449098587036,-1.5899372100830078,-3.909888505935669
1777560093469081300,19.643081298828125,1.017873764038086,-0.6748161315917969,-3.609372138977051
1777560093487611600,19.661611572265624,2.940654754638672,-0.669560432434082,-3.0417706966400146
1777560093506142000,19.680141845703126,2.33302640914917,-1.6766290664672852,-1.7006903886795044
1777560093524672000,19.698672119140625,2.1018152236938477,-3.9394054412841797,-1.586919903755188
1777560093543202300,19.717202392578123,4.260439395904541,-5.127715110778809,-2.1956284046173096
1777560093561732600,19.735732666015625,4.657953262329102,-5.07182502746582,-3.8291919231414795
1777560093580263000,19.754262939453124,2.965751886367798,-4.213705062866211,-4.492687702178955
1777560093598793000,19.77279296875,1.7056217193603516,-3.6270084381103516,-4.482548236846924
1777560093617323500,19.791323486328125,1.3990261554718018,-2.561697006225586,-3.8595895767211914
1777560093635853600,19.809853515625,3.0007894039154053,-0.7202558517456055,-1.287767767906189
1777560093654383900,19.8283837890625,-0.850628674030304,0.5990934371948242,0.9001767635345459
1777560093672914200,19.8469140625,-3.4137122631073,-1.6487579345703125,2.182114362716675
1777560093691444500,19.865444580078126,-3.333224058151245,-4.7292022705078125,4.313064098358154
1777560093709974500,19.883974609375,-1.8547006845474243,-6.565558433532715,5.181081295013428
1777560093728504800,19.9025048828125,0.255344033241272,-6.06148624420166,2.0316519737243652
1777560093747035100,19.92103515625,-0.27618885040283203,-3.8723630905151367,-0.05688208341598511
1777560093765565400,19.9395654296875,-5.0072021484375,-1.7352714538574219,-1.8498823642730713
1777560093784095700,19.958095703125,-5.335871696472168,-0.44867706298828125,-3.0419700145721436
1777560093802625800,19.976625732421876,-3.7777202129364014,0.15645599365234375,-4.098791122436523
1777560093821156000,19.995156005859375,-4.508021354675293,0.1968517303466797,-4.168708801269531
1777560093839686400,20.013686279296873,-7.366533279418945,0.7459039688110352,-2.4324822425842285
1777560093858216700,20.032216796875,-8.495742797851562,1.5605669021606445,-0.5945116877555847
1777560093876747000,20.0507470703125,-7.401449203491211,3.5176706314086914,0.8382482528686523
1777560093895277300,20.06927734375,-6.8018622398376465,4.700161457061768,0.8470057249069214
1777560093913807400,20.087807373046875,-5.782505512237549,5.533382892608643,0.8503245115280151
1777560093932337700,20.106337646484373,-4.839884281158447,6.140049934387207,1.045799970626831
1777560093950868000,20.124867919921876,-4.410552501678467,6.155970096588135,0.9549640417098999
1777560093969398300,20.143398193359374,-4.052492141723633,5.68231201171875,0.43935978412628174
1777560093987928600,20.161928466796876,-2.684720516204834,5.6669230461120605,0.2427443265914917
1777560094006458600,20.180458740234375,0.04660820960998535,5.5590739250183105,0.5445551872253418
1777560094024989000,20.198989013671873,3.7189486026763916,5.021852970123291,2.260436773300171
1777560094043519200,20.217519287109376,9.773427963256836,2.363387107849121,7.375619888305664
1777560094062049500,20.236049560546874,14.412558555603027,-7.319363594055176,11.048413276672363
1777560094080579800,20.254579833984376,7.927423477172852,-31.255233764648438,-3.8971409797668457
1777560094099110100,20.273110107421875,1.3524258136749268,-17.831985473632812,-7.354096412658691
1777560094117640200,20.29164013671875,0.7933812141418457,0.5510272979736328,-0.6369001865386963
1777560094136170500,20.31017041015625,1.304152488708496,9.612056732177734,0.6837538480758667
1777560094154700800,20.32870068359375,-0.24169206619262695,14.052749633789062,1.0657469034194946
1777560094173231000,20.347231201171876,-0.28721165657043457,11.537300109863281,1.5634219646453857
1777560094191761400,20.365761474609375,0.7132582664489746,2.3542346954345703,0.40302014350891113
1777560094210291500,20.38429150390625,0.6606204509735107,-6.911033630371094,4.087366104125977
1777560094228821800,20.40282177734375,-2.844120502471924,-12.181914329528809,1.5413768291473389
1777560094247352000,20.42135205078125,-17.059329986572266,-4.866177558898926,0.5093479156494141
1777560094265882400,20.43988232421875,-5.909960746765137,0.8352556228637695,3.9423818588256836
1777560094284412700,20.45841259765625,-0.3253304958343506,4.701241493225098,3.8288161754608154
1777560094302943000,20.47694287109375,-2.4585554599761963,6.807244300842285,1.587187647819519
1777560094321473000,20.49547314453125,-7.050453186035156,5.548661708831787,0.4711449146270752
1777560094340003300,20.51400341796875,-7.794238090515137,1.1441841125488281,1.25142240524292
1777560094358533600,20.53253369140625,-5.477587699890137,-6.960599899291992,0.33256852626800537
1777560094377064000,20.55106396484375,-4.002667427062988,-13.175697326660156,-6.612926006317139
1777560094395594200,20.56959423828125,0.8823331594467163,-6.520961761474609,-9.096738815307617
1777560094414124500,20.58812451171875,3.2976090908050537,-0.16347599029541016,-6.463211536407471
1777560094432654600,20.606654541015626,-0.830278754234314,3.338524341583252,-2.163072109222412
1777560094451185000,20.625184814453124,-2.4045987129211426,4.643642425537109,1.3542964458465576
1777560094469715200,20.643715087890627,-0.6277834177017212,4.457616806030273,2.965728998184204
1777560094488245200,20.662245361328125,1.0257320404052734,3.275925636291504,3.578813076019287
1777560094506775800,20.68077587890625,2.2951321601867676,1.1672773361206055,2.0272326469421387
1777560094525305900,20.699305908203126,2.720309019088745,-0.23832416534423828,-0.10018161684274673
1777560094543836200,20.717836181640624,2.355489730834961,0.15223979949951172,-1.7473621368408203
1777560094562366500,20.736366455078127,1.1660985946655273,0.768254280090332,-2.874145984649658
1777560094580896800,20.754896728515625,-0.7084733247756958,1.7239723205566406,-1.6511937379837036
1777560094599426800,20.7734267578125,-0.2803837060928345,1.5603294372558594,-0.06361083686351776
1777560094617957400,20.791957275390626,2.8920934200286865,0.21986007690429688,0.22917580604553223
1777560094636487400,20.8104873046875,3.8269710540771484,-1.2243318557739258,-0.9297547340393066
1777560094655017700,20.829017822265627,2.0484535694122314,-2.5063676834106445,-1.8263940811157227
1777560094673548000,20.847548095703125,0.6351556777954102,-2.218280792236328,-2.390503406524658
1777560094692078000,20.866078125,0.5257563591003418,-1.2028684616088867,-2.618164539337158
1777560094710608400,20.8846083984375,2.2516591548919678,-0.9641275405883789,-3.244072914123535
1777560094729138700,20.903138671875,3.0906033515930176,-1.6181917190551758,-3.39418888092041
1777560094747669000,20.9216689453125,3.640880584716797,-3.15155029296875,-3.229142665863037
1777560094766199300,20.94019921875,4.173264026641846,-4.351667404174805,-3.1320157051086426
1777560094784729600,20.9587294921875,3.987283945083618,-4.837379455566406,-3.935753345489502
1777560094803259600,20.977259765625,3.4299569129943848,-4.7116289138793945,-4.988396167755127
1777560094821790000,20.9957900390625,1.6789956092834473,-4.5362443923950195,-5.579946517944336
1777560094840320300,21.0143203125,-0.021181106567382812,-3.5052757263183594,-4.695428371429443
1777560094858850600,21.0328505859375,4.037627220153809,-2.0279808044433594,-0.9438485503196716
1777560094877380900,21.051380859375,1.9735631942749023,0.1336193084716797,2.246230363845825
1777560094895911000,21.069910888671874,-2.8359148502349854,-0.3816394805908203,3.634887456893921
1777560094914441200,21.088441162109376,-3.801295280456543,-2.8486928939819336,5.415719509124756
1777560094932971500,21.106971435546875,-2.8011116981506348,-4.977168083190918,6.993051528930664
1777560094951501800,21.125501708984373,-0.3690510392189026,-5.381641387939453,3.7748100757598877
1777560094970032000,21.1440322265625,1.928800106048584,-4.655246734619141,1.7781827449798584
1777560094988562400,21.1625625,-1.836047887802124,-3.664508819580078,-0.09589254856109619
1777560095007092500,21.181092529296876,-6.085541725158691,-2.348592758178711,-2.803698778152466
1777560095025622800,21.199622802734375,-5.245002269744873,-0.4992799758911133,-4.16033411026001
1777560095044153000,21.218153076171873,-5.147028923034668,0.8548202514648438,-4.367415428161621
1777560095062683400,21.236683349609375,-7.6327667236328125,1.3113679885864258,-3.171861171722412
1777560095081213700,21.255213623046874,-7.877331256866455,2.5626139640808105,-1.3332418203353882
1777560095099744000,21.273743896484376,-7.115392208099365,4.531793594360352,0.0450441837310791
1777560095118274000,21.292274169921875,-6.509200096130371,5.975649833679199,0.7242847681045532
1777560095136804400,21.310804443359373,-6.269021034240723,5.779762268066406,0.5527544021606445
1777560095155334700,21.329334716796875,-5.2685675621032715,5.871858596801758,1.1063300371170044
1777560095173865000,21.347864990234374,-5.221720218658447,5.438313961029053,0.7408853769302368
1777560095192395300,21.366395263671876,-4.017144680023193,5.626515865325928,0.5065230131149292
1777560095210925300,21.38492529296875,-2.4953482151031494,6.512445449829102,0.8611541986465454
1777560095229455600,21.40345556640625,-0.2628495693206787,6.440937042236328,2.0232460498809814
1777560095247986000,21.42198583984375,11.379834175109863,3.291818141937256,4.872761249542236
1777560095266516200,21.44051611328125,19.30712890625,-6.350658416748047,7.998500823974609
1777560095285046500,21.459046630859376,10.62391471862793,-27.692474365234375,-0.14629846811294556
1777560095303576800,21.477576904296875,1.1082861423492432,-15.656986236572266,-5.31516170501709
1777560095322107000,21.49610693359375,1.689974308013916,0.6164073944091797,-0.08431315422058105
1777560095340637200,21.51463720703125,0.30394887924194336,9.820799827575684,3.354666233062744
1777560095359167500,21.53316748046875,-1.164158821105957,13.587867736816406,4.973136901855469
1777560095377697800,21.55169775390625,1.136016845703125,8.9083833694458,5.117189407348633
1777560095396228000,21.57022802734375,-0.5280914306640625,-2.0168142318725586,1.0262267589569092
1777560095414758400,21.58875830078125,0.6434288024902344,-10.003538131713867,0.488419771194458
1777560095433288400,21.607288330078124,-9.54041576385498,-7.826770782470703,-4.202596187591553
1777560095451818800,21.62581884765625,-10.58580207824707,-0.7207202911376953,2.137338876724243
1777560095470349000,21.64434912109375,-4.521951675415039,1.1127519607543945,4.41184663772583
1777560095488879400,21.66287939453125,-3.9896459579467773,2.885056495666504,1.713658094406128
1777560095507409700,21.68140966796875,-8.026735305786133,3.3960342407226562,-1.2675286531448364
1777560095525940000,21.69993994140625,-8.482891082763672,1.1683378219604492,-2.193814992904663
1777560095544470000,21.718469970703126,-6.2955708503723145,-3.7300491333007812,-0.9596308469772339
1777560095563000300,21.737000244140624,-3.3578004837036133,-10.53503704071045,-3.758349657058716
1777560095581530600,21.755530517578126,-1.5016908645629883,-7.461962699890137,-6.605356693267822
1777560095600061000,21.77406103515625,3.3579635620117188,-1.8386468887329102,-5.25530481338501
1777560095618591000,21.792591064453124,3.555020809173584,1.7623090744018555,-2.843816041946411
1777560095637121500,21.81112158203125,-0.35597121715545654,4.066836357116699,0.3338947296142578
1777560095655651600,21.829651611328124,-1.6077919006347656,4.961333274841309,2.3342902660369873
1777560095674182000,21.848181884765626,-0.7998803853988647,4.039047718048096,1.8779332637786865
1777560095692712200,21.866712158203125,0.809659481048584,2.2249345779418945,0.3351375460624695
1777560095711242500,21.885242431640624,2.6391613483428955,0.02121734619140625,-2.239133834838867
1777560095729772500,21.9037724609375,2.629786491394043,0.1585407257080078,-2.3764302730560303
1777560095748302800,21.922302734375,-0.3154031038284302,1.6147918701171875,-1.4255553483963013
1777560095766833200,21.940833251953126,-2.2532243728637695,2.635016918182373,0.23496215045452118
1777560095785363500,21.959363525390625,-1.4114770889282227,2.0878753662109375,0.86659836769104
1777560095803893800,21.977893798828124,3.2315478324890137,0.5695171356201172,0.02122938632965088
1777560095822424000,21.996424072265626,5.5188703536987305,-1.4921655654907227,-1.9127154350280762
1777560095840954000,22.0149541015625,4.231573104858398,-2.7564544677734375,-2.9561479091644287
1777560095859484400,22.033484375,2.1024632453918457,-2.720294952392578,-1.994558572769165
1777560095878014700,22.0520146484375,1.5367372035980225,-2.16103458404541,-1.17995285987854
1777560095896545000,22.070544921875,1.6649162769317627,-1.7811145782470703,-2.113992929458618
1777560095915075300,22.089075439453126,1.1461374759674072,-2.114752769470215,-3.842027187347412
1777560095933605400,22.10760546875,2.8835220336914062,-3.035946846008301,-3.7953500747680664
1777560095952135700,22.1261357421875,4.274605751037598,-4.81038761138916,-2.5212106704711914
1777560095970666000,22.144666015625,5.5695929527282715,-4.86484432220459,-1.8672215938568115
1777560095989196300,22.1631962890625,3.1313018798828125,-4.239123344421387,-3.1689209938049316
1777560096007726600,22.1817265625,1.7053301334381104,-4.919730186462402,-5.215322971343994
1777560096026257000,22.2002568359375,0.02854478359222412,-4.069635391235352,-4.990407466888428
1777560096044787200,22.218787109375,1.883935809135437,-1.808690071105957,-1.7336088418960571
1777560096063317200,22.237317138671877,2.2549264430999756,0.35005855560302734,1.4868313074111938
1777560096081847600,22.25584765625,-1.5924322605133057,-0.0699758529663086,2.8333475589752197
1777560096100377900,22.2743779296875,-2.973295211791992,-2.100099563598633,4.186273574829102
1777560096118908200,22.292908203125,-2.6869983673095703,-4.13416862487793,5.345065593719482
1777560096137438500,22.3114384765625,-2.1654908657073975,-4.158237457275391,3.8272151947021484
1777560096155968800,22.32996875,-0.9126026034355164,-3.537385940551758,0.8048214912414551
1777560096174498800,22.348498779296875,-2.9089744091033936,-2.9251937866210938,-0.5585194826126099
1777560096193029000,22.367029052734374,-1.2984504699707031,-2.188629150390625,-1.252943754196167
1777560096211559400,22.385559326171876,-3.1376328468322754,-2.0713186264038086,-2.2580089569091797
1777560096230089700,22.40408984375,-4.780588150024414,-0.957432746887207,-2.575519561767578
1777560096248620000,22.4226201171875,-6.5693511962890625,-0.02105236053466797,-1.8028535842895508
1777560096267150300,22.441150390625,-8.58194637298584,0.6545820236206055,-0.9688769578933716
1777560096285680400,22.459680419921874,-7.367490291595459,2.0761728286743164,0.016576051712036133
1777560096304210700,22.478210693359376,-6.507696628570557,4.094638824462891,0.5532304048538208
1777560096322741000,22.496740966796875,-6.783337593078613,6.199874401092529,0.5583359003067017
1777560096341271300,22.515271240234377,-6.127016544342041,6.91292667388916,0.3568986654281616
1777560096359801600,22.533801513671875,-5.897441864013672,7.192788124084473,0.35078704357147217
1777560096378332000,22.552331787109374,-5.5205888748168945,6.979264736175537,-0.2118086814880371
1777560096396862200,22.5708623046875,-3.704693078994751,7.139841556549072,-0.06359267234802246
1777560096415392300,22.589392333984375,-1.2045552730560303,7.360319137573242,0.8215312957763672
1777560096433922600,22.607922607421877,4.457557678222656,5.944302082061768,2.4118916988372803
1777560096452452900,22.626452880859375,12.761150360107422,1.3774890899658203,6.128457069396973
1777560096470983200,22.644983154296874,28.207805633544922,-18.07732391357422,6.881137847900391
1777560096489513500,22.663513427734376,1.180372714996338,-34.01880645751953,-4.938472747802734
1777560096508043800,22.682043701171875,1.1850876808166504,-8.922833442687988,-1.6671969890594482
1777560096526574000,22.700573974609377,0.0066623687744140625,6.768205165863037,1.3609791994094849
1777560096545104100,22.719104248046875,-2.263777256011963,14.872036933898926,2.6217966079711914
1777560096563634400,22.737634521484374,-0.47642993927001953,16.384859085083008,2.850160598754883
1777560096582164700,22.756164794921876,1.6201577186584473,6.696089744567871,-1.6409056186676025
1777560096600695000,22.774695068359375,2.8095998764038086,-6.779253005981445,-0.6214599609375
1777560096619225300,22.793225341796877,-5.191941261291504,-14.737356185913086,7.500497817993164
1777560096637755600,22.811755615234375,-13.911426544189453,-8.924116134643555,-1.7707710266113281
1777560096656286000,22.830285888671874,-8.136208534240723,-0.00009918212890625,4.425595283508301
1777560096674816000,22.84881591796875,-2.3643758296966553,3.5667223930358887,3.72166109085083
1777560096693346300,22.86734619140625,-4.422056198120117,6.269710063934326,1.468915343284607
1777560096711876600,22.885876708984377,-7.335353851318359,6.128334045410156,0.3708658218383789
1777560096730407000,22.904406982421875,-8.197835922241211,1.5921173095703125,0.036825478076934814
1777560096748937200,22.922937255859374,-6.187543869018555,-6.505718231201172,-0.2852988839149475
1777560096767467500,22.941467529296876,-4.675095081329346,-13.096851348876953,-6.718247413635254
1777560096785997800,22.959997802734375,2.0124549865722656,-6.140990257263184,-7.767833232879639
1777560096804527900,22.97852783203125,4.42854642868042,-0.6272392272949219,-5.781332492828369
1777560096823058200,22.99705810546875,0.5374085307121277,2.969278335571289,-0.9283521175384521
1777560096841588500,23.01558837890625,-3.569709539413452,5.287962436676025,2.9214067459106445
1777560096860118800,23.034118896484376,-2.2594199180603027,5.6386613845825195,4.392467498779297
1777560096878649000,23.052649169921875,0.7488961219787598,4.407174587249756,3.10211181640625
1777560096897179400,23.071179443359377,1.493247151374817,0.2955303192138672,0.09013228863477707
1777560096915709400,23.08970947265625,2.4811959266662598,-2.151583671569824,-3.56386137008667
1777560096934239700,23.10823974609375,2.616049289703369,-0.7177019119262695,-4.4795403480529785
1777560096952770000,23.12677001953125,0.7639884948730469,1.68137788772583,-3.1730778217315674
1777560096971300400,23.14530029296875,-1.7126080989837646,2.4091763496398926,-0.5796446204185486
1777560096989830700,23.16383056640625,-0.5952008962631226,1.7132906913757324,0.7495695352554321
1777560097008361000,23.18236083984375,3.311408758163452,0.3636627197265625,0.12290427088737488
1777560097026891300,23.200891357421874,5.764840126037598,-1.6108341217041016,-1.6273117065429688
1777560097045421300,23.21942138671875,4.160728454589844,-2.6875381469726562,-2.028149127960205
1777560097063951600,23.23795166015625,0.8538432121276855,-1.979217529296875,-1.5513648986816406
1777560097082482000,23.25648193359375,-0.09504175186157227,-1.034052848815918,-1.906069278717041
1777560097101012200,23.27501220703125,2.004326105117798,-1.017500877380371,-3.0097527503967285
1777560097119542500,23.29354248046875,3.194335460662842,-1.7646751403808594,-2.372842311859131
1777560097138072800,23.31207275390625,3.2441060543060303,-2.6256790161132812,0.02986133098602295
1777560097156603100,23.33060302734375,2.8894598484039307,-3.878366470336914,0.4511461853981018
1777560097175133200,23.34913330078125,3.6250200271606445,-4.208955764770508,-1.7589728832244873
1777560097193663500,23.36766357421875,3.392263412475586,-3.7312450408935547,-4.520244598388672
1777560097212193800,23.38619384765625,2.51304292678833,-3.254014015197754,-5.969281196594238
1777560097230724000,23.40472412109375,0.921934187412262,-3.0512218475341797,-5.9427690505981445
1777560097249254400,23.42325439453125,2.2574141025543213,-2.295421600341797,-3.8482162952423096
1777560097267784700,23.44178466796875,4.009446144104004,-0.48313331604003906,0.15906894207000732
1777560097286315000,23.46031494140625,0.3220005929470062,0.16000652313232422,2.0010695457458496
1777560097304845000,23.478844970703125,-3.648775577545166,-1.9399690628051758,2.2163515090942383
1777560097323375400,23.497375244140624,-3.7515616416931152,-4.5676422119140625,3.66015887260437
