time,seconds_elapsed,z,y,x
1777560073976490200,0.150490234375,3.5054850578308105,-8.26241683959961,1.5984054803848267
1777560073995020300,0.169020263671875,4.0079779624938965,-8.499305725097656,0.9044869542121887
1777560074013550300,0.18755029296875,3.895515203475952,-8.602197647094727,0.8662018179893494
1777560074032080100,0.206080078125,4.084548473358154,-8.903693199157715,1.0360921621322632
1777560074050610200,0.224610107421875,4.4482574462890625,-9.592825889587402,0.6843472719192505
1777560074069140200,0.24314013671875,4.972285270690918,-10.171889305114746,0.1052841991186142
1777560074087670300,0.261670166015625,5.278566837310791,-10.01156997680664,-0.20099709928035736
1777560074106200000,0.280199951171875,4.366901397705078,-9.418149948120117,-0.05742774158716202
1777560074124730000,0.298730224609375,3.014956474304199,-8.291130065917969,0.14356936514377594
1777560074143260200,0.31726025390625,2.359323024749756,-7.460821151733398,0.16510476171970367
1777560074161790200,0.335790283203125,2.9312076568603516,-8.082955360412598,-0.07657032459974289
1777560074180320000,0.354320068359375,3.617947816848755,-9.279366493225098,-1.0217353105545044
1777560074198850000,0.37285009765625,3.9050865173339844,-10.119247436523438,-1.1126625537872314
1777560074217380000,0.391380126953125,4.6061835289001465,-12.29671573638916,-0.17946170270442963
1777560074235910100,0.40991015625,4.522434711456299,-15.170495986938477,0.22492532432079315
1777560074254440200,0.428440185546875,3.6873397827148438,-13.804193496704102,0.7417750358581543
1777560074272970200,0.44697021484375,2.1272194385528564,-9.001798629760742,1.7802600860595703
1777560074291500000,0.4655,-1.887937068939209,-5.020142078399658,3.7567315101623535
1777560074310030000,0.484030029296875,-2.0171494483947754,-2.9288148880004883,6.412764549255371
1777560074328560000,0.50256005859375,2.517249345779419,-4.570291042327881,6.6592254638671875
1777560074347090000,0.52108984375,4.780859470367432,-8.37727165222168,3.4002010822296143
1777560074365620000,0.539619873046875,3.3954153060913086,-12.239287376403809,-0.16271193325519562
1777560074384150000,0.55814990234375,1.1270195245742798,-14.390435218811035,-1.5361921787261963
1777560074402680000,0.57668017578125,0.038285162299871445,-14.017154693603516,-0.49292147159576416
1777560074421210000,0.595210205078125,-0.30628129839897156,-11.559725761413574,0.4139583110809326
1777560074439740000,0.613739990234375,0.35413774847984314,-9.052047729492188,0.9332008361816406
1777560074458270000,0.63227001953125,0.6652047038078308,-8.188239097595215,0.04546362906694412
1777560074476800000,0.650800048828125,0.04546362906694412,-8.042277336120605,-0.8805587291717529
1777560074495330000,0.669330078125,-1.6390835046768188,-8.353343963623047,-1.6223337650299072
1777560074513859800,0.68785986328125,-2.667997360229492,-9.21715259552002,-1.1509476900100708
1777560074532390000,0.706389892578125,-0.062213387340307236,-10.14317512512207,0.08853443711996078
1777560074550920000,0.724919921875,0.5814558863639832,-10.911271095275879,0.5790630578994751
1777560074569450000,0.743449951171875,0.31345975399017334,-11.3778715133667,0.698704183101654
1777560074587979800,0.761979736328125,0.9092726111412048,-10.506884574890137,0.7992027401924133
1777560074606509800,0.780509765625,1.2705888748168945,-9.1716890335083,0.397208571434021
1777560074625040000,0.799039794921875,-0.8398807644844055,-8.291130065917969,-0.5264210104942322
1777560074643570000,0.81756982421875,-2.806781053543091,-8.327022552490234,-2.062613010406494
1777560074662100000,0.836099853515625,-2.4502503871917725,-8.779266357421875,-3.9218363761901855
1777560074680630000,0.854630126953125,-0.9044869542121887,-9.492327690124512,-4.9124650955200195
1777560074699159800,0.873159912109375,0.6771687865257263,-9.920642852783203,-4.453042984008789
1777560074717689900,0.89168994140625,1.5960127115249634,-9.559326171875,-2.586641311645508
1777560074736220000,0.910219970703125,0.6197410821914673,-9.422935485839844,-1.098305583000183
1777560074754749700,0.928749755859375,-0.7082754969596863,-9.200403213500977,-0.9260223507881165
1777560074773279700,0.94727978515625,-1.4931213855743408,-8.81515884399414,-1.373480200767517
1777560074791809800,0.965809814453125,-1.2897313833236694,-9.037691116333008,-1.7778671979904175
1777560074810339800,0.98433984375,-0.5144568681716919,-9.600004196166992,-1.4931213855743408
1777560074828870000,1.002869873046875,-0.3565305769443512,-9.889535903930664,-0.851844847202301
1777560074847399700,1.021399658203125,-0.6484549641609192,-9.633503913879395,-0.019142581149935722
1777560074865929700,1.0399296875,-0.7680960893630981,-9.540184020996094,0.04307080805301666
1777560074884459800,1.058459716796875,-1.1078768968582153,-9.21715259552002,-0.6149554252624512
1777560074902989800,1.07698974609375,-0.397208571434021,-9.253045082092285,-1.7395820617675781
1777560074921519600,1.09551953125,0.16749759018421173,-9.9469633102417,-2.713460922241211
1777560074940049700,1.114049560546875,-0.28953152894973755,-10.834700584411621,-3.16331148147583
1777560074958579700,1.132579833984375,-0.4785645306110382,-10.887343406677246,-2.6632115840911865
1777560074977109800,1.15110986328125,-0.5312066078186035,-10.583454132080078,-1.6701902151107788
1777560074995639800,1.169639892578125,-1.275374412536621,-10.17428207397461,-0.5982056856155396
1777560075014169600,1.188169677734375,-1.5984054803848267,-10.013962745666504,-1.1030912399291992
1777560075032699600,1.20669970703125,-0.641276478767395,-11.073983192443848,-2.909672260284424
1777560075051229700,1.225229736328125,0.6221339106559753,-12.406785011291504,-3.735196113586426
1777560075069759700,1.243759765625,0.6556333899497986,-13.555339813232422,-3.3164522647857666
1777560075088289800,1.262289794921875,-0.06699903309345245,-14.139188766479492,-3.1441688537597656
1777560075106819600,1.280819580078125,0.6029912829399109,-13.935798645019531,-3.2709884643554688
1777560075125349600,1.299349609375,1.9214365482330322,-12.265608787536621,-3.10109806060791
1777560075143879700,1.317879638671875,1.7228323221206665,-9.635896682739258,-1.703689694404602
1777560075162409500,1.336409423828125,0.9236295223236084,-8.403593063354492,-0.07896314561367035
1777560075180939500,1.354939453125,1.2658032178878784,-8.894122123718262,0.4378865361213684
1777560075199469600,1.373469482421875,-1.7252250909805298,-10.403992652893066,-0.21296121180057526
1777560075217999600,1.39199951171875,-3.1489546298980713,-12.32542896270752,-0.5982056856155396
1777560075236529700,1.41052978515625,-2.0410776138305664,-13.73480224609375,-0.5216353535652161
1777560075255059700,1.429059814453125,-0.2512463629245758,-13.177274703979492,-0.6819544434547424
1777560075273589500,1.447589599609375,0.27756741642951965,-11.57408332824707,-0.7920243144035339
1777560075292119600,1.46611962890625,-1.6342978477478027,-10.607382774353027,0.2105683982372284
1777560075310649600,1.484649658203125,-1.8185452222824097,-10.013962745666504,1.856830358505249
1777560075329179600,1.5031796875,0.3517449200153351,-9.870393753051758,1.191625714302063
1777560075347709700,1.521709716796875,2.1128623485565186,-10.327422142028809,-1.3782658576965332
1777560075366239500,1.540239501953125,-0.11485548317432404,-9.571290969848633,-2.335394859313965
1777560075384769500,1.55876953125,-2.7421748638153076,-7.501499176025391,-1.100698471069336
1777560075403299600,1.577299560546875,-2.344966173171997,-7.164111137390137,-0.363709032535553
1777560075421829600,1.59582958984375,-2.416750907897949,-6.786045074462891,0.23688943684101105
1777560075440359700,1.614359619140625,-0.550349235534668,-6.192625045776367,0.7322037220001221
1777560075458889500,1.632889404296875,0.8781659007072449,-5.484349727630615,1.2059825658798218
1777560075477419500,1.65141943359375,1.794616937637329,-4.917250633239746,2.0003998279571533
1777560075495949600,1.669949462890625,1.9645073413848877,-4.524827480316162,2.7038896083831787
1777560075514479400,1.688479248046875,2.1822543144226074,-4.084548473358154,2.510071039199829
1777560075533009400,1.707009521484375,2.478964328765869,-4.223331928253174,1.667797327041626
1777560075551539500,1.72553955078125,3.34995174407959,-5.034498691558838,1.2993026971817017
1777560075570069500,1.744069580078125,4.878965377807617,-6.398407936096191,1.4213366508483887
1777560075588599600,1.762599609375,6.685546398162842,-8.48734188079834,2.778067111968994
1777560075607129600,1.781129638671875,8.590232849121094,-12.555140495300293,3.311666488647461
1777560075625659400,1.799659423828125,11.985648155212402,-19.869998931884766,-0.9044869542121887
1777560075644189400,1.818189453125,9.868000984191895,-22.459033966064453,-4.118047714233398
1777560075662719500,1.836719482421875,6.613761901855469,-14.000405311584473,-1.9310078620910645
1777560075681249500,1.85524951171875,5.115854740142822,-6.1950178146362305,1.2801600694656372
1777560075699779600,1.873779541015625,3.8979079723358154,-2.0027925968170166,3.2518460750579834
1777560075718309400,1.892309326171875,3.211168050765991,-0.9092726111412048,3.806980848312378
1777560075736839700,1.910839599609375,5.158925533294678,-5.4173502922058105,3.8763725757598877
1777560075755369500,1.929369384765625,10.540383338928223,-14.254044532775879,1.7994025945663452
1777560075773899500,1.9478994140625,3.7878382205963135,-22.061824798583984,-1.7635103464126587
1777560075792429600,1.9664296875,0.4713860750198364,-16.469799041748047,-1.1940184831619263
1777560075810959600,1.984959716796875,-11.274980545043945,-6.0610198974609375,3.3643085956573486
1777560075829489700,2.00348974609375,-4.400400638580322,-2.0099709033966064,8.528019905090332
1777560075848019700,2.022019775390625,0.6604190468788147,-1.6630117893218994,9.547362327575684
1777560075866549500,2.040549560546875,3.0795626640319824,-2.359323024749756,5.056034088134766
1777560075885079600,2.05907958984375,-3.957728624343872,-6.015556335449219,1.153340458869934
1777560075903609600,2.077609619140625,-10.470992088317871,-16.053447723388672,-3.3690943717956543
1777560075922139600,2.0961396484375,-7.106683254241943,-22.57867431640625,-5.982056617736816
1777560075940669700,2.114669677734375,0.4498506486415863,-17.350357055664062,-8.011170387268066
1777560075959199500,2.133199462890625,4.110869407653809,-12.035898208618164,-7.872386455535889
1777560075977729500,2.1517294921875,2.691925525665283,-8.738588333129883,-3.4552359580993652
1777560075996259600,2.170259521484375,-0.5383850932121277,-6.238088607788086,1.5720844268798828
1777560076014789600,2.18878955078125,-1.950150489807129,-5.3455657958984375,4.024727821350098
1777560076033319700,2.207319580078125,-1.6247265338897705,-6.329015731811523,3.2135608196258545
1777560076051849500,2.225849365234375,0.8350951075553894,-9.231510162353516,0.6340979933738708
1777560076070379500,2.244379638671875,1.2394821643829346,-10.856236457824707,-1.5074782371520996
1777560076088909600,2.26290966796875,1.919043779373169,-10.466206550598145,-2.4358935356140137
1777560076107439600,2.281439697265625,1.0289137363433838,-8.863015174865723,-2.266003131866455
1777560076125969700,2.2999697265625,-1.2897313833236694,-8.250452041625977,-1.7491533756256104
1777560076144499700,2.318499755859375,-2.9718856811523438,-7.64028263092041,-0.9379864931106567
1777560076163029800,2.33702978515625,-2.5292134284973145,-7.606783390045166,-0.1052841991186142
1777560076181559800,2.355559814453125,-0.275174617767334,-8.865407943725586,-0.7106683254241943
1777560076200089600,2.374089599609375,1.2562319040298462,-10.205389022827148,-1.8735800981521606
1777560076218619600,2.39261962890625,0.7657032608985901,-11.057233810424805,-2.304288148880005
1777560076237149700,2.411149658203125,-0.8015955686569214,-11.547761917114258,-1.8137595653533936
1777560076255679700,2.4296796875,-0.7106683254241943,-10.794022560119629,-0.48095735907554626
1777560076274209800,2.448209716796875,0.8327022790908813,-10.514062881469727,-0.6819544434547424
1777560076292739800,2.46673974609375,1.0432707071304321,-10.202995300292969,-1.4691931009292603
1777560076311270000,2.485269775390625,-0.4307080805301666,-10.75813102722168,-2.586641311645508
1777560076329799700,2.503799560546875,-2.1918256282806396,-11.801401138305664,-3.129812002182007
1777560076348329700,2.522329833984375,-1.4069796800613403,-13.016955375671387,-3.2997024059295654
1777560076366859800,2.54085986328125,1.7682958841323853,-13.459627151489258,-3.366701364517212
1777560076385389800,2.559389892578125,2.6799614429473877,-12.681960105895996,-2.9862427711486816
1777560076403920000,2.577919921875,1.428515076637268,-11.880364418029785,-2.7326035499572754
1777560076422450000,2.596449951171875,1.1054840087890625,-12.411571502685547,-3.517449378967285
1777560076440980000,2.61497998046875,0.2871387302875519,-12.42832088470459,-3.972085475921631
1777560076459510000,2.633510009765625,-1.8424733877182007,-11.72722339630127,-3.445664644241333
1777560076478039800,2.652039794921875,0.6891329288482666,-9.91825008392334,-0.794417142868042
1777560076496569900,2.67056982421875,-0.40677985548973083,-8.83669376373291,0.8614161610603333
1777560076515100000,2.689099853515625,-2.1415762901306152,-10.578668594360352,1.765903115272522
1777560076533630000,2.7076298828125,-2.163111686706543,-13.801800727844238,3.0388846397399902
1777560076552160000,2.726159912109375,-0.4019941985607147,-15.337993621826172,2.531606435775757
1777560076570690000,2.74468994140625,1.94297194480896,-13.627124786376953,1.2538390159606934
1777560076589220000,2.76322021484375,1.2610175609588623,-10.85862922668457,0.39960137009620667
1777560076607750000,2.78175,-3.0556344985961914,-10.219745635986328,-1.0791629552841187
1777560076626280000,2.800280029296875,-3.4672000408172607,-9.698110580444336,-1.2131611108779907
1777560076644810200,2.818810302734375,-0.4019941985607147,-9.525827407836914,-1.6079767942428589
1777560076663340000,2.837340087890625,0.1818545162677765,-9.762716293334961,-2.280359983444214
1777560076681870000,2.8558701171875,-1.0289137363433838,-9.753145217895508,-1.8783657550811768
1777560076700400000,2.874400146484375,-1.1724830865859985,-8.458627700805664,-0.36610186100006104
1777560076718930200,2.89293017578125,-3.050848960876465,-7.156932353973389,0.5814558863639832
1777560076737460200,2.911460205078125,-2.7972097396850586,-6.029912948608398,1.031306505203247
1777560076755990300,2.929990234375,-0.9834501147270203,-4.9531426429748535,2.1200408935546875
1777560076774520300,2.948520263671875,-0.08135596662759781,-4.146761417388916,2.187039852142334
1777560076793050000,2.967050048828125,0.727418065071106,-3.304488182067871,2.1367905139923096
1777560076811580400,2.985580322265625,1.0887342691421509,-3.136990547180176,2.1990039348602295
1777560076830110200,3.004110107421875,1.950150489807129,-3.4025938510894775,1.9453648328781128
1777560076848640300,3.02264013671875,2.857030153274536,-3.8261234760284424,1.789831280708313
1777560076867170300,3.04117041015625,5.077569484710693,-4.8191447257995605,2.589034080505371
1777560076885700400,3.059700439453125,9.004191398620605,-6.905686378479004,4.491328239440918
1777560076904230400,3.07823046875,11.925827980041504,-12.354143142700195,6.235695838928223
1777560076922760400,3.096760498046875,16.646867752075195,-25.713272094726562,-0.3924229145050049
1777560076941290500,3.11529052734375,6.439085960388184,-28.03670310974121,-7.087540626525879
1777560076959820500,3.133820556640625,5.26181697845459,-14.321043968200684,-3.211168050765991
1777560076978350600,3.1523505859375,4.694717884063721,-4.785645484924316,2.0961127281188965
1777560076996880600,3.170880615234375,3.2709884643554688,0.3732803463935852,3.5916268825531006
1777560077015410700,3.18941064453125,3.3571300506591797,3.012563705444336,3.462414264678955
1777560077033940700,3.207940673828125,6.439085960388184,-2.56510591506958,2.447857618331909
1777560077052470500,3.226470458984375,9.037691116333008,-12.741780281066895,-1.770688772201538
1777560077071000600,3.24500048828125,4.883750915527344,-20.197816848754883,2.60339093208313
1777560077089530600,3.263530517578125,-3.397808074951172,-20.58306121826172,2.5124638080596924
1777560077108060700,3.282060791015625,-11.219944953918457,-10.052248001098633,4.1419758796691895
1777560077126590700,3.3005908203125,-0.8925228714942932,-3.675375461578369,7.551748275756836
1777560077145120800,3.319120849609375,2.964707374572754,-1.2346965074539185,6.245266914367676
1777560077163650800,3.33765087890625,-0.15074782073497772,-1.6175481081008911,2.8354947566986084
1777560077182180900,3.356180908203125,-8.583054542541504,-5.125426292419434,0.23210379481315613
1777560077200711000,3.3747109375,-9.32722282409668,-12.409177780151367,-0.14356936514377594
1777560077219241000,3.393240966796875,-5.127819061279297,-23.2247371673584,-4.426722049713135
1777560077237771000,3.41177099609375,1.3495519161224365,-20.79841423034668,-9.33440113067627
1777560077256301000,3.430301025390625,6.159125328063965,-12.370893478393555,-7.95134973526001
1777560077274831000,3.4488310546875,2.2636101245880127,-8.264809608459473,-4.625326156616211
1777560077293361200,3.467361083984375,-2.56510591506958,-5.800201892852783,0.6867401003837585
1777560077311891200,3.48589111328125,-2.723032236099243,-5.259424209594727,3.2518460750579834
1777560077330421200,3.504421142578125,-0.380458801984787,-5.86002254486084,2.6632115840911865
1777560077348951000,3.522950927734375,1.7156537771224976,-8.283951759338379,1.3854442834854126
1777560077376746200,3.550746337890625,2.1678972244262695,-10.449456214904785,-1.3854442834854126
1777560077395276300,3.5692763671875,1.1653046607971191,-9.365508079528809,-2.1535403728485107
1777560077413806300,3.587806396484375,-0.47617170214653015,-8.334200859069824,-2.2612173557281494
1777560077432336400,3.60633642578125,-2.6703901290893555,-7.635497093200684,-1.007378339767456
1777560077450866400,3.624866455078125,-2.981456995010376,-7.927421569824219,-0.23688943684101105
1777560077469396500,3.643396484375,0.035892341285943985,-9.221938133239746,-0.8781659007072449
1777560077487926500,3.661926513671875,1.9716858863830566,-10.475777626037598,-2.352144718170166
1777560077506456600,3.68045654296875,1.1270195245742798,-11.368300437927246,-3.3403804302215576
1777560077524986600,3.698986572265625,-1.074377417564392,-11.511869430541992,-2.926422119140625
1777560077543516700,3.7175166015625,-1.2370892763137817,-10.88973617553711,-1.2083754539489746
1777560077562046700,3.736046630859375,0.21296121180057526,-10.353743553161621,-0.275174617767334
1777560077580576800,3.75457666015625,1.6414763927459717,-10.72702407836914,-1.490728497505188
1777560077599106600,3.7731064453125,0.4570291340351105,-11.358729362487793,-2.6943182945251465
1777560077617636900,3.791636962890625,-0.2153540402650833,-12.564711570739746,-2.66560435295105
1777560077636166700,3.810166748046875,0.882951557636261,-13.615160942077637,-3.1800613403320312
1777560077654697000,3.828697021484375,2.2468605041503906,-12.954741477966309,-3.579662561416626
1777560077673227000,3.84722705078125,0.40677985548973083,-12.524033546447754,-4.177868366241455
1777560077691757000,3.865757080078125,-1.3710874319076538,-13.079168319702148,-4.299902439117432
1777560077710287000,3.884287109375,-0.37088751792907715,-12.423535346984863,-3.6083765029907227
1777560077728817200,3.902817138671875,1.423729419708252,-11.09073257446289,-2.0817556381225586
1777560077747347200,3.92134716796875,-0.08853443711996078,-9.779465675354004,0.43549370765686035
1777560077765877000,3.939876953125,-2.5363919734954834,-11.011770248413086,2.0889341831207275
1777560077784407300,3.9584072265625,-2.1367905139923096,-14.213366508483887,3.3786656856536865
1777560077802937000,3.97693701171875,-0.07896314561367035,-16.450654983520508,3.1202406883239746
1777560077821467400,3.99546728515625,1.8305093050003052,-15.328421592712402,0.9690931439399719
1777560077839997200,4.0139970703125,1.2610175609588623,-12.619746208190918,0.05503492057323456
1777560077858527500,4.032527587890625,-2.3258235454559326,-10.456634521484375,-0.8949156403541565
1777560077877057300,4.051057373046875,-3.8907296657562256,-9.449256896972656,-1.892722725868225
1777560077895587600,4.069587646484375,-2.0961127281188965,-8.841479301452637,-1.7276179790496826
1777560077914117600,4.08811767578125,-0.8255237936973572,-9.001798629760742,-2.431107759475708
1777560077932647700,4.106647705078125,-1.4835500717163086,-8.918049812316895,-2.0338993072509766
1777560077951177700,4.125177734375,-3.0484559535980225,-8.204988479614258,-0.41874396800994873
1777560077969707800,4.143707763671875,-2.6009981632232666,-7.027719974517822,1.0528420209884644
1777560077988237800,4.16223779296875,-2.589034080505371,-5.647061347961426,1.5936198234558105
1777560078006767900,4.180767822265625,-2.203789710998535,-4.60139799118042,1.8951154947280884
1777560078034562800,4.208562744140625,0.8087740540504456,-3.759124279022217,2.3856441974639893
1777560078053092900,4.2270927734375,1.6007983684539795,-3.8883368968963623,2.4406790733337402
1777560078071623000,4.245622802734375,2.0506489276885986,-4.35254430770874,2.2157537937164307
1777560078090153000,4.264153076171875,2.0865414142608643,-4.417150497436523,1.950150489807129
1777560078108683000,4.28268310546875,2.2779672145843506,-4.3310089111328125,1.7012969255447388
1777560078127213000,4.301213134765625,4.7234320640563965,-4.721039295196533,2.3856441974639893
1777560078145743400,4.319743408203125,8.140382766723633,-6.5874409675598145,3.390629768371582
1777560078164273200,4.338273193359375,11.894721031188965,-11.140982627868652,4.543970108032227
1777560078182803500,4.356803466796875,17.42692756652832,-22.707887649536133,-0.4546363055706024
1777560078201333200,4.375333251953125,8.609375953674316,-29.16372299194336,-6.8410797119140625
1777560078219863600,4.393863525390625,6.329015731811523,-15.957734107971191,-2.9216363430023193
1777560078238393600,4.4123935546875,5.194818019866943,-4.445864677429199,2.2755744457244873
1777560078256923600,4.430923583984375,4.543970108032227,2.225325107574463,3.840480327606201
1777560078275453700,4.44945361328125,2.768495798110962,2.723032236099243,5.773880958557129
1777560078293983700,4.467983642578125,5.089533805847168,-6.285944938659668,5.410171985626221
1777560078312513800,4.486513671875,5.525027275085449,-17.927026748657227,4.340580463409424
1777560078331043800,4.5050439453125,0.7202396392822266,-21.968503952026367,2.3808584213256836
1777560078349574000,4.523573974609375,-10.786844253540039,-12.966706275939941,-0.5383850932121277
1777560078368104000,4.54210400390625,-2.8522446155548096,-5.9198431968688965,5.44845724105835
1777560078386634000,4.560634033203125,2.155933141708374,-3.759124279022217,4.852644443511963
1777560078405164000,4.5791640625,-1.7778671979904175,-2.8450660705566406,1.1078768968582153
1777560078423694000,4.597694091796875,-5.862415313720703,-4.070191383361816,0.8039883971214294
1777560078442224000,4.61622412109375,-7.245467185974121,-9.513862609863281,1.4524433612823486
1777560078460754200,4.634754150390625,-4.297509670257568,-19.343578338623047,-1.6390835046768188
1777560078479284200,4.6532841796875,-1.9932212829589844,-20.061424255371094,-8.003992080688477
1777560078497814300,4.671814208984375,2.510071039199829,-14.182259559631348,-8.248059272766113
1777560078516344600,4.690344482421875,3.5198421478271484,-9.834501266479492,-5.556134223937988
1777560078534874400,4.708874267578125,0.8398807644844055,-6.647261142730713,-1.6079767942428589
1777560078553404700,4.72740478515625,-2.1678972244262695,-4.945964336395264,2.414358139038086
1777560078571934700,4.745934814453125,-1.2011969089508057,-5.398207664489746,3.352344512939453
1777560078590464800,4.76446484375,0.059820566326379776,-7.259823799133301,2.6488547325134277
1777560078608994800,4.782994873046875,1.1198409795761108,-9.973284721374512,0.7106683254241943
1777560078627524900,4.80152490234375,2.163111686706543,-10.535597801208496,-1.6893328428268433
1777560078646055000,4.820054931640625,1.4811571836471558,-9.343972206115723,-2.612962245941162
1777560078673850000,4.84785009765625,-2.589034080505371,-7.549355506896973,-1.3040883541107178
1777560078692380200,4.866380126953125,-2.9862427711486816,-7.5637125968933105,-0.4211367964744568
1777560078710910200,4.88491015625,0.15074782073497772,-9.265008926391602,-0.9188438653945923
1777560078729440300,4.903440185546875,1.8161523342132568,-11.124232292175293,-2.5986053943634033
1777560078747970300,4.92197021484375,1.1222338676452637,-11.684152603149414,-3.345165967941284
1777560078766500400,4.940500244140625,-0.8327022790908813,-11.193624496459961,-1.947757601737976
1777560078785030400,4.959030517578125,-1.5146567821502686,-10.86580753326416,-0.698704183101654
1777560078803560400,4.977560546875,-0.4139583110809326,-10.451848983764648,-1.430907964706421
1777560078822090500,4.996090576171875,0.2153540402650833,-10.382457733154297,-2.871387243270874
1777560078840620500,5.01462060546875,-0.1698904037475586,-10.939985275268555,-3.0963125228881836
1777560078859150800,5.03315087890625,0.16271193325519562,-12.31825065612793,-1.950150489807129
1777560078877680600,5.0516806640625,1.9836499691009521,-13.698909759521484,-2.045863389968872
1777560078896211000,5.0702109375,1.5792629718780518,-13.466805458068848,-2.837887763977051
1777560078914741000,5.088740966796875,0.7920243144035339,-13.000205039978027,-3.8668015003204346
1777560078933271000,5.10727099609375,0.5718846321105957,-13.813765525817871,-4.709074974060059
1777560078951801000,5.125801025390625,-0.4043870270252228,-12.748958587646484,-4.1347975730896
1777560078970331100,5.1443310546875,1.3256237506866455,-11.552547454833984,-2.4430718421936035
1777560078988861200,5.162861083984375,0.39960137009620667,-9.741181373596191,0.36610186100006104
1777560079007391200,5.18139111328125,-2.6775684356689453,-10.77966594696045,2.1678972244262695
1777560079025921300,5.19992138671875,-3.6227335929870605,-13.25862979888916,4.082155227661133
1777560079044451600,5.21845166015625,-1.4811571836471558,-15.065211296081543,4.88853645324707
1777560079062981600,5.236981689453125,1.8855443000793457,-14.273186683654785,2.6368906497955322
1777560079081511700,5.25551171875,2.9072794914245605,-12.66042423248291,0.4833501875400543
1777560079100041700,5.274041748046875,-0.4713860750198364,-11.286944389343262,-0.9930213689804077
1777560079118571800,5.29257177734375,-2.9623143672943115,-10.72702407836914,-2.1655044555664062
1777560079137101800,5.311101806640625,-0.7992027401924133,-9.729216575622559,-2.550748825073242
1777560079155631900,5.3296318359375,-2.122433662414551,-9.075976371765137,-3.2446675300598145
1777560079174162000,5.348161865234375,-3.2614171504974365,-8.784051895141602,-2.2636101245880127
1777560079192692000,5.36669189453125,-3.407379388809204,-7.657032489776611,-0.48574298620224
1777560079211222000,5.385221923828125,-2.7565317153930664,-6.259624004364014,1.0097711086273193
1777560079229752300,5.40375244140625,-2.5196423530578613,-5.106283664703369,1.3088740110397339
1777560079248282400,5.422282470703125,-1.454836130142212,-4.232903480529785,1.9357935190200806
1777560079266812400,5.4408125,-0.5312066078186035,-3.4791641235351562,2.337787628173828
1777560079285342500,5.459342529296875,-0.16510476171970367,-2.6799614429473877,2.321038007736206
1777560079303872500,5.47787255859375,1.2203395366668701,-2.7014968395233154,1.7491533756256104
1777560079322402600,5.496402587890625,1.643869161605835,-2.706282377243042,1.6462619304656982
1777560079340932600,5.5149326171875,3.1752755641937256,-2.943171739578247,1.6965112686157227
1777560079359463000,5.533462890625,6.795616149902344,-4.381258487701416,2.833101987838745
1777560079377992700,5.55199267578125,11.308480262756348,-7.848458290100098,6.168696880340576
1777560079396523000,5.57052294921875,16.106088638305664,-16.75454330444336,8.219346046447754
1777560079415053000,5.589052978515625,12.76331615447998,-32.74099349975586,-1.892722725868225
1777560079433583000,5.6075830078125,6.005984783172607,-24.717857360839844,-6.589833736419678
1777560079452113200,5.626113037109375,4.845465660095215,-9.181260108947754,-0.7704889178276062
1777560079470643200,5.644643310546875,4.656432628631592,-1.5672988891601562,1.8233308792114258
1777560079489173200,5.66317333984375,2.8115665912628174,2.706282377243042,4.362115859985352
1777560079507703600,5.68170361328125,5.194818019866943,0.6125625967979431,4.759324073791504
1777560079526233600,5.700233642578125,5.221138954162598,-9.265008926391602,3.7495529651641846
1777560079544763600,5.718763671875,4.95074987411499,-19.180866241455078,5.008177757263184
1777560079563293700,5.737293701171875,-6.441478729248047,-20.429920196533203,-0.7345965504646301
1777560079581823700,5.75582373046875,-8.422736167907715,-11.236695289611816,2.5531418323516846
1777560079600353800,5.774353759765625,-0.1986042857170105,-6.39601469039917,4.88853645324707
1777560079618883800,5.7928837890625,1.3950155973434448,-4.089334011077881,2.2325034141540527
1777560079637414100,5.8114140625,-2.589034080505371,-3.507878065109253,0.17706887423992157
1777560079655944200,5.829944091796875,-7.4225358963012695,-5.108676433563232,0.8685946464538574
1777560079674474200,5.84847412109375,-6.809973239898682,-11.772686958312988,1.3950155973434448
1777560079693004300,5.86700439453125,-3.6873397827148438,-21.494726181030273,-1.856830358505249
1777560079711534300,5.885534423828125,0.11246266216039658,-20.059032440185547,-6.831508636474609
1777560079730064400,5.904064453125,4.59421968460083,-12.160325050354004,-5.740381717681885
1777560079748594400,5.922594482421875,4.709074974060059,-7.968099594116211,-4.022335052490234
1777560079767124700,5.941124755859375,-0.02632104977965355,-5.343173027038574,-0.7202396392822266
1777560079785654800,5.95965478515625,-3.2709884643554688,-4.012763500213623,2.1511476039886475
1777560079804184800,5.978184814453125,-2.1918256282806396,-5.132604598999023,1.9070796966552734
1777560079822715000,5.99671484375,0.12681959569454193,-7.769495010375977,1.2634103298187256
1777560079841245000,6.015244873046875,2.400001049041748,-10.77248764038086,-1.246660590171814
1777560079859775200,6.033775146484375,3.0077781677246094,-10.676774978637695,-3.0029923915863037
1777560079878305300,6.05230517578125,1.435693621635437,-9.075976371765137,-3.656233072280884
1777560079896835300,6.07083544921875,-0.4450650215148926,-7.999206066131592,-2.9359934329986572
1777560079915365400,6.089365478515625,-2.2444677352905273,-7.939385414123535,-1.428515076637268
1777560079933895400,6.1078955078125,-0.9858429431915283,-8.571090698242188,-0.7058826684951782
1777560079952425500,6.126425537109375,0.4498506486415863,-9.760323524475098,-0.7848458290100098
1777560079970955500,6.14495556640625,1.2849457263946533,-11.401800155639648,-1.4165509939193726
1777560079989485800,6.16348583984375,0.6364908218383789,-12.04786205291748,-1.495514154434204
1777560080008016000,6.182015869140625,-1.7587246894836426,-10.755738258361816,-1.3256237506866455
1777560080026546000,6.2005458984375,-2.7900311946868896,-9.336793899536133,-1.3591232299804688
1777560080045076000,6.219075927734375,-1.1700903177261353,-9.745966911315918,-1.3830515146255493
1777560080063606000,6.23760595703125,0.09092725813388824,-11.454442024230957,-0.9499505758285522
1777560080082136000,6.256135986328125,1.3088740110397339,-13.277772903442383,-1.0217353105545044
1777560080100666400,6.274666259765625,1.0097711086273193,-13.875978469848633,-2.108076810836792
1777560080119196400,6.293196533203125,0.9092726111412048,-13.201202392578125,-2.7804598808288574
1777560080137726500,6.3117265625,0.9762716293334961,-12.30389404296875,-3.5270206928253174
1777560080156256500,6.330256591796875,0.22971096634864807,-12.818350791931152,-4.42193603515625
1777560080174786600,6.34878662109375,0.672383189201355,-13.198809623718262,-4.340580463409424
1777560080193316600,6.367316650390625,0.19621145725250244,-12.126825332641602,-3.594019651412964
1777560080211846700,6.3858466796875,2.352144718170166,-10.526026725769043,-1.4644074440002441
1777560080230377000,6.404376953125,0.30149564146995544,-9.080761909484863,0.3852444589138031
1777560080248907000,6.422906982421875,-1.9022940397262573,-10.14317512512207,2.053041934967041
1777560080267437000,6.44143701171875,-3.0101709365844727,-12.624532699584961,3.5676984786987305
1777560080285967000,6.459967041015625,-1.2299108505249023,-14.995819091796875,4.264009952545166
1777560080304497400,6.478497314453125,1.5026925802230835,-13.97408390045166,2.5674986839294434
1777560080323027500,6.49702734375,2.885744094848633,-12.248859405517578,1.1509476900100708
1777560080341557500,6.5155576171875,-1.2131611108779907,-11.459227561950684,-0.4498506486415863
1777560080360087600,6.534087646484375,-2.641676187515259,-10.600204467773438,-1.7180466651916504
1777560080378617600,6.55261767578125,-0.5312066078186035,-9.820143699645996,-2.4358935356140137
1777560080397147600,6.571147705078125,-0.7824530005455017,-9.370293617248535,-2.8450660705566406
1777560080415677700,6.589677734375,-2.328216314315796,-8.738588333129883,-1.7874385118484497
1777560080434208000,6.6082080078125,-4.261617183685303,-7.240681171417236,-0.4331009089946747
1777560080452738000,6.626738037109375,-3.10109806060791,-5.927021503448486,0.8781659007072449
1777560080471268000,6.64526806640625,-1.794616937637329,-5.020142078399658,1.0432707071304321
1777560080489798100,6.663798095703125,-1.0001999139785767,-4.436293125152588,1.5290136337280273
1777560080508328400,6.682328369140625,-0.5216353535652161,-4.223331928253174,1.9812572002410889
1777560080526858500,6.7008583984375,0.5934200286865234,-3.4241292476654053,2.1822543144226074
1777560080545388500,6.719388427734375,1.0241280794143677,-3.2350962162017822,1.5696916580200195
1777560080563918600,6.737918701171875,1.9884356260299683,-3.0580272674560547,1.454836130142212
1777560080582448600,6.75644873046875,3.2374889850616455,-3.3379876613616943,1.7156537771224976
1777560080600978700,6.774978759765625,6.159125328063965,-4.632504463195801,2.493321180343628
1777560080619508700,6.7935087890625,11.578868865966797,-8.039883613586426,4.821537494659424
1777560080638039000,6.8120390625,16.70907974243164,-17.041683197021484,7.154539585113525
1777560080656569000,6.830569091796875,12.421142578125,-32.29832077026367,-1.5290136337280273
1777560080675099100,6.84909912109375,5.867201328277588,-23.373090744018555,-6.742974281311035
1777560080693629200,6.867629150390625,3.531806230545044,-9.142974853515625,-0.605384111404419
1777560080712159500,6.886159423828125,3.895515203475952,-1.1318050622940063,2.053041934967041
1777560080730689500,6.904689453125,5.72841739654541,2.885744094848633,2.9240293502807617
1777560080749219600,6.923219482421875,6.97268533706665,-2.8426733016967773,2.9694929122924805
1777560080767749600,6.94174951171875,3.266202926635742,-14.68953800201416,-0.17706887423992157
1777560080786279700,6.96027978515625,3.8213376998901367,-18.37687873840332,3.0795626640319824
1777560080804810000,6.97881005859375,-9.430113792419434,-14.029119491577148,-0.11724831163883209
1777560080823340000,6.997340087890625,-8.118846893310547,-7.999206066131592,5.955735683441162
1777560080841870000,7.0158701171875,1.7515461444854736,-5.362315654754639,8.549555778503418
1777560080860400000,7.034400146484375,1.3232308626174927,-3.524627685546875,5.723631858825684
1777560080878930400,7.052930419921875,-4.620540618896484,-3.9290146827697754,3.462414264678955
1777560080897460500,7.07146044921875,-7.393822193145752,-8.085348129272461,2.478964328765869
1777560080915990500,7.089990478515625,-6.329015731811523,-16.357336044311523,1.215553879737854
1777560080934520600,7.1085205078125,-3.297309637069702,-21.875185012817383,-5.266602516174316
1777560080953050600,7.127050537109375,1.4261223077774048,-17.03211212158203,-9.109476089477539
1777560080971581000,7.145580810546875,4.505684852600098,-10.676774978637695,-7.853243827819824
1777560080990110700,7.16411083984375,3.6155550479888916,-7.843672752380371,-4.646861553192139
1777560081008641000,7.18264111328125,-0.20578274130821228,-6.003592014312744,0.4259224236011505
1777560081027171000,7.201171142578125,-3.0891339778900146,-5.812166213989258,2.0578274726867676
1777560081045701000,7.219701171875,-2.3401806354522705,-6.786045074462891,1.7802600860595703
1777560081064231200,7.238231201171875,0.19381862878799438,-8.791230201721191,0.40677985548973083
1777560081082761500,7.256761474609375,1.5481562614440918,-10.126425743103027,-1.1102696657180786
1777560081101291500,7.27529150390625,2.4717857837677,-9.379864692687988,-1.852044701576233
1777560081119821600,7.293821533203125,0.4426721930503845,-8.11406135559082,-1.1581261157989502
1777560081138351600,7.3123515625,-2.6488547325134277,-7.192824840545654,0.21296121180057526
1777560081156881700,7.330881591796875,-3.31884503364563,-6.496513366699219,0.8039883971214294
1777560081175412000,7.349411865234375,-0.4211367964744568,-7.659425258636475,-0.2991028428077698
1777560081193942000,7.36794189453125,1.950150489807129,-9.865608215332031,-2.218146562576294
1777560081212472000,7.38647216796875,1.3304094076156616,-11.94736385345459,-3.4025938510894775
1777560081231002000,7.405002197265625,-0.20578274130821228,-13.088739395141602,-3.6394832134246826
1777560081249532400,7.423532470703125,-0.8231309652328491,-12.595818519592285,-3.5676984786987305
1777560081268062500,7.4420625,-0.13639089465141296,-11.236695289611816,-2.6703901290893555
1777560081286592500,7.460592529296875,0.19142581522464752,-10.552348136901855,-1.435693621635437
1777560081305122600,7.47912255859375,-0.4977070987224579,-11.411371231079102,-0.6795616149902344
1777560081323652600,7.497652587890625,0.18903298676013947,-13.34716510772705,-0.6508477330207825
1777560081342183000,7.516182861328125,3.046063184738159,-14.373685836791992,-1.9692929983139038
1777560081360713000,7.534712890625,3.146561861038208,-12.859028816223145,-2.8354947566986084
1777560081379243000,7.553242919921875,1.4763715267181396,-11.767901420593262,-3.328416347503662
1777560081397773000,7.57177294921875,0.07657032459974289,-11.866007804870605,-3.7902309894561768
1777560081416303400,7.590303466796875,0.36610186100006104,-11.344371795654297,-4.364508628845215
1777560081434833400,7.60883349609375,0.5838487148284912,-10.693524360656738,-3.3164522647857666
1777560081453363500,7.627363525390625,-1.852044701576233,-10.126425743103027,-0.7345965504646301
1777560081471893500,7.6458935546875,-2.550748825073242,-12.378071784973145,1.8592232465744019
1777560081490423600,7.664423583984375,-1.923829436302185,-15.361921310424805,4.780859470367432
1777560081508953900,7.682953857421875,0.5000999569892883,-16.326229095458984,4.048655986785889
1777560081527484000,7.70148388671875,2.3306093215942383,-14.447863578796387,1.1389836072921753
1777560081546014000,7.720013916015625,1.5026925802230835,-11.660224914550781,0.33738797903060913
1777560081564544000,7.7385439453125,-3.617947816848755,-10.114460945129395,-1.215553879737854
1777560081583074000,7.757073974609375,-2.2301106452941895,-9.504291534423828,-2.0195422172546387
1777560081601604400,7.775604248046875,0.32542386651039124,-9.183652877807617,-2.4741785526275635
1777560081620134400,7.794134521484375,-1.1653046607971191,-9.169296264648438,-2.562713146209717
1777560081638664400,7.81266455078125,-3.359523057937622,-8.681160926818848,-1.0193424224853516
1777560081657194500,7.831194580078125,-3.1561331748962402,-7.109076023101807,0.7082754969596863
1777560081675724800,7.849724853515625,-3.1274192333221436,-5.678168296813965,1.2873386144638062
1777560081694254800,7.8682548828125,-2.801995277404785,-4.488935470581055,1.5026925802230835
1777560081712785000,7.886784912109375,-1.4189438819885254,-3.964907169342041,1.8687944412231445
1777560081731315000,7.90531494140625,0.15553347766399384,-3.014956474304199,2.117648124694824
1777560081749845000,7.923844970703125,0.9451649188995361,-2.5292134284973145,1.7826528549194336
1777560081768375300,7.942375244140625,1.892722725868225,-2.6871397495269775,1.5936198234558105
1777560081786905300,7.9609052734375,2.691925525665283,-2.8666014671325684,1.612762451171875
1777560081805435400,7.979435302734375,4.907679080963135,-3.8835511207580566,1.7826528549194336
1777560081823965400,7.99796533203125,9.169296264648438,-6.041877269744873,3.1752755641937256
1777560081842495700,8.016495849609376,11.746366500854492,-10.497312545776367,7.015756130218506
1777560081861025800,8.03502587890625,16.323835372924805,-23.097917556762695,5.936593055725098
1777560081879555800,8.053555908203125,9.779465675354004,-32.82713317871094,-4.778466701507568
1777560081898086000,8.0720859375,6.199803352355957,-17.87677764892578,-4.6372904777526855
1777560081916616000,8.090615966796875,3.9122650623321533,-4.575077056884766,0.038285162299871445
1777560081944411100,8.1184111328125,4.455435752868652,4.737788677215576,0.9427721500396729
1777560081962941200,8.136941162109375,6.350551128387451,0.7680960893630981,1.2323036193847656
1777560081981471500,8.155471435546875,6.3529438972473145,-10.803594589233398,1.2203395366668701
1777560082000001500,8.17400146484375,4.144368648529053,-21.87997055053711,9.286544799804688
1777560082018531600,8.192531494140624,-12.253644943237305,-22.834707260131836,0.2871387302875519
1777560082037061600,8.2110615234375,-10.846665382385254,-10.415956497192383,2.967100143432617
1777560082055591700,8.229591796875,0.1698904037475586,-4.335794448852539,5.795416355133057
1777560082074122000,8.2481220703125,2.60339093208313,-0.5000999569892883,5.245067119598389
1777560082092652000,8.266652099609376,-1.9262222051620483,-0.14117653667926788,4.689932346343994
1777560082111182000,8.28518212890625,-7.384250640869141,-5.522634506225586,3.105883836746216
1777560082129712000,8.303712158203124,-8.169096946716309,-16.223337173461914,1.9645073413848877
1777560082148242200,8.3222421875,-4.809573650360107,-25.301706314086914,-5.240281581878662
1777560082166772500,8.3407724609375,2.768495798110962,-18.27159309387207,-10.1216402053833
1777560082185302500,8.359302490234375,6.786045074462891,-11.047661781311035,-9.504291534423828
1777560082203832600,8.37783251953125,1.4739787578582764,-6.812366008758545,-4.232903480529785
1777560082222362600,8.396362548828124,-3.900300979614258,-4.457828521728516,1.5314065217971802
1777560082240893000,8.414892822265625,-1.9836499691009521,-4.376472473144531,3.8572301864624023
1777560082259423000,8.433423095703125,-0.5718846321105957,-5.412564754486084,4.730610370635986
1777560082277953000,8.451953125,1.6295121908187866,-8.635697364807129,2.447857618331909
1777560082296483000,8.470483154296875,1.4763715267181396,-10.542776107788086,-1.2203395366668701
1777560082315013000,8.48901318359375,0.6149554252624512,-9.78664493560791,-3.0340991020202637
1777560082333543400,8.50754345703125,-0.41156548261642456,-8.336593627929688,-2.9479575157165527
1777560082352073500,8.526073486328125,-2.0817556381225586,-7.336394309997559,-0.851844847202301
1777560082370603500,8.544603515625,-0.5718846321105957,-8.34138011932373,0.08853443711996078
1777560082389133600,8.563133544921875,1.2873386144638062,-9.870393753051758,-0.6293123364448547
1777560082407663900,8.581663818359376,0.9427721500396729,-11.741580963134766,-2.359323024749756
1777560082426194000,8.60019384765625,-0.6915257573127747,-12.602996826171875,-3.6681971549987793
1777560082444724000,8.618723876953124,-1.526620864868164,-11.20080280303955,-3.617947816848755
1777560082463254000,8.63725390625,-0.4713860750198364,-10.112068176269531,-2.8833513259887695
1777560082481784000,8.6557841796875,0.5575276613235474,-10.61695384979248,-2.258824586868286
1777560082500314400,8.674314453125,0.5312066078186035,-11.92343521118164,-1.2275179624557495
1777560082518844400,8.692844482421876,0.37088751792907715,-13.469198226928711,-1.1748759746551514
1777560082537374500,8.71137451171875,1.9142581224441528,-13.868800163269043,-1.789831280708313
1777560082555904500,8.729904541015625,1.7467604875564575,-13.167702674865723,-2.579462766647339
1777560082574434800,8.748434814453125,0.8901300430297852,-13.543375968933105,-3.6849467754364014
1777560082592964900,8.76696484375,0.09571290761232376,-14.254044532775879,-4.503292083740234
1777560082611495000,8.785494873046876,-1.0863415002822876,-13.335200309753418,-3.809373617172241
1777560082630025000,8.80402490234375,1.4883357286453247,-11.002198219299316,-0.7417750358581543
1777560082648555000,8.822554931640624,-1.1485549211502075,-9.068798065185547,1.5433706045150757
1777560082667085300,8.841085205078125,-3.438486099243164,-10.475777626037598,2.9718856811523438
1777560082685615400,8.859615478515625,-2.524427890777588,-13.318450927734375,4.35254430770874
1777560082704145400,8.8781455078125,0.062213387340307236,-14.888142585754395,4.019941806793213
1777560082722675500,8.896675537109376,2.4526431560516357,-14.20140266418457,0.8590233325958252
1777560082741205800,8.915205810546874,1.7587246894836426,-12.244073867797852,-0.04546362906694412
1777560082759735800,8.93373583984375,-0.9236295223236084,-11.270195007324219,-1.466800332069397
1777560082778265900,8.952265869140625,-2.864208698272705,-11.152946472167969,-2.297109842300415
1777560082796796000,8.9707958984375,-2.4119651317596436,-9.93978500366211,-2.6967110633850098
1777560082815326000,8.989325927734376,-2.3617160320281982,-8.994620323181152,-2.744567632675171
1777560082833856300,9.007856201171874,-2.445464849472046,-8.417949676513672,-1.5625132322311401
1777560082852386300,9.02638623046875,-3.7543387413024902,-7.073183536529541,0.1579262912273407
1777560082870916400,9.044916259765625,-3.345165967941284,-5.458028316497803,1.5290136337280273
1777560082889446400,9.0634462890625,-2.478964328765869,-4.292723655700684,1.97407865524292
1777560082907976400,9.0819765625,-1.2729816436767578,-3.9194436073303223,2.282752752304077
1777560082926506800,9.1005068359375,-0.031106693670153618,-2.895315408706665,2.9862427711486816
1777560082945036800,9.119036865234374,0.035892341285943985,-2.6081767082214355,2.4670002460479736
1777560082963566800,9.13756689453125,1.2083754539489746,-2.8139593601226807,2.0961127281188965
1777560082982097000,9.156096923828125,2.2995026111602783,-2.620140790939331,2.012363910675049
1777560083000627200,9.174627197265625,4.680361270904541,-3.3714871406555176,2.3018953800201416
1777560083019157200,9.1931572265625,9.533005714416504,-5.429314613342285,4.486542224884033
1777560083037687300,9.211687255859376,11.894721031188965,-10.473384857177734,9.044869422912598
1777560083056217300,9.23021728515625,20.18585205078125,-27.845277786254883,4.692325115203857
1777560083074747400,9.248747314453125,6.570691108703613,-32.583065032958984,-4.967499732971191
1777560083093277700,9.267277587890625,5.493920803070068,-14.541183471679688,-2.5220351219177246
1777560083111807700,9.285807861328125,5.733202934265137,-3.6777684688568115,1.1341979503631592
1777560083130337800,9.304337890625,4.689932346343994,1.8065811395645142,2.667997360229492
1777560083148867800,9.322867919921874,7.216753005981445,1.4859428405761719,4.074976921081543
1777560083167398100,9.341398193359375,3.328416347503662,-8.740981101989746,1.9908283948898315
1777560083185928200,9.35992822265625,2.7900311946868896,-16.19940948486328,4.153940200805664
1777560083204458200,9.378458251953125,-4.828716278076172,-17.35274887084961,-0.7369893789291382
1777560083222988300,9.39698828125,-11.219944953918457,-10.942378044128418,4.12761926651001
1777560083241518300,9.415518310546876,-1.31365966796875,-8.061419486999512,6.3529438972473145
1777560083260048600,9.434048583984374,1.1078768968582153,-5.67338228225708,4.398007869720459
1777560083278578700,9.45257861328125,-2.122433662414551,-3.7567315101623535,1.1748759746551514
1777560083297108700,9.471108642578125,-5.769095420837402,-5.2737812995910645,1.1174482107162476
1777560083315638800,9.489638671875,-5.79780912399292,-11.925827980041504,1.3471591472625732
1777560083334169000,9.508169189453126,-3.7160534858703613,-22.22932243347168,-2.03629207611084
1777560083352699000,9.526698974609374,-1.6941183805465698,-18.381664276123047,-6.5180487632751465
1777560083371229200,9.545229248046875,3.345165967941284,-11.971291542053223,-6.3529438972473145
1777560083389759200,9.56375927734375,3.85483717918396,-8.023134231567383,-4.807180881500244
1777560083408289300,9.582289306640625,-0.641276478767395,-5.632704734802246,-1.2729816436767578
1777560083426819600,9.600819580078126,-2.469393014907837,-5.056034088134766,0.6340979933738708
1777560083445349600,9.619349609375,-1.8592232465744019,-6.010770320892334,0.7752745151519775
1777560083463879700,9.637879638671874,-0.04546362906694412,-8.470592498779297,0.12681959569454193
1777560083482409700,9.65640966796875,1.4811571836471558,-11.12901782989502,-1.0767701864242554
1777560083500939800,9.674939697265625,2.6321048736572266,-11.25344467163086,-2.0315065383911133
1777560083519470000,9.693469970703125,2.4191436767578125,-9.468399047851562,-1.2346965074539185
1777560083538000100,9.712000244140626,-0.23688943684101105,-7.690532207489014,-0.08374879509210587
1777560083556530200,9.7305302734375,-3.7471601963043213,-6.551548480987549,0.9571290612220764
1777560083575060200,9.749060302734375,-2.9048867225646973,-6.460621356964111,0.17228323221206665
1777560083593590300,9.76759033203125,0.4259224236011505,-8.197810173034668,-1.8137595653533936
1777560083612120300,9.786120361328125,1.8161523342132568,-10.408778190612793,-3.500699520111084
1777560083630650600,9.804650634765625,0.4043870270252228,-11.825329780578613,-3.9672999382019043
1777560083649180700,9.8231806640625,-1.0265209674835205,-11.796615600585938,-3.0867412090301514
1777560083667710700,9.841710693359374,-1.00259268283844,-11.3778715133667,-2.6249263286590576
1777560083686240800,9.86024072265625,-0.6867401003837585,-10.528419494628906,-2.455035924911499
1777560083704771000,9.87877099609375,-0.20817556977272034,-10.53799057006836,-1.9381862878799438
1777560083723301000,9.897301025390625,0.32542386651039124,-11.248659133911133,-0.8183453679084778
1777560083741831200,9.9158310546875,0.4570291340351105,-12.844672203063965,-0.31345975399017334
1777560083760361200,9.934361328125,0.6795616149902344,-14.036297798156738,-1.5625132322311401
1777560083778891300,9.952891357421874,1.1389836072921753,-13.459627151489258,-3.31884503364563
1777560083797421600,9.971421630859375,0.4163511395454407,-13.677373886108398,-4.780859470367432
1777560083815951600,9.98995166015625,0.06699903309345245,-14.242080688476562,-5.194818019866943
1777560083834481700,10.008481689453125,0.4043870270252228,-12.983455657958984,-4.252045631408691
1777560083853011700,10.02701171875,1.526620864868164,-10.322636604309082,-1.1341979503631592
1777560083871541800,10.045541748046874,-1.2370892763137817,-9.494720458984375,1.129412293434143
1777560083890072000,10.064072021484375,-2.5531418323516846,-10.949556350708008,3.2709884643554688
1777560083908602000,10.08260205078125,-2.830709218978882,-13.323236465454102,4.591826438903809
1777560083927132200,10.101132080078125,-1.1054840087890625,-14.112868309020996,4.7234320640563965
1777560083945662200,10.119662109375,1.1868400573730469,-12.452248573303223,2.1032910346984863
1777560083964192500,10.138192626953124,1.3615161180496216,-10.992627143859863,0.6795616149902344
1777560083982722600,10.15672265625,-1.196411371231079,-11.169695854187012,-0.8733802437782288
1777560084001252600,10.175252685546875,-1.6055840253829956,-11.33958625793457,-1.4835500717163086
1777560084019782700,10.19378271484375,-0.20099709928035736,-10.932806968688965,-1.4811571836471558
1777560084038312700,10.212312744140625,-1.129412293434143,-10.301101684570312,-1.674975872039795
1777560084056842800,10.2308427734375,-3.981656789779663,-10.238887786865234,-1.1030912399291992
1777560084075372800,10.249372802734374,-3.2518460750579834,-8.930013656616211,0.4139583110809326
1777560084093903000,10.267903076171875,-2.988635540008545,-6.98704195022583,1.4620146751403809
1777560084112433200,10.28643310546875,-2.9766714572906494,-4.541577339172363,1.947757601737976
1777560084130963200,10.304963134765625,-1.4500504732131958,-3.0795626640319824,1.698904037475586
1777560084149493200,10.3234931640625,-0.8446664214134216,-2.3401806354522705,1.6534404754638672
1777560084168023600,10.3420234375,-0.5383850932121277,-2.1894326210021973,1.4835500717163086
1777560084186553600,10.3605537109375,0.7322037220001221,-2.2755744457244873,1.4620146751403809
1777560084205083600,10.379083740234375,2.352144718170166,-2.2061824798583984,1.275374412536621
1777560084223613700,10.39761376953125,4.395615100860596,-2.6608188152313232,1.4428720474243164
1777560084242143700,10.416143798828125,10.258030891418457,-4.4482574462890625,3.218346357345581
1777560084260674000,10.434674072265626,14.868999481201172,-9.090332984924316,6.721438884735107
1777560084279204000,10.4532041015625,19.372291564941406,-21.506689071655273,4.7952165603637695
1777560084297734100,10.471734130859375,6.8004021644592285,-31.551759719848633,-4.335794448852539
1777560084316264200,10.49026416015625,6.063412666320801,-18.587446212768555,-3.5365917682647705
1777560084334794500,10.50879443359375,4.890929698944092,-6.333801746368408,2.421536445617676
1777560084353324300,10.52732421875,5.465207099914551,-0.5790630578994751,4.295116424560547
1777560084371854600,10.5458544921875,5.484349727630615,1.179661512374878,6.474977970123291
1777560084390384600,10.564384521484374,5.44845724105835,-6.034698486328125,6.812366008758545
1777560084408914700,10.582914794921875,1.4524433612823486,-14.120046615600586,4.639683246612549
1777560084427444700,10.60144482421875,1.3280165195465088,-15.550954818725586,3.34995174407959
1777560084445974800,10.619974853515625,-8.214560508728027,-11.20798110961914,0.4307080805301666
1777560084464505000,10.638505126953126,-2.4263222217559814,-6.798008918762207,5.383851051330566
1777560084483035100,10.65703515625,0.8877372145652771,-5.749952793121338,3.4169507026672363
1777560084501565200,10.675565185546875,-1.94297194480896,-5.402993679046631,-0.11246266216039658
1777560084520095200,10.69409521484375,-6.7621169090271,-7.396214962005615,-1.1653046607971191
1777560084538625500,10.71262548828125,-4.960321426391602,-10.375279426574707,0.3852444589138031
1777560084557155600,10.731155517578125,-2.6081767082214355,-16.65404510498047,-0.5048855543136597
1777560084575685600,10.749685546875,-1.9142581224441528,-20.84148597717285,-5.2977094650268555
1777560084594215700,10.768215576171874,0.5575276613235474,-14.139188766479492,-6.364908218383789
1777560084612745700,10.786745849609375,3.019742250442505,-9.276973724365234,-3.924229145050049
1777560084631275800,10.80527587890625,2.2995026111602783,-7.10429048538208,-0.849452018737793
1777560084649805800,10.823805908203125,-0.6293123364448547,-6.041877269744873,1.7204394340515137
1777560084668336000,10.842336181640626,-1.5672988891601562,-6.096911907196045,2.196611166000366
1777560084686866200,10.8608662109375,-0.6221339106559753,-7.479963779449463,1.0480563640594482
1777560084705396200,10.879396240234374,0.24646073579788208,-9.238688468933105,-0.6652047038078308
1777560084723926300,10.89792626953125,1.5361921787261963,-9.456435203552246,-2.0099709033966064
1777560084742456600,10.91645654296875,2.0243279933929443,-8.695517539978027,-2.56510591506958
1777560084760986600,10.934986572265625,-0.9379864931106567,-7.152146816253662,-1.576870083808899
1777560084779516700,10.9535166015625,-3.414557933807373,-6.38165807723999,0.12681959569454193
1777560084798046700,10.972046630859374,-3.0388846397399902,-6.872186660766602,0.8279166221618652
1777560084816576800,10.99057666015625,1.1724830865859985,-8.173882484436035,-0.3756731450557709
1777560084835106800,11.00910693359375,2.053041934967041,-10.159924507141113,-2.4358935356140137
1777560084853636900,11.027636962890625,-0.14356936514377594,-12.019147872924805,-3.431307554244995
1777560084872167200,11.046167236328126,-1.2323036193847656,-12.930813789367676,-3.0340991020202637
1777560084890697200,11.064697265625,-0.9786644577980042,-11.973684310913086,-1.1868400573730469
1777560084909227300,11.083227294921874,-0.882951557636261,-10.846665382385254,-0.6556333899497986
1777560084927757300,11.10175732421875,-1.2442678213119507,-10.853843688964844,-1.8640087842941284
1777560084946287400,11.120287353515625,-0.7322037220001221,-12.557533264160156,-2.0985054969787598
1777560084964817700,11.138817626953125,2.926422119140625,-13.552947044372559,-0.5886343717575073
1777560084983347700,11.15734765625,4.4482574462890625,-13.265809059143066,-0.5790630578994751
1777560085001877800,11.175877685546874,1.4787644147872925,-12.990633964538574,-2.715853691101074
1777560085020407800,11.19440771484375,-0.009571290574967861,-13.105489730834961,-4.852644443511963
1777560085038937900,11.212937744140625,-0.9355936646461487,-13.694124221801758,-5.419743061065674
1777560085057468000,11.231468017578125,-1.3208380937576294,-12.629318237304688,-4.721039295196533
1777560085075998200,11.249998291015626,0.9882357716560364,-10.590633392333984,-1.765903115272522
1777560085094528300,11.2685283203125,-0.3924229145050049,-8.434700012207031,1.6917256116867065
1777560085113058300,11.287058349609374,-2.1918256282806396,-9.958928108215332,3.2135608196258545
1777560085131588400,11.30558837890625,-2.1415762901306152,-12.775279998779297,4.319045066833496
1777560085150118700,11.32411865234375,-0.42352959513664246,-15.249458312988281,4.914857864379883
1777560085168648700,11.342648681640625,2.0003998279571533,-15.649060249328613,1.947757601737976
1777560085187178800,11.3611787109375,2.495713949203491,-14.129617691040039,-0.34695929288864136
1777560085205708800,11.379708740234374,-2.9383862018585205,-12.17228889465332,-1.7802600860595703
1777560085224238800,11.39823876953125,-3.407379388809204,-10.547562599182129,-2.344966173171997
1777560085242769000,11.416768798828125,-0.23210379481315613,-9.638289451599121,-2.871387243270874
1777560085261299000,11.435298828125,-1.074377417564392,-8.925228118896484,-3.1561331748962402
1777560085279829200,11.453829345703125,-3.4480574131011963,-8.367700576782227,-2.3186452388763428
1777560085298359300,11.472359375,-3.603590965270996,-7.386643409729004,-0.32542386651039124
1777560085316889300,11.490889404296874,-3.2829527854919434,-6.441478729248047,1.1150553226470947
1777560085335419400,11.50941943359375,-2.3306093215942383,-5.737988471984863,1.8711873292922974
1777560085353949700,11.52794970703125,-1.552941918373108,-5.3694939613342285,2.249253273010254
1777560085372479700,11.546479736328125,-1.0456634759902954,-4.383651256561279,2.761317253112793
1777560085391009800,11.565009765625,-0.2679961323738098,-3.806980848312378,2.5746772289276123
1777560085409539800,11.583539794921874,0.4570291340351105,-3.2542388439178467,2.586641311645508
1777560085428070000,11.60206982421875,1.0169496536254883,-3.091526746749878,2.4023938179016113
1777560085446600000,11.620599853515625,2.8809585571289062,-3.5341989994049072,1.8089739084243774
1777560085465130000,11.6391298828125,5.570491313934326,-3.8883368968963623,2.5770699977874756
1777560085483660300,11.657660400390625,10.762916564941406,-5.711667537689209,5.5345988273620605
1777560085502190300,11.6761904296875,13.588839530944824,-10.963912963867188,9.255437850952148
1777560085520720400,11.694720458984374,16.426727294921875,-26.560331344604492,1.6271194219589233
1777560085539250400,11.71325048828125,7.082755088806152,-29.211578369140625,-5.489135265350342
1777560085557780700,11.73178076171875,5.907878875732422,-14.878571510314941,-2.682354211807251
1777560085576310500,11.750310546875,4.855037212371826,-4.852644443511963,0.6628118753433228
1777560085594840800,11.7688408203125,5.431707382202148,-0.7202396392822266,1.4189438819885254
1777560085613371000,11.787370849609376,5.551348686218262,-1.9932212829589844,3.4480574131011963
1777560085631901000,11.80590087890625,2.012363910675049,-8.688339233398438,2.3497519493103027
1777560085650431000,11.824430908203125,2.1918256282806396,-12.610175132751465,4.438685894012451
1777560085668961300,11.842961181640625,-11.983255386352539,-12.315857887268066,2.526820659637451
1777560085687491300,11.8614912109375,-7.51585578918457,-10.13599681854248,6.597012042999268
1777560085706021400,11.880021484375,0.5862415432929993,-8.281558990478516,6.185446739196777
1777560085724551400,11.898551513671874,0.4713860750198364,-5.615954875946045,3.85483717918396
1777560085743081500,11.91708154296875,-4.240081787109375,-5.85284423828125,1.1174482107162476
1777560085761611800,11.93561181640625,-5.352744102478027,-9.475577354431152,0.6149554252624512
1777560085780141600,11.9541416015625,-4.098905086517334,-16.7736873626709,-1.0265209674835205
1777560085798672000,11.972671875,-1.0121639966964722,-19.57089614868164,-5.864808082580566
1777560085817202000,11.991201904296876,1.789831280708313,-14.742179870605469,-8.477770805358887
1777560085835732000,12.00973193359375,3.4169507026672363,-9.731609344482422,-6.38165807723999
1777560085854262000,12.028261962890625,1.098305583000183,-7.018148899078369,-2.9216363430023193
1777560085872792300,12.046792236328125,-2.581855535507202,-5.2043890953063965,1.0408778190612793
1777560085891322000,12.065322021484375,-1.2562319040298462,-5.639883041381836,3.029313564300537
1777560085909852400,12.083852294921876,0.6675975322723389,-6.69990348815918,3.0723843574523926
1777560085928382500,12.102382568359374,1.0671988725662231,-8.391629219055176,1.3184453248977661
1777560085946912500,12.12091259765625,0.06939185410737991,-9.284152030944824,-1.2969099283218384
1777560085965442800,12.13944287109375,-0.7513462901115417,-9.07119083404541,-2.7517459392547607
1777560085983972600,12.15797265625,-2.2779672145843506,-8.078168869018555,-2.0243279933929443
1777560086002503000,12.1765029296875,-2.7014968395233154,-7.250252723693848,-0.040677983313798904
1777560086021033000,12.195032958984376,-0.32303106784820557,-8.054241180419922,0.24406790733337402
1777560086039563000,12.21356298828125,1.7611174583435059,-9.805787086486816,-1.0097711086273193
1777560086058093000,12.232093017578125,1.892722725868225,-12.095718383789062,-2.53399920463562
1777560086076623000,12.250623046875,0.9475577473640442,-12.564711570739746,-2.68953275680542
1777560086095153400,12.2691533203125,-1.2179467678070068,-11.607583045959473,-1.820937991142273
1777560086113683500,12.287683349609376,-2.2229323387145996,-10.987841606140137,-1.7874385118484497
1777560086132213500,12.306213623046874,0.2632105052471161,-10.37767219543457,-2.1678972244262695
1777560086150743600,12.32474365234375,1.8424733877182007,-10.619346618652344,-2.3306093215942383
1777560086169273900,12.34327392578125,1.3663017749786377,-11.899506568908691,-2.297109842300415
1777560086187803600,12.3618037109375,0.3900300860404968,-12.662817001342773,-2.0673987865448
1777560086206334000,12.380333984375,-0.7010970115661621,-13.205987930297852,-2.7828526496887207
1777560086224864000,12.398864013671876,-0.2991028428077698,-13.844871520996094,-3.7950167655944824
1777560086243394000,12.41739404296875,0.062213387340307236,-15.03171157836914,-4.261617183685303
1777560086261924000,12.435924072265625,-0.5335994362831116,-14.378471374511719,-3.6083765029907227
1777560086280454400,12.454454345703125,0.6963114142417908,-12.31107234954834,-1.8400806188583374
1777560086298984400,12.472984375,1.770688772201538,-9.810572624206543,0.3038884699344635
1777560086317514500,12.491514404296876,-1.7371892929077148,-9.956535339355469,1.7778671979904175
1777560086336044500,12.51004443359375,-3.208775281906128,-12.373286247253418,2.9766714572906494
1777560086354574600,12.52857470703125,-2.6081767082214355,-14.435898780822754,4.5822553634643555
1777560086373105000,12.54710498046875,-0.19381862878799438,-14.23011589050293,3.4576287269592285
1777560086391635000,12.565635009765625,2.0721843242645264,-12.512069702148438,1.5337992906570435
1777560086410165000,12.5841650390625,-1.2418749332427979,-11.416156768798828,-0.06699903309345245
1777560086428695000,12.602695068359376,-2.63449764251709,-10.923234939575195,-1.25144624710083
1777560086447225300,12.621225341796874,0.8111668825149536,-10.284351348876953,-1.648654818534851
1777560086465755100,12.639755126953125,0.31106695532798767,-10.320243835449219,-2.376072883605957
1777560086484285400,12.658285400390625,-2.9790642261505127,-10.341779708862305,-2.8666014671325684
1777560086502815500,12.6768154296875,-3.981656789779663,-8.803194046020508,-0.9595218896865845
1777560086521345500,12.695345458984375,-3.328416347503662,-6.2668023109436035,0.763310432434082
1777560086539875600,12.71387548828125,-3.0269205570220947,-4.242474555969238,1.667797327041626
1777560086558405600,12.732405517578124,-2.3952155113220215,-2.9001009464263916,2.297109842300415
1777560086576936000,12.75093603515625,-0.5216353535652161,-2.7182464599609375,2.3808584213256836
1777560086595466000,12.769466064453125,0.43549370765686035,-2.4430718421936035,1.794616937637329
1777560086613996000,12.78799609375,1.0241280794143677,-2.4574289321899414,1.5074782371520996
1777560086632526000,12.806526123046876,2.495713949203491,-3.153740167617798,1.5050854682922363
1777560086651056400,12.825056396484374,2.8498518466949463,-3.680161237716675,1.7228323221206665
1777560086669586400,12.84358642578125,4.922036170959473,-4.3070807456970215,2.366501569747925
1777560086688116500,12.862116455078125,8.422736167907715,-5.838487148284912,3.9290146827697754
1777560086706646500,12.880646484375,11.284551620483398,-10.12881851196289,6.130411624908447
1777560086725176600,12.899176513671875,18.233308792114258,-22.77967071533203,2.864208698272705
1777560086743707000,12.917706787109376,8.745766639709473,-33.45644760131836,-6.604190349578857
1777560086762237000,12.93623681640625,7.35314416885376,-17.75952911376953,-4.1036906242370605
1777560086780767000,12.95476708984375,5.539384365081787,-4.800002098083496,1.3591232299804688
1777560086799297000,12.973297119140625,3.8883368968963623,1.275374412536621,2.045863389968872
1777560086817827000,12.9918271484375,4.886143684387207,3.014956474304199,4.216153621673584
1777560086836357400,13.010357421875,6.161518096923828,-6.089733600616455,3.6155550479888916
1777560086854887400,13.028887451171874,3.6059837341308594,-16.36212158203125,3.596412420272827
1777560086873417500,13.04741748046875,-3.541377544403076,-19.67378807067871,0.8470591902732849
1777560086891947500,13.065947509765625,-14.577075958251953,-12.672389030456543,2.9599215984344482
1777560086910477800,13.084477783203125,-3.184846878051758,-7.654639720916748,8.161917686462402
1777560086929007900,13.1030078125,0.9020941257476807,-4.2592244148254395,6.412764549255371
1777560086947538000,13.121537841796876,-0.22971096634864807,-2.7326035499572754,4.2281174659729
1777560086966068000,13.14006787109375,-5.663811206817627,-4.922036170959473,3.321237802505493
1777560086984598000,13.158597900390625,-6.666403770446777,-11.715259552001953,3.845266103744507
1777560087003128300,13.17712841796875,-6.161518096923828,-20.71466636657715,-0.2512463629245758
1777560087021658400,13.195658447265625,-2.7254250049591064,-21.020946502685547,-7.008577346801758
1777560087040188400,13.2141884765625,4.811966419219971,-14.256437301635742,-9.966106414794922
1777560087058718500,13.232718505859374,5.946164131164551,-8.556734085083008,-7.489534854888916
1777560087077248800,13.251248779296875,0.5862415432929993,-5.7164530754089355,-2.1607189178466797
1777560087095778800,13.26977880859375,-3.4121651649475098,-4.319045066833496,2.2396819591522217
1777560087114308900,13.288308837890625,-2.0865414142608643,-5.108676433563232,3.8500516414642334
1777560087132839200,13.306839111328125,0.42352959513664246,-6.589833736419678,3.9218363761901855
1777560087151369200,13.325369140625,1.5122638940811157,-9.688538551330566,0.5647061467170715
1777560087169899300,13.343899169921874,2.548356056213379,-10.41356372833252,-3.043670415878296
1777560087188429300,13.36242919921875,2.2205393314361572,-9.028120040893555,-4.113262176513672
1777560087206959400,13.38095947265625,-0.8901300430297852,-7.551748275756836,-2.6321048736572266
1777560087225489700,13.39948974609375,-3.8021950721740723,-7.41535758972168,-0.6675975322723389
1777560087244019700,13.418019775390626,-1.794616937637329,-8.6907320022583,-0.33738797903060913
1777560087262549800,13.4365498046875,1.2897313833236694,-10.425528526306152,-1.337587833404541
1777560087281079800,13.455079833984374,2.084148406982422,-11.483156204223633,-1.7012969255447388
1777560087299610000,13.473610107421875,-0.5264210104942322,-10.676774978637695,-1.5002998113632202
1777560087318140200,13.49214013671875,-3.1896326541900635,-10.085747718811035,-1.5601203441619873
1777560087336670200,13.510670166015625,-1.3663017749786377,-10.14317512512207,-1.9405791759490967
1777560087355200300,13.5292001953125,0.5838487148284912,-11.016555786132812,-1.4333007335662842
1777560087373730300,13.547730224609374,1.8759729862213135,-12.55992603302002,-1.28255295753479
1777560087392260600,13.566260498046875,1.8855443000793457,-13.502697944641113,-0.794417142868042
1777560087410790700,13.584790771484375,0.8207381963729858,-14.292329788208008,-1.3471591472625732
1777560087429321000,13.603321044921875,0.7800601720809937,-13.701302528381348,-2.8833513259887695
1777560087447851000,13.62185107421875,0.6795616149902344,-13.88794231414795,-4.618147850036621
1777560087466381000,13.640381103515624,0.22492532432079315,-14.31625747680664,-4.689932346343994
1777560087484911000,13.6589111328125,0.7752745151519775,-13.339985847473145,-3.5030922889709473
1777560087503441200,13.677441162109375,3.108276605606079,-10.731809616088867,-0.8614161610603333
1777560087521971500,13.695971435546875,0.37806597352027893,-8.48016357421875,1.28255295753479
1777560087540501500,13.71450146484375,-3.0101709365844727,-10.200602531433105,2.196611166000366
1777560087559031600,13.733031494140626,-3.211168050765991,-12.964313507080078,3.4169507026672363
1777560087577561600,13.7515615234375,-0.25363919138908386,-15.787843704223633,4.063013076782227
1777560087596092000,13.770091796875,2.9718856811523438,-15.723237991333008,1.8544375896453857
1777560087614622000,13.7886220703125,1.8616160154342651,-13.64148235321045,0.0526420995593071
1777560087633152000,13.807152099609375,-3.955335855484009,-11.93061351776123,-1.7587246894836426
1777560087651682300,13.825682373046876,-2.0673987865448,-10.066604614257812,-2.0267207622528076
1777560087670212400,13.84421240234375,0.17228323221206665,-9.274580955505371,-2.56510591506958
1777560087688742400,13.862742431640624,-1.0767701864242554,-8.903693199157715,-2.6560330390930176
1777560087707272400,13.8812724609375,-3.7567315101623535,-8.685946464538574,-1.9070796966552734
1777560087725802500,13.899802490234375,-4.084548473358154,-7.637889862060547,0.12442677468061447
1777560087744332800,13.918332763671875,-3.4241292476654053,-6.594619274139404,1.038485050201416
1777560087762862800,13.93686279296875,-2.550748825073242,-5.190032482147217,1.7515461444854736
1777560087781393200,13.95539306640625,-1.4452649354934692,-3.541377544403076,1.9381862878799438
1777560087799923200,13.973923095703125,-0.638883650302887,-2.5986053943634033,2.4335005283355713
1777560087818453200,13.992453369140625,0.1746760457754135,-2.6249263286590576,2.438286304473877
1777560087836983300,14.0109833984375,0.2392822653055191,-3.218346357345581,2.108076810836792
1777560087855513300,14.029513427734376,1.3519448041915894,-3.775874137878418,1.9597218036651611
1777560087874043600,14.048043701171874,2.919243574142456,-3.7950167655944824,2.03629207611084
1777560087892573700,14.06657373046875,5.26899528503418,-4.347758769989014,2.9694929122924805
1777560087911103700,14.085103759765625,9.032905578613281,-6.63769006729126,5.144568920135498
1777560087929634000,14.103634033203125,11.906685829162598,-12.32542896270752,8.123632431030273
1777560087948164000,14.1221640625,19.16411590576172,-28.962724685668945,1.3519448041915894
1777560087966694100,14.140694091796876,6.97268533706665,-31.398618698120117,-5.694917678833008
1777560087985224200,14.15922412109375,6.546762943267822,-13.51705551147461,-1.703689694404602
1777560088003754500,14.17775439453125,5.175675392150879,-2.6177480220794678,1.1676974296569824
1777560088022284500,14.196284423828125,3.9912281036376953,2.4885356426239014,0.8063812255859375
1777560088040814600,14.214814697265625,5.257031440734863,0.5288137793540955,1.9956140518188477
1777560088059345000,14.233344970703126,3.5533416271209717,-8.793622970581055,1.4572290182113647
1777560088077875000,14.251875,2.974278450012207,-16.264015197753906,5.326423168182373
1777560088096405000,14.270405029296874,-7.523034572601318,-18.28594970703125,2.7110681533813477
1777560088114935300,14.288935302734375,-12.902099609375,-11.468798637390137,6.144768714904785
1777560088133465300,14.30746533203125,-2.2947168350219727,-7.2335028648376465,8.420342445373535
1777560088151995400,14.325995361328125,2.187039852142334,-3.87876558303833,6.4319071769714355
1777560088170525400,14.344525390625,1.057627558708191,-2.6775684356689453,3.6610186100006104
1777560088189055700,14.3630556640625,-6.338587284088135,-5.419743061065674,1.6319050788879395
1777560088207585800,14.381585693359375,-6.142375946044922,-12.990633964538574,0.9643075466156006
1777560088226115800,14.40011572265625,-4.797609329223633,-23.607587814331055,-4.182653903961182
1777560088244646100,14.418646240234375,-1.8783657550811768,-18.3433780670166,-9.43489933013916
1777560088263176200,14.43717626953125,5.402993679046631,-11.478370666503906,-8.891729354858398
1777560088281706200,14.455706298828124,3.5054850578308105,-7.853243827819824,-4.890929698944092
1777560088300236500,14.474236572265625,-1.0001999139785767,-5.936593055725098,0.062213387340307236
1777560088318766600,14.4927666015625,-3.3236305713653564,-5.213960647583008,3.438486099243164
1777560088337296600,14.511296630859375,-1.306481122970581,-5.996413707733154,4.508078098297119
1777560088355827000,14.529826904296876,1.0815558433532715,-7.728816986083984,3.352344512939453
1777560088374357000,14.54835693359375,1.4117653369903564,-9.456435203552246,0.550349235534668
1777560088392887000,14.566886962890624,2.0817556381225586,-10.202995300292969,-2.0003998279571533
1777560088411417000,14.5854169921875,0.06939185410737991,-9.150154113769531,-2.6392834186553955
1777560088429947400,14.603947509765625,-3.0939197540283203,-7.76470947265625,-1.4811571836471558
1777560088448477400,14.6224775390625,-3.493520975112915,-6.850651264190674,-0.8973084688186646
1777560088467007500,14.641007568359376,0.41156548261642456,-8.159524917602539,-1.7802600860595703
1777560088485537800,14.659537841796874,3.2159535884857178,-10.585846900939941,-2.9001009464263916
1777560088504067800,14.67806787109375,2.1678972244262695,-12.07896900177002,-3.4002010822296143
1777560088522598100,14.69659814453125,-0.9643075466156006,-11.562119483947754,-2.1200408935546875
1777560088541128200,14.715128173828125,-2.823530673980713,-11.0835542678833,-0.8207381963729858
1777560088559658200,14.733658203125,-1.7515461444854736,-10.62413215637207,-0.6699903607368469
1777560088578188500,14.7521884765625,-0.035892341285943985,-10.671989440917969,-1.0480563640594482
1777560088596718600,14.770718505859374,0.5838487148284912,-11.84447193145752,-1.215553879737854
1777560088615248600,14.78924853515625,0.9595218896865845,-13.060026168823242,-0.8877372145652771
1777560088633779000,14.807779052734375,1.3256237506866455,-13.213166236877441,-1.1054840087890625
1777560088652309000,14.82630908203125,0.1339980661869049,-13.26102352142334,-2.988635540008545
1777560088670839000,14.844839111328126,-0.4211367964744568,-13.744373321533203,-4.677968502044678
1777560088689369000,14.863369140625,0,-14.0985107421875,-5.391029357910156
1777560088707899400,14.8818994140625,0.5168496966362,-12.985848426818848,-3.5341989994049072
1777560088726429400,14.900429443359375,2.7732813358306885,-10.370492935180664,0.8255237936973572
1777560088744959500,14.91895947265625,0.3756731450557709,-8.958727836608887,2.1750757694244385
1777560088763489800,14.93748974609375,-3.005385160446167,-9.45164966583252,2.68953275680542
1777560088782019800,14.956019775390626,-4.096512317657471,-11.849257469177246,2.7038896083831787
1777560088800550000,14.9745498046875,-1.97407865524292,-14.311471939086914,3.187239646911621
1777560088819080200,14.993080078125,0.9547362327575684,-15.034104347229004,2.1343977451324463
1777560088837610200,15.0116103515625,1.7682958841323853,-14.378471374511719,0.0933200865983963
1777560088856140500,15.030140625,0.39960137009620667,-12.701102256774902,-0.0023928226437419653
1777560088874670600,15.048670654296876,-3.682554006576538,-11.554940223693848,-1.0480563640594482
1777560088893200600,15.06720068359375,-1.6151553392410278,-9.906285285949707,-1.404586911201477
1777560088911731000,15.08573095703125,-0.4546363055706024,-8.975478172302246,-1.832902193069458
1777560088930261000,15.104260986328125,-2.493321180343628,-8.69791030883789,-2.1774685382843018
1777560088948791000,15.122791015625,-3.510270833969116,-8.109275817871094,-0.8374879360198975
1777560088967321300,15.1413212890625,-2.9455647468566895,-7.058826923370361,0.5623133182525635
1777560088985851400,15.159851318359374,-2.7637102603912354,-5.819344520568848,1.4691931009292603
1777560089004381700,15.178381591796875,-2.0793628692626953,-4.792823791503906,1.954936146736145
1777560089022911700,15.196911865234375,-1.557727575302124,-3.4815568923950195,2.416750907897949
1777560089041441800,15.21544189453125,-0.45942193269729614,-3.0173492431640625,2.7086751461029053
1777560089059972000,15.23397216796875,-0.22492532432079315,-3.014956474304199,2.6632115840911865
1777560089078502100,15.252502197265626,0.8805587291717529,-3.1274192333221436,2.438286304473877
1777560089097032200,15.2710322265625,2.699103832244873,-3.239881753921509,2.3784656524658203
1777560089115562500,15.2895625,5.44845724105835,-4.1036906242370605,2.9383862018585205
1777560089134092500,15.308092529296875,10.119247436523438,-6.175875186920166,4.577469825744629
1777560089152622600,15.32662255859375,12.145967483520508,-11.911471366882324,6.664011001586914
1777560089171153000,15.34515283203125,18.149559020996094,-26.76611328125,0.5096712112426758
1777560089189683000,15.363682861328124,6.900900363922119,-30.075387954711914,-6.204588890075684
1777560089208213200,15.382213134765625,5.759523868560791,-14.402399063110352,-2.1846470832824707
1777560089226743300,15.400743408203125,4.910071849822998,-3.208775281906128,2.0578274726867676
1777560089245273300,15.4192734375,4.4961137771606445,2.390429735183716,2.5052852630615234
1777560089263803600,15.4378037109375,3.517449378967285,4.144368648529053,2.0243279933929443
1777560089282333700,15.456333740234374,6.230910301208496,-3.311666488647461,1.7563318014144897
1777560089300863700,15.47486376953125,6.556334018707275,-13.899907112121582,1.4404792785644531
1777560089319394000,15.49339404296875,4.677968502044678,-22.14318084716797,7.312466144561768
1777560089337924000,15.511924072265625,-10.092926025390625,-20.063817977905273,0.7728816866874695
1777560089356454400,15.530454345703125,-8.209774017333984,-9.468399047851562,3.9218363761901855
1777560089374984400,15.548984375,0.7178468108177185,-4.211368083953857,7.149754047393799
1777560089393514800,15.5675146484375,1.9142581224441528,-1.3160524368286133,5.225924491882324
1777560089412044800,15.586044921875,-3.0484559535980225,-0.9834501147270203,3.122633457183838
1777560089430575000,15.6045751953125,-7.0061845779418945,-5.237888813018799,1.5122638940811157
1777560089449105200,15.623105224609375,-6.017949104309082,-12.851850509643555,1.6031911373138428
1777560089467635200,15.64163525390625,-3.053241729736328,-23.897119522094727,-3.8739798069000244
1777560089486165500,15.66016552734375,-0.7489534616470337,-20.391633987426758,-8.190631866455078
1777560089504695600,15.678695556640625,4.9052863121032715,-12.985848426818848,-7.159325122833252
1777560089523225900,15.697225830078125,3.8763725757598877,-8.532805442810059,-4.043870449066162
1777560089541756000,15.715755859375,-0.038285162299871445,-5.98444938659668,-0.15314064919948578
1777560089560286000,15.734285888671875,-3.211168050765991,-4.646861553192139,2.5076780319213867
1777560089578816300,15.752816162109376,-1.8233308792114258,-5.513063430786133,2.957528829574585
1777560089597346300,15.77134619140625,0.064606212079525,-7.432106971740723,2.6321048736572266
1777560089615876400,15.78987646484375,1.459621787071228,-10.155138969421387,0.9427721500396729
1777560089634406700,15.80840673828125,3.1585259437561035,-11.009376525878906,-0.9786644577980042
1777560089652936700,15.826936767578125,2.691925525665283,-9.260223388671875,-2.392822742462158
1777560089671467000,15.845467041015626,-0.3852444589138031,-7.566105365753174,-3.0412776470184326
1777560089689997000,15.8639970703125,-4.54636287689209,-6.1328043937683105,-1.1365907192230225
1777560089708527400,15.88252734375,-4.2831525802612305,-6.838686943054199,-0.3158525824546814
1777560089727057400,15.901057373046875,1.3878371715545654,-8.982656478881836,-0.672383189201355
1777560089745587700,15.919587646484375,2.6799614429473877,-11.473584175109863,-1.9310078620910645
1777560089764117800,15.93811767578125,0.2512463629245758,-12.619746208190918,-2.4502503871917725
1777560089782647800,15.956647705078124,-2.1343977451324463,-11.770294189453125,-2.0338993072509766
1777560089801178000,15.97517822265625,-1.9405791759490967,-10.935199737548828,-1.0887342691421509
1777560089819708200,15.993708251953125,0.2799602448940277,-11.2247314453125,-0.26081767678260803
1777560089838238500,16.012238525390625,0.698704183101654,-12.579068183898926,-0.3900300860404968
1777560089856768500,16.0307685546875,1.3758729696273804,-14.065011024475098,-1.0408778190612793
1777560089875298600,16.049298583984374,2.5435705184936523,-14.467005729675293,-1.9956140518188477
1777560089893828900,16.067828857421876,1.3088740110397339,-13.940585136413574,-3.342773199081421
1777560089912359200,16.086359130859375,-0.41156548261642456,-13.14377498626709,-4.1970109939575195
1777560089930889200,16.10488916015625,-1.0719845294952393,-13.445270538330078,-4.744967460632324
1777560089949419300,16.123419189453124,-0.8925228714942932,-12.964313507080078,-3.713660717010498
1777560089967949600,16.141949462890626,-0.3206382393836975,-11.076375961303711,-0.02871387079358101
1777560089986479600,16.160479736328124,2.390429735183716,-9.387042999267578,2.4813570976257324
1777560090005010000,16.179010009765626,-0.5312066078186035,-9.425328254699707,2.9527430534362793
1777560090023540200,16.197540283203125,-3.9433717727661133,-11.006983757019043,3.115455150604248
1777560090042070300,16.2160703125,-3.345165967941284,-12.67717456817627,4.158725738525391
1777560090060600300,16.234600341796874,-0.727418065071106,-12.971491813659668,3.462414264678955
1777560090079130600,16.253130615234376,1.3615161180496216,-12.473784446716309,1.679761528968811
1777560090097660700,16.27166064453125,0.2632105052471161,-12.533604621887207,0.5264210104942322
1777560090116191000,16.29019091796875,-0.038285162299871445,-11.794222831726074,0
1777560090134721000,16.308720947265623,-0.5958128571510315,-11.002198219299316,-1.0480563640594482
1777560090153251300,16.327251220703126,-1.0839486122131348,-9.879964828491211,-1.801795482635498
1777560090171781400,16.345781494140624,-2.3473589420318604,-9.19561767578125,-1.9884356260299683
1777560090190311700,16.364311767578126,-3.0245277881622314,-8.752944946289062,-0.9475577473640442
1777560090208841700,16.382841796875,-2.8522446155548096,-7.5637125968933105,0.5000999569892883
1777560090227372000,16.4013720703125,-2.478964328765869,-5.917450428009033,1.435693621635437
1777560090245902000,16.419902099609374,-2.069791555404663,-4.3549370765686035,1.7587246894836426
1777560090264432400,16.438432373046876,-0.4426721930503845,-3.311666488647461,2.100898265838623
1777560090282962400,16.45696240234375,0.02392822690308094,-2.9838497638702393,2.249253273010254
1777560090301492700,16.47549267578125,-0.20817556977272034,-3.2614171504974365,1.4117653369903564
1777560090320022800,16.494022705078127,0.3852444589138031,-3.5365917682647705,1.0001999139785767
1777560090338553000,16.512552978515625,2.203789710998535,-3.5916268825531006,1.2658032178878784
1777560090357083100,16.531083251953124,5.091926574707031,-3.617947816848755,2.1750757694244385
1777560090375613400,16.549613525390626,9.791430473327637,-5.254638671875,4.161118507385254
1777560090394143500,16.5681435546875,12.105289459228516,-10.336994171142578,6.424728870391846
1777560090412673800,16.586673828125,22.411176681518555,-26.12244415283203,1.1581261157989502
1777560090431203800,16.605203857421873,6.16391134262085,-31.972896575927734,-6.111268997192383
1777560090449734100,16.623734130859376,4.898108005523682,-14.962320327758789,-1.9405791759490967
1777560090468264200,16.64226416015625,4.833501815795898,-3.845266103744507,1.9764715433120728
1777560090486794500,16.66079443359375,3.6394832134246826,2.455035924911499,2.974278450012207
1777560090505324800,16.67932470703125,3.5748770236968994,2.5363919734954834,3.7399818897247314
1777560090523854800,16.697854736328125,2.376072883605957,-5.517848968505859,2.5435705184936523
1777560090542385000,16.716385009765624,4.29033088684082,-13.773087501525879,7.668996810913086
1777560090560915200,16.734915283203126,-6.350551128387451,-20.578275680541992,2.6488547325134277
1777560090579445500,16.753445556640624,-9.463613510131836,-14.842679023742676,1.191625714302063
1777560090597975600,16.7719755859375,-0.004785645287483931,-10.04267692565918,3.8261234760284424
1777560090616505900,16.790505859375,0.18903298676013947,-5.522634506225586,3.924229145050049
1777560090635036000,16.809035888671875,-3.0484559535980225,-3.689732551574707,2.8666014671325684
1777560090653566200,16.827566162109374,-5.560919761657715,-5.520241737365723,2.967100143432617
1777560090672096300,16.84609619140625,-5.309673309326172,-11.088339805603027,3.524627685546875
1777560090690626600,16.86462646484375,-4.185046672821045,-18.98944091796875,-0.7417750358581543
1777560090709156900,16.883156982421873,-2.0410776138305664,-18.494125366210938,-5.953342914581299
1777560090727687000,16.90168701171875,4.649254322052002,-13.26102352142334,-7.877171993255615
1777560090746217200,16.92021728515625,4.096512317657471,-8.688339233398438,-6.561119556427002
1777560090764747300,16.938747314453124,-1.1868400573730469,-5.340780258178711,-1.9597218036651611
1777560090783277600,16.957277587890626,-3.1513473987579346,-4.390829563140869,1.191625714302063
1777560090801807600,16.9758076171875,-1.6103696823120117,-5.271388053894043,2.7014968395233154
1777560090820338000,16.994337890625,0.48095735907554626,-7.621140003204346,2.6799614429473877
1777560090838868200,17.0128681640625,1.6462619304656982,-9.621540069580078,0.34695929288864136
1777560090857398300,17.031398193359376,2.117648124694824,-9.980463027954102,-2.0315065383911133
1777560090875928600,17.049928466796874,0.576670229434967,-9.726823806762695,-2.6177480220794678
1777560090894459000,17.068458984375,-1.9046868085861206,-8.568697929382324,-1.2083754539489746
1777560090912989000,17.086989013671875,-1.2275179624557495,-8.116454124450684,-0.11006984114646912
1777560090931519000,17.10551904296875,1.7467604875564575,-9.245866775512695,-1.1988041400909424
1777560090950049300,17.12404931640625,1.6654045581817627,-10.231709480285645,-2.715853691101074
1777560090968579600,17.14257958984375,-0.5575276613235474,-10.822736740112305,-3.1417760848999023
1777560090987109600,17.161109619140625,-1.6247265338897705,-10.791629791259766,-2.53399920463562
1777560091005640000,17.179639892578123,-1.6917256116867065,-10.334601402282715,-1.3160524368286133
1777560091024170000,17.198169921875,-0.8231309652328491,-10.432706832885742,-0.916451096534729
1777560091042700300,17.2167001953125,-0.2584248483181,-11.349157333374023,-0.7393822073936462
1777560091061230600,17.235230712890626,0.05742774158716202,-12.717852592468262,-0.34695929288864136
1777560091079760600,17.2537607421875,1.1509476900100708,-14.117653846740723,-0.397208571434021
1777560091098291000,17.272291015625,2.9790642261505127,-14.366507530212402,-1.9262222051620483
1777560091116821200,17.2908212890625,2.8498518466949463,-13.148560523986816,-3.486342668533325
1777560091135351300,17.309351318359376,-0.04307080805301666,-13.00499153137207,-4.993820667266846
1777560091153881600,17.327881591796874,-1.5960127115249634,-13.854443550109863,-5.879165172576904
1777560091172412000,17.346411865234376,-1.9166508913040161,-13.808979034423828,-4.737788677215576
1777560091190942200,17.364942138671875,1.8640087842941284,-12.162717819213867,0.05024927482008934
1777560091209472300,17.38347216796875,0.8063812255859375,-9.45164966583252,3.665804386138916
1777560091228002600,17.40200244140625,-2.581855535507202,-9.985248565673828,4.768895626068115
1777560091246532600,17.42053271484375,-3.759124279022217,-11.519047737121582,5.6590256690979
1777560091265063000,17.43906298828125,-2.1822543144226074,-12.232109069824219,5.929414749145508
1777560091283593200,17.45759326171875,0.5838487148284912,-12.244073867797852,2.9790642261505127
1777560091302123300,17.476123291015625,4.000799655914307,-12.66042423248291,1.2346965074539185
1777560091320653600,17.494653564453124,2.493321180343628,-13.373485565185547,-0.6939185857772827
1777560091339183900,17.513183837890626,-1.4883357286453247,-13.02652645111084,-2.2468605041503906
1777560091357714200,17.531714111328125,-2.455035924911499,-11.84447193145752,-3.06999135017395
1777560091376244200,17.550244140625,-2.699103832244873,-10.080962181091309,-2.56510591506958
1777560091394774500,17.5687744140625,-3.2470602989196777,-8.688339233398438,-0.9858429431915283
1777560091413304600,17.5873046875,-3.019742250442505,-6.618547439575195,0.22492532432079315
1777560091431835000,17.6058349609375,-2.1678972244262695,-4.362115859985352,1.435693621635437
1777560091450365200,17.624365234375,-1.0600204467773438,-2.7014968395233154,2.3545374870300293
1777560091468895500,17.6428955078125,0.009571290574967861,-2.359323024749756,2.0482561588287354
1777560091487425500,17.661425537109373,0.37806597352027893,-2.699103832244873,1.4691931009292603
1777560091505955800,17.679955810546875,-0.6340979933738708,-2.3234307765960693,1.2442678213119507
1777560091524486100,17.698486083984374,-0.9571290612220764,-1.7467604875564575,1.4572290182113647
1777560091543016200,17.71701611328125,0.2967100143432617,-1.6223337650299072,2.3018953800201416
1777560091561546500,17.73554638671875,2.6536402702331543,-2.5387847423553467,3.1034910678863525
1777560091580076800,17.754076904296873,9.408578872680664,-5.252245903015137,4.804787635803223
1777560091598607000,17.772607177734375,16.323835372924805,-11.990434646606445,7.8819580078125
1777560091617137200,17.79113720703125,20.68116569519043,-29.723642349243164,4.88853645324707
1777560091635667500,17.80966748046875,8.738588333129883,-35.36591720581055,-0.35892340540885925
1777560091654197800,17.82819775390625,3.3714871406555176,-15.749558448791504,-2.801995277404785
1777560091672727800,17.846727783203125,3.696911096572876,-2.6225335597991943,0.6747759580612183
1777560091691258000,17.865258056640624,5.680561065673828,3.862015724182129,1.7371892929077148
1777560091709788400,17.883788330078126,7.348358154296875,3.9385859966278076,0.4905286431312561
1777560091728318700,17.902318603515624,6.809973239898682,-6.065805435180664,-1.794616937637329
1777560091746848800,17.920848876953126,1.1341979503631592,-14.739787101745605,4.192225456237793
1777560091765379000,17.939379150390625,-0.6652047038078308,-17.247465133666992,7.410571575164795
1777560091783909400,17.957909423828124,-12.803994178771973,-13.007384300231934,6.774080753326416
1777560091802439700,17.976439697265626,-0.729810893535614,-8.276773452758789,7.525427341461182
1777560091820969700,17.9949697265625,3.0245277881622314,-5.4867424964904785,4.199403762817383
1777560091839500000,18.0135,-4.120440483093262,-4.524827480316162,-1.5649060010910034
1777560091858030300,18.0320302734375,-5.840879917144775,-6.608976364135742,-1.4979069232940674
1777560091876560600,18.050560546875,-5.103890895843506,-9.992427825927734,0.16749759018421173
1777560091895090700,18.069090576171874,-2.6177480220794678,-16.383657455444336,0.44027936458587646
1777560091913621000,18.08762109375,-1.3208380937576294,-21.43012046813965,-4.926821708679199
1777560091932151300,18.1061513671875,0.9978070259094238,-15.574882507324219,-6.537191390991211
1777560091950681300,18.124681396484377,3.122633457183838,-10.363314628601074,-4.156332969665527
1777560091969212000,18.1432119140625,1.1461620330810547,-7.195217609405518,-1.007378339767456
1777560091987742000,18.161741943359374,-1.191625714302063,-5.2115678787231445,2.0267207622528076
1777560092006272300,18.180272216796876,-0.5216353535652161,-4.800002098083496,3.177668571472168
1777560092024802600,18.198802490234375,0.4139583110809326,-5.7858452796936035,2.9240293502807617
1777560092043332600,18.21733251953125,0.4307080805301666,-8.417949676513672,1.246660590171814
1777560092061863000,18.23586279296875,1.2634103298187256,-10.363314628601074,-1.3806586265563965
1777560092080393200,18.254393310546874,1.8831514120101929,-10.083354949951172,-2.500499725341797
1777560092098923500,18.272923583984376,0.3565305769443512,-9.004191398620605,-2.8498518466949463
1777560092117453600,18.29145361328125,-1.5314065217971802,-7.865208148956299,-1.466800332069397
1777560092135983900,18.30998388671875,-3.273381471633911,-7.530212879180908,0.2560320198535919
1777560092154514200,18.32851416015625,-1.5649060010910034,-7.984848976135254,0.8183453679084778
1777560092173044500,18.34704443359375,1.6055840253829956,-9.324830055236816,-0.3565305769443512
1777560092191574800,18.36557470703125,1.7467604875564575,-11.21515941619873,-1.4093725681304932
1777560092210104800,18.384104736328126,0.014356935396790504,-12.531211853027344,-2.0243279933929443
1777560092228635100,18.40263525390625,-1.612762451171875,-12.153145790100098,-1.581655740737915
1777560092247165400,18.42116552734375,-1.4931213855743408,-11.01416301727295,-1.2705888748168945
1777560092265695700,18.43969580078125,-0.7082754969596863,-10.459028244018555,-1.8185452222824097
1777560092284226000,18.45822607421875,-1.3184453248977661,-11.528619766235352,-1.7730815410614014
1777560092302756000,18.476756103515626,0.5886343717575073,-12.80160140991211,-0.9786644577980042
1777560092321286400,18.495286376953125,1.6869399547576904,-13.895120620727539,-1.710868239402771
1777560092339816700,18.513816650390623,0.2871387302875519,-13.667802810668945,-2.266003131866455
1777560092358347000,18.532346923828126,-0.7992027401924133,-13.744373321533203,-2.667997360229492
1777560092376877300,18.550877197265624,0.4498506486415863,-14.699109077453613,-3.3020951747894287
1777560092395407400,18.569407470703126,1.7252250909805298,-13.770694732666016,-2.0578274726867676
1777560092413937700,18.587937744140625,1.7922241687774658,-10.614561080932617,0.7728816866874695
1777560092432468000,18.606468017578123,1.8161523342132568,-8.700303077697754,1.6175481081008911
1777560092450998300,18.624998291015626,-1.9094724655151367,-8.831908226013184,1.6701902151107788
1777560092469528300,18.6435283203125,-3.830909013748169,-10.774880409240723,1.8185452222824097
1777560092488058600,18.66205859375,-2.8977081775665283,-13.060026168823242,3.1896326541900635
1777560092506589000,18.6805888671875,-0.29431718587875366,-14.500505447387695,3.136990547180176
1777560092525119200,18.699119140625,1.923829436302185,-13.897514343261719,1.5792629718780518
1777560092543649500,18.7176494140625,0.8901300430297852,-12.42832088470459,0.8901300430297852
1777560092562179600,18.7361796875,-1.8448662757873535,-11.81336498260498,-0.20817556977272034
1777560092580710000,18.7547099609375,-1.552941918373108,-10.813165664672852,-0.6221339106559753
1777560092599240200,18.773240234375,-0.6173482537269592,-9.595218658447266,-1.0289137363433838
1777560092617770500,18.7917705078125,-1.9836499691009521,-8.992227554321289,-0.9308080077171326
1777560092636300800,18.81030078125,-3.7950167655944824,-8.810373306274414,-0.397208571434021
1777560092654830800,18.828830810546876,-3.1417760848999023,-7.623532772064209,0.4331009089946747
1777560092673361200,18.847361083984374,-2.691925525665283,-6.013163089752197,0.9619147181510925
1777560092691891500,18.865891357421877,-2.342573404312134,-3.9218363761901855,1.0600204467773438
1777560092710421800,18.884421875,-0.9284151792526245,-2.65842604637146,1.155733346939087
1777560092728952000,18.9029521484375,-0.02871387079358101,-2.5052852630615234,1.3663017749786377
1777560092747482400,18.921482421875,0.11724831163883209,-2.2085752487182617,1.3280165195465088
1777560092766012400,18.940012451171874,1.0552347898483276,-2.2325034141540527,0.8446664214134216
1777560092784542700,18.958542724609377,1.8640087842941284,-2.2205393314361572,1.435693621635437
1777560092803073000,18.977072998046875,5.398207664489746,-3.82373046875,2.390429735183716
1777560092821603300,18.995603271484374,12.748958587646484,-7.161718368530273,4.7401814460754395
1777560092840133600,19.014133544921876,15.728023529052734,-14.220544815063477,9.913464546203613
1777560092858664000,19.032663818359374,15.019747734069824,-29.053651809692383,7.401000499725342
1777560092877194000,19.051194091796877,6.692724704742432,-26.787649154663086,-3.3930225372314453
1777560092895724300,19.069724365234375,5.434100151062012,-12.966706275939941,-1.7850457429885864
1777560092914254600,19.088254638671874,4.536791801452637,-3.7471601963043213,1.8975083827972412
1777560092932785000,19.106784912109376,5.5968122482299805,1.7371892929077148,2.6009981632232666
1777560092951315200,19.125315185546874,7.853243827819824,2.4813570976257324,2.5770699977874756
1777560092969845200,19.14384521484375,5.225924491882324,-7.45364236831665,0.7178468108177185
1777560092988375600,19.16237548828125,0.8949156403541565,-15.90987777709961,4.716253280639648
1777560093006905900,19.18090576171875,0.9044869542121887,-18.8243350982666,1.0791629552841187
1777560093025436200,19.199436279296876,-16.146766662597656,-11.078768730163574,3.1561331748962402
1777560093043966500,19.217966552734374,0.31106695532798767,-6.891329288482666,7.568498134613037
1777560093062496800,19.236496826171877,2.060220241546631,-4.271188259124756,5.699703693389893
1777560093090292000,19.2642919921875,-3.768695592880249,-4.024727821350098,0.6269195079803467
1777560093108822300,19.282822265625,-7.178467750549316,-7.869993686676025,0.9523434042930603
1777560093127352600,19.3013525390625,-7.089933395385742,-16.737794876098633,2.172683000564575
1777560093145883000,19.3198828125,-5.807380676269531,-23.755943298339844,-1.306481122970581
1777560093164413000,19.338412841796874,0.9858429431915283,-16.998611450195312,-5.958128452301025
1777560093182943200,19.356943115234376,6.872186660766602,-10.963912963867188,-6.415157318115234
1777560093201473500,19.3754736328125,3.2757742404937744,-6.747759819030762,-3.4552359580993652
1777560093220003800,19.39400390625,-1.0959128141403198,-4.804787635803223,1.2681959867477417
1777560093238534100,19.4125341796875,-2.909672260284424,-4.2209391593933105,3.964907169342041
1777560093257064400,19.431064453125,-1.4835500717163086,-5.79063081741333,3.775874137878418
1777560093275594500,19.449594482421876,-0.17228323221206665,-7.707281589508057,2.172683000564575
1777560093294124800,19.468124755859375,0.41156548261642456,-9.533005714416504,-0.3732803463935852
1777560093312655000,19.486655029296877,0.2991028428077698,-9.492327690124512,-2.007578134536743
1777560093331185400,19.505185302734375,-1.4213366508483887,-8.161917686462402,-1.3184453248977661
1777560093349715700,19.5237158203125,-3.1561331748962402,-6.896114826202393,0.7178468108177185
1777560093368245800,19.542245849609376,-1.129412293434143,-8.073383331298828,0.5335994362831116
1777560093386776000,19.560776123046875,2.414358139038086,-10.64806079864502,-1.5074782371520996
1777560093405306400,19.579306396484377,2.53399920463562,-12.911670684814453,-3.1968109607696533
1777560093423836700,19.597836669921875,0.31824541091918945,-12.196216583251953,-3.4025938510894775
1777560093442367000,19.616366943359374,-1.9262222051620483,-11.011770248413086,-3.177668571472168
1777560093460897300,19.634897216796876,-1.3902299404144287,-10.080962181091309,-2.8689942359924316
1777560093479427300,19.65342724609375,0.4785645306110382,-10.059426307678223,-2.2947168350219727
1777560093497957600,19.67195751953125,-0.16749759018421173,-11.057233810424805,-0.9308080077171326
1777560093516488000,19.690488037109375,-0.4450650215148926,-13.320843696594238,-0.8111668825149536
1777560093535018200,19.709018310546874,1.7132610082626343,-14.529218673706055,-1.4380863904953003
1777560093553548500,19.727548583984376,2.201396942138672,-14.519647598266602,-3.1202406883239746
1777560093572078800,19.746078857421875,0.6963114142417908,-13.730016708374023,-3.864408493041992
1777560093590609000,19.76460888671875,-0.2991028428077698,-13.225131034851074,-3.972085475921631
1777560093609139200,19.78313916015625,-0.24885354936122894,-12.246466636657715,-3.500699520111084
1777560093627669500,19.80166943359375,1.8496519327163696,-10.48534870147705,-1.0863415002822876
1777560093646199800,19.82019970703125,-1.4093725681304932,-9.21715259552002,0.9810572862625122
1777560093664730000,19.838730224609375,-3.404986619949341,-11.485548973083496,2.1918256282806396
1777560093683260200,19.85726025390625,-2.823530673980713,-14.57228946685791,4.335794448852539
1777560093701790500,19.87579052734375,-0.9044869542121887,-16.40519142150879,5.3455657958984375
1777560093720320800,19.89432080078125,1.648654818534851,-15.876378059387207,2.3497519493103027
1777560093738851000,19.91285107421875,1.6247265338897705,-13.619946479797363,0.3756731450557709
1777560093757381400,19.93138134765625,-2.6153552532196045,-11.373085975646973,-1.2729816436767578
1777560093775911700,19.94991162109375,-2.5363919734954834,-9.958928108215332,-2.297109842300415
1777560093794441700,19.968441650390623,-0.605384111404419,-9.214759826660156,-3.208775281906128
1777560093812972000,19.986971923828126,-0.973878800868988,-9.023334503173828,-3.1824541091918945
1777560093831502300,20.00550244140625,-3.5270206928253174,-8.324629783630371,-1.373480200767517
1777560093850032600,20.02403271484375,-4.42193603515625,-7.369893550872803,0.5551348328590393
1777560093868563000,20.04256298828125,-3.1130621433258057,-5.26181697845459,2.108076810836792
1777560093887093000,20.061093017578123,-2.313859462738037,-3.9194436073303223,2.249253273010254
1777560093905623300,20.079623291015626,-1.1629117727279663,-2.9551360607147217,2.3617160320281982
1777560093924153600,20.098153564453124,-0.21296121180057526,-2.2947168350219727,2.5938198566436768
1777560093942684000,20.116683837890626,0.08614161610603333,-2.3162522315979004,2.4502503871917725
1777560093961214000,20.1352138671875,0.21296121180057526,-2.888136863708496,1.8233308792114258
1777560093979744300,20.153744140625,1.277767300605774,-3.0340991020202637,1.4835500717163086
1777560093998274600,20.172274658203126,3.6538400650024414,-3.290131092071533,1.5960127115249634
1777560094016804900,20.190804931640624,6.97268533706665,-3.964907169342041,3.105883836746216
1777560094035335200,20.209335205078126,12.844672203063965,-6.695117950439453,8.147561073303223
1777560094053865500,20.227865478515625,17.596817016601562,-16.366907119750977,12.000005722045898
1777560094072395500,20.2463955078125,11.46401309967041,-40.31188201904297,-2.816352367401123
1777560094090925800,20.26492578125,5.101497650146484,-26.912076950073242,-6.221338748931885
1777560094109456100,20.2834560546875,4.823930263519287,-8.408378601074219,0.6269195079803467
1777560094127986400,20.301986328125,5.580062389373779,0.8350951075553894,2.1535403728485107
1777560094146516700,20.320516845703125,4.077369689941406,5.383851051330566,2.6632115840911865
1777560094165046800,20.339046875,3.900300979614258,2.864208698272705,3.139383316040039
1777560094183577000,20.3575771484375,4.7234320640563965,-6.39601469039917,1.887937068939209
1777560094202107400,20.376107421875,4.48414945602417,-15.780665397644043,5.520241737365723
1777560094220637700,20.3946376953125,0.8279166221618652,-21.174087524414062,2.9718856811523438
1777560094239168000,20.41316796875,-13.567304611206055,-13.942977905273438,1.887937068939209
1777560094257698300,20.4316982421875,-2.6081767082214355,-8.305487632751465,5.285745143890381
1777560094276228400,20.450228271484374,2.7278177738189697,-4.515256404876709,5.1182475090026855
1777560094294758700,20.468758544921876,0.24167509377002716,-2.510071039199829,2.6847469806671143
1777560094313289000,20.4872890625,-4.7952165603637695,-3.871587038040161,1.3471591472625732
1777560094331819300,20.5058193359375,-5.9509501457214355,-8.350951194763184,2.062613010406494
1777560094350349600,20.524349609375,-3.893122434616089,-16.512868881225586,1.2442678213119507
1777560094368879600,20.542879638671874,-2.6225335597991943,-22.815563201904297,-5.680561065673828
1777560094387410000,20.561409912109376,1.9142581224441528,-16.256837844848633,-8.336593627929688
1777560094405940200,20.579940185546874,4.000799655914307,-9.954142570495605,-6.003592014312744
1777560094424470500,20.598470458984377,-0.4331009089946747,-6.465406894683838,-2.007578134536743
1777560094443000800,20.617000732421875,-2.368894338607788,-5.146961688995361,1.306481122970581
1777560094461531100,20.63553125,-0.9260223507881165,-5.304887771606445,2.816352367401123
1777560094480061200,20.654061279296876,0.46420758962631226,-6.455835342407227,3.438486099243164
1777560094498591500,20.672591552734374,1.5050854682922363,-8.539983749389648,1.9573289155960083
1777560094517121800,20.691121826171877,1.7204394340515137,-9.92542839050293,-0.1052841991186142
1777560094535652000,20.709652099609375,1.184447169303894,-9.513862609863281,-1.6893328428268433
1777560094554182400,20.728182373046874,-0.1459621787071228,-8.874979019165039,-2.7661030292510986
1777560094572712400,20.74671240234375,-2.1750757694244385,-7.88913631439209,-1.4883357286453247
1777560094591242800,20.76524267578125,-1.9405791759490967,-8.011170387268066,0.18424734473228455
1777560094609773000,20.78377294921875,1.0504491329193115,-9.31047248840332,0.5790630578994751
1777560094628303400,20.802303466796875,1.8496519327163696,-10.722238540649414,-0.45942193269729614
1777560094646833700,20.820833740234374,-0.04546362906694412,-11.980862617492676,-1.2418749332427979
1777560094665364000,20.839364013671876,-1.5601203441619873,-11.674581527709961,-1.7228323221206665
1777560094683894000,20.85789404296875,-1.7539390325546265,-10.64088249206543,-1.8975083827972412
1777560094702424300,20.87642431640625,-0.1052841991186142,-10.382457733154297,-2.495713949203491
1777560094720954600,20.89495458984375,0.672383189201355,-11.021341323852539,-2.6297121047973633
1777560094739484700,20.913484619140625,1.1700903177261353,-12.547962188720703,-2.4526431560516357
1777560094758015000,20.932014892578124,1.6821542978286743,-13.75633716583252,-2.3569302558898926
1777560094776545300,20.950545166015626,1.5385849475860596,-14.273186683654785,-3.1968109607696533
1777560094795075600,20.96907568359375,1.1054840087890625,-14.20140266418457,-4.316651821136475
1777560094813606000,20.98760595703125,-0.4259224236011505,-14.103296279907227,-5.017749309539795
1777560094832136200,21.00613623046875,-1.8305093050003052,-13.15813159942627,-4.287938117980957
1777560094850666200,21.024666259765624,2.6608188152313232,-11.767901420593262,-0.7106683254241943
1777560094869196800,21.04319677734375,1.191625714302063,-9.674181938171387,2.344966173171997
1777560094887726800,21.061726806640625,-3.0269205570220947,-10.219745635986328,3.6442689895629883
1777560094906257200,21.080257080078123,-3.4743785858154297,-12.693923950195312,5.414957523345947
1777560094924787500,21.098787353515625,-2.00518536567688,-14.816357612609863,7.144968509674072
1777560094943317800,21.11731787109375,0.8781659007072449,-15.19442367553711,4.170690059661865
1777560094961847800,21.135847900390626,3.680161237716675,-14.407185554504395,2.368894338607788
1777560094980378000,21.154378173828125,0.44027936458587646,-13.316058158874512,0.6460621356964111
1777560094998908400,21.172908447265623,-3.3858439922332764,-11.885149955749512,-1.9381862878799438
1777560095017438700,21.191438720703125,-2.1846470832824707,-9.91107177734375,-3.1968109607696533
1777560095035969000,21.209968994140624,-1.7371892929077148,-8.413164138793945,-3.328416347503662
1777560095063764500,21.237764404296875,-4.254438877105713,-7.264609336853027,-1.215553879737854
1777560095082294500,21.25629443359375,-3.0388846397399902,-5.292923450469971,0.729810893535614
1777560095100824800,21.274824951171876,-2.400001049041748,-3.342773199081421,1.9214365482330322
1777560095119355100,21.293355224609375,-1.911865234375,-2.5842485427856445,2.0745773315429688
1777560095137885400,21.311885498046873,-1.466800332069397,-2.785245656967163,2.3401806354522705
1777560095156415700,21.330415771484375,-0.6628118753433228,-2.6871397495269775,2.7038896083831787
1777560095174945800,21.34894580078125,-0.4977070987224579,-3.153740167617798,2.0865414142608643
1777560095193476000,21.36747607421875,0.7178468108177185,-2.675175666809082,1.852044701576233
1777560095212006400,21.38600634765625,1.801795482635498,-2.132004976272583,2.486142635345459
1777560095230536700,21.40453662109375,7.04925537109375,-3.541377544403076,4.086941242218018
1777560095249067000,21.42306689453125,18.355342864990234,-9.542576789855957,7.09711217880249
1777560095267597300,21.441597412109374,25.90469741821289,-25.871198654174805,8.221738815307617
1777560095286127400,21.46012744140625,5.946164131164551,-34.97349548339844,-3.809373617172241
1777560095304657700,21.47865771484375,5.493920803070068,-15.450455665588379,-1.404586911201477
1777560095323188000,21.49718798828125,5.079962253570557,-2.8354947566986084,3.3308091163635254
1777560095341718300,21.51571826171875,3.5270206928253174,3.594019651412964,5.86002254486084
1777560095360248300,21.534248291015626,3.5581271648406982,4.005585193634033,7.0301127433776855
1777560095378779000,21.55277880859375,5.154139995574951,-4.847858905792236,6.120840549468994
1777560095397309000,21.571308837890626,4.256831645965576,-15.926627159118652,1.6845471858978271
1777560095415839200,21.589839111328125,2.2851455211639404,-19.06122589111328,0.5312066078186035
1777560095434369500,21.60836962890625,-10.435099601745605,-12.531211853027344,-0.11485548317432404
1777560095452899800,21.62689990234375,-3.390629768371582,-8.446663856506348,6.092126369476318
1777560095471430000,21.645429931640624,-0.19381862878799438,-7.283751964569092,4.7401814460754395
1777560095489960400,21.66396044921875,-3.4193434715270996,-5.723631858825684,1.435693621635437
1777560095508490500,21.682490478515625,-5.230710506439209,-6.747759819030762,-0.45224347710609436
1777560095527020800,21.701020751953124,-6.290730953216553,-10.607382774353027,-0.5168496966362
1777560095545551000,21.719551025390626,-2.1583259105682373,-16.340585708618164,-0.06699903309345245
1777560095564081400,21.738081298828124,-1.9022940397262573,-19.611574172973633,-4.9435715675354
1777560095582611500,21.756611572265626,1.9573289155960083,-14.165510177612305,-5.197210788726807
1777560095601141800,21.775141845703125,5.146961688995361,-9.748359680175781,-3.7232320308685303
1777560095619672000,21.793672119140624,1.8185452222824097,-6.652047157287598,-0.8422735929489136
1777560095638202400,21.812202392578126,-1.7228323221206665,-5.008177757263184,1.7491533756256104
1777560095656732700,21.830732666015624,-1.337587833404541,-5.254638671875,2.194218397140503
1777560095675263000,21.849262939453126,-0.8901300430297852,-6.340980052947998,1.3184453248977661
1777560095693793000,21.86779296875,0.9451649188995361,-8.877371788024902,-1.098305583000183
1777560095712323300,21.8863232421875,2.179861545562744,-9.923035621643066,-2.4717857837677
1777560095730853600,21.904853515625,0.02632104977965355,-8.834300994873047,-1.9764715433120728
1777560095749384000,21.923384033203124,-2.6536402702331543,-7.427321434020996,-0.36610186100006104
1777560095767914200,21.941914306640626,-3.996013879776001,-6.963113784790039,0.9930213689804077
1777560095786444300,21.9604443359375,-1.0001999139785767,-8.056633949279785,1.191625714302063
1777560095804974600,21.978974609375,2.919243574142456,-9.978070259094238,-0.5982056856155396
1777560095823505000,21.9975048828125,2.8761727809906006,-11.767901420593262,-2.1415762901306152
1777560095842035200,22.01603515625,0.7728816866874695,-12.265608787536621,-1.9405791759490967
1777560095860565500,22.0345654296875,-0.8638089895248413,-11.815757751464844,-0.6269195079803467
1777560095879095800,22.053095703125,-0.6867401003837585,-11.263015747070312,-0.7034898400306702
1777560095897626000,22.071626220703124,-1.25144624710083,-11.203195571899414,-2.3090739250183105
1777560095916156200,22.09015625,-0.672383189201355,-11.91625690460205,-3.5509488582611084
1777560095934686500,22.1086865234375,0.8231309652328491,-13.543375968933105,-2.6057839393615723
1777560095953216800,22.127216796875,2.60339093208313,-14.335400581359863,-1.0648061037063599
1777560095971747000,22.1457470703125,1.9645073413848877,-13.801800727844238,-1.3782658576965332
1777560095990277400,22.16427734375,-0.3900300860404968,-13.993227005004883,-3.565305709838867
1777560096008807700,22.1828076171875,-1.3232308626174927,-14.445469856262207,-4.840680122375488
1777560096027337700,22.201337646484376,-1.3926228284835815,-12.789636611938477,-3.4408788681030273
1777560096045868000,22.219867919921874,1.9094724655151367,-10.03310489654541,0.7082754969596863
1777560096064398300,22.2383984375,-0.7082754969596863,-9.521040916442871,2.218146562576294
1777560096082928600,22.2569287109375,-2.7637102603912354,-10.674382209777832,3.658625841140747
1777560096101459000,22.275458984375,-2.6225335597991943,-13.205987930297852,4.924428939819336
1777560096119989200,22.2939892578125,-1.7587246894836426,-14.261222839355469,5.216353416442871
1777560096138519300,22.312519287109374,-0.15074782073497772,-13.665410041809082,2.641676187515259
1777560096157049600,22.331049560546877,-0.6939185857772827,-13.11266803741455,0.5024927258491516
1777560096175580000,22.349579833984375,0.3684946894645691,-11.892328262329102,0.035892341285943985
1777560096194110200,22.368110107421874,0.9092726111412048,-11.653046607971191,-0.641276478767395
1777560096212640500,22.386640625,-0.7585247755050659,-11.016555786132812,-1.557727575302124
1777560096231170800,22.4051708984375,-1.679761528968811,-9.554540634155273,-1.0528420209884644
1777560096249700900,22.423700927734377,-4.225724697113037,-8.877371788024902,-0.16749759018421173
1777560096268231200,22.442231201171875,-4.077369689941406,-7.707281589508057,0.6436693072319031
1777560096286761500,22.460761474609374,-2.0793628692626953,-5.912664890289307,1.545763373374939
1777560096305291800,22.479291748046876,-2.266003131866455,-3.4552359580993652,2.0243279933929443
1777560096323822000,22.497822021484374,-1.6510475873947144,-1.8687944412231445,1.710868239402771
1777560096342352400,22.516352294921877,-1.6271194219589233,-1.3519448041915894,1.7491533756256104
1777560096360882700,22.534882568359375,-1.2418749332427979,-1.3399807214736938,1.3543375730514526
1777560096379412700,22.553412841796874,-0.6245267391204834,-1.6654045581817627,0.9092726111412048
1777560096397943000,22.571943115234376,1.430907964706421,-1.3184453248977661,1.490728497505188
1777560096416473300,22.590473388671874,4.3549370765686035,-1.9357935190200806,2.3976082801818848
1777560096435003600,22.609003662109377,13.505090713500977,-4.651647090911865,5.113461971282959
1777560096453534000,22.627533935546875,22.514068603515625,-12.997812271118164,8.80798053741455
1777560096472064300,22.646064208984374,15.541382789611816,-43.70490646362305,0.763310432434082
1777560096490594300,22.66459423828125,5.280959606170654,-29.83131980895996,-4.374079704284668
1777560096509124600,22.68312451171875,4.579862594604492,-8.80798053741455,1.7419748306274414
1777560096527655000,22.701655029296877,3.445664644241333,2.6297121047973633,3.2374889850616455
1777560096546185200,22.720185302734375,1.5433706045150757,8.164310455322266,4.639683246612549
1777560096564715500,22.738715576171874,5.704489231109619,4.029513359069824,2.3880369663238525
1777560096583245800,22.757245849609376,7.601997375488281,-8.846264839172363,-1.8305093050003052
1777560096601776000,22.775776123046874,1.734796404838562,-19.98246192932129,7.274180889129639
1777560096620306200,22.79430615234375,-4.622933387756348,-23.157737731933594,2.531606435775757
1777560096638836500,22.81283642578125,-9.56650447845459,-12.729816436767578,2.6081767082214355
1777560096657366800,22.83136669921875,-0.4666004180908203,-7.039684295654297,6.106483459472656
1777560096675897000,22.84989697265625,0.6532405614852905,-3.972085475921631,4.153940200805664
1777560096694427400,22.868427490234374,-3.7639100551605225,-2.830709218978882,1.7778671979904175
1777560096712957700,22.886957763671877,-5.582455158233643,-4.993820667266846,1.0863415002822876
1777560096731488000,22.905488037109375,-5.800201892852783,-11.313265800476074,1.4572290182113647
1777560096750018000,22.92401806640625,-4.153940200805664,-22.308284759521484,-3.153740167617798
1777560096768548400,22.94254833984375,-0.37806597352027893,-19.640287399291992,-7.214360237121582
1777560096787078700,22.96107861328125,5.309673309326172,-12.65324592590332,-6.338587284088135
1777560096805609000,22.97960888671875,3.704089403152466,-8.566305160522461,-3.3619158267974854
1777560096824139300,22.99813916015625,-1.9142581224441528,-5.472385406494141,1.1988041400909424
1777560096842669600,23.016669677734374,-3.5461630821228027,-4.180261135101318,3.7806596755981445
1777560096861200000,23.035199951171876,-0.7322037220001221,-4.400400638580322,3.9314076900482178
1777560096879730000,23.05372998046875,0.5886343717575073,-7.22871732711792,1.667797327041626
1777560096898260200,23.07226025390625,1.5481562614440918,-11.073983192443848,-1.8137595653533936
1777560096916790500,23.09079052734375,1.0049854516983032,-11.459227561950684,-4.453042984008789
1777560096935320800,23.10932080078125,1.210768222808838,-9.142974853515625,-3.9290146827697754
1777560096953851100,23.12785107421875,-2.060220241546631,-7.2574310302734375,-1.648654818534851
1777560096972381400,23.14638134765625,-3.115455150604248,-7.542177200317383,0.4785645306110382
1777560096990911500,23.164911376953125,-0.4426721930503845,-8.437092781066895,1.0528420209884644
1777560097009441800,23.18344189453125,3.0077781677246094,-10.040284156799316,-0.3900300860404968
1777560097027972000,23.20197216796875,3.3954153060913086,-11.889935493469238,-1.5840486288070679
1777560097046502400,23.22050244140625,0.2991028428077698,-11.94736385345459,-1.2562319040298462
1777560097065032700,23.23903271484375,-2.304288148880005,-10.954341888427734,-1.0336993932724
1777560097083563000,23.25756298828125,-1.4835500717163086,-10.39202880859375,-2.03629207611084
1777560097102093300,23.27609326171875,0.5240281820297241,-10.815558433532715,-2.3401806354522705
1777560097120623600,23.29462353515625,0.9044869542121887,-11.626725196838379,-0.5814558863639832
1777560097139153700,23.313153564453124,0.6556333899497986,-12.696316719055176,1.301695466041565
1777560097157684000,23.33168408203125,0.9595218896865845,-13.720444679260254,0.2632105052471161
1777560097176214300,23.35021435546875,1.3112667798995972,-13.904692649841309,-2.943171739578247
1777560097194744600,23.36874462890625,0.9834501147270203,-12.847064971923828,-4.692325115203857
1777560097213275000,23.38727490234375,-0.2727817893028259,-12.966706275939941,-5.72123908996582
1777560097231805200,23.40580517578125,-0.6556333899497986,-12.28953742980957,-4.706682205200195
1777560097250335500,23.42433544921875,2.550748825073242,-11.24626636505127,-1.4213366508483887
1777560097268865500,23.442865478515625,2.1583259105682373,-9.564111709594727,1.643869161605835
1777560097287395800,23.461395751953123,-2.0578274726867676,-10.569097518920898,2.2851455211639404
1777560097305926100,23.479926025390625,-3.6849467754364014,-13.129417419433594,2.8666014671325684
1777560097324456400,23.49845654296875,-1.9956140518188477,-15.335599899291992,4.821537494659424
1777560097342986800,23.51698681640625,0.28953152894973755,-15.840485572814941,3.6849467754364014
