time,seconds_elapsed,z,y,x
1777560073919819300,0.0938193359375,0.14538581669330597,0.15546508133411407,-0.27137666940689087
1777560073938349300,0.112349365234375,0.12461641430854797,0.19822561740875244,-0.2084576040506363
1777560073966144300,0.140144287109375,-0.0360410213470459,0.007024944759905338,-0.07223475724458694
1777560073984674300,0.15867431640625,-0.10079269111156464,-0.05711585655808449,0.03222311660647392
1777560074003204400,0.177204345703125,-0.04459312930703163,-0.05711585655808449,0.001679878099821508
1777560074021734100,0.195734130859375,0.012217295356094837,-0.15118902921676636,-0.12660172581672668
1777560074040264200,0.21426416015625,0.002443459117785096,-0.25320345163345337,-0.1308777779340744
1777560074058794200,0.232794189453125,-0.001832594396546483,-0.35705047845840454,0.009621120058000088
1777560074077324300,0.25132421875,0.046425722539424896,-0.4108065664768219,0.1776089370250702
1777560074095854300,0.269854248046875,0.1747073233127594,-0.38270679116249084,0.3058905303478241
1777560074114384100,0.288384033203125,0.3280344009399414,-0.42424559593200684,0.23014330863952637
1777560074132914200,0.3069140625,0.4269944727420807,-0.5745183229446411,-0.0062613640911877155
1777560074151444200,0.3254443359375,0.4312705397605896,-0.7302888631820679,-0.20723587274551392
1777560074169974000,0.34397412109375,0.4214966893196106,-0.7308996915817261,-0.3306305706501007
1777560074188504000,0.362504150390625,0.5247328281402588,-0.5299251675605774,-0.44730573892593384
1777560074207034000,0.3810341796875,0.5662716627120972,-0.3497200906276703,-0.5273290276527405
1777560074225564200,0.399564208984375,0.47464191913604736,-0.591622531414032,-0.23961171507835388
1777560074244094200,0.41809423828125,0.31093016266822815,-1.3197733163833618,0.3877464234828949
1777560074262624000,0.4366240234375,0.18203771114349365,-1.6209297180175781,0.6650790572166443
1777560074281154000,0.455154052734375,0.19242240488529205,-0.989295482635498,0.6589703559875488
1777560074299684000,0.47368408203125,0.3274235129356384,-0.8469640016555786,0.27656903862953186
1777560074318214100,0.492214111328125,0.27916520833969116,-1.1169662475585938,-0.41615164279937744
1777560074336744000,0.510743896484375,0.001832594396546483,-1.06443190574646,-0.5248855352401733
1777560074355274000,0.52927392578125,-0.19792018830776215,-0.2672533392906189,-0.42531460523605347
1777560074373804000,0.547803955078125,-0.13500112295150757,0.8292489647865295,-0.6904299259185791
1777560074392334000,0.566333984375,0.06841685622930527,1.8646647930145264,-0.9653190970420837
1777560074410864000,0.584864013671875,0.32620179653167725,2.0754129886627197,-0.8993456959724426
1777560074429394000,0.603393798828125,0.5937605500221252,1.5653409957885742,-0.7722858190536499
1777560074447924000,0.621924072265625,0.5442805290222168,1.3625339269638062,-0.9616538882255554
1777560074466454000,0.6404541015625,0.389120876789093,1.666744589805603,-1.1754565238952637
1777560074484984000,0.658984130859375,0.24801109731197357,1.8854341506958008,-1.1143701076507568
1777560074503513900,0.677513916015625,0.1795942485332489,1.6875139474868774,-1.0001384019851685
1777560074522044000,0.6960439453125,0.06902772188186646,1.0338886976242065,-0.9329432249069214
1777560074540574000,0.714573974609375,-0.049480047076940536,0.8347467184066772,-0.7142536640167236
1777560074559104000,0.73310400390625,-0.050090912729501724,1.0949751138687134,-0.7044798135757446
1777560074577633800,0.7516337890625,0.15271618962287903,1.4840959310531616,-0.88285231590271
1777560074596163800,0.770163818359375,0.3439168632030487,2.2788310050964355,-1.0874919891357422
1777560074614694000,0.78869384765625,0.33597561717033386,2.726594924926758,-0.9659299254417419
1777560074633224000,0.807223876953125,0.13133592903614044,2.2256858348846436,-0.6708822250366211
1777560074651754000,0.82575390625,-0.08368847519159317,1.416900873184204,-0.6281217336654663
1777560074670284000,0.844283935546875,-0.1594357043504715,1.0222822427749634,-0.6910407543182373
1777560074688813800,0.862813720703125,-0.033597562462091446,1.112079381942749,-0.7307469844818115
1777560074707344000,0.88134375,0.18570289015769958,1.3527600765228271,-0.754570722579956
1777560074725874000,0.8998740234375,0.19120067358016968,1.3533709049224854,-0.5933024287223816
1777560074744403700,0.91840380859375,0.08002328872680664,1.181717872619629,-0.45219266414642334
1777560074762933800,0.936933837890625,-0.021380268037319183,0.9355394244194031,-0.3819431960582733
1777560074781463800,0.9554638671875,-0.08368847519159317,0.8255837559700012,-0.4192059636116028
1777560074799993900,0.973993896484375,-0.05436696484684944,0.9196569323539734,-0.49373146891593933
1777560074818524000,0.99252392578125,0.0030543238390237093,1.1242966651916504,-0.5529853701591492
1777560074837053700,1.0110537109375,0.01649334840476513,1.1585050821304321,-0.6097957491874695
1777560074855583700,1.029583740234375,-0.09651663154363632,1.0693187713623047,-0.7283035516738892
1777560074874113800,1.04811376953125,-0.16676609218120575,0.8439096808433533,-0.7344121932983398
1777560074892643800,1.066643798828125,-0.19853104650974274,0.5531380772590637,-0.6830995678901672
1777560074911173600,1.085173583984375,-0.25045454502105713,0.4566214084625244,-0.5768090486526489
1777560074929703700,1.10370361328125,-0.2779434621334076,0.7284562587738037,-0.45707955956459045
1777560074948233700,1.122233642578125,-0.15699224174022675,1.0033453702926636,-0.41126471757888794
1777560074966763800,1.140763671875,-0.046425722539424896,1.074205756187439,-0.34834563732147217
1777560074985293800,1.1592939453125,0.020158538594841957,0.9294307827949524,-0.16081015765666962
1777560075003823600,1.17782373046875,-0.036651886999607086,0.6282744407653809,-0.11499529331922531
1777560075022353700,1.196353759765625,-0.09896009415388107,0.2678641974925995,-0.212733656167984
1777560075040883700,1.2148837890625,-0.049480047076940536,0.03451386094093323,-0.16814053058624268
1777560075059413800,1.233413818359375,-0.003665188793092966,0.005803215317428112,0.012675444595515728
1777560075077943800,1.25194384765625,0.07635809481143951,-0.04001164436340332,0.2594648003578186
1777560075096473600,1.2704736328125,0.13500112295150757,-0.5018253922462463,0.5642863512039185
1777560075115003600,1.289003662109375,0.18570289015769958,-0.7089085578918457,0.8727730512619019
1777560075133533700,1.30753369140625,0.21319180727005005,-0.8329141139984131,1.3431389331817627
1777560075152063500,1.3260634765625,0.21319180727005005,-1.220813274383545,1.8654283285140991
1777560075170593500,1.344593505859375,0.19303326308727264,-1.9281946420669556,2.4219260215759277
1777560075189123600,1.36312353515625,0.12950333952903748,-2.3881759643554688,2.908785343170166
1777560075207653600,1.381653564453125,0.0513126403093338,-2.3759584426879883,3.017519235610962
1777560075226183700,1.40018359375,-0.0409279391169548,-2.1334452629089355,2.6864306926727295
1777560075244713700,1.418713623046875,-0.2156352698802948,-1.4498875141143799,2.240499258041382
1777560075263243500,1.437243408203125,-0.379347026348114,-0.732121467590332,1.9863795042037964
1777560075281773600,1.455773681640625,-0.33536475896835327,-0.5598575472831726,1.926514744758606
1777560075300303600,1.4743037109375,-0.3915643095970154,-1.21287202835083,1.7359249591827393
1777560075318833700,1.492833740234375,-0.7079922556877136,-1.9886702299118042,1.5037963390350342
1777560075337363700,1.51136376953125,-0.8161153197288513,-2.1187844276428223,1.5465569496154785
1777560075355893500,1.5298935546875,-0.20830489695072174,-1.481041669845581,1.8868086338043213
1777560075374423600,1.548423583984375,0.4520399272441864,-1.1236857175827026,1.8978041410446167
1777560075392953600,1.56695361328125,0.5222893953323364,-1.719889760017395,1.5642719268798828
1777560075411483600,1.585483642578125,0.5974257588386536,-2.3032655715942383,1.3046544790267944
1777560075430013700,1.604013671875,0.6444623470306396,-2.8408267498016357,1.0719150304794312
1777560075448543500,1.62254345703125,0.6334667801856995,-2.593426465988159,0.8727730512619019
1777560075467073500,1.641073486328125,0.565049946308136,-1.8939862251281738,0.5673406720161438
1777560075485603600,1.659603515625,0.5210676789283752,-1.1731657981872559,0.15378521382808685
1777560075504133600,1.678133544921875,0.48502662777900696,-0.7846558094024658,-0.3104720115661621
1777560075522663400,1.696663330078125,0.4520399272441864,-0.5152644515037537,-0.754570722579956
1777560075541193500,1.715193359375,0.4373791813850403,-0.20861032605171204,-1.1284199953079224
1777560075559723500,1.7337236328125,0.3909534513950348,-0.014966187067329884,-1.2279908657073975
1777560075578253600,1.752253662109375,0.37629270553588867,0.23548837006092072,-1.149800181388855
1777560075596783600,1.77078369140625,0.3035998046398163,0.323452889919281,-0.9524909257888794
1777560075615313400,1.7893134765625,0.10018182545900345,-0.2306014597415924,-0.3367392122745514
1777560075633843500,1.807843505859375,0.31093016266822815,-0.8323032855987549,0.7762564420700073
1777560075652373500,1.82637353515625,0.6805033683776855,-1.2330305576324463,1.2722786664962769
1777560075670903600,1.844903564453125,0.7312051653862,-1.407127022743225,1.3327542543411255
1777560075689433600,1.86343359375,0.5338957905769348,-1.6264275312423706,1.1769837141036987
1777560075707963400,1.88196337890625,0.37690356373786926,-1.7809762954711914,0.6382009983062744
1777560075726493400,1.900493408203125,0.42882707715034485,-1.5176935195922852,-0.1516471803188324
1777560075745023500,1.9190234375,0.3194822669029236,-0.6411026120185852,-0.8315396904945374
1777560075763553500,1.937553466796875,-0.012217295356094837,0.26969680190086365,-0.4955640435218811
1777560075782083600,1.95608349609375,-0.3127627670764923,0.8946114778518677,-0.4387536346912384
1777560075800613600,1.974613525390625,0.040317077189683914,3.0057601928710938,-0.34895649552345276
1777560075819143700,1.993143798828125,0.35735589265823364,2.196364402770996,-0.28664830327033997
1777560075837673700,2.011673828125,0.22846342623233795,0.09071341902017593,-0.6684387922286987
1777560075856203500,2.03020361328125,0.006108647678047419,-0.7547234296798706,-1.6751439571380615
1777560075874733600,2.048733642578125,-0.7947350740432739,3.705200433731079,-2.445444345474243
1777560075893263600,2.067263671875,-1.5387684106826782,6.077799320220947,-2.2884521484375
1777560075911793700,2.085793701171875,-0.9572250843048096,3.159698009490967,-1.3593268394470215
1777560075930323700,2.10432373046875,0.030543239787220955,-0.17318016290664673,-0.975703775882721
1777560075948853500,2.122853515625,0.3084867000579834,-0.16035200655460358,-1.6226096153259277
1777560075967383600,2.141383544921875,0.7379246354103088,1.571449637413025,-1.9115486145019531
1777560075985913600,2.15991357421875,1.2235621213912964,2.3179264068603516,-1.6158900260925293
1777560076004443600,2.178443603515625,1.0519092082977295,2.1242823600769043,-1.5670208930969238
1777560076022973700,2.1969736328125,0.4630354940891266,1.3191624879837036,-1.5022692680358887
1777560076041503500,2.21550341796875,-0.020158538594841957,0.33567020297050476,-1.2731949090957642
1777560076060033500,2.234033447265625,-0.20280711352825165,0.2984074354171753,-1.1033744812011719
1777560076078563600,2.2525634765625,-0.14172062277793884,0.609948456287384,-1.068555235862732
1777560076097093600,2.27109375,-0.025045456364750862,1.293506145477295,-0.9866993427276611
1777560076115623700,2.289623779296875,-0.03848448023200035,1.6099340915679932,-0.6739365458488464
1777560076134153700,2.30815380859375,-0.06841685622930527,1.6392556428909302,-0.6837103962898254
1777560076152683800,2.326683837890625,-0.17043127119541168,0.9086613655090332,-0.8242093324661255
1777560076171213600,2.345213623046875,-0.3854556679725647,0.3246746361255646,-0.9928079843521118
1777560076189743600,2.36374365234375,-0.45875945687294006,0.272751122713089,-1.0319033861160278
1777560076208273700,2.382273681640625,-0.38240134716033936,0.7394518256187439,-0.9482148289680481
1777560076226803700,2.4008037109375,-0.26450446248054504,1.2055416107177734,-0.8242093324661255
1777560076245333800,2.419333740234375,-0.1331685185432434,1.0968077182769775,-0.8101593852043152
1777560076263863800,2.43786376953125,-0.17776164412498474,0.5482511520385742,-0.7948877811431885
1777560076282393900,2.456393798828125,-0.2663370370864868,0.2770271897315979,-0.5291616320610046
1777560076300924000,2.474923828125,-0.35246896743774414,0.6178897023200989,-0.35017824172973633
1777560076319453700,2.49345361328125,-0.3225366175174713,0.7999274134635925,-0.233503058552742
1777560076337983700,2.511983642578125,-0.19181154668331146,0.45051276683807373,-0.24755294620990753
1777560076356513800,2.530513671875,-0.09285144507884979,-0.03695731982588768,-0.34468045830726624
1777560076375043800,2.5490439453125,-0.06719512492418289,0.03695731982588768,-0.141262486577034
1777560076393574000,2.567573974609375,-0.009773836471140385,0.323452889919281,0.27717989683151245
1777560076412104000,2.58610400390625,-0.014660755172371864,-0.1029307171702385,0.670576810836792
1777560076430634000,2.604634033203125,0.05497783049941063,-0.7070759534835815,1.1268928050994873
1777560076449164000,2.6231640625,0.15577052533626556,-1.3093886375427246,1.6980513334274292
1777560076467693800,2.64169384765625,0.38667741417884827,-2.090684652328491,2.134819746017456
1777560076486224000,2.660223876953125,0.5314523577690125,-2.548222541809082,2.651611328125
1777560076504754000,2.67875390625,0.46425724029541016,-2.450484037399292,2.9998042583465576
1777560076523284000,2.697283935546875,0.32620179653167725,-1.9208643436431885,2.8849616050720215
1777560076541814000,2.71581396484375,-0.03481929376721382,-1.3527600765228271,2.525773048400879
1777560076560344000,2.734343994140625,-0.3744601011276245,-1.3588687181472778,2.3040292263031006
1777560076578874000,2.7528740234375,-0.41355544328689575,-0.7333431839942932,2.4469716548919678
1777560076597404000,2.77140380859375,-0.44959646463394165,-0.2629773020744324,2.707810878753662
1777560076615934000,2.789933837890625,-0.40927940607070923,-0.9361502528190613,2.6143486499786377
1777560076634464000,2.808464111328125,-0.39767298102378845,-1.4731004238128662,2.0303618907928467
1777560076652994000,2.826994140625,-0.27427828311920166,-1.397353172302246,1.577100157737732
1777560076671524000,2.845524169921875,0.1130099818110466,-1.2794562578201294,1.4317142963409424
1777560076690054100,2.86405419921875,0.5754346251487732,-1.3900227546691895,1.3419171571731567
1777560076708584200,2.882584228515625,0.7458658814430237,-1.6514729261398315,1.4744749069213867
1777560076727114200,2.9011142578125,0.6725621223449707,-2.548222541809082,1.5007420778274536
1777560076745644300,2.919644287109375,0.7354812026023865,-3.076620578765869,1.3694061040878296
1777560076764174300,2.93817431640625,0.7996219992637634,-2.7180428504943848,0.8856012225151062
1777560076782704000,2.9567041015625,0.8362739086151123,-1.8603886365890503,0.09880737960338593
1777560076801234400,2.975234375,0.7825177907943726,-0.8866702318191528,-0.6214022040367126
1777560076819764200,2.99376416015625,0.6652317643165588,-0.39736753702163696,-1.0942115783691406
1777560076838294300,3.012294189453125,0.6450732350349426,0.003359756199643016,-1.4454587697982788
1777560076856824300,3.03082421875,0.6426297426223755,0.272751122713089,-1.7875430583953857
1777560076875354400,3.049354248046875,0.593149721622467,0.5506945848464966,-1.7771583795547485
1777560076893884400,3.067884521484375,0.30115634202957153,0.5439751148223877,-1.0593922138214111
1777560076912414500,3.08641455078125,-0.31093016266822815,-0.025961752980947495,0.28817546367645264
1777560076930944500,3.104944580078125,-0.277332603931427,-0.3992001414299011,1.7298163175582886
1777560076949474600,3.123474609375,0.07757982611656189,-1.3949097394943237,1.2307398319244385
1777560076968004600,3.142004638671875,0.21930044889450073,-1.988059401512146,1.2478439807891846
1777560076986534700,3.16053466796875,0.056810423731803894,-2.430325508117676,1.3675734996795654
1777560077005064700,3.179064697265625,0.15149445831775665,-2.444375514984131,0.7939714789390564
1777560077023594800,3.1975947265625,0.2974911332130432,-1.499367594718933,-0.1467602699995041
1777560077042124500,3.21612451171875,0.25473061203956604,0.04550942778587341,-0.9097303748130798
1777560077060654600,3.234654541015625,0.2779434621334076,1.570227861404419,-1.0893245935440063
1777560077079184600,3.2531845703125,-0.43921178579330444,2.891528367996216,-1.2078323364257812
1777560077097714700,3.271714599609375,-0.3402516841888428,2.0943498611450195,-0.2793179154396057
1777560077116244700,3.29024462890625,0.24434591829776764,0.5952877402305603,-0.25610506534576416
1777560077134774800,3.30877490234375,0.21135921776294708,-0.015577051788568497,-0.7111993432044983
1777560077153304800,3.327304931640625,-0.049480047076940536,1.117577075958252,-1.5743513107299805
1777560077171835000,3.3458349609375,-0.5351175665855408,5.14195442199707,-2.5468480587005615
1777560077190365000,3.364364990234375,-0.8820887207984924,5.710058689117432,-2.7172791957855225
1777560077208895000,3.38289501953125,-1.0903936624526978,3.143204689025879,-1.9744676351547241
1777560077227425000,3.401425048828125,-0.6304124593734741,-0.43890634179115295,-0.6959276795387268
1777560077245955000,3.419955078125,0.18753549456596375,-0.42363473773002625,-1.5945098400115967
1777560077264485000,3.438485107421875,0.7819069027900696,2.2947134971618652,-1.881616234779358
1777560077283015200,3.45701513671875,1.3359612226486206,3.118159294128418,-1.4772237539291382
1777560077301545200,3.475545166015625,1.1307107210159302,2.5323400497436523,-1.7160718441009521
1777560077320075300,3.4940751953125,0.5864301919937134,1.5555671453475952,-1.781434416770935
1777560077338605000,3.51260498046875,0.13072505593299866,0.5232056975364685,-1.3904809951782227
1777560077357135400,3.53113525390625,-0.25045454502105713,0.2513708472251892,-1.2047780752182007
1777560077375665200,3.5496650390625,-0.337808221578598,0.8017600178718567,-1.1681262254714966
1777560077394195200,3.5681953125,-0.23762640357017517,1.398574948310852,-0.9781472086906433
1777560077412725200,3.586725341796875,-0.17226386070251465,1.8225150108337402,-0.7631227970123291
1777560077431255300,3.60525537109375,-0.2608392536640167,1.553734540939331,-0.754570722579956
1777560077449785300,3.623785400390625,-0.5943714380264282,0.4725039005279541,-1.011744737625122
1777560077468315400,3.6423154296875,-0.6939423680305481,-0.04062250629067421,-1.2041672468185425
1777560077486845400,3.660845458984375,-0.6133082509040833,0.39186975359916687,-1.1192569732666016
1777560077505375500,3.67937548828125,-0.4410443603992462,1.0430516004562378,-0.9610430002212524
1777560077523905500,3.697905517578125,-0.2828303873538971,1.1597267389297485,-0.8407026529312134
1777560077542435600,3.716435546875,-0.19120067358016968,0.49632763862609863,-0.7478511929512024
1777560077560965600,3.734965576171875,-0.28527384996414185,-0.20616686344146729,-0.6397281289100647
1777560077579495700,3.75349560546875,-0.3634645342826843,-0.13530655205249786,-0.44241881370544434
1777560077598025700,3.772025634765625,-0.2981020212173462,0.38270679116249084,-0.24022257328033447
1777560077616555800,3.7905556640625,-0.05864302068948746,0.2568686306476593,-0.15225805342197418
1777560077635085800,3.8090859375,-0.0360410213470459,-0.06261363625526428,-0.12965604662895203
1777560077653615900,3.827615966796875,-0.001221729558892548,-0.13103049993515015,0.18921536207199097
1777560077672146000,3.84614599609375,0.10140355676412582,-0.20922118425369263,0.7353284955024719
1777560077690676000,3.864676025390625,0.24923282861709595,-0.96180659532547,1.2215768098831177
1777560077709206000,3.8832060546875,0.3860665261745453,-1.9062035083770752,1.7542508840560913
1777560077727736000,3.901736083984375,0.5888736248016357,-2.4736969470977783,2.4097087383270264
1777560077746266000,3.92026611328125,0.6908880472183228,-2.335641384124756,2.9069528579711914
1777560077764796200,3.938796142578125,0.5815432667732239,-2.2763876914978027,3.029125690460205
1777560077783326200,3.957326171875,0.41416633129119873,-1.8634430170059204,2.6900956630706787
1777560077801856300,3.975856201171875,-0.020158538594841957,-1.3570361137390137,2.3180792331695557
1777560077820386300,3.99438623046875,-0.23029601573944092,-1.0852012634277344,2.3535091876983643
1777560077838916400,4.012916259765625,-0.1893680840730667,-0.4535670876502991,2.6027421951293945
1777560077857446400,4.0314462890625,-0.3481929302215576,-0.42363473773002625,2.7585127353668213
1777560077875976400,4.0499765625,-0.5180133581161499,-1.3136646747589111,2.448193311691284
1777560077894506500,4.068506591796875,-0.5894845128059387,-1.6050472259521484,1.9344559907913208
1777560077913036500,4.08703662109375,-0.5387827157974243,-1.5525128841400146,1.6565126180648804
1777560077931566600,4.105566650390625,-0.1185077652335167,-1.580001711845398,1.66934072971344
1777560077950096600,4.1240966796875,0.26389357447624207,-1.859777808189392,1.6620103120803833
1777560077968626700,4.142626708984375,0.5216785073280334,-2.4291038513183594,1.598480463027954
1777560077987156700,4.16115673828125,0.6505709886550903,-2.7925684452056885,1.7744094133377075
1777560078005686800,4.179686767578125,0.7776308655738831,-3.2171194553375244,1.53983736038208
1777560078033482000,4.20748193359375,0.8839213252067566,-2.2177445888519287,0.36453354358673096
1777560078052012000,4.226011962890625,0.8649845123291016,-1.044884204864502,-0.4082103967666626
1777560078070542000,4.2445419921875,0.7660244107246399,-0.21471896767616272,-0.8413135409355164
1777560078089072000,4.263072021484375,0.7024945020675659,0.16218459606170654,-1.1388046741485596
1777560078107602200,4.281602294921875,0.6414080262184143,0.22815799713134766,-1.4521782398223877
1777560078126132200,4.30013232421875,0.5522217750549316,0.2568686306476593,-1.577405571937561
1777560078144662300,4.318662353515625,0.430659681558609,0.39370235800743103,-1.3220640420913696
1777560078163192300,4.3371923828125,0.08613193035125732,-0.061391908675432205,-0.53221595287323
1777560078181722400,4.355722412109375,-0.3848448097705841,-0.72173672914505,0.6809614896774292
1777560078200252400,4.37425244140625,-0.12156209349632263,-1.3686425685882568,1.4928008317947388
1777560078218782500,4.392782470703125,0.23457208275794983,-1.6978986263275146,1.2551743984222412
1777560078237312500,4.4113125,0.14660754799842834,-1.953240156173706,1.5392265319824219
1777560078255842600,4.429842529296875,0.18325942754745483,-1.9550727605819702,0.9069814682006836
1777560078274372600,4.44837255859375,0.22296564280986786,-1.5433498620986938,-0.14431680738925934
1777560078292902700,4.466902587890625,0.059864748269319534,-0.3863719701766968,-0.8694133162498474
1777560078311432700,4.4854326171875,-0.48013970255851746,0.6905826330184937,-0.7002037763595581
1777560078329962800,4.503962646484375,-0.9798271059989929,1.648418664932251,-0.5823068618774414
1777560078348492800,4.522492919921875,-0.28588470816612244,1.9850051403045654,-0.7527381181716919
1777560078367023000,4.541023193359375,0.20219624042510986,1.0552688837051392,-0.8058833479881287
1777560078385553000,4.559552978515625,0.20402882993221283,0.17745621502399445,-1.0050252676010132
1777560078404083200,4.578083251953125,0.1588248461484909,2.8787002563476562,-2.0276129245758057
1777560078422613000,4.596613037109375,-0.08796452730894089,5.953182697296143,-3.0269877910614014
1777560078441143300,4.615143310546875,-0.6096430420875549,5.611098289489746,-2.8956518173217773
1777560078459673300,4.63367333984375,-0.905912458896637,2.548222541809082,-1.7020219564437866
1777560078478203400,4.652203369140625,-0.21319180727005005,-0.04062250629067421,-0.8712459206581116
1777560078496733400,4.6707333984375,0.4318813979625702,0.5403099060058594,-1.6867504119873047
1777560078515263500,4.689263427734375,0.8344413042068481,2.372293472290039,-2.0642647743225098
1777560078533793500,4.70779345703125,1.370169758796692,2.9318454265594482,-1.7472259998321533
1777560078552323600,4.726323486328125,1.1337649822235107,2.481027364730835,-1.8113667964935303
1777560078570853600,4.744853515625,0.5479456782341003,1.6099340915679932,-1.7924299240112305
1777560078589383700,4.7633837890625,0.046425722539424896,0.5665770769119263,-1.3428335189819336
1777560078607913700,4.781913818359375,-0.31520622968673706,0.26908594369888306,-1.2206605672836304
1777560078626443800,4.80044384765625,-0.36285367608070374,0.8426879644393921,-1.3312270641326904
1777560078644973800,4.818973876953125,-0.2254091054201126,1.795026183128357,-1.004414439201355
1777560078672769000,4.84676904296875,-0.1905898153781891,1.573282241821289,-0.6519454121589661
1777560078691299000,4.865299072265625,-0.5253437161445618,0.46944957971572876,-0.9934188723564148
1777560078709829000,4.8838291015625,-0.676227331161499,0.02412915788590908,-1.095433235168457
1777560078728359200,4.902359130859375,-0.6133082509040833,0.5158752799034119,-0.9928079843521118
1777560078746889200,4.92088916015625,-0.4098902642726898,1.155450701713562,-0.8871283531188965
1777560078765419300,4.939419189453125,-0.24862197041511536,1.0497710704803467,-0.7423534393310547
1777560078783949300,4.95794921875,-0.3121519088745117,0.24953825771808624,-0.6067414283752441
1777560078802479600,4.976479736328125,-0.36285367608070374,-0.12370011955499649,-0.48823368549346924
1777560078821009700,4.995009765625,-0.3066541254520416,0.1334739476442337,-0.3770562708377838
1777560078839539700,5.013539794921875,-0.06841685622930527,0.43401941657066345,-0.35017824172973633
1777560078858069800,5.03206982421875,0.05070177838206291,0.3399462401866913,-0.45158177614212036
1777560078876599800,5.050599853515625,0.07513637095689774,0.05222893878817558,-0.1931859850883484
1777560078895129900,5.0691298828125,0.1588248461484909,0.272751122713089,0.1727220118045807
1777560078913660000,5.087659912109375,0.14477495849132538,-0.016187917441129684,0.6748528480529785
1777560078932190000,5.10618994140625,0.2987128794193268,-0.6288852691650391,1.1739293336868286
1777560078950720000,5.124719970703125,0.37629270553588867,-1.551901936531067,1.7145447731018066
1777560078969250000,5.14325,0.5302306413650513,-2.310595989227295,2.2679882049560547
1777560078987780400,5.1617802734375,0.5754346251487732,-2.3619086742401123,2.9356634616851807
1777560079006310100,5.18031005859375,0.4575377106666565,-2.151771068572998,3.2313220500946045
1777560079024840400,5.19884033203125,0.23457208275794983,-1.7229441404342651,2.844033718109131
1777560079043370500,5.21737060546875,-0.347582072019577,-1.5922189950942993,2.4237587451934814
1777560079061900500,5.235900634765625,-0.6890554428100586,-1.784030556678772,2.366337537765503
1777560079080430600,5.2544306640625,-0.5955931544303894,-1.1181880235671997,2.690706729888916
1777560079098960600,5.272960693359375,-0.5888736248016357,-0.630107045173645,3.0169084072113037
1777560079117490700,5.29149072265625,-0.5210676789283752,-1.1218531131744385,2.779892921447754
1777560079136020700,5.310020751953125,-0.30115634202957153,-0.8487966060638428,2.240499258041382
1777560079154550800,5.32855078125,0.001832594396546483,-0.7596103549003601,1.9845468997955322
1777560079173081000,5.3470810546875,0.43432486057281494,-1.2764019966125488,1.7371467351913452
1777560079191611100,5.365611083984375,0.7006618976593018,-1.830456256866455,1.5838196277618408
1777560079210141200,5.38414111328125,0.711046576499939,-2.430325508117676,1.6284128427505493
1777560079228671200,5.402671142578125,0.66645348072052,-2.8157811164855957,1.7328706979751587
1777560079247201300,5.421201171875,0.7440332770347595,-2.9856016635894775,1.5819870233535767
1777560079265731300,5.4397314453125,0.952949047088623,-2.458425283432007,0.8342885971069336
1777560079284261600,5.45826171875,1.0195332765579224,-1.6447534561157227,-0.24694208800792694
1777560079302791400,5.47679150390625,0.9425643682479858,-0.8365793228149414,-1.0874919891357422
1777560079321321700,5.49532177734375,0.915686309337616,-0.1957821547985077,-1.6195552349090576
1777560079339851800,5.513851806640625,0.8631519079208374,0.21471896767616272,-2.0416626930236816
1777560079358381800,5.5323818359375,0.8161153197288513,0.7186824083328247,-2.176663875579834
1777560079376912000,5.550911865234375,0.5693259835243225,0.8518509268760681,-1.5364776849746704
1777560079395442000,5.56944189453125,-0.17348559200763702,-0.06872228533029556,-0.10399972647428513
1777560079413972000,5.587971923828125,-0.574212908744812,-0.518318772315979,1.6296344995498657
1777560079432502300,5.606502197265625,-0.17653992772102356,-1.6643010377883911,1.2863285541534424
1777560079451032300,5.6250322265625,0.049480047076940536,-2.0809109210968018,1.3901755809783936
1777560079469562400,5.643562255859375,-0.23823726177215576,-2.212857723236084,1.4091123342514038
1777560079488092400,5.662092529296875,-0.006719512399286032,-2.028987407684326,0.6779071688652039
1777560079506622500,5.68062255859375,0.19181154668331146,-1.0222822427749634,-0.2793179154396057
1777560079525152500,5.699152587890625,-0.08307760953903198,0.022296564653515816,-0.6782126426696777
1777560079543682600,5.7176826171875,-0.6524035930633545,1.3301581144332886,-0.8101593852043152
1777560079562212900,5.736212890625,-1.1038326025009155,1.9569053649902344,-1.0526727437973022
1777560079580742700,5.75474267578125,-0.2315177470445633,1.4938697814941406,-0.7576250433921814
1777560079599273000,5.77327294921875,0.23945899307727814,0.18234314024448395,-0.790611743927002
1777560079617803000,5.791802978515625,0.38850998878479004,0.4413498044013977,-1.4814997911453247
1777560079636333000,5.8103330078125,0.11606431007385254,4.144412040710449,-2.483928918838501
1777560079654863000,5.828863037109375,-0.35613417625427246,6.124224662780762,-2.8046329021453857
1777560079673393200,5.84739306640625,-0.8973603844642639,4.661203861236572,-2.3483169078826904
1777560079691923200,5.865923095703125,-0.7556397318840027,1.5054762363433838,-1.3342814445495605
1777560079710453500,5.88445361328125,0.13927717506885529,-0.0308486707508564,-1.2371538877487183
1777560079728983600,5.902983642578125,0.6609556674957275,1.3154972791671753,-2.1949899196624756
1777560079747513600,5.921513671875,1.092226266860962,3.148702621459961,-1.901163935661316
1777560079766043600,5.940043701171875,1.5015056133270264,3.6960372924804688,-1.519984245300293
1777560079784573700,5.95857373046875,1.1081087589263916,3.1609199047088623,-1.761886715888977
1777560079803103700,5.977103759765625,0.4935787320137024,1.6807944774627686,-1.6476550102233887
1777560079821633800,5.9956337890625,-0.033597562462091446,0.0821613147854805,-1.2927426099777222
1777560079840164000,6.0141640625,-0.3903425931930542,-0.13652828335762024,-1.3599376678466797
1777560079858694100,6.032694091796875,-0.2993237376213074,0.5531380772590637,-1.1711804866790771
1777560079877224200,6.05122412109375,-0.1649334877729416,1.4828742742538452,-0.929888904094696
1777560079895754200,6.069754150390625,-0.10079269111156464,1.784030556678772,-0.7564033269882202
1777560079914284300,6.0882841796875,-0.24801109731197357,1.1334595680236816,-0.8480330109596252
1777560079932814300,6.106814453125,-0.4050033390522003,0.30024003982543945,-0.9537126421928406
1777560079951344600,6.1253447265625,-0.5387827157974243,0.07360920310020447,-0.9873101711273193
1777560079969874700,6.143874755859375,-0.5222893953323364,0.21777328848838806,-0.9152281284332275
1777560079988404700,6.16240478515625,-0.2993237376213074,0.6343830823898315,-0.7863357067108154
1777560080006934800,6.180934814453125,-0.13683371245861053,0.805425226688385,-0.5878046154975891
1777560080025464800,6.19946484375,-0.1594357043504715,0.32589635252952576,-0.4192059636116028
1777560080043995000,6.217994873046875,-0.19303326308727264,0.02107483521103859,-0.5047270059585571
1777560080062525200,6.236525146484375,-0.2364046722650528,0.0009162971982732415,-0.5529853701591492
1777560080081055200,6.25505517578125,-0.20708316564559937,0.4046979248523712,-0.45646870136260986
1777560080099585300,6.273585205078125,-0.05803215503692627,0.517707884311676,-0.1510363221168518
1777560080118115300,6.292115234375,0.06475166976451874,0.5696313977241516,0.09086613357067108
1777560080136645400,6.310645263671875,0.023823726922273636,0.2782489061355591,0.4085158109664917
1777560080155175700,6.32917578125,0.0360410213470459,-0.27580544352531433,0.7237220406532288
1777560080173705500,6.34770556640625,0.2467893660068512,-0.7418952584266663,1.1189515590667725
1777560080192235800,6.36623583984375,0.2260199636220932,-1.6258165836334229,1.6363539695739746
1777560080210765800,6.384765869140625,0.4276053309440613,-2.140164852142334,2.231947183609009
1777560080229295900,6.4032958984375,0.4685332775115967,-2.1224496364593506,2.8935136795043945
1777560080247826000,6.421825927734375,0.4251618981361389,-1.9526292085647583,3.156796455383301
1777560080266356200,6.440356201171875,0.19730933010578156,-1.5903865098953247,2.8904595375061035
1777560080284886300,6.45888623046875,-0.3402516841888428,-1.4749330282211304,2.4457497596740723
1777560080303416300,6.477416259765625,-0.778241753578186,-1.5751148462295532,2.3089160919189453
1777560080321946400,6.4959462890625,-0.7269290685653687,-1.0332777500152588,2.5489859580993652
1777560080340476400,6.514476318359375,-0.6420188546180725,-0.6539307236671448,2.863581418991089
1777560080359006500,6.53300634765625,-0.5106829404830933,-1.1102467775344849,2.4878995418548584
1777560080377536500,6.55153662109375,-0.3646862804889679,-0.8530726432800293,2.0016510486602783
1777560080396066800,6.57006689453125,-0.1331685185432434,-0.6679806113243103,1.8312199115753174
1777560080414596900,6.588596923828125,0.258395791053772,-0.7828232049942017,1.734092354774475
1777560080433127000,6.607126953125,0.5296197533607483,-1.5506802797317505,1.512959361076355
1777560080451657000,6.625656982421875,0.48991355299949646,-2.481027364730835,1.4928008317947388
1777560080470187300,6.644187255859375,0.40805765986442566,-2.749807834625244,1.6748385429382324
1777560080488717300,6.66271728515625,0.5314523577690125,-2.690553903579712,1.4793617725372314
1777560080507247400,6.681247314453125,0.7953459620475769,-2.30570912361145,0.6827940940856934
1777560080525777400,6.69977734375,0.952949047088623,-1.6001602411270142,-0.38438665866851807
1777560080544307500,6.718307373046875,0.9602794051170349,-0.8585704565048218,-1.208443284034729
1777560080562837800,6.736837646484375,0.9651663303375244,-0.2513708472251892,-1.7050763368606567
1777560080581367800,6.755367919921875,0.9327905178070068,0.3961458206176758,-2.0471606254577637
1777560080599897900,6.77389794921875,0.8820887207984924,0.9868520498275757,-2.2389721870422363
1777560080618428000,6.792427978515625,0.6902772188186646,1.3405427932739258,-1.7905974388122559
1777560080636958000,6.8109580078125,0.06291907280683517,0.8225294351577759,-0.12110394239425659
1777560080655488000,6.829488037109375,-0.4972439408302307,0.03329212963581085,1.6846123933792114
1777560080674018300,6.848018310546875,-0.13072505593299866,-1.7186681032180786,1.3577996492385864
1777560080692548400,6.86654833984375,0.20647229254245758,-2.3099851608276367,1.5141810178756714
1777560080711078400,6.885078369140625,0.002443459117785096,-2.8799219131469727,1.5990912914276123
1777560080729608400,6.9036083984375,0.20402882993221283,-2.3881759643554688,0.6382009983062744
1777560080748138500,6.922138427734375,0.18387030065059662,-0.36804601550102234,-0.2835939824581146
1777560080766668800,6.940668701171875,-0.10140355676412582,0.6520981788635254,-0.25671592354774475
1777560080785198800,6.95919873046875,-0.36163195967674255,1.5433498620986938,-0.9072869420051575
1777560080803729000,6.97772900390625,-0.3860665261745453,2.7394230365753174,-0.8578068614006042
1777560080822259000,6.996259033203125,0.17837251722812653,1.675296664237976,-0.6519454121589661
1777560080840789200,7.014789306640625,0.25411975383758545,-0.3448331654071808,-0.8126028776168823
1777560080859319300,7.0333193359375,0.07391463965177536,1.107803225517273,-1.6018401384353638
1777560080877849300,7.051849365234375,-0.4453204274177551,5.002066135406494,-2.802800416946411
1777560080896379400,7.07037939453125,-0.924849271774292,5.7393798828125,-2.906036376953125
1777560080914909400,7.088909423828125,-1.0690133571624756,3.035081624984741,-1.8559598922729492
1777560080933439700,7.107439697265625,-0.7189878225326538,0.21960589289665222,-0.9274454712867737
1777560080951969800,7.1259697265625,-0.012217295356094837,-0.36804601550102234,-1.4876084327697754
1777560080970499800,7.144499755859375,0.4159989058971405,1.534186840057373,-2.050825834274292
1777560080989030000,7.16302978515625,0.9602794051170349,2.616028308868408,-1.4692825078964233
1777560081007560000,7.181559814453125,1.3304635286331177,3.478569507598877,-1.4118611812591553
1777560081026090000,7.200090087890625,0.9511164426803589,3.107774496078491,-1.6574288606643677
1777560081044620300,7.218620361328125,0.370184063911438,1.6533055305480957,-1.5523601770401
1777560081063150300,7.237150390625,-0.17531819641590118,0.3704894781112671,-1.292131781578064
1777560081081680400,7.255680419921875,-0.3231474757194519,0.44318240880966187,-1.2872447967529297
1777560081100210400,7.27421044921875,-0.17715078592300415,1.2904518842697144,-1.1504111289978027
1777560081118740500,7.292740478515625,0.014049889519810677,2.237903118133545,-0.8834632039070129
1777560081137270800,7.311270751953125,-0.05864302068948746,2.0546436309814453,-0.9274454712867737
1777560081155800800,7.32980078125,-0.360410213470459,0.9129374027252197,-1.1998910903930664
1777560081174331000,7.348330810546875,-0.7024945020675659,0.05100720748305321,-1.335503101348877
1777560081192861000,7.36686083984375,-0.7409789562225342,0.4248564541339874,-1.152243733406067
1777560081211391000,7.385390869140625,-0.5436696410179138,1.1450660228729248,-0.901178240776062
1777560081229921300,7.40392138671875,-0.39828383922576904,1.1609485149383545,-0.780837893486023
1777560081248451300,7.422451416015625,-0.3121519088745117,0.45051276683807373,-0.5804742574691772
1777560081266981400,7.4409814453125,-0.18203771114349365,0.12980876863002777,-0.41615164279937744
1777560081285511400,7.459511474609375,-0.09407317638397217,0.2666424810886383,-0.3220784664154053
1777560081304041700,7.478041748046875,-0.07330377399921417,0.2458730787038803,-0.2328922003507614
1777560081322571800,7.49657177734375,-0.08552107214927673,0.06872228533029556,-0.3000873327255249
1777560081341101800,7.515101806640625,-0.06780599057674408,-0.08032871782779694,-0.09544762223958969
1777560081359632000,7.5336318359375,0.07819069176912308,0.19272783398628235,0.44211336970329285
1777560081378162000,7.552161865234375,0.0818558782339096,-0.03817904740571976,1.0108284950256348
1777560081396692200,7.570692138671875,0.143553227186203,-0.8231402635574341,1.5722131729125977
1777560081415222300,7.58922216796875,0.24984370172023773,-1.8078542947769165,2.1916301250457764
1777560081433752300,7.60775244140625,0.5338957905769348,-2.272111654281616,2.762788772583008
1777560081452282400,7.626282470703125,0.637742817401886,-2.227518320083618,3.0669994354248047
1777560081470812700,7.644812744140625,0.5913171172142029,-2.1047346591949463,3.079216718673706
1777560081489342700,7.6633427734375,0.14538581669330597,-1.6771292686462402,2.6467244625091553
1777560081507872800,7.681872802734375,-0.5894845128059387,-1.7534873485565186,2.24416446685791
1777560081526402800,7.70040283203125,-0.7470875978469849,-1.5195261240005493,2.316246509552002
1777560081544932900,7.718932861328125,-0.5259546041488647,-0.7009673118591309,2.6644394397735596
1777560081563463200,7.737463134765625,-0.685390293598175,-0.9453132748603821,2.8067710399627686
1777560081581993200,7.7559931640625,-0.8075632452964783,-1.665522813796997,2.5019493103027344
1777560081600523300,7.774523193359375,-0.6456840634346008,-1.275791049003601,2.1335978507995605
1777560081619053300,7.79305322265625,-0.14110976457595825,-0.7846558094024658,1.9167410135269165
1777560081637583600,7.81158349609375,0.4166097939014435,-1.1627811193466187,1.4708096981048584
1777560081656113700,7.83011376953125,0.665842592716217,-1.8188499212265015,1.3345868587493896
1777560081674643700,7.848643798828125,0.6798924803733826,-2.4272711277008057,1.538004755973816
1777560081693173800,7.867173828125,0.6890554428100586,-2.872591733932495,1.7114903926849365
1777560081711703800,7.885703857421875,0.8258891701698303,-2.9489498138427734,1.4054471254348755
1777560081730234000,7.904234130859375,0.9682206511497498,-2.3313653469085693,0.5361865758895874
1777560081748764200,7.92276416015625,1.007315993309021,-1.1139118671417236,-0.550541877746582
1777560081767294200,7.941294189453125,0.9957095980644226,-0.18845178186893463,-1.2817469835281372
1777560081785824300,7.95982421875,0.94439697265625,0.324063777923584,-1.7203478813171387
1777560081804354600,7.9783544921875,0.861319363117218,0.6282744407653809,-1.9763002395629883
1777560081822884600,7.996884521484375,0.7904590368270874,0.9416480660438538,-1.855349063873291
1777560081841414700,8.01541455078125,0.4685332775115967,0.9550870656967163,-1.2047780752182007
1777560081859944700,8.03394482421875,-0.389120876789093,0.16829325258731842,0.08536835014820099
1777560081878474800,8.052474853515625,-0.46547895669937134,-1.1701115369796753,1.5001311302185059
1777560081897005000,8.071005126953125,0.06108647957444191,-1.904370903968811,1.7023273706436157
1777560081915535000,8.08953515625,0.05436696484684944,-2.2226314544677734,1.7426445484161377
1777560081943330000,8.117330078125,0.3035998046398163,-2.581820011138916,0.5019781589508057
1777560081961860400,8.1358603515625,0.5821541547775269,-0.8005383014678955,-0.5914698243141174
1777560081980390400,8.154390380859375,0.5259546041488647,1.4938697814941406,-1.0068578720092773
1777560081998920400,8.17292041015625,-0.5907062292098999,3.5781404972076416,-1.4143047332763672
1777560082017450500,8.191450439453124,-1.57297682762146,3.1224353313446045,-0.4198168218135834
1777560082035980800,8.209980712890625,-0.17165300250053406,1.028390884399414,-0.29397866129875183
1777560082054510800,8.2285107421875,0.5601630210876465,-1.0613775253295898,-0.5664243698120117
1777560082073041000,8.247041015625,0.6579013466835022,-0.9538653492927551,-1.2414299249649048
1777560082091571000,8.265571044921876,-0.0720820426940918,4.278191566467285,-2.419788122177124
1777560082110101000,8.28410107421875,-0.8258891701698303,6.4449286460876465,-2.877936601638794
1777560082128631300,8.30263134765625,-1.117882490158081,3.5133888721466064,-2.0068435668945312
1777560082147161300,8.321161376953125,-0.6493492722511292,-0.14508038759231567,-0.9860884547233582
1777560082165691400,8.33969140625,0.22357651591300964,-0.8268054723739624,-1.97263503074646
1777560082184221400,8.358221435546875,0.8344413042068481,2.13527774810791,-2.4161229133605957
1777560082202751700,8.376751708984376,1.5479313135147095,3.775449752807617,-1.6739221811294556
1777560082221281800,8.39528173828125,1.3854413032531738,3.363726854324341,-1.7918190956115723
1777560082239811800,8.413811767578125,0.7275399565696716,1.905592679977417,-1.8516838550567627
1777560082258342000,8.432341796875,0.07880155742168427,0.17684535682201385,-1.4185807704925537
1777560082276872000,8.450871826171875,-0.5424479246139526,-0.2000582218170166,-1.2835795879364014
1777560082295402200,8.46940234375,-0.5424479246139526,0.5690205693244934,-1.2194387912750244
1777560082313932300,8.487932373046876,-0.347582072019577,1.4669917821884155,-1.1094831228256226
1777560082332462300,8.50646240234375,-0.2205221801996231,1.9825615882873535,-0.9531017541885376
1777560082350992400,8.524992431640625,-0.39889469742774963,1.3619229793548584,-0.9592103958129883
1777560082369522700,8.543522705078125,-0.6035344004631042,0.41935867071151733,-1.1998910903930664
1777560082388052700,8.562052734375,-0.637742817401886,0.5592467188835144,-1.1223113536834717
1777560082406582800,8.580582763671876,-0.5442805290222168,0.9954041838645935,-0.8571959733963013
1777560082425112800,8.59911279296875,-0.3909534513950348,0.9856303334236145,-0.7405208349227905
1777560082443643000,8.617642822265625,-0.277332603931427,0.4010327160358429,-0.6629409790039062
1777560082462173200,8.636173095703125,-0.17898337543010712,-0.008857538923621178,-0.5908589363098145
1777560082480703200,8.654703125,-0.12522727251052856,0.03329212963581085,-0.5108356475830078
1777560082499233300,8.6732333984375,-0.0824667438864708,0.36621344089508057,-0.448527455329895
1777560082517763300,8.691763427734376,-0.01649334840476513,0.425467312335968,-0.45097091794013977
1777560082536293400,8.71029345703125,0.017104214057326317,0.1389717310667038,-0.15042544901371002
1777560082554823700,8.72882373046875,0.03237583488225937,0.11453714966773987,0.28206682205200195
1777560082573353700,8.747353759765625,0.0769689604640007,-0.14752385020256042,0.8196278214454651
1777560082591883800,8.7658837890625,0.18325942754745483,-0.8255837559700012,1.4115557670593262
1777560082610413800,8.784413818359376,0.33231043815612793,-1.6526947021484375,1.9784382581710815
1777560082628944100,8.802944091796874,0.5473348498344421,-2.287994146347046,2.5630359649658203
1777560082647474200,8.82147412109375,0.5375609993934631,-2.3319764137268066,3.1341943740844727
1777560082666004200,8.840004150390625,0.38179048895835876,-2.2421791553497314,3.140303134918213
1777560082684534300,8.8585341796875,0.046425722539424896,-1.8390084505081177,2.7762277126312256
1777560082703064300,8.877064208984375,-0.5259546041488647,-1.831678032875061,2.4860668182373047
1777560082721594600,8.8955947265625,-0.6798924803733826,-1.663690209388733,2.483623504638672
1777560082740124700,8.914124755859374,-0.5839866995811462,-0.8103121519088745,2.8128795623779297
1777560082758654700,8.93265478515625,-0.6890554428100586,-0.7076868414878845,3.13480544090271
1777560082777184800,8.951184814453125,-0.6218603253364563,-1.0326669216156006,2.9741477966308594
1777560082795715000,8.969715087890625,-0.2730565667152405,-1.0931425094604492,2.2985315322875977
1777560082814245000,8.9882451171875,0.1441640853881836,-1.2641847133636475,1.7456988096237183
1777560082832775200,9.006775146484374,0.5980366468429565,-1.5659518241882324,1.5251766443252563
1777560082851305200,9.02530517578125,0.8045089244842529,-2.179260015487671,1.5746567249298096
1777560082869835300,9.043835205078125,0.7116574645042419,-2.8817546367645264,1.652847409248352
1777560082888365600,9.062365478515625,0.5913171172142029,-3.1725261211395264,1.74508798122406
1777560082906895600,9.0808955078125,0.7079922556877136,-2.9581127166748047,1.447596788406372
1777560082925425700,9.09942578125,1.0219768285751343,-2.1474950313568115,0.5526798963546753
1777560082943955700,9.117955810546874,1.0396918058395386,-1.1921026706695557,-0.47174033522605896
1777560082962486000,9.136486083984375,1.0067051649093628,-0.5910117030143738,-1.2701406478881836
1777560082981016000,9.15501611328125,0.9865466356277466,-0.013744457624852657,-1.8315253257751465
1777560082999546000,9.173546142578125,1.0091485977172852,0.6771436333656311,-2.229809045791626
1777560083018076200,9.192076171875,0.9590576887130737,1.2134828567504883,-2.198655128479004
1777560083036606200,9.210606201171874,0.36651885509490967,0.5732966065406799,-1.0838267803192139
1777560083055136500,9.229136474609374,-0.6896663308143616,0.0565049909055233,0.9772309064865112
1777560083073666600,9.24766650390625,-0.4471530318260193,-1.0497710704803467,1.7371467351913452
1777560083092196600,9.266196533203125,0.14294235408306122,-1.8286237716674805,1.3706278800964355
1777560083110726700,9.2847265625,-0.10629047453403473,-2.042426347732544,1.5526655912399292
1777560083129256700,9.303256591796876,-0.17287473380565643,-2.047924280166626,1.11345374584198
1777560083147787000,9.321787109375,0.1545487940311432,-1.5323543548583984,0.23991714417934418
1777560083166317000,9.340317138671875,0.027488915249705315,-0.04550942778587341,-0.2493855506181717
1777560083184847000,9.35884716796875,-0.39889469742774963,0.7205150127410889,-1.0013600587844849
1777560083203377200,9.377377197265625,-1.0390809774398804,2.867093801498413,-1.559079647064209
1777560083221907500,9.395907470703126,-0.472198486328125,3.126100540161133,-1.1381938457489014
1777560083240437200,9.414437255859376,-0.12156209349632263,0.14996729791164398,-0.7441860437393188
1777560083258967600,9.432967529296874,0.37140578031539917,-0.7968730926513672,-1.1968368291854858
1777560083277497600,9.45149755859375,0.2528980076313019,3.272707939147949,-2.6702425479888916
1777560083296027600,9.470027587890625,-0.32009315490722656,6.0900163650512695,-3.191310405731201
1777560083314558000,9.488557861328125,-0.7238747477531433,4.9305949211120605,-2.444833517074585
1777560083333088000,9.507087890625,-0.48930269479751587,2.0974042415618896,-1.123533010482788
1777560083351618000,9.5256181640625,0.3390299379825592,0.31551164388656616,-1.1418589353561401
1777560083370148000,9.544148193359375,0.7202095985412598,1.5024219751358032,-2.305556297302246
1777560083388678400,9.562678466796875,1.007315993309021,2.9605562686920166,-1.9048291444778442
1777560083407208400,9.58120849609375,1.33290696144104,3.19329571723938,-1.417969822883606
1777560083425738500,9.599738525390626,1.0189224481582642,2.6416847705841064,-1.4979931116104126
1777560083444268500,9.6182685546875,0.6194168925285339,1.498756766319275,-1.3581050634384155
1777560083462798600,9.636798583984374,0.22479823231697083,0.5745183229446411,-1.2078323364257812
1777560083481329000,9.655328857421875,0.03237583488225937,0.6215549111366272,-1.3568834066390991
1777560083499859000,9.67385888671875,0.08552107214927673,1.1786636114120483,-1.262810230255127
1777560083518389000,9.692388916015625,0.17898337543010712,1.8249585628509521,-0.9292780160903931
1777560083536919000,9.7109189453125,-0.010384701192378998,2.120617151260376,-0.6837103962898254
1777560083555449300,9.729449462890624,-0.3445277214050293,1.3539817333221436,-0.790611743927002
1777560083573979100,9.747979248046875,-0.7458658814430237,0.14691297709941864,-1.1259765625
1777560083592509400,9.766509521484375,-0.9120211005210876,-0.30512696504592896,-1.1852303743362427
1777560083611039500,9.78503955078125,-0.8008437156677246,0.24709481000900269,-1.0569487810134888
1777560083629569500,9.803569580078126,-0.6059778332710266,0.7510582208633423,-0.9659299254417419
1777560083648099600,9.822099609375,-0.4465421438217163,0.5158752799034119,-0.8559742569923401
1777560083666629600,9.840629638671874,-0.3426951467990875,0.1340848207473755,-0.6812669634819031
1777560083685160000,9.859159912109375,-0.2767217457294464,-0.016798781231045723,-0.5401571989059448
1777560083703690000,9.87768994140625,-0.19425499439239502,0.05406153202056885,-0.5480984449386597
1777560083722220000,9.896219970703125,-0.11056652665138245,0.22327107191085815,-0.45707955956459045
1777560083740750000,9.91475,-0.1288924664258957,0.33139413595199585,-0.31413722038269043
1777560083759280400,9.9332802734375,-0.08063415437936783,0.08093958348035812,-0.14248420298099518
1777560083777810400,9.951810546875,0.006719512399286032,-0.1597411334514618,0.18616104125976562
1777560083796340500,9.970340576171875,0.04764745384454727,-0.5054906010627747,0.708450436592102
1777560083814870500,9.98887060546875,0.19730933010578156,-1.1242966651916504,1.2234094142913818
1777560083833400600,10.007400634765625,0.37629270553588867,-1.7565417289733887,1.7799072265625
1777560083851931000,10.025930908203126,0.536339282989502,-2.0186026096343994,2.400545835494995
1777560083870461000,10.0444609375,0.5174024701118469,-1.9538509845733643,2.8965680599212646
1777560083888991000,10.062990966796875,0.347582072019577,-2.0766348838806152,3.087157964706421
1777560083907521000,10.08152099609375,-0.0030543238390237093,-1.6166536808013916,2.839146852493286
1777560083926051300,10.10005126953125,-0.5180133581161499,-1.5934407711029053,2.4078762531280518
1777560083944581400,10.118581298828126,-0.7257073521614075,-1.812130331993103,2.3785548210144043
1777560083963111400,10.137111328125,-0.6548470258712769,-1.3741402626037598,2.7181954383850098
1777560083981641500,10.155641357421874,-0.8185588121414185,-1.2843432426452637,2.9466590881347656
1777560084000171500,10.174171630859375,-0.7751874327659607,-1.3014473915100098,2.6222898960113525
1777560084018701600,10.19270166015625,-0.6163625717163086,-0.8078686594963074,2.1537563800811768
1777560084037231600,10.211231689453125,-0.46364638209342957,-0.41325002908706665,2.098167896270752
1777560084055762000,10.229761962890626,-0.11972949653863907,-0.7681624889373779,2.084117889404297
1777560084074292000,10.2482919921875,0.27488914132118225,-1.5042544603347778,2.0584616661071777
1777560084092822000,10.266822021484375,0.536339282989502,-1.9526292085647583,2.1775801181793213
1777560084111352000,10.28535205078125,0.6010909676551819,-2.3490805625915527,2.0938918590545654
1777560084129882400,10.30388232421875,0.6316341757774353,-2.4773621559143066,1.6656755208969116
1777560084148412400,10.322412353515626,0.7709113359451294,-1.9275838136672974,0.8947641849517822
1777560084166942500,10.3409423828125,0.8197805285453796,-1.3283255100250244,-0.07589995115995407
1777560084185472500,10.359472412109374,0.8045089244842529,-0.8494074940681458,-0.8681915402412415
1777560084204002600,10.37800244140625,0.8203914165496826,-0.31001389026641846,-1.4588978290557861
1777560084222532600,10.39653271484375,0.905912458896637,0.24709481000900269,-1.9585851430892944
1777560084241063000,10.41506298828125,0.9480621218681335,0.7724385261535645,-2.0777037143707275
1777560084259593000,10.433593017578126,0.4923570156097412,0.5580250024795532,-0.9060651659965515
1777560084278123000,10.452123046875,-0.39828383922576904,0.08399390429258347,0.4659371078014374
1777560084296653300,10.4706533203125,-0.5387827157974243,-1.1640028953552246,1.254563570022583
1777560084315183400,10.489183349609375,0.1130099818110466,-1.7614285945892334,0.8440623879432678
1777560084333713400,10.50771337890625,0.1178968995809555,-2.031430721282959,1.3199260234832764
1777560084352243500,10.526243408203126,-0.002443459117785096,-2.0717480182647705,1.0267109870910645
1777560084380038700,10.55403857421875,0.011606430634856224,-0.43401941657066345,-0.23777911067008972
1777560084398568700,10.572568603515625,-0.3347539007663727,0.17562362551689148,-0.21212279796600342
1777560084417098800,10.5910986328125,-0.6236929297447205,0.5714640021324158,-0.7368556261062622
1777560084435628800,10.60962890625,-0.8112284541130066,1.5225805044174194,-1.182176113128662
1777560084454159000,10.6281591796875,-0.3243691921234131,2.276998519897461,-1.2188279628753662
1777560084472689200,10.646689208984375,-0.18203771114349365,1.1139118671417236,-1.1229221820831299
1777560084491219200,10.66521923828125,0.06352993845939636,1.3826924562454224,-1.6714787483215332
1777560084509749200,10.683749267578126,-0.007941242307424545,4.311178207397461,-2.7759222984313965
1777560084528279300,10.702279296875,-0.056810423731803894,5.270236015319824,-3.436877965927124
1777560084546809300,10.720809326171874,-0.4459312856197357,4.126086235046387,-2.719111919403076
1777560084565339600,10.739339599609375,-0.6243038177490234,1.5335760116577148,-1.3965896368026733
1777560084583869700,10.75786962890625,0.034208428114652634,-0.12431098520755768,-0.9292780160903931
1777560084602399700,10.776399658203125,0.6218603253364563,1.0937533378601074,-1.8871140480041504
1777560084620929800,10.7949296875,1.0103703737258911,2.603811025619507,-2.0294454097747803
1777560084639459800,10.8134599609375,1.2162318229675293,3.003316640853882,-1.6391029357910156
1777560084657990100,10.831990234375,0.9963204264640808,2.788292169570923,-1.6757547855377197
1777560084676520200,10.850520263671875,0.5729911923408508,2.181703567504883,-1.7038545608520508
1777560084695050200,10.86905029296875,0.17226386070251465,1.4107922315597534,-1.4253002405166626
1777560084713580300,10.887580322265626,-0.056199558079242706,0.9636391997337341,-1.292131781578064
1777560084732110300,10.9061103515625,-0.1441640853881836,1.2409718036651611,-1.1504111289978027
1777560084750640400,10.924640380859374,-0.06108647957444191,2.0381503105163574,-0.8944587707519531
1777560084769170700,10.943170654296875,-0.09712749719619751,2.0112721920013428,-0.7509055137634277
1777560084787700700,10.96170068359375,-0.40378162264823914,0.7101303339004517,-0.8633046746253967
1777560084806230800,10.980230712890625,-0.7134900689125061,-0.30451610684394836,-1.2426517009735107
1777560084824760800,10.9987607421875,-0.8374956250190735,-0.06750056147575378,-1.1681262254714966
1777560084843291000,11.017290771484374,-0.8063415288925171,0.795651376247406,-0.9854776263237
1777560084861821200,11.0358212890625,-0.6200277805328369,1.0302234888076782,-0.8956804871559143
1777560084880351200,11.054351318359375,-0.3225366175174713,0.6411026120185852,-0.6830995678901672
1777560084898881300,11.07288134765625,-0.1484401375055313,0.19700388610363007,-0.43569931387901306
1777560084917411300,11.091411376953126,-0.12400554865598679,-0.04367683082818985,-0.29764387011528015
1777560084935941400,11.10994140625,-0.018325943499803543,0.07116574794054031,-0.37461283802986145
1777560084954471400,11.128471435546874,0.10567960888147354,-0.03329212963581085,-0.6727148294448853
1777560084973001700,11.147001708984375,0.0513126403093338,0.10109812021255493,-0.45646870136260986
1777560084991531800,11.16553173828125,-0.0256563201546669,0.5769617557525635,0.2179260104894638
1777560085010061800,11.184061767578125,-0.04520399495959282,0.4413498044013977,0.6284271478652954
1777560085028591900,11.202591796875,0.046425722539424896,-0.24404047429561615,1.0908517837524414
1777560085047122000,11.221121826171874,0.14538581669330597,-1.2721259593963623,1.5276200771331787
1777560085065652200,11.23965234375,0.32681265473365784,-2.2782201766967773,1.9766056537628174
1777560085084182300,11.258182373046875,0.5577195286750793,-2.5042402744293213,2.620457172393799
1777560085102712300,11.27671240234375,0.5351175665855408,-2.4908010959625244,3.1256422996520996
1777560085121242400,11.295242431640625,0.43004879355430603,-2.162766695022583,3.05905818939209
1777560085139772400,11.3137724609375,0.05436696484684944,-1.5659518241882324,2.6271767616271973
1777560085158302500,11.332302490234374,-0.5674933791160583,-1.3655881881713867,2.3089160919189453
1777560085176832800,11.350832763671875,-0.6157516837120056,-0.9361502528190613,2.3883285522460938
1777560085195362800,11.36936279296875,-0.3194822669029236,-0.2715294063091278,2.732856273651123
1777560085213892900,11.387892822265625,-0.2834412455558777,-1.028390884399414,2.7139194011688232
1777560085232423000,11.4064228515625,-0.2761108875274658,-1.4950915575027466,2.3125813007354736
1777560085250953000,11.424952880859376,-0.1545487940311432,-0.9288198947906494,2.0975568294525146
1777560085269483300,11.443483154296874,0.18570289015769958,-0.9569196701049805,1.974162220954895
1777560085288013300,11.462013427734375,0.555276095867157,-1.6490294933319092,1.595426082611084
1777560085306543400,11.48054345703125,0.675616443157196,-2.369239091873169,1.4182753562927246
1777560085325073400,11.499073486328125,0.6505709886550903,-2.9776604175567627,1.5642719268798828
1777560085343603500,11.517603515625,0.6145299673080444,-3.1902413368225098,1.7829616069793701
1777560085362133500,11.536133544921874,0.7666352987289429,-2.997818946838379,1.6094759702682495
1777560085380663800,11.554663818359375,0.8826996088027954,-2.4743077754974365,0.8495602011680603
1777560085399193900,11.57319384765625,0.9810488224029541,-1.5030328035354614,-0.12232567369937897
1777560085417724000,11.591723876953125,0.8863648176193237,-0.601396381855011,-0.838259220123291
1777560085436254000,11.61025390625,0.7721330523490906,-0.22693626582622528,-1.3605486154556274
1777560085464049200,11.638049072265625,0.9456186890602112,0.592233419418335,-2.1247403621673584
1777560085482579200,11.6565791015625,0.7898481488227844,1.1511746644973755,-2.04532790184021
1777560085501109200,11.675109130859376,0.046425722539424896,0.7015781998634338,-1.141248106956482
1777560085519639600,11.6936396484375,-0.6585122346878052,0.3295615613460541,0.48914995789527893
1777560085538169600,11.712169677734375,-0.3591884970664978,-1.5775582790374756,1.366351842880249
1777560085556699600,11.73069970703125,0.17287473380565643,-2.185368776321411,1.3645192384719849
1777560085575229700,11.749229736328125,-0.009162971749901772,-1.9556835889816284,1.5392265319824219
1777560085593759700,11.767759765625,0.06902772188186646,-1.775478482246399,0.9411898851394653
1777560085612289800,11.786289794921874,0.2712239623069763,-0.2782489061355591,0.0639880821108818
1777560085630819800,11.80481982421875,-0.07574722915887833,0.3943132162094116,-0.503505289554596
1777560085649350100,11.82335009765625,-0.5729911923408508,2.4572036266326904,-1.2127193212509155
1777560085667880200,11.841880126953125,-0.749531090259552,3.9752025604248047,-1.2487603425979614
1777560085686410200,11.86041015625,-0.3341430425643921,1.9410228729248047,-1.2884665727615356
1777560085704940300,11.878940185546876,0.06352993845939636,-1.0235038995742798,-1.3012946844100952
1777560085723470600,11.897470703125,0.03237583488225937,0.9917389750480652,-2.162614107131958
1777560085742000600,11.916000732421875,-0.4728093445301056,4.663647174835205,-2.609766960144043
1777560085760530700,11.93453076171875,-0.7819069027900696,4.842019557952881,-2.193157196044922
1777560085779060700,11.953060791015625,-0.6713404059410095,2.269057273864746,-1.47661292552948
1777560085797590800,11.9715908203125,-0.15577052533626556,0.6239983439445496,-1.2951860427856445
1777560085816120800,11.990120849609376,0.45998117327690125,0.8897245526313782,-1.9115486145019531
1777560085834651000,12.00865087890625,0.8906408548355103,2.5909829139709473,-1.9176572561264038
1777560085853181200,12.02718115234375,1.3023637533187866,3.4779586791992188,-1.4643956422805786
1777560085871711200,12.045711181640625,1.0965023040771484,3.0405795574188232,-1.5279254913330078
1777560085890241300,12.0642412109375,0.5662716627120972,1.9288055896759033,-1.86512291431427
1777560085908771300,12.082771240234376,0.08429934084415436,0.7357866168022156,-1.486386775970459
1777560085927301600,12.101301513671874,-0.3274235129356384,0.40836310386657715,-1.1223113536834717
1777560085945831700,12.119831787109375,-0.49968740344047546,0.7999274134635925,-1.0997092723846436
1777560085964361700,12.13836181640625,-0.35063639283180237,1.5244131088256836,-1.0416771173477173
1777560085982891800,12.156891845703125,-0.13194678723812103,1.7571525573730469,-1.0398445129394531
1777560086001421800,12.175421875,-0.337808221578598,0.9740238785743713,-1.279914379119873
1777560086019951900,12.193951904296876,-0.5772672295570374,0.14019346237182617,-1.4161372184753418
1777560086038482000,12.21248193359375,-0.6236929297447205,0.46456265449523926,-1.2554798126220703
1777560086057012200,12.23101220703125,-0.5247328281402588,1.027169108390808,-0.9830341339111328
1777560086075542000,12.2495419921875,-0.34086254239082336,1.17499840259552,-0.7796161770820618
1777560086094072300,12.268072265625,-0.20280711352825165,0.796262264251709,-0.5022835731506348
1777560086112602400,12.286602294921876,-0.19303326308727264,0.2684750556945801,-0.46807512640953064
1777560086131132700,12.305132568359374,-0.2101374864578247,-0.2055560052394867,-0.5926915407180786
1777560086149662700,12.323662841796875,-0.258395791053772,-0.06383536756038666,-0.4741837978363037
1777560086168192800,12.34219287109375,-0.13561198115348816,0.518318772315979,-0.2597702443599701
1777560086186722800,12.360722900390625,-0.06230820715427399,0.5647444725036621,-0.08872810751199722
1777560086205252900,12.3792529296875,0.018325943499803543,0.14691297709941864,0.10369429737329483
1777560086223783000,12.397782958984376,0.09285144507884979,-0.4615083336830139,0.4189005196094513
1777560086242313000,12.41631298828125,0.21502439677715302,-0.8280271887779236,0.9045380353927612
1777560086260843300,12.43484326171875,0.34086254239082336,-1.2483022212982178,1.4940224885940552
1777560086279373300,12.453373291015625,0.5235111117362976,-2.0381503105163574,2.0969460010528564
1777560086297903400,12.4719033203125,0.5540543794631958,-2.196364402770996,2.7823362350463867
1777560086316433400,12.490433349609376,0.47525280714035034,-2.0387611389160156,3.230710983276367
1777560086334963700,12.508963623046874,0.3182605504989624,-1.5891647338867188,3.1525204181671143
1777560086353493800,12.52749365234375,-0.08857539296150208,-1.1853830814361572,2.7181954383850098
1777560086372023800,12.54602392578125,-0.5772672295570374,-1.4981458187103271,2.3932154178619385
1777560086390553900,12.564553955078125,-0.6768381595611572,-1.5384629964828491,2.500727653503418
1777560086409084000,12.583083984375,-0.6340776681900024,-1.3179407119750977,2.8593053817749023
1777560086427614200,12.6016142578125,-0.646905779838562,-1.7058398723602295,2.716362953186035
1777560086446144300,12.620144287109374,-0.6798924803733826,-1.2214241027832031,2.2759294509887695
1777560086464674300,12.63867431640625,-0.5516108870506287,-0.4169152081012726,2.087172269821167
1777560086483204400,12.657204345703125,0.011606430634856224,-0.6514872908592224,1.9314017295837402
1777560086501734700,12.675734619140625,0.5900954008102417,-1.4278963804244995,1.743866205215454
1777560086520264400,12.694264404296876,0.7727439403533936,-2.22690749168396,1.8892520666122437
1777560086538794800,12.712794677734376,0.6505709886550903,-2.7180428504943848,2.1256566047668457
1777560086557324800,12.73132470703125,0.573602020740509,-3.036914348602295,1.901469349861145
1777560086575854800,12.749854736328125,0.618806004524231,-2.671006202697754,1.1543817520141602
1777560086594385000,12.768385009765625,0.7464767694473267,-1.702785611152649,0.14034618437290192
1777560086612915000,12.7869150390625,0.7861829996109009,-0.8640682101249695,-0.7319687008857727
1777560086631445200,12.8054453125,0.8258891701698303,-0.1951712965965271,-1.2298234701156616
1777560086649975300,12.823975341796874,0.9028581380844116,0.20922118425369263,-1.6012293100357056
1777560086668505300,12.84250537109375,0.9376774430274963,0.30146175622940063,-1.9420918226242065
1777560086687035400,12.861035400390625,0.8820887207984924,0.6209440231323242,-1.9500330686569214
1777560086705565700,12.879565673828125,0.4868592321872711,0.6734784245491028,-1.4979931116104126
1777560086724095700,12.898095703125,-0.23029601573944092,0.2678641974925995,-0.06246092543005943
1777560086742625800,12.916625732421876,-0.1026252806186676,-1.3332123756408691,1.7780746221542358
1777560086761155800,12.93515576171875,0.3543015718460083,-2.2391247749328613,1.5068507194519043
1777560086779686000,12.953685791015625,0.15577052533626556,-2.2220206260681152,1.74508798122406
1777560086798216200,12.97221630859375,0.11056652665138245,-2.5744895935058594,1.2460113763809204
1777560086816746200,12.990746337890625,0.4422661066055298,-1.9905028343200684,0.004123337101191282
1777560086835276300,13.0092763671875,0.2626718580722809,-0.04734202101826668,-0.7246383428573608
1777560086853806300,13.027806396484374,-0.1905898153781891,0.9538653492927551,-0.7399099469184875
1777560086872336600,13.046336669921875,-0.7709113359451294,4.103484153747559,-1.1882847547531128
1777560086890866700,13.06486669921875,-0.06230820715427399,3.2097890377044678,-0.808937668800354
1777560086909396700,13.083396728515625,0.29626941680908203,-0.4224129915237427,-0.5871937870979309
1777560086927926800,13.1019267578125,0.34636032581329346,-1.6349796056747437,-1.2017236948013306
1777560086946456800,13.120456787109376,-0.1899789422750473,2.8927502632141113,-2.3880231380462646
1777560086964987100,13.138987060546874,-0.6511818766593933,6.2964887619018555,-2.92008638381958
1777560086983517200,13.15751708984375,-0.9205732345581055,4.856069564819336,-2.3880231380462646
1777560087002047200,13.176047119140625,-0.9908226728439331,1.48776113986969,-1.2670862674713135
1777560087020577300,13.194577392578125,-0.2919933497905731,-0.7559451460838318,-1.2194387912750244
1777560087039107600,13.213107666015626,0.4618137776851654,0.619722306728363,-2.444833517074585
1777560087057637600,13.2316376953125,1.2675443887710571,3.277595043182373,-1.9970697164535522
1777560087076167700,13.250167724609375,1.7043126821517944,4.445568561553955,-1.3825397491455078
1777560087094698000,13.268697998046875,1.2791508436203003,3.8041603565216064,-1.6635375022888184
1777560087113228000,13.28722802734375,0.5864301919937134,1.7143919467926025,-1.624442219734192
1777560087131758000,13.305758056640625,-0.1490510106086731,-0.1487455666065216,-1.1100940704345703
1777560087150288100,13.3242880859375,-0.6750055551528931,-0.15118902921676636,-0.984866738319397
1777560087168818200,13.342818115234374,-0.5143481492996216,0.6496546864509583,-1.0337358713150024
1777560087187348500,13.361348388671875,-0.2809978127479553,1.7956370115280151,-0.838259220123291
1777560087205878500,13.37987841796875,-0.18325942754745483,1.999055027961731,-0.6311760544776917
1777560087224408600,13.39840869140625,-0.5485565662384033,0.9007201194763184,-0.8437569737434387
1777560087242938600,13.416938720703126,-0.6414080262184143,0.23793183267116547,-1.2774709463119507
1777560087261469000,13.435468994140624,-0.6023126840591431,0.5897899270057678,-1.3025164604187012
1777560087279999000,13.4539990234375,-0.46547895669937134,0.8610138893127441,-1.0661118030548096
1777560087298529000,13.472529052734375,-0.4050033390522003,0.9563088417053223,-0.7435751557350159
1777560087317059000,13.49105908203125,-0.4098902642726898,0.3955349326133728,-0.47784897685050964
1777560087335589000,13.509589111328125,-0.26511532068252563,0.04550942778587341,-0.7105884552001953
1777560087354119400,13.528119384765626,-0.14172062277793884,-0.17623448371887207,-0.7728966474533081
1777560087372649500,13.5466494140625,-0.01588248461484909,0.4218021333217621,-0.6898190379142761
1777560087391179500,13.565179443359375,0.03176496922969818,0.8164207935333252,-0.47296205163002014
1777560087409709800,13.583709716796875,-0.05558869615197182,0.7571669220924377,-0.06979130208492279
1777560087428240000,13.602239990234375,-0.09896009415388107,0.3039052188396454,0.2887863218784332
1777560087446770000,13.62077001953125,-0.007941242307424545,-0.10354158282279968,0.7493783831596375
1777560087465300000,13.639300048828124,0.13927717506885529,-0.7357866168022156,1.26189386844635
1777560087483830300,13.657830322265625,0.2162461280822754,-1.7174463272094727,1.8806999921798706
1777560087502360300,13.6763603515625,0.46486809849739075,-2.051589250564575,2.57891845703125
1777560087520890400,13.694890380859375,0.5308414697647095,-1.898873209953308,3.18856143951416
1777560087539420400,13.71342041015625,0.46608981490135193,-1.8359540700912476,3.2765259742736816
1777560087557950500,13.731950439453126,0.20219624042510986,-1.6594141721725464,2.8935136795043945
1777560087576480800,13.750480712890624,-0.4147771894931793,-1.4553853273391724,2.437197685241699
1777560087595010800,13.7690107421875,-0.7067705392837524,-1.24769127368927,2.288146734237671
1777560087613541000,13.787541015625,-0.4972439408302307,-0.6270527243614197,2.6894848346710205
1777560087632071200,13.8060712890625,-0.4776962697505951,-1.0992511510849,2.88862681388855
1777560087650601200,13.824601318359376,-0.4569268524646759,-1.7033964395523071,2.473238706588745
1777560087669131300,13.84313134765625,-0.3970620930194855,-1.1499528884887695,2.1415390968322754
1777560087687661300,13.861661376953125,-0.22663083672523499,-0.9447023868560791,2.1000003814697266
1777560087706191600,13.880191650390625,0.1594357043504715,-1.3136646747589111,1.9039127826690674
1777560087724721700,13.8987216796875,0.500298261642456,-1.9556835889816284,1.5874848365783691
1777560087743251700,13.917251708984375,0.6902772188186646,-2.2904374599456787,1.5465569496154785
1777560087761782000,13.935781982421876,0.9352339506149292,-3.230558395385742,1.7444771528244019
1777560087780312000,13.95431201171875,0.9468404054641724,-2.914741277694702,1.4537054300308228
1777560087798842000,13.972842041015625,1.0054833889007568,-2.3545782566070557,0.6180424690246582
1777560087817372200,13.9913720703125,1.063515543937683,-1.436448574066162,-0.31841325759887695
1777560087835902500,14.00990234375,0.9993748068809509,-0.6966912746429443,-0.975703775882721
1777560087854432500,14.0284326171875,0.9706641435623169,-0.3637699782848358,-1.3666572570800781
1777560087872962600,14.046962646484374,0.9663881063461304,-0.0009162971982732415,-1.6574288606643677
1777560087891492900,14.065492919921875,0.943175196647644,0.39186975359916687,-1.8083124160766602
1777560087910023000,14.08402294921875,0.7263182401657104,0.6044507026672363,-1.5981749296188354
1777560087928553000,14.102552978515625,0.18753549456596375,0.07544180005788803,-0.8681915402412415
1777560087947083000,14.1210830078125,-0.48991355299949646,-0.324063777923584,0.9332486391067505
1777560087965613300,14.13961328125,-0.15271618962287903,-1.561675786972046,1.7902919054031372
1777560087984143400,14.158143310546874,0.32070401310920715,-2.2250750064849854,1.7560834884643555
1777560088002673400,14.17667333984375,0.024434590712189674,-2.272111654281616,1.7047709226608276
1777560088021203700,14.19520361328125,0.10567960888147354,-2.341139316558838,0.6779071688652039
1777560088039733800,14.213733642578125,0.47952884435653687,-1.526856541633606,-0.4497492015361786
1777560088058263800,14.232263916015626,0.4734202027320862,0.07116574794054031,-0.8064942359924316
1777560088076793900,14.2507939453125,-0.2816086709499359,1.9569053649902344,-1.3758201599121094
1777560088095324200,14.26932421875,-0.9737184643745422,4.758331298828125,-1.3342814445495605
1777560088113854200,14.287854248046875,-0.5968148708343506,2.405280113220215,-0.7533490061759949
1777560088132384300,14.30638427734375,-0.22357651591300964,-1.3136646747589111,-0.6537780165672302
1777560088150914600,14.32491455078125,0.1386663019657135,-2.2788310050964355,-1.51143217086792
1777560088169444600,14.343444580078126,-0.15638138353824615,3.0246970653533936,-2.7007858753204346
1777560088187974700,14.361974609375,-0.5253437161445618,6.345357894897461,-2.9555165767669678
1777560088206505000,14.3805048828125,-0.7751874327659607,4.612334728240967,-2.1693334579467773
1777560088225035000,14.399034912109375,-0.5858193039894104,1.7247767448425293,-0.9256128668785095
1777560088243565000,14.41756494140625,0.22724169492721558,-0.07544180005788803,-1.5890120267868042
1777560088262095400,14.436095458984376,0.739757239818573,1.3490948677062988,-2.330601930618286
1777560088280625400,14.45462548828125,1.303585410118103,3.188408613204956,-1.5902336835861206
1777560088299155500,14.473155517578125,1.423925757408142,3.5830273628234863,-1.3336704969406128
1777560088317685500,14.491685546875,1.008537769317627,2.8622069358825684,-1.6916372776031494
1777560088336215800,14.5102158203125,0.4361574649810791,1.1804962158203125,-1.7001893520355225
1777560088354745900,14.528745849609376,-0.08857539296150208,0.10598503798246384,-1.319009780883789
1777560088373276000,14.54727587890625,-0.4508182108402252,0.3992001414299011,-1.2536472082138062
1777560088391806200,14.56580615234375,-0.4105011224746704,1.229365348815918,-1.1039854288101196
1777560088410336300,14.584336181640625,-0.16126830875873566,2.291659116744995,-0.8755219578742981
1777560088428866300,14.6028662109375,-0.15760311484336853,2.0601415634155273,-0.7954986691474915
1777560088447396600,14.621396728515625,-0.535728394985199,0.6441569328308105,-1.0813833475112915
1777560088465926700,14.6399267578125,-0.7373138070106506,-0.17562362551689148,-1.2634210586547852
1777560088484456700,14.658456787109374,-0.6640099883079529,0.3271180987358093,-1.0948224067687988
1777560088502987000,14.676987060546875,-0.48013970255851746,1.0277799367904663,-0.8755219578742981
1777560088521517000,14.69551708984375,-0.2834412455558777,0.9275981783866882,-0.605519711971283
1777560088540047000,14.714047119140625,-0.20769402384757996,0.3607156574726105,-0.4228711426258087
1777560088558577200,14.7325771484375,-0.17104214429855347,-0.11636973917484283,-0.5010618567466736
1777560088577107500,14.751107421875,-0.25045454502105713,-0.32589635252952576,-0.44669488072395325
1777560088595637500,14.769637451171874,-0.17898337543010712,0.08155044913291931,-0.40026915073394775
1777560088614167600,14.78816748046875,-0.06291907280683517,0.3790415823459625,-0.39110618829727173
1777560088632697900,14.80669775390625,-0.04886918142437935,0.5067123174667358,-0.17363831400871277
1777560088651228000,14.825227783203125,0.06291907280683517,0.4303542375564575,0.1928805559873581
1777560088669758200,14.84375830078125,0.1490510106086731,-0.19333870708942413,0.6186532974243164
1777560088688288300,14.862288330078124,0.23884813487529755,-0.8286380767822266,1.0364848375320435
1777560088706818300,14.880818359375,0.34636032581329346,-1.6087124347686768,1.5318961143493652
1777560088725348600,14.8993486328125,0.49602219462394714,-2.1279475688934326,2.176358461380005
1777560088743878700,14.917878662109375,0.4886918365955353,-2.2000296115875244,2.9124505519866943
1777560088762408700,14.93640869140625,0.4159989058971405,-2.0662500858306885,3.1677920818328857
1777560088780939000,14.95493896484375,0.23212862014770508,-1.7534873485565186,2.933830738067627
1777560088799469000,14.973468994140624,-0.17287473380565643,-1.6801835298538208,2.523329734802246
1777560088817999000,14.9919990234375,-0.5161807537078857,-1.8322888612747192,2.3510658740997314
1777560088836529400,15.010529296875,-0.5717694163322449,-1.5604541301727295,2.531270980834961
1777560088855059500,15.0290595703125,-0.47464191913604736,-1.0473276376724243,2.794553756713867
1777560088873589800,15.04758984375,-0.3903425931930542,-0.9795216917991638,2.643059253692627
1777560088892119800,15.066119873046874,-0.277332603931427,-1.3484840393066406,2.09572434425354
1777560088910649900,15.08464990234375,-0.23335035145282745,-1.1230748891830444,2.01997709274292
1777560088929180200,15.10318017578125,-0.08002328872680664,-1.3008365631103516,2.037081241607666
1777560088947710200,15.121710205078125,0.20158538222312927,-1.8756603002548218,1.8788673877716064
1777560088966240300,15.140240234375,0.36651885509490967,-2.1731514930725098,1.7976223230361938
1777560088984770600,15.1587705078125,0.574212908744812,-2.4321582317352295,1.7890702486038208
1777560089003300600,15.177300537109375,0.7623592615127563,-2.475529432296753,1.6210824251174927
1777560089021830700,15.19583056640625,0.9309579133987427,-2.2177445888519287,1.1012364625930786
1777560089040361000,15.21436083984375,1.0097594261169434,-1.6270383596420288,0.22953243553638458
1777560089058891000,15.23289111328125,1.0115920305252075,-0.8628464937210083,-0.6299542784690857
1777560089077421300,15.25142138671875,0.9382883310317993,-0.48960810899734497,-1.2658644914627075
1777560089095951400,15.269951416015624,0.8851430416107178,-0.15485422313213348,-1.7386739253997803
1777560089114481400,15.2884814453125,0.8643736839294434,0.34238970279693604,-2.103360176086426
1777560089133011700,15.30701171875,0.7018836140632629,0.7980948090553284,-1.817475438117981
1777560089151541800,15.325541748046875,0.17715078592300415,0.4627300798892975,-0.6128500699996948
1777560089170071800,15.34407177734375,-0.3659079968929291,0.13225223124027252,1.0254892110824585
1777560089188602000,15.36260205078125,-0.20647229254245758,-1.542128086090088,1.9222387075424194
1777560089207132200,15.381132080078125,0.27977606654167175,-2.2458443641662598,1.6858340501785278
1777560089225662500,15.399662353515625,0.053756099194288254,-2.1920883655548096,1.862373948097229
1777560089244192500,15.418192626953125,-0.16187916696071625,-2.1835360527038574,1.3425281047821045
1777560089262722600,15.43672265625,0.08979712426662445,-1.9898920059204102,0.21181736886501312
1777560089281252900,15.4552529296875,0.2919933497905731,-0.9789108037948608,-0.6568323373794556
1777560089299783000,15.473782958984375,0.20769402384757996,0.5904008150100708,-0.8639155030250549
1777560089318313000,15.49231298828125,-0.7422007322311401,2.1224496364593506,-1.2951860427856445
1777560089336843300,15.51084326171875,-1.0512982606887817,2.0100505352020264,-1.0404554605484009
1777560089355373300,15.529373291015625,0.14049890637397766,1.1255183219909668,-0.6928733587265015
1777560089373903600,15.547903564453126,0.7281508445739746,-0.2623664140701294,-0.8327614068984985
1777560089392433700,15.56643359375,0.6249146461486816,-0.08277218043804169,-1.5291472673416138
1777560089410963700,15.584963623046875,-0.014049889519810677,4.283689498901367,-2.8797693252563477
1777560089429494000,15.603493896484375,-0.5601630210876465,5.84017276763916,-3.2224643230438232
1777560089448024000,15.622024169921875,-0.9315688014030457,3.881129264831543,-2.21575927734375
1777560089466554000,15.64055419921875,-0.9211840629577637,1.3002257347106934,-0.8205441236495972
1777560089485084400,15.65908447265625,0.030543239787220955,-0.31062474846839905,-1.0135773420333862
1777560089503614500,15.677614501953125,0.7330377101898193,1.1035271883010864,-2.307999849319458
1777560089522144800,15.696144775390625,1.386052131652832,3.0418012142181396,-1.9146028757095337
1777560089540674800,15.7146748046875,1.5723659992218018,3.551873207092285,-1.623220443725586
1777560089559205000,15.733205078125,1.0702351331710815,2.8933610916137695,-1.7502802610397339
1777560089577735200,15.751735107421876,0.4324922561645508,1.3942989110946655,-1.7258456945419312
1777560089596265500,15.770265380859374,-0.17531819641590118,-0.11698060482740402,-1.3330596685409546
1777560089614795500,15.78879541015625,-0.6035344004631042,-0.3900371491909027,-1.3067924976348877
1777560089633325600,15.80732568359375,-0.4862483739852905,0.2831358313560486,-1.3141229152679443
1777560089651856000,15.82585595703125,-0.2730565667152405,1.405294418334961,-1.0905463695526123
1777560089670386000,15.844385986328126,-0.1178968995809555,2.3124287128448486,-0.7887791395187378
1777560089688916200,15.862916259765624,-0.13744457066059113,2.08457612991333,-0.8425352573394775
1777560089707446300,15.8814462890625,-0.5766563415527344,0.22204934060573578,-1.2011128664016724
1777560089725976300,15.899976318359375,-0.6609556674957275,-0.4633409380912781,-1.3984222412109375
1777560089744506600,15.918506591796875,-0.6041452884674072,0.37354379892349243,-1.1369720697402954
1777560089763036700,15.93703662109375,-0.4373791813850403,0.8451313972473145,-0.8419243693351746
1777560089781567000,15.95556689453125,-0.31093016266822815,0.7058542370796204,-0.7276926636695862
1777560089800097000,15.974096923828125,-0.22418737411499023,0.18906265497207642,-0.7643445730209351
1777560089818627300,15.99262744140625,-0.2364046722650528,-0.2098320573568344,-0.6867647171020508
1777560089837157400,16.011157470703125,-0.20708316564559937,0.028405211865901947,-0.5065596103668213
1777560089855687700,16.029687744140624,-0.049480047076940536,0.33200499415397644,-0.41554075479507446
1777560089874217700,16.0482177734375,0.08674279600381851,0.45906487107276917,-0.15347976982593536
1777560089892747800,16.066747802734376,0.12400554865598679,0.694247841835022,0.3052796721458435
1777560089911278000,16.085278076171875,0.24251331388950348,0.3338375985622406,0.7640390992164612
1777560089929808400,16.103808349609373,0.3402516841888428,-0.4370737373828888,1.098182201385498
1777560089948338400,16.12233837890625,0.39400777220726013,-1.2067633867263794,1.4879138469696045
1777560089966868500,16.140868408203126,0.4508182108402252,-1.961181402206421,1.9961533546447754
1777560089985398800,16.159398681640624,0.34697118401527405,-2.61541748046875,2.7481279373168945
1777560090003928800,16.1779287109375,0.25350889563560486,-2.2568399906158447,3.2594218254089355
1777560090022459100,16.196459228515625,0.10384701192378998,-1.4718786478042603,3.067610263824463
1777560090040989200,16.2149892578125,-0.18570289015769958,-1.0723731517791748,2.603963851928711
1777560090059519500,16.23351953125,-0.5784889459609985,-1.321605920791626,2.396880626678467
1777560090078049500,16.252049560546876,-0.6591231226921082,-1.497534990310669,2.436586856842041
1777560090096579800,16.270579833984375,-0.5937605500221252,-1.3008365631103516,2.567312002182007
1777560090115110000,16.28910986328125,-0.6206386089324951,-0.9001092314720154,2.5667011737823486
1777560090133640000,16.307639892578123,-0.5723803043365479,-0.5519163012504578,2.4597997665405273
1777560090152170200,16.326170166015626,-0.35185810923576355,-0.2574795186519623,2.246608018875122
1777560090170700500,16.344700439453124,-0.047036588191986084,-0.5696313977241516,2.0627377033233643
1777560090189230600,16.363230712890626,0.28588470816612244,-1.0528254508972168,1.815948247909546
1777560090207761000,16.381760986328125,0.4917461574077606,-1.517082691192627,1.7023273706436157
1777560090226291000,16.400291015625,0.5955931544303894,-2.0607523918151855,1.6394083499908447
1777560090244821000,16.418821044921874,0.6976075768470764,-2.3680174350738525,1.5233440399169922
1777560090263351300,16.437351318359376,0.7837395071983337,-2.3600761890411377,1.0554215908050537
1777560090281881600,16.455881591796874,0.8521563410758972,-1.5219695568084717,0.291229784488678
1777560090300411600,16.47441162109375,0.7660244107246399,-0.8084795475006104,-0.4790706932544708
1777560090318942000,16.49294189453125,0.7965676784515381,-0.3955349326133728,-1.1204787492752075
1777560090337472000,16.511471923828125,0.8967494964599609,-0.0925460159778595,-1.6507093906402588
1777560090356002000,16.530001953125,0.9914335608482361,0.40714138746261597,-2.0581562519073486
1777560090374532400,16.548532470703126,0.9621120095252991,0.9935715794563293,-2.126573085784912
1777560090393062700,16.567062744140625,0.516791582107544,0.25992295145988464,-1.3574942350387573
1777560090411592700,16.5855927734375,-0.07086031138896942,-0.32528549432754517,0.5367974042892456
1777560090430122800,16.604122802734373,-0.2052505612373352,-0.8035926222801208,1.5581632852554321
1777560090448653000,16.622653076171876,0.1905898153781891,-1.5867213010787964,1.567326307296753
1777560090467183400,16.641183349609374,-0.14721840620040894,-2.3759584426879883,2.0804526805877686
1777560090485713400,16.65971337890625,-0.015271619893610477,-2.408334493637085,1.2044726610183716
1777560090504243700,16.67824365234375,0.07880155742168427,-1.7767002582550049,0.2075413018465042
1777560090522773800,16.696773681640625,-0.056810423731803894,-0.2672533392906189,-0.8217658400535583
1777560090541304000,16.715303955078124,-0.5949822664260864,1.7858631610870361,-1.0386228561401367
1777560090559834000,16.733834228515626,-1.525329351425171,1.8909319639205933,-1.1192569732666016
1777560090578364400,16.752364501953124,-0.535728394985199,2.050978422164917,-1.4020873308181763
1777560090596894700,16.770894775390627,0.5198459029197693,0.3448331654071808,-1.2945752143859863
1777560090615424800,16.7894248046875,0.6224712133407593,0.9782999157905579,-1.6745331287384033
1777560090633955000,16.807955078125,0.12095122784376144,3.9629852771759033,-2.350149631500244
1777560090652485000,16.826485107421874,-0.2767217457294464,5.498088359832764,-2.6867361068725586
1777560090671015400,16.845015380859376,-0.544891357421875,3.7785041332244873,-2.126573085784912
1777560090689545500,16.86354541015625,-0.7012727856636047,1.3826924562454224,-1.213940978050232
1777560090708075800,16.88207568359375,-0.18570289015769958,-0.5952877402305603,-1.1320852041244507
1777560090726605800,16.900605712890624,0.43371400237083435,0.8353576064109802,-2.299447774887085
1777560090745136000,16.91913623046875,1.176525592803955,3.3185229301452637,-2.0331106185913086
1777560090763666400,16.93766650390625,1.5687007904052734,4.154796600341797,-1.6769765615463257
1777560090782196500,16.956196533203126,1.0751219987869263,3.137706995010376,-1.837023138999939
1777560090800726800,16.974726806640625,0.42882707715034485,1.214093804359436,-1.5511384010314941
1777560090819256800,16.9932568359375,-0.23945899307727814,-0.21716243028640747,-1.1736239194869995
1777560090837787100,17.011787109375,-0.5180133581161499,0.12247838824987411,-1.23654305934906
1777560090856317400,17.0303173828125,-0.35185810923576355,1.0699297189712524,-1.1192569732666016
1777560090874847500,17.048847412109374,-0.10079269111156464,1.9569053649902344,-0.8516982197761536
1777560090893377800,17.067377685546877,-0.0818558782339096,1.6881247758865356,-0.8877392411231995
1777560090911907800,17.085907958984375,-0.49052441120147705,0.33017241954803467,-1.1186461448669434
1777560090930438100,17.104438232421874,-0.6603448390960693,-0.019242240116000175,-1.0581705570220947
1777560090948968200,17.12296826171875,-0.6035344004631042,0.509155809879303,-0.8083268404006958
1777560090967498500,17.14149853515625,-0.47097674012184143,0.8029817342758179,-0.6769908666610718
1777560090986028800,17.16002880859375,-0.2730565667152405,0.5335903763771057,-0.6653844714164734
1777560091004558800,17.178558837890623,-0.1331685185432434,0.032070402055978775,-0.6446150541305542
1777560091023089200,17.197089111328125,-0.07452550530433655,-0.0772743970155716,-0.5933024287223816
1777560091041619500,17.215619384765624,-0.04214967042207718,0.11209368705749512,-0.5138899683952332
1777560091060149500,17.2341494140625,0.08491020649671555,0.4468475878238678,-0.5853611826896667
1777560091078679800,17.2526796875,0.13011419773101807,0.2971857190132141,-0.5303833484649658
1777560091097209900,17.2712099609375,0.14110976457595825,0.16340632736682892,-0.12415826320648193
1777560091115740200,17.289740234375,0.20952661335468292,0.5812378525733948,0.38652467727661133
1777560091134270500,17.3082705078125,0.2522871494293213,0.33078327775001526,0.9680679440498352
1777560091152800500,17.326800537109374,0.3023780584335327,-0.5904008150100708,1.3180934190750122
1777560091171330800,17.345330810546876,0.2657261788845062,-1.7235549688339233,1.6461278200149536
1777560091189861000,17.363861083984375,0.4043924808502197,-2.302043914794922,2.1745259761810303
1777560091208391400,17.382391357421874,0.23457208275794983,-2.5329508781433105,3.090212106704712
1777560091226921500,17.40092138671875,0.09101885557174683,-2.1310017108917236,3.3773186206817627
1777560091245451800,17.41945166015625,-0.11667517572641373,-1.3112212419509888,2.989419460296631
1777560091263981800,17.43798193359375,-0.5748237371444702,-1.4847068786621094,2.7682864665985107
1777560091282512100,17.45651220703125,-0.9034690260887146,-2.220798969268799,2.7646212577819824
1777560091301042400,17.47504248046875,-0.9883792400360107,-1.6221513748168945,2.732245445251465
1777560091319572500,17.493572509765624,-1.0067051649093628,-0.3222311735153198,2.780503749847412
1777560091338102800,17.512102783203126,-0.924238383769989,0.007024944759905338,2.7536256313323975
1777560091356633000,17.530633056640625,-0.5174024701118469,-0.2922987937927246,2.4469716548919678
1777560091375163400,17.549163330078127,-0.059864748269319534,-0.5384773015975952,2.095113515853882
1777560091393693400,17.567693359375,0.3274235129356384,-1.13712477684021,1.781129002571106
1777560091412223700,17.5862236328125,0.5338957905769348,-1.7064508199691772,1.70721435546875
1777560091430753800,17.60475390625,0.5112938284873962,-2.291659116744995,1.724318504333496
1777560091449284000,17.6232841796875,0.2938259541988373,-2.4712533950805664,1.652847409248352
1777560091467814400,17.641814453125,0.12034036219120026,-2.1523821353912354,1.2405136823654175
1777560091486344400,17.660344482421873,0.2730565667152405,-1.3771946430206299,0.46776971220970154
1777560091504874800,17.678874755859376,0.5314523577690125,-0.39675667881965637,-0.47784897685050964
1777560091523405000,17.697405029296874,0.7379246354103088,0.1951712965965271,-1.392924427986145
1777560091541935400,17.715935302734376,0.822834849357605,0.6056724190711975,-2.1412336826324463
1777560091560465700,17.734465576171875,0.7776308655738831,1.0033453702926636,-2.685514211654663
1777560091578995700,17.75299560546875,0.6823359727859497,1.1016945838928223,-2.7783658504486084
1777560091597526000,17.771526123046876,0.2669478952884674,0.4975493550300598,-1.2279908657073975
1777560091616056300,17.790056396484374,-0.22785256803035736,-1.0332777500152588,1.677892804145813
1777560091634586400,17.80858642578125,-0.34147340059280396,-0.3436114490032196,1.9717187881469727
1777560091653116700,17.82711669921875,0.24312418699264526,-1.729663610458374,2.0181446075439453
1777560091671647000,17.84564697265625,0.008552107028663158,-2.6526803970336914,2.0053162574768066
1777560091690177000,17.864177001953124,-0.26450446248054504,-2.3796236515045166,1.2863285541534424
1777560091708707300,17.882707275390626,-0.1185077652335167,-1.4340050220489502,0.06582067906856537
1777560091727237600,17.901237548828124,0.21258094906806946,0.025961752980947495,-0.2890917658805847
1777560091745767700,17.919767578125,0.3799578845500946,0.9245438575744629,-0.8736893534660339
1777560091764298000,17.938298095703125,-0.7134900689125061,2.477972984313965,-1.4185807704925537
1777560091782828300,17.956828369140624,-0.953559935092926,1.3112212419509888,-0.6892082095146179
1777560091801358600,17.975358642578126,-0.5497782826423645,-0.1493564397096634,-0.8852958083152771
1777560091819889000,17.993888916015624,0.06352993845939636,-0.7626646757125854,-1.348331332206726
1777560091838419000,18.0124189453125,0.034208428114652634,2.562883138656616,-2.7374377250671387
1777560091856949200,18.03094921875,-0.053145237267017365,5.043604850769043,-3.482081890106201
1777560091875479600,18.0494794921875,-0.1954767256975174,4.824304580688477,-2.7087271213531494
1777560091894009900,18.068009765625,-0.49663305282592773,2.4260494709014893,-1.6110031604766846
1777560091912540200,18.0865400390625,-0.2412915825843811,0.3552178740501404,-0.9072869420051575
1777560091931070200,18.1050703125,0.5442805290222168,0.13591741025447845,-1.5224277973175049
1777560091949600500,18.1236005859375,1.0506874322891235,1.7705916166305542,-2.1363468170166016
1777560091968130800,18.142130859375,1.3652827739715576,2.6086981296539307,-1.8858922719955444
1777560091986661000,18.1606611328125,1.275485634803772,2.4382667541503906,-1.8321361541748047
1777560092005191200,18.179191162109376,0.8069523572921753,1.7333288192749023,-1.8516838550567627
1777560092023721500,18.197721435546875,0.34697118401527405,0.7657189965248108,-1.4271328449249268
1777560092042251800,18.216251708984377,-0.1588248461484909,0.2684750556945801,-1.1479676961898804
1777560092060781800,18.23478173828125,-0.31581708788871765,0.32039856910705566,-1.2670862674713135
1777560092079312100,18.25331201171875,-0.1954767256975174,1.0467168092727661,-1.121700406074524
1777560092097842400,18.271842529296876,-0.10995566099882126,1.6307035684585571,-0.9170607328414917
1777560092116372700,18.290372802734375,-0.1233946830034256,1.6209297180175781,-0.8358157277107239
1777560092134903000,18.308903076171877,-0.38179048895835876,0.8567378520965576,-1.032514214515686
1777560092153433000,18.32743310546875,-0.5913171172142029,-0.07605266571044922,-1.3025164604187012
1777560092171963400,18.34596337890625,-0.6927206516265869,-0.11026109009981155,-1.2817469835281372
1777560092190493700,18.36449365234375,-0.6243038177490234,0.5574141144752502,-1.0367902517318726
1777560092209024000,18.38302392578125,-0.4410443603992462,1.0864230394363403,-0.8199332356452942
1777560092227554300,18.40155419921875,-0.268169641494751,0.8310815095901489,-0.6323977708816528
1777560092246084400,18.42008447265625,-0.24740023910999298,0.17867794632911682,-0.5731438994407654
1777560092264614700,18.43861474609375,-0.24984370172023773,-0.003359756199643016,-0.43631017208099365
1777560092283145000,18.45714501953125,-0.06047561392188072,0.16157373785972595,-0.5334376692771912
1777560092301675300,18.47567529296875,-0.020158538594841957,-0.04367683082818985,-0.6672170758247375
1777560092320205600,18.49420556640625,-0.08857539296150208,0.04245510324835777,-0.397825688123703
1777560092338735600,18.512735595703123,-0.021380268037319183,0.38270679116249084,0.013286309316754341
1777560092357266000,18.531265869140626,0.006108647678047419,0.029626941308379173,0.41706791520118713
1777560092375796200,18.549796142578124,0.007941242307424545,-0.7455604672431946,0.8605557680130005
1777560092394326500,18.568326416015626,0.25473061203956604,-1.0063997507095337,1.4995203018188477
1777560092412856800,18.58685693359375,0.43493571877479553,-1.6508620977401733,2.249051332473755
1777560092431387000,18.605386962890623,0.4581485986709595,-1.988059401512146,2.9191701412200928
1777560092449917200,18.623917236328126,0.42821621894836426,-1.76875901222229,3.184896230697632
1777560092468447500,18.642447509765624,0.2724456787109375,-1.5262455940246582,3.062723398208618
1777560092486977800,18.660977783203126,-0.1747073233127594,-1.4120138883590698,2.640615701675415
1777560092505508000,18.679508056640625,-0.730594277381897,-1.7259984016418457,2.2362232208251953
1777560092524038100,18.6980380859375,-0.8552106618881226,-1.8781037330627441,2.3535091876983643
1777560092542568400,18.716568359375,-0.7880155444145203,-1.3582578897476196,2.7896666526794434
1777560092561098800,18.7350986328125,-0.8026763200759888,-1.0424407720565796,2.9295547008514404
1777560092579629000,18.753629150390626,-0.6927206516265869,-0.8604030609130859,2.5355470180511475
1777560092598159000,18.7721591796875,-0.4214966893196106,-0.6026180982589722,2.272264242172241
1777560092616689700,18.790689697265623,-0.09712749719619751,-0.5152644515037537,2.2508840560913086
1777560092635219700,18.8092197265625,0.27855435013771057,-1.025336503982544,1.9332343339920044
1777560092653750000,18.82775,0.6108647584915161,-1.6197079420089722,1.8073961734771729
1777560092672280300,18.8462802734375,0.7654135823249817,-2.0442590713500977,1.825722098350525
1777560092690810400,18.864810302734377,0.7953459620475769,-2.512181520462036,1.7652465105056763
1777560092709340700,18.883340576171875,0.7269290685653687,-2.601367712020874,1.365130066871643
1777560092727871000,18.90187109375,0.8277217745780945,-2.0552544593811035,0.5123628377914429
1777560092746401300,18.9204013671875,0.9120211005210876,-1.4217877388000488,-0.4601338803768158
1777560092764931600,18.938931640625,0.9456186890602112,-0.897665798664093,-1.190117359161377
1777560092783462000,18.9574619140625,0.9755510687828064,-0.4517345130443573,-1.8217514753341675
1777560092801992000,18.975991943359375,0.9474512934684753,0.168904110789299,-2.1949899196624756
1777560092820522200,18.994522216796874,0.813671886920929,1.0063997507095337,-1.8938335180282593
1777560092839052500,19.013052490234376,0.3396408259868622,0.8268054723739624,-0.2964221239089966
1777560092857582800,19.031582763671874,-0.44348782300949097,-0.4712821841239929,1.233794093132019
1777560092876113200,19.050113037109377,-0.25534147024154663,-1.996611475944519,1.4262166023254395
1777560092894643500,19.0686435546875,0.33536475896835327,-2.1945316791534424,1.3498584032058716
1777560092913173500,19.087173583984374,0.24495677649974823,-2.3283112049102783,1.6216932535171509
1777560092931703800,19.105703857421876,0.1331685185432434,-2.282496213912964,1.1855357885360718
1777560092950234000,19.124234130859374,0.36163195967674255,-1.148120403289795,0.3889681398868561
1777560092968764400,19.142764404296877,0.4764745235443115,0.18295399844646454,-0.233503058552742
1777560092987294700,19.161294677734375,0.1692095398902893,1.0772600173950195,-1.2927426099777222
1777560093005824800,19.17982470703125,-0.7764091491699219,2.8518221378326416,-1.5095995664596558
1777560093024355000,19.19835498046875,-0.19425499439239502,2.71010160446167,-0.7478511929512024
1777560093042885400,19.216885498046874,-0.009162971749901772,-0.7602212429046631,-0.48701193928718567
1777560093061415700,19.235415771484377,0.32620179653167725,-2.1132867336273193,-0.8565851449966431
1777560093079946000,19.253946044921875,-0.013439024798572063,2.2531747817993164,-2.7710354328155518
1777560093098476300,19.272476318359374,-0.3170388340950012,5.997165203094482,-3.802785873413086
1777560093117006300,19.29100634765625,-0.5534434914588928,5.275733470916748,-3.0379831790924072
1777560093135536600,19.30953662109375,-0.5564978122711182,1.9972224235534668,-1.3807071447372437
1777560093154067000,19.32806689453125,0.009162971749901772,-1.0931425094604492,-1.096655011177063
1777560093172597200,19.34659716796875,0.5338957905769348,0.16279546916484833,-2.5688390731811523
1777560093191127600,19.36512744140625,1.232114315032959,2.9849908351898193,-2.2371394634246826
1777560093209657900,19.383657958984376,1.6249003410339355,3.8261516094207764,-1.5566362142562866
1777560093228188000,19.40218798828125,1.3548980951309204,3.4022114276885986,-1.6702569723129272
1777560093246718200,19.42071826171875,0.6872228980064392,1.9825615882873535,-1.6201660633087158
1777560093265248500,19.43924853515625,0.13500112295150757,0.9104939699172974,-1.4234676361083984
1777560093283778800,19.45777880859375,-0.2565632164478302,0.8103121519088745,-1.3361139297485352
1777560093302309000,19.47630908203125,-0.2577849328517914,1.5781691074371338,-1.2640318870544434
1777560093320839200,19.494839111328126,-0.10445787757635117,2.4046692848205566,-1.0716094970703125
1777560093339369500,19.513369384765625,-0.13744457066059113,2.1694862842559814,-1.1015418767929077
1777560093357899800,19.531899658203123,-0.5943714380264282,0.6979129910469055,-1.3129011392593384
1777560093376430000,19.55043017578125,-0.8222240209579468,0.26480987668037415,-1.3281728029251099
1777560093394960400,19.56896044921875,-0.6682860851287842,1.1658353805541992,-1.0630574226379395
1777560093413490700,19.58749072265625,-0.40317076444625854,1.7278310060501099,-0.7979421019554138
1777560093432020700,19.606020751953125,-0.2779434621334076,1.2605195045471191,-0.4644099473953247
1777560093450551000,19.624551025390623,-0.15638138353824615,0.4523453712463379,-0.3355174660682678
1777560093469081300,19.643081298828125,-0.09712749719619751,0.11698060482740402,-0.44791659712791443
1777560093487611600,19.661611572265624,-0.037262752652168274,0.406530499458313,-0.378888875246048
1777560093506142000,19.680141845703126,-0.03543015569448471,0.6472112536430359,-0.34956738352775574
1777560093524672000,19.698672119140625,0.017104214057326317,0.13530655205249786,-0.3165806829929352
1777560093543202300,19.717202392578123,0.10140355676412582,0.11942406743764877,-0.036193739622831345
1777560093561732600,19.735732666015625,0.2828303873538971,0.26908594369888306,0.5160280466079712
1777560093580263000,19.754262939453124,0.35735589265823364,-0.14019346237182617,1.1006256341934204
1777560093598793000,19.77279296875,0.32131487131118774,-1.17499840259552,1.6241366863250732
1777560093617323500,19.791323486328125,0.3903425931930542,-2.182314395904541,2.2111778259277344
1777560093635853600,19.809853515625,0.49480047821998596,-2.3283112049102783,2.9332199096679688
1777560093654383900,19.8283837890625,0.45875945687294006,-2.347247838973999,3.3327255249023438
1777560093672914200,19.8469140625,0.35796675086021423,-2.07846736907959,3.146411657333374
1777560093691444500,19.865444580078126,-0.07024945318698883,-1.5378520488739014,2.7316346168518066
1777560093709974500,19.883974609375,-0.627968966960907,-1.5952733755111694,2.428645610809326
1777560093728504800,19.9025048828125,-0.5491674542427063,-1.242193579673767,2.547764301300049
1777560093747035100,19.92103515625,-0.4770853817462921,-0.8445205688476562,2.9038984775543213
1777560093765565400,19.9395654296875,-0.5827649831771851,-1.4535527229309082,2.8574726581573486
1777560093784095700,19.958095703125,-0.5907062292098999,-1.5335760116577148,2.4793474674224854
1777560093802625800,19.976625732421876,-0.4886918365955353,-1.2641847133636475,2.3510658740997314
1777560093821156000,19.995156005859375,-0.14294235408306122,-1.2483022212982178,2.336405038833618
1777560093839686400,20.013686279296873,0.23335035145282745,-1.7907501459121704,2.106719970703125
1777560093858216700,20.032216796875,0.5351175665855408,-2.542724609375,1.9142974615097046
1777560093876747000,20.0507470703125,0.6230821013450623,-2.835939645767212,1.9326233863830566
1777560093895277300,20.06927734375,0.667064368724823,-2.886641502380371,1.8526002168655396
1777560093913807400,20.087807373046875,0.7562506198883057,-2.4651448726654053,1.2918262481689453
1777560093932337700,20.106337646484373,0.8625410795211792,-1.6679662466049194,0.2759581506252289
1777560093950868000,20.124867919921876,0.905912458896637,-0.7718276381492615,-0.74540776014328
1777560093969398300,20.143398193359374,0.9010255336761475,-0.23793183267116547,-1.4198024272918701
1777560093987928600,20.161928466796876,0.9034690260887146,0.09498947113752365,-1.9164354801177979
1777560094006458600,20.180458740234375,0.9822705388069153,0.6685914993286133,-2.307999849319458
1777560094024989000,20.198989013671873,0.8539889454841614,1.1004729270935059,-2.260352373123169
1777560094043519200,20.217519287109376,0.06047561392188072,0.6417134404182434,-1.0850485563278198
1777560094062049500,20.236049560546874,-1.01708984375,0.1389717310667038,0.9808961153030396
1777560094080579800,20.254579833984376,-0.3488037884235382,-0.9459241032600403,1.6699515581130981
1777560094099110100,20.273110107421875,0.39400777220726013,-2.073580503463745,1.5416699647903442
1777560094117640200,20.29164013671875,0.023212861269712448,-2.4523167610168457,2.075565814971924
1777560094136170500,20.31017041015625,-0.15271618962287903,-2.1731514930725098,1.613752007484436
1777560094154700800,20.32870068359375,0.24923282861709595,-1.6416990756988525,0.20937390625476837
1777560094173231000,20.347231201171876,0.5619956254959106,-0.34238970279693604,-0.9072869420051575
1777560094191761400,20.365761474609375,0.4526508152484894,0.3381136655807495,-1.152854561805725
1777560094210291500,20.38429150390625,-0.5766563415527344,1.9007058143615723,-1.5181516408920288
1777560094228821800,20.40282177734375,-0.9957095980644226,2.871980667114258,-1.182176113128662
1777560094247352000,20.42135205078125,-0.1533270627260208,1.2232567071914673,-0.8345940113067627
1777560094265882400,20.43988232421875,0.5968148708343506,-0.9104939699172974,-0.8235984444618225
1777560094284412700,20.45841259765625,0.5381718873977661,0.09560033679008484,-1.6079487800598145
1777560094302943000,20.47694287109375,0.03481929376721382,4.430296897888184,-2.67696213722229
1777560094321473000,20.49547314453125,-0.2657261788845062,5.664854526519775,-2.986670732498169
1777560094340003300,20.51400341796875,-0.62857985496521,3.5659232139587402,-2.2536327838897705
1777560094358533600,20.53253369140625,-0.8912517428398132,1.2702933549880981,-1.190117359161377
1777560094377064000,20.55106396484375,-0.021380268037319183,-0.2202167510986328,-1.1748456954956055
1777560094395594200,20.56959423828125,0.8069523572921753,1.2513564825057983,-2.1870486736297607
1777560094414124500,20.58812451171875,1.3555089235305786,2.964221239089966,-1.956141710281372
1777560094432654600,20.606654541015626,1.3793326616287231,2.8762567043304443,-1.7936517000198364
1777560094451185000,20.625184814453124,0.9682206511497498,2.0748021602630615,-1.9683589935302734
1777560094469715200,20.643715087890627,0.5180133581161499,0.8536835312843323,-1.7227914333343506
1777560094488245200,20.662245361328125,-0.08857539296150208,-0.03329212963581085,-1.3978112936019897
1777560094506775800,20.68077587890625,-0.35246896743774414,0.1805105358362198,-1.3214532136917114
1777560094525305900,20.699305908203126,-0.2657261788845062,0.7987056970596313,-1.2066106796264648
1777560094543836200,20.717836181640624,-0.22357651591300964,1.4621047973632812,-0.9689842462539673
1777560094562366500,20.736366455078127,-0.09346231073141098,1.8151847124099731,-0.81810063123703
1777560094580896800,20.754896728515625,-0.24801109731197357,1.0564906597137451,-0.9158390164375305
1777560094599426800,20.7734267578125,-0.4935787320137024,0.03451386094093323,-1.1186461448669434
1777560094617957400,20.791957275390626,-0.5693259835243225,0.18356487154960632,-1.0545053482055664
1777560094636487400,20.8104873046875,-0.5375609993934631,0.8683443069458008,-0.8651372194290161
1777560094655017700,20.829017822265627,-0.43921178579330444,1.0668753385543823,-0.7759509682655334
1777560094673548000,20.847548095703125,-0.34208428859710693,0.6716458201408386,-0.6079631447792053
1777560094692078000,20.866078125,-0.2883281707763672,0.22999058663845062,-0.5083922147750854
1777560094710608400,20.8846083984375,-0.19120067358016968,0.10537417232990265,-0.49312058091163635
1777560094729138700,20.903138671875,-0.12034036219120026,0.2507599890232086,-0.44791659712791443
1777560094747669000,20.9216689453125,-0.026878049597144127,0.4529562294483185,-0.4192059636116028
1777560094766199300,20.94019921875,0.07574722915887833,0.4529562294483185,-0.20479241013526917
1777560094784729600,20.9587294921875,0.1380554437637329,-0.016187917441129684,0.23503021895885468
1777560094803259600,20.977259765625,0.18142683804035187,-0.4358520209789276,0.7780889868736267
1777560094821790000,20.9957900390625,0.2809978127479553,-1.0888664722442627,1.3883429765701294
1777560094840320300,21.0143203125,0.32131487131118774,-2.394895315170288,1.8813108205795288
1777560094858850600,21.0328505859375,0.481361448764801,-2.791957378387451,2.6467244625091553
1777560094877380900,21.051380859375,0.5174024701118469,-2.3374741077423096,3.3687665462493896
1777560094895911000,21.069910888671874,0.46975502371788025,-1.6001602411270142,3.230100154876709
1777560094914441200,21.088441162109376,0.05803215503692627,-1.2006547451019287,2.8507533073425293
1777560094932971500,21.106971435546875,-0.7525854110717773,-1.8781037330627441,2.613126754760742
1777560094951501800,21.125501708984373,-0.9871574640274048,-2.0827434062957764,2.5911357402801514
1777560094970032000,21.1440322265625,-0.8222240209579468,-0.7235693335533142,2.8770203590393066
1777560094988562400,21.1625625,-0.7739656567573547,-0.11881320178508759,2.908174514770508
1777560095007092500,21.181092529296876,-0.5485565662384033,-0.6899717450141907,2.4762930870056152
1777560095025622800,21.199622802734375,-0.3897317349910736,-0.8182533979415894,2.2655446529388428
1777560095044153000,21.218153076171873,-0.1740964651107788,-0.9489784240722656,2.24111008644104
1777560095062683400,21.236683349609375,0.2663370370864868,-1.6038254499435425,1.9930990934371948
1777560095081213700,21.255213623046874,0.5320632457733154,-2.2837178707122803,1.789681077003479
1777560095099744000,21.273743896484376,0.48502662777900696,-2.5922048091888428,1.8990259170532227
1777560095118274000,21.292274169921875,0.3341430425643921,-2.5274529457092285,1.8532110452651978
1777560095136804400,21.310804443359373,0.5668824911117554,-2.269057273864746,1.225242018699646
1777560095155334700,21.329334716796875,0.7984002828598022,-1.542128086090088,0.10735948383808136
1777560095173865000,21.347864990234374,0.8741474747657776,-0.971580445766449,-0.8223767280578613
1777560095192395300,21.366395263671876,0.9572250843048096,-0.518318772315979,-1.548084020614624
1777560095210925300,21.38492529296875,1.119104266166687,0.0772743970155716,-2.1027493476867676
1777560095229455600,21.40345556640625,1.1630865335464478,0.46883872151374817,-2.4607160091400146
1777560095247986000,21.42198583984375,0.7360920310020447,0.2721402645111084,-1.1168135404586792
1777560095266516200,21.44051611328125,-0.2968802750110626,0.6123919486999512,1.2399027347564697
1777560095285046500,21.459046630859376,-0.84177166223526,-1.0259474515914917,1.8367177248001099
1777560095303576800,21.477576904296875,0.053145237267017365,-1.6862921714782715,1.068860650062561
1777560095322107000,21.49610693359375,0.04825831577181816,-1.5922189950942993,1.346804141998291
1777560095340637200,21.51463720703125,-0.16798780858516693,-1.9507967233657837,1.1733185052871704
1777560095359167500,21.53316748046875,-0.318871408700943,-1.7345505952835083,0.2655734717845917
1777560095377697800,21.55169775390625,-0.5302306413650513,-0.38881543278694153,-0.1461493968963623
1777560095396228000,21.57022802734375,-0.6963858604431152,-0.038789913058280945,-0.2341139316558838
1777560095414758400,21.58875830078125,-0.6017017960548401,1.0906990766525269,-0.9072869420051575
1777560095433288400,21.607288330078124,-0.09285144507884979,3.1786348819732666,-1.909716010093689
1777560095451818800,21.62581884765625,0.06963858753442764,1.7021746635437012,-1.3739875555038452
1777560095470349000,21.64434912109375,0.24006985127925873,-0.13652828335762024,-1.2927426099777222
1777560095488879400,21.66287939453125,0.1026252806186676,2.023489475250244,-2.358090877532959
1777560095507409700,21.68140966796875,-0.11972949653863907,4.187783718109131,-3.210247039794922
1777560095525940000,21.69993994140625,-0.18631376326084137,4.231154918670654,-2.9579598903656006
1777560095544470000,21.718469970703126,-0.30604326725006104,2.341139316558838,-2.064875602722168
1777560095563000300,21.737000244140624,0.02871064469218254,0.518318772315979,-1.2988512516021729
1777560095581530600,21.755530517578126,0.6780598759651184,0.3271180987358093,-1.9982913732528687
1777560095600061000,21.77406103515625,1.0109812021255493,2.00577449798584,-2.190103054046631
1777560095618591000,21.792591064453124,1.3286309242248535,3.0198099613189697,-1.761886715888977
1777560095637121500,21.81112158203125,1.1783581972122192,2.668562889099121,-1.7869322299957275
1777560095655651600,21.829651611328124,0.7049379348754883,1.7993022203445435,-1.7710497379302979
1777560095674182000,21.848181884765626,0.2932150959968567,0.8457422852516174,-1.4143047332763672
1777560095692712200,21.866712158203125,-0.1282816082239151,0.5433642268180847,-1.3984222412109375
1777560095711242500,21.885242431640624,-0.1337793916463852,0.9746347665786743,-1.3770419359207153
1777560095729772500,21.9037724609375,0.011606430634856224,1.6392556428909302,-1.114980936050415
1777560095748302800,21.922302734375,-0.010995565913617611,1.6685771942138672,-0.984255850315094
1777560095766833200,21.940833251953126,-0.3127627670764923,0.6496546864509583,-1.1736239194869995
1777560095785363500,21.959363525390625,-0.6059778332710266,-0.48960810899734497,-1.5572470426559448
1777560095803893800,21.977893798828124,-0.7079922556877136,-0.32589635252952576,-1.4607304334640503
1777560095822424000,21.996424072265626,-0.6273581385612488,0.7211259007453918,-1.1485785245895386
1777560095840954000,22.0149541015625,-0.4202749729156494,1.1829396486282349,-0.9091194868087769
1777560095859484400,22.033484375,-0.33169957995414734,0.7247910499572754,-0.7289143800735474
1777560095878014700,22.0520146484375,-0.3090975880622864,0.16340632736682892,-0.5493201613426208
1777560095896545000,22.070544921875,-0.27855435013771057,0.12125665694475174,-0.40088000893592834
1777560095915075300,22.089075439453126,-0.12217295914888382,0.16523891687393188,-0.448527455329895
1777560095933605400,22.10760546875,-0.06597339361906052,0.1444695144891739,-0.5804742574691772
1777560095952135700,22.1261357421875,-0.026878049597144127,-0.1951712965965271,-0.27198755741119385
1777560095970666000,22.144666015625,0.0665842592716217,0.1078176349401474,0.27656903862953186
1777560095989196300,22.1631962890625,0.11911863088607788,-0.1737910360097885,0.884379506111145
1777560096007726600,22.1817265625,0.2718348205089569,-0.6698132157325745,1.4323252439498901
1777560096026257000,22.2002568359375,0.33108872175216675,-1.7095050811767578,1.9356777667999268
1777560096044787200,22.218787109375,0.5247328281402588,-2.283107042312622,2.536768674850464
1777560096063317200,22.237317138671877,0.5119046568870544,-2.190255641937256,3.1677920818328857
1777560096081847600,22.25584765625,0.462424635887146,-1.9398010969161987,3.2765259742736816
1777560096100377900,22.2743779296875,0.17531819641590118,-1.3167190551757812,2.9295547008514404
1777560096118908200,22.292908203125,-0.38728827238082886,-1.1670571565628052,2.632063627243042
1777560096137438500,22.3114384765625,-0.7257073521614075,-1.6759074926376343,2.6076290607452393
1777560096155968800,22.32996875,-0.6316341757774353,-1.7858631610870361,2.8684682846069336
1777560096174498800,22.348498779296875,-0.7556397318840027,-2.0332634449005127,2.927722215652466
1777560096193029000,22.367029052734374,-0.8924734592437744,-1.191491723060608,2.9723153114318848
1777560096211559400,22.385559326171876,-0.7415898442268372,-0.508544921875,2.7811145782470703
1777560096230089700,22.40408984375,-0.38667741417884827,-0.31612253189086914,2.435976028442383
1777560096248620000,22.4226201171875,-0.007330377586185932,-0.5427533388137817,1.9900447130203247
1777560096267150300,22.441150390625,0.39217519760131836,-1.3686425685882568,1.5587742328643799
1777560096285680400,22.459680419921874,0.6963858604431152,-1.832899808883667,1.6009238958358765
1777560096304210700,22.478210693359376,0.7098248600959778,-1.9483531713485718,1.9521710872650146
1777560096322741000,22.496740966796875,0.6084213256835938,-1.9410228729248047,1.7414227724075317
1777560096341271300,22.515271240234377,0.7666352987289429,-1.4676026105880737,0.8513928055763245
1777560096359801600,22.533801513671875,0.8045089244842529,-1.0192278623580933,-0.21639885008335114
1777560096378332000,22.552331787109374,0.8008437156677246,-0.7199041247367859,-1.1253656148910522
1777560096396862200,22.5708623046875,0.8692606091499329,-0.28985533118247986,-1.872453212738037
1777560096415392300,22.589392333984375,1.0097594261169434,0.34116798639297485,-2.464992046356201
1777560096433922600,22.607922607421877,0.9773836731910706,0.601396381855011,-2.375195026397705
1777560096452452900,22.626452880859375,0.24923282861709595,0.17806708812713623,-0.9170607328414917
1777560096470983200,22.644983154296874,-0.8558215498924255,0.8463531732559204,2.1555891036987305
1777560096489513500,22.663513427734376,-0.40255987644195557,-1.7058398723602295,1.2270746231079102
1777560096508043800,22.682043701171875,0.17837251722812653,-1.9330816268920898,1.3993384838104248
1777560096526574000,22.700573974609377,-0.03787361457943916,-2.1004586219787598,1.6882774829864502
1777560096545104100,22.719104248046875,0.047036588191986084,-2.5243988037109375,0.8727730512619019
1777560096563634400,22.737634521484374,0.21319180727005005,-1.627649188041687,-0.35384342074394226
1777560096582164700,22.756164794921876,0.370184063911438,-0.02107483521103859,-0.735023021697998
1777560096600695000,22.774695068359375,0.047036588191986084,2.0295982360839844,-0.6580541133880615
1777560096619225300,22.793225341796877,-1.4049890041351318,1.5592323541641235,-1.8382447957992554
1777560096637755600,22.811755615234375,-0.328645259141922,1.6392556428909302,-0.9793689846992493
1777560096656286000,22.830285888671874,0.06047561392188072,-0.21349723637104034,-0.5432115197181702
1777560096674816000,22.84881591796875,0.4410443603992462,-0.2660316228866577,-1.1577414274215698
1777560096693346300,22.86734619140625,0.28588470816612244,2.9739952087402344,-2.6244277954101562
1777560096711876600,22.885876708984377,-0.03909534588456154,5.37591552734375,-3.4332127571105957
1777560096730407000,22.904406982421875,-0.277332603931427,4.287965297698975,-2.8199045658111572
1777560096748937200,22.922937255859374,-0.6322450637817383,2.098625898361206,-1.6617048978805542
1777560096767467500,22.941467529296876,0.1337793916463852,-0.21655155718326569,-1.2805253267288208
1777560096785997800,22.959997802734375,0.6102539300918579,1.0803143978118896,-1.9677481651306152
1777560096804527900,22.97852783203125,1.2736530303955078,3.070511817932129,-1.7099632024765015
1777560096823058200,22.99705810546875,1.4715732336044312,3.5921902656555176,-1.706908941268921
1777560096841588500,23.01558837890625,1.0482439994812012,2.680169105529785,-2.129627227783203
1777560096860118800,23.034118896484376,0.37629270553588867,1.02655827999115,-1.7460042238235474
1777560096878649000,23.052649169921875,-0.37201663851737976,-0.09926552325487137,-0.9830341339111328
1777560096897179400,23.071179443359377,-0.6426297426223755,-0.1585194170475006,-1.0264055728912354
1777560096915709400,23.08970947265625,-0.28588470816612244,0.7241802215576172,-1.2493711709976196
1777560096934239700,23.10823974609375,0.01588248461484909,1.7650938034057617,-1.159574031829834
1777560096952770000,23.12677001953125,-0.013439024798572063,1.9752312898635864,-0.9488257169723511
1777560096971300400,23.14530029296875,-0.24801109731197357,1.0277799367904663,-1.1864521503448486
1777560096989830700,23.16383056640625,-0.46608981490135193,0.06261363625526428,-1.4814997911453247
1777560097008361000,23.18236083984375,-0.5473348498344421,0.15668681263923645,-1.3935352563858032
