time,seconds_elapsed,z,y,x
1777560073966144300,0.140144287109375,-0.034208428114652634,0.007941242307424545,-0.06719512492418289
1777560073984674300,0.15867431640625,-0.09896009415388107,-0.056199558079242706,0.037262752652168274
1777560074003204400,0.177204345703125,-0.04276053607463837,-0.056199558079242706,0.006719512399286032
1777560074021734100,0.195734130859375,0.014049889519810677,-0.15027274191379547,-0.12156209349632263
1777560074040264200,0.21426416015625,0.004276053514331579,-0.2522871494293213,-0.12583814561367035
1777560074058794200,0.232794189453125,0,-0.35613417625427246,0.014660755172371864
1777560074077324300,0.25132421875,0.04825831577181816,-0.4098902642726898,0.18264856934547424
1777560074095854300,0.269854248046875,0.17653992772102356,-0.38179048895835876,0.31093016266822815
1777560074114384100,0.288384033203125,0.3298669755458832,-0.42332929372787476,0.23518294095993042
1777560074132914200,0.3069140625,0.42882707715034485,-0.573602020740509,-0.001221729558892548
1777560074151444200,0.3254443359375,0.43310311436653137,-0.7293725609779358,-0.20219624042510986
1777560074169974000,0.34397412109375,0.42332929372787476,-0.729983389377594,-0.32559093832969666
1777560074188504000,0.362504150390625,0.526565432548523,-0.5290089249610901,-0.4422661066055298
1777560074207034000,0.3810341796875,0.5681042671203613,-0.3488037884235382,-0.5222893953323364
1777560074225564200,0.399564208984375,0.4764745235443115,-0.5907062292098999,-0.23457208275794983
1777560074244094200,0.41809423828125,0.3127627670764923,-1.3188570737838745,0.39278605580329895
1777560074262624000,0.4366240234375,0.18387030065059662,-1.6200133562088013,0.6701186895370483
1777560074281154000,0.455154052734375,0.19425499439239502,-0.9883792400360107,0.6640099883079529
1777560074299684000,0.47368408203125,0.3292561173439026,-0.8460476994514465,0.2816086709499359
1777560074318214100,0.492214111328125,0.2809978127479553,-1.1160500049591064,-0.4111120104789734
1777560074336744000,0.510743896484375,0.003665188793092966,-1.063515543937683,-0.5198459029197693
1777560074355274000,0.52927392578125,-0.19608759880065918,-0.2663370370864868,-0.4202749729156494
1777560074373804000,0.547803955078125,-0.1331685185432434,0.8301652073860168,-0.685390293598175
1777560074392334000,0.566333984375,0.07024945318698883,1.8655810356140137,-0.9602794051170349
1777560074410864000,0.584864013671875,0.3280344009399414,2.076329469680786,-0.8943060636520386
1777560074429394000,0.603393798828125,0.5955931544303894,1.5662572383880615,-0.7672461867332458
1777560074447924000,0.621924072265625,0.546113133430481,1.3634501695632935,-0.9566142559051514
1777560074466454000,0.6404541015625,0.3909534513950348,1.6676608324050903,-1.1704169511795044
1777560074484984000,0.658984130859375,0.24984370172023773,1.886350393295288,-1.109330415725708
1777560074503513900,0.677513916015625,0.18142683804035187,1.6884303092956543,-0.9950987100601196
1777560074522044000,0.6960439453125,0.07086031138896942,1.0348049402236938,-0.9279035925865173
1777560074540574000,0.714573974609375,-0.04764745384454727,0.8356630206108093,-0.7092140316963196
1777560074559104000,0.73310400390625,-0.04825831577181816,1.0958913564682007,-0.6994401812553406
1777560074577633800,0.7516337890625,0.1545487940311432,1.4850122928619385,-0.8778126835823059
1777560074596163800,0.770163818359375,0.34574946761131287,2.279747247695923,-1.082452416419983
1777560074614694000,0.78869384765625,0.337808221578598,2.727511167526245,-0.9608902931213379
1777560074633224000,0.807223876953125,0.1331685185432434,2.226602077484131,-0.665842592716217
1777560074651754000,0.82575390625,-0.0818558782339096,1.4178171157836914,-0.6230821013450623
1777560074670284000,0.844283935546875,-0.15760311484336853,1.0231984853744507,-0.6860011219978333
1777560074688813800,0.862813720703125,-0.03176496922969818,1.1129956245422363,-0.7257073521614075
1777560074707344000,0.88134375,0.18753549456596375,1.3536763191223145,-0.749531090259552
1777560074725874000,0.8998740234375,0.19303326308727264,1.3542872667312622,-0.5882627964019775
1777560074744403700,0.91840380859375,0.0818558782339096,1.1826342344284058,-0.4471530318260193
1777560074762933800,0.936933837890625,-0.01954767294228077,0.9364557266235352,-0.37690356373786926
1777560074781463800,0.9554638671875,-0.0818558782339096,0.8265000581741333,-0.41416633129119873
1777560074799993900,0.973993896484375,-0.05253437161445618,0.9205732345581055,-0.4886918365955353
1777560074818524000,0.99252392578125,0.004886918235570192,1.1252129077911377,-0.5479456782341003
1777560074837053700,1.0110537109375,0.018325943499803543,1.1594213247299194,-0.6047561168670654
1777560074855583700,1.029583740234375,-0.09468404203653336,1.0702351331710815,-0.7232639193534851
1777560074874113800,1.04811376953125,-0.1649334877729416,0.8448259830474854,-0.7293725609779358
1777560074892643800,1.066643798828125,-0.19669845700263977,0.5540543794631958,-0.6780598759651184
1777560074911173600,1.085173583984375,-0.24862197041511536,0.4575377106666565,-0.5717694163322449
1777560074929703700,1.10370361328125,-0.2761108875274658,0.7293725609779358,-0.4520399272441864
1777560074948233700,1.122233642578125,-0.15515965223312378,1.0042617321014404,-0.4062250852584839
1777560074966763800,1.140763671875,-0.04459312930703163,1.0751219987869263,-0.3433060050010681
1777560074985293800,1.1592939453125,0.021991131827235222,0.9303470849990845,-0.15577052533626556
1777560075003823600,1.17782373046875,-0.03481929376721382,0.6291907429695129,-0.10995566099882126
1777560075022353700,1.196353759765625,-0.09712749719619751,0.26878049969673157,-0.20769402384757996
1777560075040883700,1.2148837890625,-0.04764745384454727,0.03543015569448471,-0.16310089826583862
1777560075059413800,1.233413818359375,-0.001832594396546483,0.006719512399286032,0.017715077847242355
1777560075077943800,1.25194384765625,0.07819069176912308,-0.03909534588456154,0.26450446248054504
1777560075096473600,1.2704736328125,0.13683371245861053,-0.5009090900421143,0.5693259835243225
1777560075115003600,1.289003662109375,0.18753549456596375,-0.7079922556877136,0.8778126835823059
1777560075133533700,1.30753369140625,0.21502439677715302,-0.831997811794281,1.3481786251068115
1777560075152063500,1.3260634765625,0.21502439677715302,-1.219896912574768,1.8704679012298584
1777560075170593500,1.344593505859375,0.1948658674955368,-1.9272783994674683,2.4269657135009766
1777560075189123600,1.36312353515625,0.13133592903614044,-2.3872594833374023,2.913825035095215
1777560075207653600,1.381653564453125,0.053145237267017365,-2.375042200088501,3.0225589275360107
1777560075226183700,1.40018359375,-0.03909534588456154,-2.1325290203094482,2.691470146179199
1777560075244713700,1.418713623046875,-0.21380266547203064,-1.4489712715148926,2.2455389499664307
1777560075263243500,1.437243408203125,-0.37751442193984985,-0.7312051653862,1.9914191961288452
1777560075281773600,1.455773681640625,-0.3335321843624115,-0.5589412450790405,1.9315544366836548
1777560075300303600,1.4743037109375,-0.3897317349910736,-1.2119556665420532,1.740964651107788
1777560075318833700,1.492833740234375,-0.7061597108840942,-1.987753987312317,1.508836030960083
1777560075337363700,1.51136376953125,-0.8142827749252319,-2.117868185043335,1.5515965223312378
1777560075355893500,1.5298935546875,-0.20647229254245758,-1.4801253080368042,1.8918482065200806
1777560075374423600,1.548423583984375,0.45387253165245056,-1.1227694749832153,1.9028438329696655
1777560075392953600,1.56695361328125,0.5241219997406006,-1.7189735174179077,1.5693116188049316
1777560075411483600,1.585483642578125,0.5992583632469177,-2.302349328994751,1.3096940517425537
1777560075430013700,1.604013671875,0.6462949514389038,-2.8399102687835693,1.0769546031951904
1777560075448543500,1.62254345703125,0.6352993845939636,-2.592510223388672,0.8778126835823059
1777560075467073500,1.641073486328125,0.5668824911117554,-1.8930699825286865,0.5723803043365479
1777560075485603600,1.659603515625,0.5229002237319946,-1.1722495555877686,0.1588248461484909
1777560075504133600,1.678133544921875,0.4868592321872711,-0.7837395071983337,-0.30543237924575806
1777560075522663400,1.696663330078125,0.45387253165245056,-0.5143481492996216,-0.749531090259552
1777560075541193500,1.715193359375,0.43921178579330444,-0.20769402384757996,-1.1233803033828735
1777560075559723500,1.7337236328125,0.39278605580329895,-0.014049889519810677,-1.2229512929916382
1777560075578253600,1.752253662109375,0.37812530994415283,0.2364046722650528,-1.1447606086730957
1777560075596783600,1.77078369140625,0.30543237924575806,0.3243691921234131,-0.9474512934684753
1777560075615313400,1.7893134765625,0.10201441496610641,-0.22968515753746033,-0.33169957995414734
1777560075633843500,1.807843505859375,0.3127627670764923,-0.8313869833946228,0.7812960743904114
1777560075652373500,1.82637353515625,0.6823359727859497,-1.232114315032959,1.2773182392120361
1777560075670903600,1.844903564453125,0.7330377101898193,-1.4062107801437378,1.3377938270568848
1777560075689433600,1.86343359375,0.535728394985199,-1.6255111694335938,1.1820234060287476
1777560075707963400,1.88196337890625,0.3787361681461334,-1.7800599336624146,0.6432406306266785
1777560075726493400,1.900493408203125,0.430659681558609,-1.5167772769927979,-0.14660754799842834
1777560075745023500,1.9190234375,0.32131487131118774,-0.6401863098144531,-0.8265000581741333
1777560075763553500,1.937553466796875,-0.010384701192378998,0.2706131041049957,-0.49052441120147705
1777560075782083600,1.95608349609375,-0.31093016266822815,0.8955277800559998,-0.43371400237083435
1777560075800613600,1.974613525390625,0.04214967042207718,3.006676435470581,-0.3439168632030487
1777560075819143700,1.993143798828125,0.3591884970664978,2.1972806453704834,-0.2816086709499359
1777560075837673700,2.011673828125,0.23029601573944092,0.09162971377372742,-0.6633991599082947
1777560075856203500,2.03020361328125,0.007941242307424545,-0.7538071274757385,-1.6701042652130127
1777560075874733600,2.048733642578125,-0.7929024696350098,3.7061166763305664,-2.4404048919677734
1777560075893263600,2.067263671875,-1.536935806274414,6.0787153244018555,-2.283412456512451
1777560075911793700,2.085793701171875,-0.9553925395011902,3.160614252090454,-1.3542872667312622
1777560075930323700,2.10432373046875,0.03237583488225937,-0.17226386070251465,-0.9706641435623169
1777560075948853500,2.122853515625,0.31031930446624756,-0.1594357043504715,-1.617569923400879
1777560075967383600,2.141383544921875,0.739757239818573,1.5723659992218018,-1.9065089225769043
1777560075985913600,2.15991357421875,1.2253947257995605,2.318842649459839,-1.61085045337677
1777560076004443600,2.178443603515625,1.053741693496704,2.1251986026763916,-1.561981201171875
1777560076022973700,2.1969736328125,0.46486809849739075,1.320078730583191,-1.4972295761108398
1777560076041503500,2.21550341796875,-0.018325943499803543,0.33658650517463684,-1.2681553363800049
1777560076060033500,2.234033447265625,-0.2009745091199875,0.2993237376213074,-1.0983349084854126
1777560076078563600,2.2525634765625,-0.13988803327083588,0.6108647584915161,-1.063515543937683
1777560076097093600,2.27109375,-0.023212861269712448,1.2944225072860718,-0.9816597104072571
1777560076115623700,2.289623779296875,-0.036651886999607086,1.61085045337677,-0.6688969135284424
1777560076134153700,2.30815380859375,-0.0665842592716217,1.6401718854904175,-0.6786707639694214
1777560076152683800,2.326683837890625,-0.16859868168830872,0.9095776677131653,-0.8191696405410767
1777560076171213600,2.345213623046875,-0.3836230933666229,0.32559093832969666,-0.9877683520317078
1777560076189743600,2.36374365234375,-0.4569268524646759,0.27366742491722107,-1.026863694190979
1777560076208273700,2.382273681640625,-0.3805687427520752,0.740368127822876,-0.943175196647644
1777560076226803700,2.4008037109375,-0.2626718580722809,1.2064579725265503,-0.8191696405410767
1777560076245333800,2.419333740234375,-0.13133592903614044,1.0977239608764648,-0.8051197528839111
1777560076263863800,2.43786376953125,-0.17592905461788177,0.5491674542427063,-0.7898481488227844
1777560076282393900,2.456393798828125,-0.26450446248054504,0.2779434621334076,-0.5241219997406006
1777560076300924000,2.474923828125,-0.35063639283180237,0.618806004524231,-0.3451386094093323
1777560076319453700,2.49345361328125,-0.32070401310920715,0.8008437156677246,-0.22846342623233795
1777560076337983700,2.511983642578125,-0.1899789422750473,0.4514290690422058,-0.24251331388950348
1777560076356513800,2.530513671875,-0.09101885557174683,-0.0360410213470459,-0.3396408259868622
1777560076375043800,2.5490439453125,-0.06536252796649933,0.03787361457943916,-0.13622283935546875
1777560076393574000,2.567573974609375,-0.007941242307424545,0.3243691921234131,0.2822195291519165
1777560076412104000,2.58610400390625,-0.01282816007733345,-0.10201441496610641,0.675616443157196
1777560076430634000,2.604634033203125,0.056810423731803894,-0.7061597108840942,1.1319323778152466
1777560076449164000,2.6231640625,0.15760311484336853,-1.3084723949432373,1.703091025352478
1777560076467693800,2.64169384765625,0.38850998878479004,-2.089768409729004,2.139859437942505
1777560076486224000,2.660223876953125,0.5332849621772766,-2.5473060607910156,2.656651020050049
1777560076504754000,2.67875390625,0.46608981490135193,-2.4495677947998047,3.0048439502716064
1777560076523284000,2.697283935546875,0.3280344009399414,-1.9199479818344116,2.8900012969970703
1777560076541814000,2.71581396484375,-0.03298669680953026,-1.3518437147140503,2.5308127403259277
1777560076560344000,2.734343994140625,-0.37262752652168274,-1.357952356338501,2.3090689182281494
1777560076578874000,2.7528740234375,-0.411722868680954,-0.7324268817901611,2.4520111083984375
1777560076597404000,2.77140380859375,-0.4477638900279999,-0.2620609998703003,2.712850570678711
1777560076615934000,2.789933837890625,-0.40744680166244507,-0.9352339506149292,2.6193881034851074
1777560076634464000,2.808464111328125,-0.3958403766155243,-1.4721840620040894,2.0354013442993164
1777560076652994000,2.826994140625,-0.2724456787109375,-1.3964369297027588,1.5821397304534912
1777560076671524000,2.845524169921875,0.11484257876873016,-1.278540015220642,1.4367539882659912
1777560076690054100,2.86405419921875,0.5772672295570374,-1.3891065120697021,1.3469568490982056
1777560076708584200,2.882584228515625,0.7476984858512878,-1.6505566835403442,1.479514479637146
1777560076727114200,2.9011142578125,0.6743947267532349,-2.5473060607910156,1.505781650543213
1777560076745644300,2.919644287109375,0.7373138070106506,-3.0757040977478027,1.3744457960128784
1777560076764174300,2.93817431640625,0.8014546036720276,-2.7171266078948975,0.8906408548355103
1777560076782704000,2.9567041015625,0.8381064534187317,-1.859472393989563,0.10384701192378998
1777560076801234400,2.975234375,0.7843503952026367,-0.8857539296150208,-0.6163625717163086
1777560076819764200,2.99376416015625,0.667064368724823,-0.3964512348175049,-1.0891718864440918
1777560076838294300,3.012294189453125,0.646905779838562,0.004276053514331579,-1.4404191970825195
1777560076856824300,3.03082421875,0.6444623470306396,0.27366742491722107,-1.7825034856796265
1777560076875354400,3.049354248046875,0.5949822664260864,0.5516108870506287,-1.7721186876296997
1777560076893884400,3.067884521484375,0.3029889166355133,0.544891357421875,-1.0543526411056519
1777560076912414500,3.08641455078125,-0.3090975880622864,-0.025045456364750862,0.2932150959968567
1777560076930944500,3.104944580078125,-0.27550002932548523,-0.39828383922576904,1.7348560094833374
1777560076949474600,3.123474609375,0.07941242307424545,-1.3939933776855469,1.2357794046401978
1777560076968004600,3.142004638671875,0.2211330533027649,-1.9871431589126587,1.2528836727142334
1777560076986534700,3.16053466796875,0.05864302068948746,-2.4294092655181885,1.3726131916046143
1777560077005064700,3.179064697265625,0.1533270627260208,-2.4434590339660645,0.7990111112594604
1777560077023594800,3.1975947265625,0.2993237376213074,-1.4984513521194458,-0.14172062277793884
1777560077042124500,3.21612451171875,0.2565632164478302,0.046425722539424896,-0.9046907424926758
1777560077060654600,3.234654541015625,0.27977606654167175,1.5711442232131958,-1.084285020828247
1777560077079184600,3.2531845703125,-0.4373791813850403,2.8924448490142822,-1.202792763710022
1777560077097714700,3.271714599609375,-0.3384190797805786,2.095266103744507,-0.27427828311920166
1777560077116244700,3.29024462890625,0.2461785078048706,0.5962040424346924,-0.2510654330253601
1777560077134774800,3.30877490234375,0.21319180727005005,-0.014660755172371864,-0.7061597108840942
1777560077153304800,3.327304931640625,-0.04764745384454727,1.1184934377670288,-1.5693116188049316
1777560077171835000,3.3458349609375,-0.5332849621772766,5.1428704261779785,-2.5418083667755127
1777560077190365000,3.364364990234375,-0.880256175994873,5.71097469329834,-2.7122395038604736
1777560077208895000,3.38289501953125,-1.0885610580444336,3.144120931625366,-1.9694280624389648
1777560077227425000,3.401425048828125,-0.62857985496521,-0.4379900395870209,-0.6908880472183228
1777560077245955000,3.419955078125,0.1893680840730667,-0.42271843552589417,-1.5894701480865479
1777560077264485000,3.438485107421875,0.7837395071983337,2.2956297397613525,-1.8765766620635986
1777560077283015200,3.45701513671875,1.3377938270568848,3.1190755367279053,-1.4721840620040894
1777560077301545200,3.475545166015625,1.1325433254241943,2.5332562923431396,-1.7110322713851929
1777560077320075300,3.4940751953125,0.5882627964019775,1.556483507156372,-1.7763947248458862
1777560077347870200,3.5218701171875,-0.08307760953903198,0.2412915825843811,-1.2742639780044556
1777560077375665200,3.5496650390625,-0.33597561717033386,0.8026763200759888,-1.1630865335464478
1777560077394195200,3.5681953125,-0.235793799161911,1.3994911909103394,-0.9731075763702393
1777560077412725200,3.586725341796875,-0.17043127119541168,1.823431372642517,-0.758083164691925
1777560077431255300,3.60525537109375,-0.25900667905807495,1.554650902748108,-0.749531090259552
1777560077449785300,3.623785400390625,-0.5925388336181641,0.4734202027320862,-1.0067051649093628
1777560077468315400,3.6423154296875,-0.6921098232269287,-0.039706211537122726,-1.1991275548934937
1777560077486845400,3.660845458984375,-0.6114756464958191,0.39278605580329895,-1.1142174005508423
1777560077505375500,3.67937548828125,-0.43921178579330444,1.0439679622650146,-0.9560033679008484
1777560077523905500,3.697905517578125,-0.2809978127479553,1.1606431007385254,-0.8356630206108093
1777560077542435600,3.716435546875,-0.1893680840730667,0.4972439408302307,-0.7428115606307983
1777560077560965600,3.734965576171875,-0.2834412455558777,-0.2052505612373352,-0.6346884965896606
1777560077579495700,3.75349560546875,-0.36163195967674255,-0.13439024984836578,-0.4373791813850403
1777560077598025700,3.772025634765625,-0.29626941680908203,0.3836230933666229,-0.23518294095993042
1777560077616555800,3.7905556640625,-0.056810423731803894,0.2577849328517914,-0.14721840620040894
1777560077635085800,3.8090859375,-0.034208428114652634,-0.0616973415017128,-0.12461641430854797
1777560077653615900,3.827615966796875,0.000610864779446274,-0.13011419773101807,0.19425499439239502
1777560077672146000,3.84614599609375,0.10323614627122879,-0.20830489695072174,0.740368127822876
1777560077690676000,3.864676025390625,0.2510654330253601,-0.9608902931213379,1.2266165018081665
1777560077709206000,3.8832060546875,0.38789913058280945,-1.905287265777588,1.7592905759811401
1777560077727736000,3.901736083984375,0.5907062292098999,-2.472780704498291,2.414748430252075
1777560077746266000,3.92026611328125,0.6927206516265869,-2.3347251415252686,2.911992311477661
1777560077764796200,3.938796142578125,0.583375871181488,-2.2754712104797363,3.034165382385254
1777560077783326200,3.957326171875,0.4159989058971405,-1.8625266551971436,2.6951353549957275
1777560077801856300,3.975856201171875,-0.018325943499803543,-1.3561197519302368,2.3231186866760254
1777560077820386300,3.99438623046875,-0.22846342623233795,-1.084285020828247,2.358548879623413
1777560077838916400,4.012916259765625,-0.18753549456596375,-0.4526508152484894,2.6077816486358643
1777560077857446400,4.0314462890625,-0.34636032581329346,-0.42271843552589417,2.763552188873291
1777560077875976400,4.0499765625,-0.5161807537078857,-1.3127484321594238,2.453233003616333
1777560077894506500,4.068506591796875,-0.5876519083976746,-1.6041308641433716,1.9394956827163696
1777560077913036500,4.08703662109375,-0.5369501113891602,-1.5515965223312378,1.6615521907806396
1777560077931566600,4.105566650390625,-0.11667517572641373,-1.5790854692459106,1.6743803024291992
1777560077950096600,4.1240966796875,0.2657261788845062,-1.8588615655899048,1.6670500040054321
1777560077968626700,4.142626708984375,0.5235111117362976,-2.428187608718872,1.6035200357437134
1777560077987156700,4.16115673828125,0.6524035930633545,-2.791651964187622,1.7794491052627563
1777560078005686800,4.179686767578125,0.7794634699821472,-3.216202974319458,1.544877052307129
1777560078033482000,4.20748193359375,0.8857539296150208,-2.2168283462524414,0.3695732057094574
1777560078052012000,4.226011962890625,0.8668171167373657,-1.0439679622650146,-0.40317076444625854
1777560078070542000,4.2445419921875,0.767857015132904,-0.21380266547203064,-0.8362739086151123
1777560078089072000,4.263072021484375,0.7043271064758301,0.16310089826583862,-1.1337649822235107
1777560078107602200,4.281602294921875,0.6432406306266785,0.22907429933547974,-1.4471386671066284
1777560078126132200,4.30013232421875,0.5540543794631958,0.2577849328517914,-1.5723659992218018
1777560078144662300,4.318662353515625,0.4324922561645508,0.3946186602115631,-1.3170244693756104
1777560078163192300,4.3371923828125,0.08796452730894089,-0.06047561392188072,-0.5271763205528259
1777560078181722400,4.355722412109375,-0.38301220536231995,-0.720820426940918,0.6860011219978333
1777560078200252400,4.37425244140625,-0.11972949653863907,-1.36772620677948,1.497840404510498
1777560078218782500,4.392782470703125,0.2364046722650528,-1.6969823837280273,1.26021409034729
1777560078237312500,4.4113125,0.1484401375055313,-1.9523237943649292,1.5442661046981812
1777560078255842600,4.429842529296875,0.185092031955719,-1.9541563987731934,0.9120211005210876
1777560078274372600,4.44837255859375,0.22479823231697083,-1.5424336194992065,-0.13927717506885529
1777560078292902700,4.466902587890625,0.0616973415017128,-0.3854556679725647,-0.8643736839294434
1777560078311432700,4.4854326171875,-0.4783071279525757,0.6914989352226257,-0.695164144039154
1777560078329962800,4.503962646484375,-0.9779945015907288,1.6493349075317383,-0.5772672295570374
1777560078348492800,4.522492919921875,-0.28405213356018066,1.9859213829040527,-0.7476984858512878
1777560078367023000,4.541023193359375,0.20402882993221283,1.056185245513916,-0.8008437156677246
1777560078385553000,4.559552978515625,0.205861434340477,0.17837251722812653,-0.9999856352806091
1777560078404083200,4.578083251953125,0.16065743565559387,2.8796164989471436,-2.022573232650757
1777560078422613000,4.596613037109375,-0.08613193035125732,5.954099178314209,-3.0219480991363525
1777560078441143300,4.615143310546875,-0.6078104376792908,5.6120147705078125,-2.8906121253967285
1777560078459673300,4.63367333984375,-0.9040798544883728,2.5491387844085693,-1.6969823837280273
1777560078478203400,4.652203369140625,-0.21135921776294708,-0.039706211537122726,-0.8662062287330627
1777560078496733400,4.6707333984375,0.43371400237083435,0.5412262082099915,-1.6817107200622559
1777560078515263500,4.689263427734375,0.8362739086151123,2.3732097148895264,-2.059225082397461
1777560078533793500,4.70779345703125,1.3720022439956665,2.9327619075775146,-1.7421863079071045
1777560078552323600,4.726323486328125,1.135597586631775,2.4819436073303223,-1.8063271045684814
1777560078570853600,4.744853515625,0.5497782826423645,1.61085045337677,-1.7873903512954712
1777560078589383700,4.7633837890625,0.04825831577181816,0.5674933791160583,-1.3377938270568848
1777560078607913700,4.781913818359375,-0.3133736252784729,0.27000224590301514,-1.2156208753585815
1777560078626443800,4.80044384765625,-0.3610210716724396,0.8436042666435242,-1.3261874914169312
1777560078644973800,4.818973876953125,-0.22357651591300964,1.7959424257278442,-0.9993748068809509
1777560078663504100,4.837504150390625,-0.1496618688106537,1.9401065111160278,-0.6493492722511292
1777560078682034000,4.856033935546875,-0.34086254239082336,1.071456789970398,-0.8014546036720276
1777560078700564200,4.874564208984375,-0.6236929297447205,0.07269290834665298,-1.0879502296447754
1777560078719094300,4.89309423828125,-0.6707295179367065,0.20830489695072174,-1.0476330518722534
1777560078737624300,4.911624267578125,-0.5198459029197693,0.8668171167373657,-0.9303470849990845
1777560078756154400,4.930154296875,-0.3084867000579834,1.2284491062164307,-0.8148936033248901
1777560078774684400,4.948684326171875,-0.258395791053772,0.656679630279541,-0.6621774435043335
1777560078793214500,4.96721435546875,-0.3433060050010681,-0.03787361457943916,-0.5400044918060303
1777560078811744500,4.98574462890625,-0.3549124300479889,-0.02932151034474373,-0.4318813979625702
1777560078830274600,5.004274658203125,-0.19425499439239502,0.2877173125743866,-0.32559093832969666
1777560078848804600,5.0228046875,0.02932151034474373,0.4783071279525757,-0.41294458508491516
1777560078867334700,5.041334716796875,0.046425722539424896,0.12767073512077332,-0.3695732057094574
1777560078885864700,5.05986474609375,0.1233946830034256,0.21685700118541718,-0.01649334840476513
1777560078904394800,5.078394775390625,0.15210533142089844,0.18631376326084137,0.4221075773239136
1777560078922925000,5.096925048828125,0.19181154668331146,-0.33231043815612793,0.9315688014030457
1777560078941455000,5.115455078125,0.39828383922576904,-0.9871574640274048,1.4398082494735718
1777560078959985200,5.133985107421875,0.41233372688293457,-2.036623239517212,1.989586591720581
1777560078978515200,5.15251513671875,0.5858193039894104,-2.403141975402832,2.6138904094696045
1777560078997045200,5.171045166015625,0.5290089249610901,-2.293797254562378,3.176496744155884
1777560079015575300,5.1895751953125,0.3842339515686035,-1.9480477571487427,3.0976953506469727
1777560079034105300,5.208105224609375,-0.02871064469218254,-1.5552617311477661,2.599229574203491
1777560079052635400,5.226635498046875,-0.5882627964019775,-1.746462345123291,2.3536620140075684
1777560079071165700,5.245165771484375,-0.665842592716217,-1.5424336194992065,2.500880479812622
1777560079089695700,5.26369580078125,-0.5613847374916077,-0.7666352987289429,2.885725259780884
1777560079108225800,5.282225830078125,-0.5858193039894104,-0.8344413042068481,3.0048439502716064
1777560079126755800,5.300755859375,-0.4098902642726898,-1.08978271484375,2.4959933757781982
1777560079145286000,5.319285888671875,-0.17348559200763702,-0.6646208763122559,2.1032073497772217
1777560079163816000,5.33781591796875,0.21502439677715302,-0.9908226728439331,1.8802417516708374
1777560079182346000,5.356345947265625,0.6053670048713684,-1.53510320186615,1.629176378250122
1777560079200876000,5.3748759765625,0.7360920310020447,-2.1612396240234375,1.6047418117523193
1777560079219406000,5.393406005859375,0.6725621223449707,-2.6328272819519043,1.6804890632629395
1777560079237936400,5.411936279296875,0.6872228980064392,-2.977965831756592,1.7446298599243164
1777560079256466400,5.430466552734375,0.8521563410758972,-2.7892086505889893,1.2638791799545288
1777560079274996500,5.44899658203125,1.0164790153503418,-2.087324857711792,0.3194822669029236
1777560079293526500,5.467526611328125,0.9792162179946899,-1.2363903522491455,-0.7281508445739746
1777560079312056600,5.486056640625,0.9370665550231934,-0.45387253165245056,-1.359174132347107
1777560079330586600,5.504586669921875,0.8845322132110596,-0.002443459117785096,-1.852752923965454
1777560079349116700,5.52311669921875,0.8533781170845032,0.45387253165245056,-2.1563527584075928
1777560079367646700,5.541646728515625,0.7422007322311401,0.9071341753005981,-1.989586591720581
1777560079386177000,5.560177001953125,0.25534147024154663,0.40744680166244507,-0.8826996088027954
1777560079404707000,5.57870703125,-0.5125155448913574,-0.2608392536640167,0.9272927641868591
1777560079423237000,5.597237060546875,-0.43860089778900146,-1.196073293685913,1.5754202604293823
1777560079441767200,5.61576708984375,0.09590577334165573,-1.8808526992797852,1.26021409034729
1777560079460297200,5.634297119140625,-0.14477495849132538,-2.2345433235168457,1.4874557256698608
1777560079478827300,5.6528271484375,-0.15515965223312378,-2.13191819190979,1.1398736238479614
1777560079497357600,5.671357666015625,0.12278381735086441,-1.6792672872543335,0.13622283935546875
1777560079515887400,5.689887451171875,0.11239911615848541,-0.46059203147888184,-0.5106829404830933
1777560079534417700,5.708417724609375,-0.29993459582328796,0.6420188546180725,-0.7238747477531433
1777560079552947700,5.72694775390625,-1.0482439994812012,1.7110322713851929,-0.9834923148155212
1777560079571477800,5.745477783203125,-0.6792816519737244,1.9804235696792603,-0.9040798544883728
1777560079590007800,5.7640078125,0.02932151034474373,0.9028581380844116,-0.7134900689125061
1777560079608537900,5.782537841796875,0.4001164436340332,-0.24801109731197357,-1.043357014656067
1777560079627068000,5.80106787109375,0.27427828311920166,2.1392483711242676,-2.0024147033691406
1777560079645598200,5.81959814453125,-0.09407317638397217,5.677377223968506,-2.723845958709717
1777560079664128300,5.838128173828125,-0.6585122346878052,5.71097469329834,-2.656651020050049
1777560079682658300,5.856658203125,-0.9266818761825562,3.059821605682373,-1.8613049983978271
1777560079701188400,5.875188232421875,-0.3329212963581085,0.4269944727420807,-1.0286962985992432
1777560079719718400,5.893718505859375,0.48991355299949646,0.35613417625427246,-1.777005672454834
1777560079738248400,5.91224853515625,0.8203914165496826,2.3402230739593506,-2.1807873249053955
1777560079756778500,5.930778564453125,1.3848304748535156,3.5808892250061035,-1.6120721101760864
1777560079775308800,5.949308837890625,1.4080432653427124,3.5839436054229736,-1.5949679613113403
1777560079793838800,5.9678388671875,0.7641918659210205,2.525925874710083,-1.7898337841033936
1777560079812369000,5.986368896484375,0.23945899307727814,0.7666352987289429,-1.433088779449463
1777560079830899000,6.00489892578125,-0.2767217457294464,-0.21685700118541718,-1.284037709236145
1777560079849429000,6.023428955078125,-0.36285367608070374,0.1386663019657135,-1.3054180145263672
1777560079867959000,6.041958984375,-0.22663083672523499,1.0421353578567505,-1.0341941118240356
1777560079886489300,6.0604892578125,-0.11178825795650482,1.7446298599243164,-0.8124501705169678
1777560079905019400,6.079019287109375,-0.15638138353824615,1.5937461853027344,-0.7776308655738831
1777560079923549400,6.097549560546875,-0.3341430425643921,0.6359102129936218,-0.9046907424926758
1777560079942079500,6.11607958984375,-0.4734202027320862,0.13561198115348816,-0.9779945015907288
1777560079960609500,6.134609619140625,-0.5528326034545898,0.09834922850131989,-0.9566142559051514
1777560079979139600,6.1531396484375,-0.4312705397605896,0.3970620930194855,-0.8448259830474854
1777560079997669600,6.171669677734375,-0.19608759880065918,0.8063415288925171,-0.6921098232269287
1777560080016200000,6.190199951171875,-0.1282816082239151,0.583375871181488,-0.4667007029056549
1777560080034730000,6.20872998046875,-0.1747073233127594,0.14782927930355072,-0.4428769648075104
1777560080053260000,6.227260009765625,-0.22174391150474548,-0.04153880476951599,-0.544891357421875
1777560080071790000,6.2457900390625,-0.21502439677715302,0.12217295914888382,-0.5015199780464172
1777560080090320400,6.2643203125,-0.13683371245861053,0.5345066785812378,-0.31459537148475647
1777560080108850200,6.28285009765625,0.01893680728971958,0.5827649831771851,-0.024434590712189674
1777560080127380500,6.30138037109375,0.04886918142437935,0.4361574649810791,0.2461785078048706
1777560080145910500,6.31991064453125,0.020769402384757996,0.046425722539424896,0.5766563415527344
1777560080164440600,6.338440673828125,0.1386663019657135,-0.5082395076751709,0.8851430416107178
1777560080182970600,6.356970703125,0.2571740746498108,-1.1154390573501587,1.3897173404693604
1777560080201500700,6.375500732421875,0.31093016266822815,-1.9669846296310425,1.9083415269851685
1777560080220031000,6.394031005859375,0.4630354940891266,-2.171013355255127,2.5943427085876465
1777560080238561000,6.41256103515625,0.46547895669937134,-2.0689990520477295,3.095862627029419
1777560080257091000,6.431091064453125,0.35063639283180237,-1.7580687999725342,3.087921380996704
1777560080275621000,6.44962109375,-0.04581485688686371,-1.4813470840454102,2.656651020050049
1777560080294151200,6.468151123046875,-0.6108647584915161,-1.5577051639556885,2.328005790710449
1777560080312681200,6.48668115234375,-0.7910698652267456,-1.4129302501678467,2.3909246921539307
1777560080331211500,6.50521142578125,-0.6646208763122559,-0.6963858604431152,2.760498046875
1777560080349741600,6.523741455078125,-0.5845975875854492,-0.9138537049293518,2.7586653232574463
1777560080368271600,6.542271728515625,-0.4312705397605896,-1.0690133571624756,2.2088871002197266
1777560080386801700,6.5608017578125,-0.27855435013771057,-0.695164144039154,1.887572169303894
1777560080405331700,6.579331787109375,0.0665842592716217,-0.6976075768470764,1.8099923133850098
1777560080423862000,6.597862060546875,0.4214966893196106,-1.0299180746078491,1.629176378250122
1777560080442392000,6.61639208984375,0.5400044918060303,-2.087324857711792,1.4752384424209595
1777560080460922000,6.634922119140625,0.4379900395870209,-2.6859724521636963,1.581528902053833
1777560080479452200,6.6534521484375,0.4514290690422058,-2.758054494857788,1.6670500040054321
1777560080497982200,6.671982177734375,0.6585122346878052,-2.5216498374938965,1.158199667930603
1777560080516512300,6.69051220703125,0.8979712128639221,-2.0103559494018555,0.15088360011577606
1777560080535042600,6.70904248046875,0.9560033679008484,-1.1801908016204834,-0.841160774230957
1777560080553572600,6.727572509765625,0.9663881063461304,-0.5577195286750793,-1.4850122928619385
1777560080572102700,6.7461025390625,0.9523382186889648,0.07635809481143951,-1.8808526992797852
1777560080590632700,6.7646328125,0.9211840629577637,0.6914989352226257,-2.176511287689209
1777560080609162800,6.783162841796875,0.8173370957374573,1.2302817106246948,-2.142913579940796
1777560080627693000,6.801693115234375,0.4465421438217163,1.173471212387085,-1.0702351331710815
1777560080646223000,6.82022314453125,-0.33597561717033386,0.5430588126182556,0.9578359723091125
1777560080664753200,6.838753173828125,-0.3897317349910736,-0.9731075763702393,1.6560543775558472
1777560080683283200,6.857283203125,0.15821397304534912,-2.0237951278686523,1.32985258102417
1777560080701813500,6.8758134765625,0.09162971377372742,-2.740339517593384,1.6865977048873901
1777560080720343600,6.894343505859375,0.06414080411195755,-2.723845958709717,1.196073293685913
1777560080738873600,6.91287353515625,0.2565632164478302,-1.4813470840454102,0.11728604137897491
1777560080757403600,6.931403564453125,0.03176496922969818,0.36835145950317383,-0.36163195967674255
1777560080775933700,6.94993359375,-0.12705987691879272,0.9755510687828064,-0.48441576957702637
1777560080794463700,6.968463623046875,-0.5418370366096497,2.107483386993408,-1.0415244102478027
1777560080812993800,6.986993896484375,-0.04459312930703163,2.4856088161468506,-0.6560688018798828
1777560080831524000,7.005524169921875,0.24984370172023773,0.5968148708343506,-0.7177661061286926
1777560080850054100,7.02405419921875,0.22907429933547974,-0.32681265473365784,-1.0720677375793457
1777560080868584200,7.042584228515625,-0.15760311484336853,3.1893250942230225,-2.2540910243988037
1777560080887114200,7.0611142578125,-0.6982184648513794,5.913782119750977,-3.034776210784912
1777560080905644500,7.07964453125,-1.0793980360031128,4.710988998413086,-2.4459025859832764
1777560080924174600,7.098174560546875,-0.9669989347457886,1.4282019138336182,-1.2803726196289062
1777560080942704600,7.11670458984375,-0.35674503445625305,-0.47952884435653687,-1.0201442241668701
1777560080961234700,7.135234619140625,0.26878049969673157,0.5070177912712097,-1.941939115524292
1777560080979764700,7.1537646484375,0.6298015713691711,2.196058988571167,-1.7800599336624146
1777560080998295000,7.172294921875,1.2620465755462646,3.1422884464263916,-1.3481786251068115
1777560081016825000,7.1908251953125,1.196073293685913,3.4776532649993896,-1.5479313135147095
1777560081035355100,7.209355224609375,0.6719512343406677,2.4379613399505615,-1.6548327207565308
1777560081053885200,7.22788525390625,0.0818558782339096,0.8918625712394714,-1.398269534111023
1777560081072415500,7.24641552734375,-0.31093016266822815,0.25534147024154663,-1.2547162771224976
1777560081090945500,7.264945556640625,-0.2706131041049957,0.813671886920929,-1.2779290676116943
1777560081109475600,7.2834755859375,-0.06414080411195755,1.805105447769165,-0.9779945015907288
1777560081128005600,7.302005615234375,0.017104214057326317,2.3255622386932373,-0.8594867587089539
1777560081146535700,7.32053564453125,-0.18814635276794434,1.5497639179229736,-1.0488548278808594
1777560081165066000,7.33906591796875,-0.5571087002754211,0.360410213470459,-1.3066397905349731
1777560081183596000,7.357595947265625,-0.7629700899124146,0.11972949653863907,-1.2681553363800049
1777560081202126000,7.3761259765625,-0.6548470258712769,0.8197805285453796,-1.007315993309021
1777560081220656000,7.39465625,-0.4569268524646759,1.2638791799545288,-0.8283326625823975
1777560081239186400,7.4131865234375,-0.3543015718460083,0.8576541543006897,-0.6976075768470764
1777560081257716200,7.43171630859375,-0.2516762912273407,0.16187916696071625,-0.4667007029056549
1777560081276246500,7.45024658203125,-0.11545344442129135,0.20158538222312927,-0.3707949221134186
1777560081294776600,7.468776611328125,-0.0818558782339096,0.26511532068252563,-0.25961753726005554
1777560081313306600,7.487306640625,-0.0665842592716217,0.17776164412498474,-0.24801109731197357
1777560081331836700,7.505836669921875,-0.10629047453403473,-0.0873536616563797,-0.2461785078048706
1777560081350366700,7.52436669921875,0.027488915249705315,0.09101885557174683,0.15271618962287903
1777560081368897000,7.54289697265625,0.08491020649671555,0.18753549456596375,0.740368127822876
1777560081387427000,7.561427001953125,0.11178825795650482,-0.3854556679725647,1.286481261253357
1777560081405957000,7.57995703125,0.18203771114349365,-1.3469568490982056,1.8723005056381226
1777560081424487200,7.598487060546875,0.3848448097705841,-2.104429244995117,2.5130977630615234
1777560081443017500,7.617017578125,0.6126973628997803,-2.268751859664917,2.936426877975464
1777560081461547500,7.635547607421875,0.6310232877731323,-2.2143847942352295,3.1422884464263916
1777560081480077600,7.65407763671875,0.4508182108402252,-1.8826853036880493,2.908327102661133
1777560081498607600,7.672607666015625,-0.2370155304670334,-1.6475023031234741,2.406196355819702
1777560081517137700,7.6911376953125,-0.7672461867332458,-1.7592905759811401,2.2259912490844727
1777560081535668000,7.70966796875,-0.6114756464958191,-1.1148282289505005,2.4825544357299805
1777560081554198000,7.728197998046875,-0.5717694163322449,-0.5955931544303894,2.80814528465271
1777560081572728000,7.74672802734375,-0.7623592615127563,-1.433699607849121,2.6945245265960693
1777560081591258000,7.765258056640625,-0.7788525819778442,-1.552207350730896,2.2956297397613525
1777560081609788400,7.783788330078125,-0.4214966893196106,-0.9767727851867676,2.0408992767333984
1777560081628318500,7.802318359375,0.1649334877729416,-0.8582650423049927,1.7134757041931152
1777560081646848500,7.8208486328125,0.5888736248016357,-1.5008947849273682,1.342680811882019
1777560081665378600,7.839378662109375,0.6817250847816467,-2.1160356998443604,1.4178171157836914
1777560081683908600,7.85790869140625,0.6902772188186646,-2.676809549331665,1.6670500040054321
1777560081702439000,7.87643896484375,0.7324268817901611,-2.9907939434051514,1.6493349075317383
1777560081720969000,7.894968994140625,0.9285144805908203,-2.755610942840576,1.0421353578567505
1777560081739499000,7.9134990234375,0.998763918876648,-1.7165300846099854,-0.023823726922273636
1777560081758029000,7.932029052734375,0.9957095980644226,-0.6181951761245728,-0.963333785533905
1777560081776559000,7.95055908203125,0.9841031432151794,0.1380554437637329,-1.5125012397766113
1777560081795089400,7.96908935546875,0.9010255336761475,0.472198486328125,-1.8802417516708374
1777560081813619500,7.987619384765625,0.8350521326065063,0.7721330523490906,-1.9730932712554932
1777560081832149500,8.0061494140625,0.6957749724388123,1.0751219987869263,-1.5943571329116821
1777560081850679600,8.024679443359375,0.06963858753442764,0.5564978122711182,-0.657290518283844
1777560081869209900,8.0432099609375,-0.6017017960548401,-0.2669478952884674,0.9761618971824646
1777560081887740000,8.061739990234376,-0.22479823231697083,-1.8197661638259888,1.6218459606170654
1777560081906270000,8.08027001953125,0.1533270627260208,-2.000582218170166,1.802051067352295
1777560081924800000,8.098800048828124,0.017104214057326317,-2.417191982269287,1.4984513521194458
1777560081943330000,8.117330078125,0.30543237924575806,-2.5809037685394287,0.5070177912712097
1777560081961860400,8.1358603515625,0.5839866995811462,-0.7996219992637634,-0.5864301919937134
1777560081980390400,8.154390380859375,0.5277871489524841,1.4947861433029175,-1.0018181800842285
1777560081998920400,8.17292041015625,-0.5888736248016357,3.579056739807129,-1.4092650413513184
1777560082017450500,8.191450439453124,-1.5711442232131958,3.123351573944092,-0.4147771894931793
1777560082035980800,8.209980712890625,-0.1698204129934311,1.0293071269989014,-0.2889390289783478
1777560082054510800,8.2285107421875,0.5619956254959106,-1.0604612827301025,-0.5613847374916077
1777560082073041000,8.247041015625,0.6597339510917664,-0.952949047088623,-1.2363903522491455
1777560082091571000,8.265571044921876,-0.07024945318698883,4.279107570648193,-2.414748430252075
1777560082110101000,8.28410107421875,-0.8240565657615662,6.445845127105713,-2.872897148132324
1777560082128631300,8.30263134765625,-1.1160500049591064,3.5143051147460938,-2.0018038749694824
1777560082147161300,8.321161376953125,-0.647516667842865,-0.1441640853881836,-0.9810488224029541
1777560082165691400,8.33969140625,0.2254091054201126,-0.8258891701698303,-1.9675954580307007
1777560082184221400,8.358221435546875,0.8362739086151123,2.1361942291259766,-2.411083221435547
1777560082202751700,8.376751708984376,1.5497639179229736,3.7763659954071045,-1.6688826084136963
1777560082221281800,8.39528173828125,1.387273907661438,3.364643096923828,-1.786779522895813
1777560082239811800,8.413811767578125,0.7293725609779358,1.9065089225769043,-1.8466442823410034
1777560082258342000,8.432341796875,0.08063415437936783,0.17776164412498474,-1.4135410785675049
1777560082276872000,8.450871826171875,-0.5406153202056885,-0.19914191961288452,-1.278540015220642
1777560082295402200,8.46940234375,-0.5406153202056885,0.5699368119239807,-1.2143992185592651
1777560082313932300,8.487932373046876,-0.34574946761131287,1.4679080247879028,-1.1044435501098633
1777560082332462300,8.50646240234375,-0.21868959069252014,1.9834779500961304,-0.9480621218681335
1777560082350992400,8.524992431640625,-0.3970620930194855,1.3628393411636353,-0.9541707634925842
1777560082369522700,8.543522705078125,-0.6017017960548401,0.4202749729156494,-1.1948515176773071
1777560082388052700,8.562052734375,-0.6359102129936218,0.5601630210876465,-1.1172716617584229
1777560082406582800,8.580582763671876,-0.5424479246139526,0.9963204264640808,-0.8521563410758972
1777560082425112800,8.59911279296875,-0.389120876789093,0.9865466356277466,-0.7354812026023865
1777560082443643000,8.617642822265625,-0.27550002932548523,0.401949018239975,-0.6579013466835022
1777560082462173200,8.636173095703125,-0.17715078592300415,-0.007941242307424545,-0.5858193039894104
1777560082480703200,8.654703125,-0.1233946830034256,0.034208428114652634,-0.5057960152626038
1777560082499233300,8.6732333984375,-0.08063415437936783,0.36712974309921265,-0.44348782300949097
1777560082517763300,8.691763427734376,-0.014660755172371864,0.4263836145401001,-0.4459312856197357
1777560082536293400,8.71029345703125,0.01893680728971958,0.13988803327083588,-0.14538581669330597
1777560082554823700,8.72882373046875,0.034208428114652634,0.11545344442129135,0.287106454372406
1777560082573353700,8.747353759765625,0.07880155742168427,-0.14660754799842834,0.8246674537658691
1777560082591883800,8.7658837890625,0.185092031955719,-0.8246674537658691,1.416595458984375
1777560082610413800,8.784413818359376,0.3341430425643921,-1.6517783403396606,1.9834779500961304
1777560082628944100,8.802944091796874,0.5491674542427063,-2.2870776653289795,2.56807541847229
1777560082647474200,8.82147412109375,0.5393936038017273,-2.3310599327087402,3.1392340660095215
1777560082666004200,8.840004150390625,0.3836230933666229,-2.241262912750244,3.1453428268432617
1777560082684534300,8.8585341796875,0.04825831577181816,-1.8380920886993408,2.7812674045562744
1777560082703064300,8.877064208984375,-0.5241219997406006,-1.8307617902755737,2.4911065101623535
1777560082721594600,8.8955947265625,-0.6780598759651184,-1.6627739667892456,2.4886631965637207
1777560082740124700,8.914124755859374,-0.5821541547775269,-0.8093958497047424,2.8179192543029785
1777560082758654700,8.93265478515625,-0.6872228980064392,-0.7067705392837524,3.1398448944091797
1777560082777184800,8.951184814453125,-0.6200277805328369,-1.0317505598068237,2.979187488555908
1777560082795715000,8.969715087890625,-0.2712239623069763,-1.092226266860962,2.3035709857940674
1777560082814245000,8.9882451171875,0.14599667489528656,-1.2632683515548706,1.750738501548767
1777560082832775200,9.006775146484374,0.5998691916465759,-1.5650355815887451,1.5302162170410156
1777560082851305200,9.02530517578125,0.8063415288925171,-2.1783437728881836,1.5796962976455688
1777560082869835300,9.043835205078125,0.7134900689125061,-2.880838394165039,1.6578869819641113
1777560082888365600,9.062365478515625,0.593149721622467,-3.171609878540039,1.7501275539398193
1777560082906895600,9.0808955078125,0.7098248600959778,-2.9571964740753174,1.452636480331421
1777560082925425700,9.09942578125,1.0238093137741089,-2.146578788757324,0.5577195286750793
1777560082943955700,9.117955810546874,1.0415244102478027,-1.1911863088607788,-0.4667007029056549
1777560082962486000,9.136486083984375,1.008537769317627,-0.5900954008102417,-1.2651009559631348
1777560082981016000,9.15501611328125,0.9883792400360107,-0.01282816007733345,-1.8264856338500977
1777560082999546000,9.173546142578125,1.0109812021255493,0.6780598759651184,-2.2247695922851562
1777560083018076200,9.192076171875,0.9608902931213379,1.2143992185592651,-2.193615436553955
1777560083036606200,9.210606201171874,0.36835145950317383,0.574212908744812,-1.0787872076034546
1777560083055136500,9.229136474609374,-0.6878337264060974,0.05742128938436508,0.9822705388069153
1777560083073666600,9.24766650390625,-0.4453204274177551,-1.0488548278808594,1.7421863079071045
1777560083092196600,9.266196533203125,0.14477495849132538,-1.8277074098587036,1.3756674528121948
1777560083110726700,9.2847265625,-0.10445787757635117,-2.0415101051330566,1.5577051639556885
1777560083129256700,9.303256591796876,-0.17104214429855347,-2.0470077991485596,1.1184934377670288
1777560083147787000,9.321787109375,0.15638138353824615,-1.5314379930496216,0.24495677649974823
1777560083166317000,9.340317138671875,0.02932151034474373,-0.04459312930703163,-0.24434591829776764
1777560083184847000,9.35884716796875,-0.3970620930194855,0.721431314945221,-0.9963204264640808
1777560083203377200,9.377377197265625,-1.0372483730316162,2.8680100440979004,-1.5540399551391602
1777560083221907500,9.395907470703126,-0.47036588191986084,3.12701678276062,-1.1331541538238525
1777560083240437200,9.414437255859376,-0.11972949653863907,0.15088360011577606,-0.7391464114189148
1777560083258967600,9.432967529296874,0.37323838472366333,-0.7959567904472351,-1.191797137260437
1777560083277497600,9.45149755859375,0.25473061203956604,3.2736244201660156,-2.665203094482422
1777560083296027600,9.470027587890625,-0.3182605504989624,6.090932846069336,-3.1862707138061523
1777560083314558000,9.488557861328125,-0.7220421433448792,4.931511402130127,-2.439793825149536
1777560083333088000,9.507087890625,-0.4874700903892517,2.098320484161377,-1.1184934377670288
1777560083351618000,9.5256181640625,0.34086254239082336,0.31642794609069824,-1.1368193626403809
1777560083370148000,9.544148193359375,0.7220421433448792,1.5033382177352905,-2.3005168437957764
1777560083388678400,9.562678466796875,1.0091485977172852,2.961472511291504,-1.8997894525527954
1777560083407208400,9.58120849609375,1.3347395658493042,3.194211959838867,-1.4129302501678467
1777560083425738500,9.599738525390626,1.0207550525665283,2.6426010131835938,-1.4929535388946533
1777560083444268500,9.6182685546875,0.6212494969367981,1.4996730089187622,-1.3530654907226562
1777560083462798600,9.636798583984374,0.22663083672523499,0.5754346251487732,-1.202792763710022
1777560083481329000,9.655328857421875,0.034208428114652634,0.6224712133407593,-1.3518437147140503
1777560083499859000,9.67385888671875,0.0873536616563797,1.1795798540115356,-1.2577705383300781
1777560083518389000,9.692388916015625,0.18081597983837128,1.8258748054504395,-0.924238383769989
1777560083536919000,9.7109189453125,-0.008552107028663158,2.1215333938598633,-0.6786707639694214
1777560083555449300,9.729449462890624,-0.3426951467990875,1.3548980951309204,-0.7855721116065979
1777560083573979100,9.747979248046875,-0.7440332770347595,0.14782927930355072,-1.1209368705749512
1777560083592509400,9.766509521484375,-0.9101884961128235,-0.3042106628417969,-1.1801908016204834
1777560083611039500,9.78503955078125,-0.7990111112594604,0.24801109731197357,-1.0519092082977295
1777560083629569500,9.803569580078126,-0.6041452884674072,0.7519745230674744,-0.9608902931213379
1777560083648099600,9.822099609375,-0.44470956921577454,0.516791582107544,-0.850934624671936
1777560083666629600,9.840629638671874,-0.34086254239082336,0.13500112295150757,-0.676227331161499
1777560083685160000,9.859159912109375,-0.27488914132118225,-0.01588248461484909,-0.5351175665855408
1777560083703690000,9.87768994140625,-0.19242240488529205,0.05497783049941063,-0.5430588126182556
1777560083722220000,9.896219970703125,-0.10873392969369888,0.22418737411499023,-0.4520399272441864
1777560083740750000,9.91475,-0.12705987691879272,0.33231043815612793,-0.3090975880622864
1777560083759280400,9.9332802734375,-0.07880155742168427,0.0818558782339096,-0.13744457066059113
1777560083777810400,9.951810546875,0.008552107028663158,-0.1588248461484909,0.19120067358016968
1777560083796340500,9.970340576171875,0.049480047076940536,-0.5045742988586426,0.7134900689125061
1777560083814870500,9.98887060546875,0.19914191961288452,-1.1233803033828735,1.2284491062164307
1777560083833400600,10.007400634765625,0.37812530994415283,-1.7556253671646118,1.7849469184875488
1777560083851931000,10.025930908203126,0.5381718873977661,-2.017686367034912,2.405585527420044
1777560083870461000,10.0444609375,0.5192350745201111,-1.952934741973877,2.9016077518463135
1777560083888991000,10.062990966796875,0.3494146466255188,-2.075718402862549,3.0921974182128906
1777560083907521000,10.08152099609375,-0.001221729558892548,-1.6157373189926147,2.844186305999756
1777560083926051300,10.10005126953125,-0.5161807537078857,-1.592524528503418,2.4129159450531006
1777560083944581400,10.118581298828126,-0.7238747477531433,-1.8112140893936157,2.383594274520874
1777560083963111400,10.137111328125,-0.6530144214630127,-1.3732240200042725,2.7232351303100586
1777560083981641500,10.155641357421874,-0.8167262077331543,-1.2834268808364868,2.9516985416412354
1777560084000171500,10.174171630859375,-0.7733548283576965,-1.3005311489105225,2.6273293495178223
1777560084018701600,10.19270166015625,-0.6145299673080444,-0.8069523572921753,2.1587960720062256
1777560084037231600,10.211231689453125,-0.4618137776851654,-0.41233372688293457,2.1032073497772217
1777560084055762000,10.229761962890626,-0.1178968995809555,-0.7672461867332458,2.0891575813293457
1777560084074292000,10.2482919921875,0.2767217457294464,-1.5033382177352905,2.0635011196136475
1777560084092822000,10.266822021484375,0.5381718873977661,-1.951712965965271,2.18261981010437
1777560084111352000,10.28535205078125,0.6029235124588013,-2.3481643199920654,2.098931312561035
1777560084129882400,10.30388232421875,0.6334667801856995,-2.4764459133148193,1.6707152128219604
1777560084148412400,10.322412353515626,0.7727439403533936,-1.92666757106781,0.8998038172721863
1777560084166942500,10.3409423828125,0.8216131329536438,-1.3274091482162476,-0.07086031138896942
1777560084185472500,10.359472412109374,0.8063415288925171,-0.8484911918640137,-0.8631519079208374
1777560084204002600,10.37800244140625,0.8222240209579468,-0.3090975880622864,-1.4538581371307373
1777560084222532600,10.39653271484375,0.9077450633049011,0.24801109731197357,-1.9535455703735352
1777560084241063000,10.41506298828125,0.9498947262763977,0.7733548283576965,-2.072664260864258
1777560084259593000,10.433593017578126,0.49418962001800537,0.5589412450790405,-0.9010255336761475
1777560084278123000,10.452123046875,-0.3964512348175049,0.08491020649671555,0.47097674012184143
1777560084296653300,10.4706533203125,-0.5369501113891602,-1.1630865335464478,1.2596031427383423
1777560084315183400,10.489183349609375,0.11484257876873016,-1.760512351989746,0.8491020202636719
1777560084333713400,10.50771337890625,0.11972949653863907,-2.0305144786834717,1.3249657154083252
1777560084352243500,10.526243408203126,-0.000610864779446274,-2.070831537246704,1.0317505598068237
1777560084370773500,10.5447734375,0.04886918142437935,-1.2828160524368286,0.07880155742168427
1777560084389303600,10.563303466796874,-0.08429934084415436,0.10567960888147354,-0.25961753726005554
1777560084407833600,10.58183349609375,-0.4831940531730652,0.1899789422750473,-0.39339691400527954
1777560084426364000,10.600364013671875,-0.8283326625823975,0.9144645929336548,-1.0189224481582642
1777560084444894000,10.61889404296875,-0.5381718873977661,2.218660831451416,-1.2272273302078247
1777560084463424000,10.637424072265626,-0.28405213356018066,1.813657522201538,-1.153923511505127
1777560084481954000,10.6559541015625,0.01893680728971958,0.7189878225326538,-1.2907572984695435
1777560084500484400,10.674484375,0.0409279391169548,2.819751739501953,-2.2003350257873535
1777560084519014400,10.693014404296875,-0.053756099194288254,5.098277568817139,-3.2614071369171143
1777560084537544400,10.71154443359375,-0.17898337543010712,4.9217376708984375,-3.2614071369171143
1777560084556074500,10.730074462890625,-0.6346884965896606,2.8484625816345215,-2.0861032009124756
1777560084574604500,10.7486044921875,-0.32620179653167725,0.46425724029541016,-0.9065233469009399
1777560084593134800,10.767134765625,0.3488037884235382,0.19120067358016968,-1.3762784004211426
1777560084611665000,10.785664794921875,0.8216131329536438,2.031736373901367,-2.127031087875366
1777560084630195000,10.80419482421875,1.1771364212036133,2.888779640197754,-1.7983858585357666
1777560084648725000,10.82272509765625,1.147204041481018,2.9651377201080322,-1.6053526401519775
1777560084667255000,10.841255126953126,0.8014546036720276,2.5326454639434814,-1.728136420249939
1777560084685785000,10.85978515625,0.3488037884235382,1.8106032609939575,-1.5650355815887451
1777560084704315400,10.8783154296875,0.043982263654470444,1.0787872076034546,-1.3194679021835327
1777560084722845400,10.896845458984375,-0.12278381735086441,1.0213658809661865,-1.2443315982818604
1777560084741375500,10.91537548828125,-0.10934479534626007,1.6420044898986816,-1.0299180746078491
1777560084759905500,10.933905517578125,-0.04764745384454727,2.1887285709381104,-0.7843503952026367
1777560084778435600,10.952435546875,-0.21685700118541718,1.4648537635803223,-0.758694052696228
1777560084796966000,10.9709658203125,-0.5949822664260864,0.07330377399921417,-1.0751219987869263
1777560084815496000,10.989495849609375,-0.7739656567573547,-0.3543015718460083,-1.240666389465332
1777560084834026000,11.00802587890625,-0.8503237962722778,0.3915643095970154,-1.063515543937683
1777560084852556000,11.02655615234375,-0.7226530313491821,1.0018181800842285,-0.9297361969947815
1777560084871086000,11.045086181640626,-0.4874700903892517,0.8998038172721863,-0.8185588121414185
1777560084889616100,11.0636162109375,-0.19914191961288452,0.39339691400527954,-0.5326740741729736
1777560084908146400,11.082146484375,-0.12400554865598679,0.07574722915887833,-0.3646862804889679
1777560084926676500,11.100676513671875,-0.08979712426662445,-0.023823726922273636,-0.2809978127479553
1777560084945206500,11.11920654296875,0.06047561392188072,0.09712749719619751,-0.535728394985199
1777560084963736600,11.137736572265625,0.08674279600381851,-0.07635809481143951,-0.6591231226921082
1777560084982266600,11.1562666015625,0.021991131827235222,0.3854556679725647,-0.08307760953903198
1777560085000797000,11.174796875,-0.05192350596189499,0.593149721622467,0.42088583111763
1777560085019326700,11.19332666015625,-0.010995565913617611,0.1496618688106537,0.8643736839294434
1777560085037857000,11.21185693359375,0.1178968995809555,-0.7092140316963196,1.3237439393997192
1777560085056387000,11.230386962890625,0.19669845700263977,-1.858250617980957,1.7354668378829956
1777560085074917000,11.248917236328126,0.471587598323822,-2.4776675701141357,2.304792881011963
1777560085093447200,11.267447265625,0.5687150955200195,-2.4770567417144775,2.919933557510376
1777560085111977500,11.2859775390625,0.48930269479751587,-2.4092507362365723,3.1783294677734375
1777560085130507500,11.304507568359375,0.3090975880622864,-1.8478659391403198,2.858847141265869
1777560085149037600,11.32303759765625,-0.2816086709499359,-1.4104868173599243,2.439182996749878
1777560085167567600,11.341567626953125,-0.6976075768470764,-1.239444613456726,2.2925755977630615
1777560085186097700,11.36009765625,-0.42394015192985535,-0.5320632457733154,2.5686864852905273
1777560085204627700,11.378627685546874,-0.30482152104377747,-0.4557051360607147,2.81425404548645
1777560085223157800,11.39715771484375,-0.2767217457294464,-1.4758492708206177,2.522871494293213
1777560085241688000,11.41568798828125,-0.23518294095993042,-1.1997383832931519,2.1722352504730225
1777560085260218000,11.434218017578125,-0.010384701192378998,-0.8582650423049927,2.059225082397461
1777560085278748200,11.452748046875,0.39339691400527954,-1.2455532550811768,1.8081597089767456
1777560085297278200,11.4712783203125,0.6401863098144531,-2.03723406791687,1.4593559503555298
1777560085315808500,11.48980859375,0.6841685771942139,-2.6926920413970947,1.4624103307724
1777560085334338600,11.508338623046875,0.6102539300918579,-3.143510103225708,1.7012584209442139
1777560085352868600,11.52686865234375,0.6835576891899109,-3.135568857192993,1.7727296352386475
1777560085371398700,11.545398681640625,0.8252783417701721,-2.7763805389404297,1.3005311489105225
1777560085389928700,11.5639287109375,0.9456186890602112,-2.003636360168457,0.3646862804889679
1777560085408458800,11.582458740234374,0.9584468603134155,-1.0018181800842285,-0.5235111117362976
1777560085426988800,11.60098876953125,0.8063415288925171,-0.3433060050010681,-1.0800089836120605
1777560085445519000,11.61951904296875,0.8203914165496826,-0.013439024798572063,-1.6297872066497803
1777560085464049200,11.638049072265625,0.9474512934684753,0.593149721622467,-2.1197006702423096
1777560085482579200,11.6565791015625,0.7916807532310486,1.1520910263061523,-2.0402884483337402
1777560085501109200,11.675109130859376,0.04825831577181816,0.7024945020675659,-1.1362085342407227
1777560085519639600,11.6936396484375,-0.656679630279541,0.33047783374786377,0.49418962001800537
1777560085538169600,11.712169677734375,-0.35735589265823364,-1.5766420364379883,1.3713914155960083
1777560085556699600,11.73069970703125,0.1747073233127594,-2.184452533721924,1.3695588111877441
1777560085575229700,11.749229736328125,-0.007330377586185932,-1.9547673463821411,1.5442661046981812
1777560085593759700,11.767759765625,0.07086031138896942,-1.7745622396469116,0.9462295174598694
1777560085612289800,11.786289794921874,0.2730565667152405,-0.277332603931427,0.06902772188186646
1777560085630819800,11.80481982421875,-0.07391463965177536,0.3952295184135437,-0.4984656572341919
1777560085649350100,11.82335009765625,-0.5711585879325867,2.4581198692321777,-1.2076796293258667
1777560085667880200,11.841880126953125,-0.7476984858512878,3.976118803024292,-1.2437206506729126
1777560085686410200,11.86041015625,-0.33231043815612793,1.941939115524292,-1.2834268808364868
1777560085704940300,11.878940185546876,0.06536252796649933,-1.0225876569747925,-1.296255111694336
1777560085723470600,11.897470703125,0.034208428114652634,0.9926552772521973,-2.157574415206909
1777560085742000600,11.916000732421875,-0.47097674012184143,4.6645636558532715,-2.6047275066375732
1777560085760530700,11.93453076171875,-0.7800742983818054,4.842936038970947,-2.188117742538452
1777560085779060700,11.953060791015625,-0.6695078015327454,2.2699735164642334,-1.4715732336044312
1777560085797590800,11.9715908203125,-0.1539379209280014,0.6249146461486816,-1.2901464700698853
1777560085816120800,11.990120849609376,0.4618137776851654,0.8906408548355103,-1.9065089225769043
1777560085834651000,12.00865087890625,0.8924734592437744,2.5918991565704346,-1.9126176834106445
1777560085853181200,12.02718115234375,1.3041963577270508,3.478874921798706,-1.4593559503555298
1777560085871711200,12.045711181640625,1.0983349084854126,3.0414958000183105,-1.5228859186172485
1777560085890241300,12.0642412109375,0.5681042671203613,1.9297218322753906,-1.8600832223892212
1777560085908771300,12.082771240234376,0.08613193035125732,0.7367029190063477,-1.4813470840454102
1777560085927301600,12.101301513671874,-0.32559093832969666,0.40927940607070923,-1.1172716617584229
1777560085945831700,12.119831787109375,-0.4978547990322113,0.8008437156677246,-1.0946696996688843
1777560085964361700,12.13836181640625,-0.3488037884235382,1.525329351425171,-1.036637544631958
1777560085982891800,12.156891845703125,-0.13011419773101807,1.7580687999725342,-1.0348049402236938
1777560086001421800,12.175421875,-0.33597561717033386,0.9749401807785034,-1.2748748064041138
1777560086019951900,12.193951904296876,-0.5754346251487732,0.14110976457595825,-1.4110976457595825
1777560086038482000,12.21248193359375,-0.6218603253364563,0.46547895669937134,-1.250440239906311
1777560086057012200,12.23101220703125,-0.5229002237319946,1.028085470199585,-0.9779945015907288
1777560086075542000,12.2495419921875,-0.3390299379825592,1.1759146451950073,-0.7745765447616577
1777560086094072300,12.268072265625,-0.2009745091199875,0.7971785664558411,-0.4972439408302307
1777560086112602400,12.286602294921876,-0.19120067358016968,0.26939135789871216,-0.4630354940891266
1777560086131132700,12.305132568359374,-0.20830489695072174,-0.20463970303535461,-0.5876519083976746
1777560086149662700,12.323662841796875,-0.2565632164478302,-0.06291907280683517,-0.46914416551589966
1777560086168192800,12.34219287109375,-0.1337793916463852,0.5192350745201111,-0.25473061203956604
1777560086186722800,12.360722900390625,-0.06047561392188072,0.5656607747077942,-0.08368847519159317
1777560086205252900,12.3792529296875,0.020158538594841957,0.14782927930355072,0.10873392969369888
1777560086223783000,12.397782958984376,0.09468404203653336,-0.46059203147888184,0.42394015192985535
1777560086242313000,12.41631298828125,0.21685700118541718,-0.8271108865737915,0.9095776677131653
1777560086260843300,12.43484326171875,0.3426951467990875,-1.247385859489441,1.499062180519104
1777560086279373300,12.453373291015625,0.5253437161445618,-2.03723406791687,2.1019856929779053
1777560086297903400,12.4719033203125,0.5558869242668152,-2.1954479217529297,2.7873759269714355
1777560086316433400,12.490433349609376,0.4770853817462921,-2.0378448963165283,3.235750675201416
1777560086334963700,12.508963623046874,0.32009315490722656,-1.588248372077942,3.157560110092163
1777560086353493800,12.52749365234375,-0.08674279600381851,-1.18446683883667,2.7232351303100586
1777560086372023800,12.54602392578125,-0.5754346251487732,-1.4972295761108398,2.3982551097869873
1777560086390553900,12.564553955078125,-0.6750055551528931,-1.5375466346740723,2.505767345428467
1777560086409084000,12.583083984375,-0.6322450637817383,-1.3170244693756104,2.864344835281372
1777560086427614200,12.6016142578125,-0.6450732350349426,-1.7049236297607422,2.721402645111084
1777560086446144300,12.620144287109374,-0.6780598759651184,-1.2205078601837158,2.2809691429138184
1777560086464674300,12.63867431640625,-0.5497782826423645,-0.4159989058971405,2.092211961746216
1777560086483204400,12.657204345703125,0.013439024798572063,-0.6505709886550903,1.9364413022994995
1777560086501734700,12.675734619140625,0.5919279456138611,-1.4269801378250122,1.748905897140503
1777560086520264400,12.694264404296876,0.7745765447616577,-2.2259912490844727,1.894291639328003
1777560086538794800,12.712794677734376,0.6524035930633545,-2.7171266078948975,2.1306962966918945
1777560086557324800,12.73132470703125,0.5754346251487732,-3.0359978675842285,1.9065089225769043
1777560086575854800,12.749854736328125,0.6206386089324951,-2.6700899600982666,1.1594213247299194
1777560086594385000,12.768385009765625,0.7483093738555908,-1.701869249343872,0.14538581669330597
1777560086612915000,12.7869150390625,0.7880155444145203,-0.8631519079208374,-0.7269290685653687
1777560086631445200,12.8054453125,0.8277217745780945,-0.19425499439239502,-1.2247838973999023
1777560086649975300,12.823975341796874,0.9046907424926758,0.2101374864578247,-1.5961896181106567
1777560086668505300,12.84250537109375,0.9395100474357605,0.3023780584335327,-1.9370522499084473
1777560086687035400,12.861035400390625,0.8839213252067566,0.6218603253364563,-1.944993495941162
1777560086705565700,12.879565673828125,0.4886918365955353,0.6743947267532349,-1.4929535388946533
1777560086724095700,12.898095703125,-0.22846342623233795,0.26878049969673157,-0.05742128938436508
1777560086742625800,12.916625732421876,-0.10079269111156464,-1.3322961330413818,1.7831143140792847
1777560086761155800,12.93515576171875,0.35613417625427246,-2.238208532333374,1.5118902921676636
1777560086779686000,12.953685791015625,0.15760311484336853,-2.221104383468628,1.7501275539398193
1777560086798216200,12.97221630859375,0.11239911615848541,-2.573573350906372,1.2510510683059692
1777560086816746200,12.990746337890625,0.44409868121147156,-1.989586591720581,0.009162971749901772
1777560086835276300,13.0092763671875,0.26450446248054504,-0.046425722539424896,-0.7195987105369568
1777560086853806300,13.027806396484374,-0.18875721096992493,0.9547816514968872,-0.7348703145980835
1777560086872336600,13.046336669921875,-0.7690787315368652,4.104400634765625,-1.183245062828064
1777560086890866700,13.06486669921875,-0.06047561392188072,3.210705280303955,-0.80389803647995
1777560086909396700,13.083396728515625,0.2981020212173462,-0.4214966893196106,-0.5821541547775269
1777560086927926800,13.1019267578125,0.3481929302215576,-1.6340632438659668,-1.1966841220855713
1777560086946456800,13.120456787109376,-0.18814635276794434,2.8936665058135986,-2.382983446121216
1777560086964987100,13.138987060546874,-0.6493492722511292,6.297405242919922,-2.9150466918945312
1777560086983517200,13.15751708984375,-0.9187406301498413,4.856986045837402,-2.382983446121216
1777560087002047200,13.176047119140625,-0.988990068435669,1.4886775016784668,-1.2620465755462646
1777560087020577300,13.194577392578125,-0.29016077518463135,-0.7550288438796997,-1.2143992185592651
1777560087039107600,13.213107666015626,0.46364638209342957,0.6206386089324951,-2.439793825149536
1777560087057637600,13.2316376953125,1.2693769931793213,3.2785112857818604,-1.9920300245285034
1777560087076167700,13.250167724609375,1.7061452865600586,4.446484565734863,-1.377500057220459
1777560087094698000,13.268697998046875,1.2809834480285645,3.8050765991210938,-1.658497929573059
1777560087113228000,13.28722802734375,0.5882627964019775,1.7153083086013794,-1.619402527809143
1777560087131758000,13.305758056640625,-0.14721840620040894,-0.14782927930355072,-1.1050543785095215
1777560087150288100,13.3242880859375,-0.6731730103492737,-0.15027274191379547,-0.9798271059989929
1777560087168818200,13.342818115234374,-0.5125155448913574,0.6505709886550903,-1.0286962985992432
1777560087187348500,13.361348388671875,-0.27916520833969116,1.796553373336792,-0.833219587802887
1777560087205878500,13.37987841796875,-0.18142683804035187,1.9999712705612183,-0.6261364221572876
1777560087224408600,13.39840869140625,-0.5467239618301392,0.9016364216804504,-0.8387173414230347
1777560087242938600,13.416938720703126,-0.6395754218101501,0.23884813487529755,-1.2724313735961914
1777560087261469000,13.435468994140624,-0.6004800796508789,0.5907062292098999,-1.2974767684936523
1777560087279999000,13.4539990234375,-0.46364638209342957,0.8619301915168762,-1.0610721111297607
1777560087298529000,13.472529052734375,-0.40317076444625854,0.9572250843048096,-0.7385355234146118
1777560087317059000,13.49105908203125,-0.40805765986442566,0.3964512348175049,-0.4728093445301056
1777560087335589000,13.509589111328125,-0.2632827162742615,0.046425722539424896,-0.7055488228797913
1777560087354119400,13.528119384765626,-0.13988803327083588,-0.17531819641590118,-0.767857015132904
1777560087372649500,13.5466494140625,-0.014049889519810677,0.42271843552589417,-0.6847794055938721
1777560087391179500,13.565179443359375,0.033597562462091446,0.8173370957374573,-0.4679224193096161
1777560087409709800,13.583709716796875,-0.053756099194288254,0.758083164691925,-0.06475166976451874
1777560087428240000,13.602239990234375,-0.09712749719619751,0.30482152104377747,0.2938259541988373
1777560087446770000,13.62077001953125,-0.006108647678047419,-0.1026252806186676,0.7544180154800415
1777560087465300000,13.639300048828124,0.14110976457595825,-0.7348703145980835,1.266933560371399
1777560087483830300,13.657830322265625,0.21807873249053955,-1.7165300846099854,1.8857395648956299
1777560087502360300,13.6763603515625,0.4667007029056549,-2.050673007965088,2.5839579105377197
1777560087520890400,13.694890380859375,0.5326740741729736,-1.8979568481445312,3.193601131439209
1777560087539420400,13.71342041015625,0.4679224193096161,-1.8350378274917603,3.2815656661987305
1777560087557950500,13.731950439453126,0.20402882993221283,-1.658497929573059,2.8985533714294434
1777560087576480800,13.750480712890624,-0.41294458508491516,-1.454469084739685,2.442237377166748
1777560087595010800,13.7690107421875,-0.7049379348754883,-1.2467750310897827,2.2931864261627197
1777560087613541000,13.787541015625,-0.49541133642196655,-0.6261364221572876,2.6945245265960693
1777560087632071200,13.8060712890625,-0.47586366534233093,-1.0983349084854126,2.8936665058135986
1777560087650601200,13.824601318359376,-0.45509424805641174,-1.7024801969528198,2.478278398513794
1777560087669131300,13.84313134765625,-0.3952295184135437,-1.1490366458892822,2.146578788757324
1777560087687661300,13.861661376953125,-0.22479823231697083,-0.943786084651947,2.1050400733947754
1777560087706191600,13.880191650390625,0.16126830875873566,-1.3127484321594238,1.9089524745941162
1777560087724721700,13.8987216796875,0.5021308660507202,-1.9547673463821411,1.592524528503418
1777560087743251700,13.917251708984375,0.6921098232269287,-2.2895212173461914,1.5515965223312378
1777560087761782000,13.935781982421876,0.9370665550231934,-3.229642152786255,1.7495167255401611
1777560087780312000,13.95431201171875,0.9486730098724365,-2.913825035095215,1.4587451219558716
1777560087798842000,13.972842041015625,1.007315993309021,-2.3536620140075684,0.6230821013450623
1777560087817372200,13.9913720703125,1.0653481483459473,-1.4355322122573853,-0.3133736252784729
1777560087835902500,14.00990234375,1.0012073516845703,-0.6957749724388123,-0.9706641435623169
1777560087854432500,14.0284326171875,0.972496747970581,-0.36285367608070374,-1.3616175651550293
1777560087872962600,14.046962646484374,0.9682206511497498,0,-1.6523892879486084
1777560087891492900,14.065492919921875,0.9450078010559082,0.39278605580329895,-1.8032728433609009
1777560087910023000,14.08402294921875,0.7281508445739746,0.6053670048713684,-1.5931353569030762
1777560087928553000,14.102552978515625,0.1893680840730667,0.07635809481143951,-0.8631519079208374
1777560087947083000,14.1210830078125,-0.4880809485912323,-0.3231474757194519,0.9382883310317993
1777560087965613300,14.13961328125,-0.15088360011577606,-1.5607595443725586,1.795331597328186
1777560087984143400,14.158143310546874,0.3225366175174713,-2.224158763885498,1.7611231803894043
1777560088002673400,14.17667333984375,0.02626718580722809,-2.27119517326355,1.709810495376587
1777560088021203700,14.19520361328125,0.10751219838857651,-2.3402230739593506,0.6829468011856079
1777560088039733800,14.213733642578125,0.481361448764801,-1.525940179824829,-0.44470956921577454
1777560088058263800,14.232263916015626,0.47525280714035034,0.0720820426940918,-0.8014546036720276
1777560088076793900,14.2507939453125,-0.27977606654167175,1.9578216075897217,-1.37078058719635
1777560088095324200,14.26932421875,-0.9718858599662781,4.759247303009033,-1.3292417526245117
1777560088113854200,14.287854248046875,-0.5949822664260864,2.406196355819702,-0.7483093738555908
1777560088132384300,14.30638427734375,-0.22174391150474548,-1.3127484321594238,-0.6487383842468262
1777560088150914600,14.32491455078125,0.14049890637397766,-2.2779147624969482,-1.5063925981521606
1777560088169444600,14.343444580078126,-0.1545487940311432,3.025613307952881,-2.6957461833953857
1777560088187974700,14.361974609375,-0.5235111117362976,6.346274375915527,-2.950476884841919
1777560088206505000,14.3805048828125,-0.7733548283576965,4.613250732421875,-2.1642940044403076
1777560088225035000,14.399034912109375,-0.5839866995811462,1.7256929874420166,-0.9205732345581055
1777560088243565000,14.41756494140625,0.22907429933547974,-0.07452550530433655,-1.5839723348617554
1777560088262095400,14.436095458984376,0.7415898442268372,1.3500111103057861,-2.3255622386932373
1777560088280625400,14.45462548828125,1.3054180145263672,3.1893250942230225,-1.5851941108703613
1777560088299155500,14.473155517578125,1.4257583618164062,3.5839436054229736,-1.3286309242248535
1777560088317685500,14.491685546875,1.0103703737258911,2.8631231784820557,-1.6865977048873901
1777560088336215800,14.5102158203125,0.4379900395870209,1.1814124584197998,-1.6951497793197632
1777560088354745900,14.528745849609376,-0.08674279600381851,0.10690133273601532,-1.3139700889587402
1777560088373276000,14.54727587890625,-0.44898560643196106,0.4001164436340332,-1.2486076354980469
1777560088391806200,14.56580615234375,-0.40866854786872864,1.2302817106246948,-1.0989457368850708
1777560088410336300,14.584336181640625,-0.1594357043504715,2.2925755977630615,-0.870482325553894
1777560088428866300,14.6028662109375,-0.15577052533626556,2.0610578060150146,-0.7904590368270874
1777560088447396600,14.621396728515625,-0.5338957905769348,0.6450732350349426,-1.0763437747955322
1777560088465926700,14.6399267578125,-0.7354812026023865,-0.1747073233127594,-1.2583814859390259
1777560088484456700,14.658456787109374,-0.6621774435043335,0.3280344009399414,-1.08978271484375
1777560088502987000,14.676987060546875,-0.4783071279525757,1.0286962985992432,-0.870482325553894
1777560088521517000,14.69551708984375,-0.2816086709499359,0.9285144805908203,-0.6004800796508789
1777560088540047000,14.714047119140625,-0.205861434340477,0.36163195967674255,-0.41783151030540466
1777560088558577200,14.7325771484375,-0.1692095398902893,-0.11545344442129135,-0.49602219462394714
1777560088577107500,14.751107421875,-0.24862197041511536,-0.3249800503253937,-0.4416552484035492
1777560088595637500,14.769637451171874,-0.17715078592300415,0.0824667438864708,-0.3952295184135437
1777560088614167600,14.78816748046875,-0.06108647957444191,0.3799578845500946,-0.3860665261745453
1777560088632697900,14.80669775390625,-0.047036588191986084,0.5076286196708679,-0.16859868168830872
1777560088651228000,14.825227783203125,0.06475166976451874,0.4312705397605896,0.19792018830776215
1777560088669758200,14.84375830078125,0.15088360011577606,-0.19242240488529205,0.6236929297447205
1777560088688288300,14.862288330078124,0.2406807243824005,-0.8277217745780945,1.0415244102478027
1777560088706818300,14.880818359375,0.3481929302215576,-1.6077960729599,1.536935806274414
1777560088725348600,14.8993486328125,0.4978547990322113,-2.127031087875366,2.1813981533050537
1777560088743878700,14.917878662109375,0.49052441120147705,-2.199113130569458,2.917490243911743
1777560088762408700,14.93640869140625,0.41783151030540466,-2.065333843231201,3.1728317737579346
1777560088780939000,14.95493896484375,0.23396120965480804,-1.7525711059570312,2.938870429992676
1777560088799469000,14.973468994140624,-0.17104214429855347,-1.6792672872543335,2.528369426727295
1777560088817999000,14.9919990234375,-0.5143481492996216,-1.831372618675232,2.3561055660247803
1777560088836529400,15.010529296875,-0.5699368119239807,-1.5595377683639526,2.5363106727600098
1777560088855059500,15.0290595703125,-0.4728093445301056,-1.046411395072937,2.799593210220337
1777560088873589800,15.04758984375,-0.38850998878479004,-0.9786053895950317,2.6480987071990967
1777560088892119800,15.066119873046874,-0.27550002932548523,-1.3475676774978638,2.100764036178589
1777560088910649900,15.08464990234375,-0.2315177470445633,-1.1221586465835571,2.0250167846679688
1777560088929180200,15.10318017578125,-0.07819069176912308,-1.2999202013015747,2.042120933532715
1777560088947710200,15.121710205078125,0.20341797173023224,-1.8747440576553345,1.8839069604873657
1777560088966240300,15.140240234375,0.36835145950317383,-2.1722352504730225,1.8026620149612427
1777560088984770600,15.1587705078125,0.5760455131530762,-2.431241750717163,1.79410982131958
1777560089003300600,15.177300537109375,0.7641918659210205,-2.4746131896972656,1.626121997833252
1777560089021830700,15.19583056640625,0.9327905178070068,-2.2168283462524414,1.1062761545181274
1777560089040361000,15.21436083984375,1.0115920305252075,-1.626121997833252,0.23457208275794983
1777560089058891000,15.23289111328125,1.0134246349334717,-0.8619301915168762,-0.6249146461486816
1777560089077421300,15.25142138671875,0.9401208758354187,-0.4886918365955353,-1.2608249187469482
1777560089095951400,15.269951416015624,0.8869756460189819,-0.1539379209280014,-1.7336342334747314
1777560089114481400,15.2884814453125,0.8662062287330627,0.3433060050010681,-2.098320484161377
1777560089133011700,15.30701171875,0.7037162184715271,0.7990111112594604,-1.8124357461929321
1777560089151541800,15.325541748046875,0.17898337543010712,0.46364638209342957,-0.6078104376792908
1777560089170071800,15.34407177734375,-0.3640754222869873,0.1331685185432434,1.0305289030075073
1777560089188602000,15.36260205078125,-0.20463970303535461,-1.5412118434906006,1.9272783994674683
1777560089207132200,15.381132080078125,0.2816086709499359,-2.2449281215667725,1.6908737421035767
1777560089225662500,15.399662353515625,0.05558869615197182,-2.191171884536743,1.8674136400222778
1777560089244192500,15.418192626953125,-0.16004657745361328,-2.18261981010437,1.3475676774978638
1777560089262722600,15.43672265625,0.09162971377372742,-1.9889757633209229,0.21685700118541718
1777560089281252900,15.4552529296875,0.2938259541988373,-0.9779945015907288,-0.6517927050590515
1777560089299783000,15.473782958984375,0.20952661335468292,0.5913171172142029,-0.8588758707046509
1777560089318313000,15.49231298828125,-0.740368127822876,2.123365879058838,-1.2901464700698853
1777560089336843300,15.51084326171875,-1.0494656562805176,2.0109667778015137,-1.035415768623352
1777560089355373300,15.529373291015625,0.14233149588108063,1.1264346837997437,-0.6878337264060974
1777560089373903600,15.547903564453126,0.729983389377594,-0.2614501118659973,-0.8277217745780945
1777560089392433700,15.56643359375,0.6267472505569458,-0.0818558782339096,-1.524107575416565
1777560089410963700,15.584963623046875,-0.012217295356094837,4.284605503082275,-2.874729633331299
1777560089429494000,15.603493896484375,-0.5583304166793823,5.841089248657227,-3.2174248695373535
1777560089448024000,15.622024169921875,-0.9297361969947815,3.8820457458496094,-2.210719585418701
1777560089466554000,15.64055419921875,-0.9193515181541443,1.3011419773101807,-0.8155044913291931
1777560089485084400,15.65908447265625,0.03237583488225937,-0.30970844626426697,-1.008537769317627
1777560089503614500,15.677614501953125,0.7348703145980835,1.1044435501098633,-2.302960157394409
1777560089522144800,15.696144775390625,1.3878847360610962,3.042717456817627,-1.9095633029937744
1777560089540674800,15.7146748046875,1.5741984844207764,3.5527894496917725,-1.618180751800537
1777560089559205000,15.733205078125,1.0720677375793457,2.894277334213257,-1.7452406883239746
1777560089577735200,15.751735107421876,0.43432486057281494,1.3952151536941528,-1.7208061218261719
1777560089596265500,15.770265380859374,-0.17348559200763702,-0.11606431007385254,-1.3280199766159058
1777560089614795500,15.78879541015625,-0.6017017960548401,-0.389120876789093,-1.3017528057098389
1777560089633325600,15.80732568359375,-0.48441576957702637,0.28405213356018066,-1.3090832233428955
1777560089651856000,15.82585595703125,-0.2712239623069763,1.4062107801437378,-1.0855066776275635
1777560089670386000,15.844385986328126,-0.11606431007385254,2.313344955444336,-0.7837395071983337
1777560089688916200,15.862916259765624,-0.13561198115348816,2.0854923725128174,-0.8374956250190735
1777560089707446300,15.8814462890625,-0.5748237371444702,0.22296564280986786,-1.196073293685913
1777560089725976300,15.899976318359375,-0.6591231226921082,-0.462424635887146,-1.3933825492858887
1777560089744506600,15.918506591796875,-0.6023126840591431,0.3744601011276245,-1.1319323778152466
1777560089763036700,15.93703662109375,-0.4355465769767761,0.8460476994514465,-0.8368847370147705
1777560089781567000,15.95556689453125,-0.3090975880622864,0.7067705392837524,-0.7226530313491821
1777560089800097000,15.974096923828125,-0.22235478460788727,0.1899789422750473,-0.759304940700531
1777560089818627300,15.99262744140625,-0.23457208275794983,-0.20891575515270233,-0.6817250847816467
1777560089837157400,16.011157470703125,-0.2052505612373352,0.02932151034474373,-0.5015199780464172
1777560089855687700,16.029687744140624,-0.04764745384454727,0.3329212963581085,-0.4105011224746704
1777560089874217700,16.0482177734375,0.08857539296150208,0.45998117327690125,-0.1484401375055313
1777560089892747800,16.066747802734376,0.12583814561367035,0.695164144039154,0.31031930446624756
1777560089911278000,16.085278076171875,0.24434591829776764,0.3347539007663727,0.7690787315368652
1777560089929808400,16.103808349609373,0.34208428859710693,-0.4361574649810791,1.1032217741012573
1777560089948338400,16.12233837890625,0.3958403766155243,-1.2058470249176025,1.4929535388946533
1777560089966868500,16.140868408203126,0.4526508152484894,-1.960265040397644,2.001193046569824
1777560089985398800,16.159398681640624,0.3488037884235382,-2.6145012378692627,2.7531676292419434
1777560090003928800,16.1779287109375,0.25534147024154663,-2.2559237480163574,3.2644612789154053
1777560090022459100,16.196459228515625,0.10567960888147354,-1.470962405204773,3.0726499557495117
1777560090040989200,16.2149892578125,-0.18387030065059662,-1.071456789970398,2.6090035438537598
1777560090059519500,16.23351953125,-0.5766563415527344,-1.3206896781921387,2.4019203186035156
1777560090078049500,16.252049560546876,-0.657290518283844,-1.4966187477111816,2.44162654876709
1777560090096579800,16.270579833984375,-0.5919279456138611,-1.2999202013015747,2.5723516941070557
1777560090115110000,16.28910986328125,-0.618806004524231,-0.8991929292678833,2.5717406272888184
1777560090133640000,16.307639892578123,-0.5705476999282837,-0.5510000586509705,2.464839458465576
1777560090152170200,16.326170166015626,-0.3500255048274994,-0.2565632164478302,2.251647472381592
1777560090170700500,16.344700439453124,-0.04520399495959282,-0.5687150955200195,2.067777395248413
1777560090189230600,16.363230712890626,0.2877173125743866,-1.0519092082977295,1.8209879398345947
1777560090207761000,16.381760986328125,0.4935787320137024,-1.51616632938385,1.7073670625686646
1777560090226291000,16.400291015625,0.5974257588386536,-2.0598361492156982,1.6444480419158936
1777560090244821000,16.418821044921874,0.6994401812553406,-2.367100954055786,1.528383731842041
1777560090263351300,16.437351318359376,0.7855721116065979,-2.3591597080230713,1.0604612827301025
1777560090281881600,16.455881591796874,0.8539889454841614,-1.5210533142089844,0.29626941680908203
1777560090300411600,16.47441162109375,0.767857015132904,-0.8075632452964783,-0.4740310609340668
1777560090318942000,16.49294189453125,0.7984002828598022,-0.3946186602115631,-1.1154390573501587
1777560090337472000,16.511471923828125,0.8985821008682251,-0.09162971377372742,-1.64566969871521
1777560090356002000,16.530001953125,0.9932661056518555,0.40805765986442566,-2.0531165599823
1777560090374532400,16.548532470703126,0.9639446139335632,0.9944878816604614,-2.1215333938598633
1777560090393062700,16.567062744140625,0.5186241865158081,0.2608392536640167,-1.352454662322998
1777560090411592700,16.5855927734375,-0.06902772188186646,-0.3243691921234131,0.5418370366096497
1777560090430122800,16.604122802734373,-0.20341797173023224,-0.8026763200759888,1.563202977180481
1777560090448653000,16.622653076171876,0.19242240488529205,-1.5858049392700195,1.5723659992218018
1777560090467183400,16.641183349609374,-0.14538581669330597,-2.375042200088501,2.0854923725128174
1777560090485713400,16.65971337890625,-0.013439024798572063,-2.4074180126190186,1.2095122337341309
1777560090504243700,16.67824365234375,0.08063415437936783,-1.775783896446228,0.21258094906806946
1777560090522773800,16.696773681640625,-0.05497783049941063,-0.2663370370864868,-0.8167262077331543
1777560090541304000,16.715303955078124,-0.593149721622467,1.786779522895813,-1.033583164215088
1777560090559834000,16.733834228515626,-1.5234967470169067,1.8918482065200806,-1.1142174005508423
1777560090578364400,16.752364501953124,-0.5338957905769348,2.0518949031829834,-1.397047758102417
1777560090596894700,16.770894775390627,0.5216785073280334,0.34574946761131287,-1.2895355224609375
1777560090615424800,16.7894248046875,0.6243038177490234,0.9792162179946899,-1.6694934368133545
1777560090633955000,16.807955078125,0.12278381735086441,3.9639015197753906,-2.3451099395751953
1777560090652485000,16.826485107421874,-0.27488914132118225,5.49900484085083,-2.6816964149475098
1777560090671015400,16.845015380859376,-0.5430588126182556,3.7794203758239746,-2.1215333938598633
1777560090689545500,16.86354541015625,-0.6994401812553406,1.3836086988449097,-1.2089014053344727
1777560090708075800,16.88207568359375,-0.18387030065059662,-0.5943714380264282,-1.1270455121994019
1777560090726605800,16.900605712890624,0.4355465769767761,0.8362739086151123,-2.294408082962036
1777560090745136000,16.91913623046875,1.1783581972122192,3.319439172744751,-2.028071165084839
1777560090763666400,16.93766650390625,1.5705333948135376,4.155713081359863,-1.6719368696212769
1777560090782196500,16.956196533203126,1.0769546031951904,3.1386232376098633,-1.8319834470748901
1777560090800726800,16.974726806640625,0.430659681558609,1.2150100469589233,-1.5460987091064453
1777560090819256800,16.9932568359375,-0.23762640357017517,-0.2162461280822754,-1.1685843467712402
1777560090837787100,17.011787109375,-0.5161807537078857,0.1233946830034256,-1.2315033674240112
1777560090856317400,17.0303173828125,-0.3500255048274994,1.0708459615707397,-1.1142174005508423
1777560090874847500,17.048847412109374,-0.09896009415388107,1.9578216075897217,-0.8466585874557495
1777560090893377800,17.067377685546877,-0.08002328872680664,1.6890411376953125,-0.8826996088027954
1777560090911907800,17.085907958984375,-0.4886918365955353,0.33108872175216675,-1.1136064529418945
1777560090930438100,17.104438232421874,-0.6585122346878052,-0.018325943499803543,-1.053130865097046
1777560090948968200,17.12296826171875,-0.6017017960548401,0.5100721120834351,-0.8032872080802917
1777560090967498500,17.14149853515625,-0.46914416551589966,0.80389803647995,-0.6719512343406677
1777560090986028800,17.16002880859375,-0.2712239623069763,0.5345066785812378,-0.6603448390960693
1777560091004558800,17.178558837890623,-0.13133592903614044,0.03298669680953026,-0.6395754218101501
1777560091023089200,17.197089111328125,-0.07269290834665298,-0.07635809481143951,-0.5882627964019775
1777560091041619500,17.215619384765624,-0.040317077189683914,0.1130099818110466,-0.5088503360748291
1777560091060149500,17.2341494140625,0.08674279600381851,0.4477638900279999,-0.5803215503692627
1777560091078679800,17.2526796875,0.13194678723812103,0.2981020212173462,-0.5253437161445618
1777560091097209900,17.2712099609375,0.14294235408306122,0.164322629570961,-0.11911863088607788
1777560091115740200,17.289740234375,0.21135921776294708,0.5821541547775269,0.3915643095970154
1777560091134270500,17.3082705078125,0.25411975383758545,0.33169957995414734,0.9731075763702393
1777560091152800500,17.326800537109374,0.3042106628417969,-0.5894845128059387,1.323133111000061
1777560091171330800,17.345330810546876,0.2675587832927704,-1.722638726234436,1.6511675119400024
1777560091189861000,17.363861083984375,0.4062250852584839,-2.3011276721954346,2.1795654296875
1777560091208391400,17.382391357421874,0.2364046722650528,-2.532034397125244,3.0952517986297607
1777560091226921500,17.40092138671875,0.09285144507884979,-2.1300854682922363,3.3823583126068115
1777560091245451800,17.41945166015625,-0.11484257876873016,-1.3103049993515015,2.9944591522216797
1777560091263981800,17.43798193359375,-0.5729911923408508,-1.4837905168533325,2.7733261585235596
1777560091282512100,17.45651220703125,-0.9016364216804504,-2.2198827266693115,2.7696609497070312
1777560091301042400,17.47504248046875,-0.9865466356277466,-1.6212351322174072,2.7372851371765137
1777560091319572500,17.493572509765624,-1.0048725605010986,-0.32131487131118774,2.785543441772461
1777560091338102800,17.512102783203126,-0.9224058389663696,0.007941242307424545,2.7586653232574463
1777560091356633000,17.530633056640625,-0.5155698657035828,-0.29138249158859253,2.4520111083984375
1777560091375163400,17.549163330078127,-0.05803215503692627,-0.5375609993934631,2.1001532077789307
1777560091393693400,17.567693359375,0.3292561173439026,-1.1362085342407227,1.7861685752868652
1777560091412223700,17.5862236328125,0.535728394985199,-1.7055344581604004,1.7122539281845093
1777560091430753800,17.60475390625,0.5131264328956604,-2.290742874145508,1.729358196258545
1777560091449284000,17.6232841796875,0.29565855860710144,-2.470337152481079,1.6578869819641113
1777560091467814400,17.641814453125,0.12217295914888382,-2.151465654373169,1.2455532550811768
1777560091486344400,17.660344482421873,0.27488914132118225,-1.3762784004211426,0.4728093445301056
1777560091504874800,17.678874755859376,0.5332849621772766,-0.3958403766155243,-0.4728093445301056
1777560091523405000,17.697405029296874,0.739757239818573,0.19608759880065918,-1.3878847360610962
1777560091541935400,17.715935302734376,0.8246674537658691,0.6065887212753296,-2.1361942291259766
1777560091560465700,17.734465576171875,0.7794634699821472,1.0042617321014404,-2.6804747581481934
1777560091578995700,17.75299560546875,0.6841685771942139,1.1026109457015991,-2.7733261585235596
1777560091597526000,17.771526123046876,0.26878049969673157,0.4984656572341919,-1.2229512929916382
1777560091616056300,17.790056396484374,-0.2260199636220932,-1.0323615074157715,1.6829324960708618
1777560091634586400,17.80858642578125,-0.3396408259868622,-0.3426951467990875,1.9767584800720215
1777560091653116700,17.82711669921875,0.24495677649974823,-1.7287473678588867,2.023184061050415
1777560091671647000,17.84564697265625,0.010384701192378998,-2.651763916015625,2.0103559494018555
1777560091690177000,17.864177001953124,-0.2626718580722809,-2.3787074089050293,1.2913681268692017
1777560091708707300,17.882707275390626,-0.11667517572641373,-1.433088779449463,0.07086031138896942
1777560091727237600,17.901237548828124,0.21441353857517242,0.026878049597144127,-0.28405213356018066
1777560091745767700,17.919767578125,0.38179048895835876,0.925460159778595,-0.8686497211456299
1777560091764298000,17.938298095703125,-0.7116574645042419,2.478889226913452,-1.4135410785675049
1777560091782828300,17.956828369140624,-0.9517273306846619,1.3121376037597656,-0.6841685771942139
1777560091801358600,17.975358642578126,-0.5479456782341003,-0.1484401375055313,-0.880256175994873
1777560091819889000,17.993888916015624,0.06536252796649933,-0.7617483735084534,-1.3432916402816772
1777560091838419000,18.0124189453125,0.0360410213470459,2.5637993812561035,-2.732398271560669
1777560091856949200,18.03094921875,-0.0513126403093338,5.044521331787109,-3.4770424365997314
1777560091875479600,18.0494794921875,-0.19364413619041443,4.825221061706543,-2.7036874294281006
1777560091894009900,18.068009765625,-0.49480047821998596,2.4269657135009766,-1.6059634685516357
1777560091912540200,18.0865400390625,-0.23945899307727814,0.35613417625427246,-0.9022472500801086
1777560091931070200,18.1050703125,0.546113133430481,0.13683371245861053,-1.517388105392456
1777560091949600500,18.1236005859375,1.0525200366973877,1.7715078592300415,-2.1313071250915527
1777560091968130800,18.142130859375,1.3671153783798218,2.609614372253418,-1.8808526992797852
1777560091986661000,18.1606611328125,1.2773182392120361,2.439182996749878,-1.8270965814590454
1777560092005191200,18.179191162109376,0.8087849617004395,1.7342450618743896,-1.8466442823410034
1777560092023721500,18.197721435546875,0.3488037884235382,0.7666352987289429,-1.422093152999878
1777560092042251800,18.216251708984377,-0.15699224174022675,0.26939135789871216,-1.1429280042648315
1777560092060781800,18.23478173828125,-0.3139844834804535,0.32131487131118774,-1.2620465755462646
1777560092079312100,18.25331201171875,-0.19364413619041443,1.0476330518722534,-1.1166608333587646
1777560092097842400,18.271842529296876,-0.1081230640411377,1.6316198110580444,-0.9120211005210876
1777560092116372700,18.290372802734375,-0.12156209349632263,1.6218459606170654,-0.8307760953903198
1777560092134903000,18.308903076171877,-0.3799578845500946,0.8576541543006897,-1.0274745225906372
1777560092153433000,18.32743310546875,-0.5894845128059387,-0.07513637095689774,-1.2974767684936523
1777560092171963400,18.34596337890625,-0.6908880472183228,-0.10934479534626007,-1.276707410812378
1777560092190493700,18.36449365234375,-0.6224712133407593,0.5583304166793823,-1.0317505598068237
1777560092209024000,18.38302392578125,-0.43921178579330444,1.0873392820358276,-0.8148936033248901
1777560092227554300,18.40155419921875,-0.2663370370864868,0.831997811794281,-0.6273581385612488
1777560092246084400,18.42008447265625,-0.24556763470172882,0.1795942485332489,-0.5681042671203613
1777560092264614700,18.43861474609375,-0.24801109731197357,-0.002443459117785096,-0.4312705397605896
1777560092283145000,18.45714501953125,-0.05864302068948746,0.16249002516269684,-0.5283980369567871
1777560092301675300,18.47567529296875,-0.018325943499803543,-0.04276053607463837,-0.6621774435043335
1777560092320205600,18.49420556640625,-0.08674279600381851,0.043371398001909256,-0.39278605580329895
1777560092338735600,18.512735595703123,-0.01954767294228077,0.3836230933666229,0.018325943499803543
1777560092357266000,18.531265869140626,0.007941242307424545,0.030543239787220955,0.4221075773239136
1777560092375796200,18.549796142578124,0.009773836471140385,-0.7446441650390625,0.8655954003334045
1777560092394326500,18.568326416015626,0.2565632164478302,-1.0054833889007568,1.5045599937438965
1777560092412856800,18.58685693359375,0.4367683231830597,-1.6499457359313965,2.2540910243988037
1777560092431387000,18.605386962890623,0.45998117327690125,-1.9871431589126587,2.9242095947265625
1777560092449917200,18.623917236328126,0.43004879355430603,-1.7678426504135132,3.1899359226226807
1777560092468447500,18.642447509765624,0.27427828311920166,-1.525329351425171,3.067762851715088
1777560092486977800,18.660977783203126,-0.17287473380565643,-1.4110976457595825,2.645655393600464
1777560092505508000,18.679508056640625,-0.7287616729736328,-1.7250821590423584,2.241262912750244
1777560092524038100,18.6980380859375,-0.8533781170845032,-1.8771874904632568,2.358548879623413
1777560092542568400,18.716568359375,-0.7861829996109009,-1.3573415279388428,2.794706344604492
1777560092561098800,18.7350986328125,-0.8008437156677246,-1.0415244102478027,2.9345943927764893
1777560092579629000,18.753629150390626,-0.6908880472183228,-0.8594867587089539,2.5405867099761963
1777560092598159000,18.7721591796875,-0.4196641147136688,-0.6017017960548401,2.27730393409729
1777560092616689700,18.790689697265623,-0.09529490768909454,-0.5143481492996216,2.2559237480163574
1777560092635219700,18.8092197265625,0.28038692474365234,-1.0244202613830566,1.9382739067077637
1777560092653750000,18.82775,0.6126973628997803,-1.6187916994094849,1.8124357461929321
1777560092672280300,18.8462802734375,0.7672461867332458,-2.0433425903320312,1.8307617902755737
1777560092690810400,18.864810302734377,0.7971785664558411,-2.5112650394439697,1.7702860832214355
1777560092709340700,18.883340576171875,0.7287616729736328,-2.6004514694213867,1.370169758796692
1777560092727871000,18.90187109375,0.8295543789863586,-2.054338216781616,0.5174024701118469
1777560092746401300,18.9204013671875,0.9138537049293518,-1.4208714962005615,-0.45509424805641174
1777560092764931600,18.938931640625,0.9474512934684753,-0.8967494964599609,-1.1850776672363281
1777560092783462000,18.9574619140625,0.9773836731910706,-0.4508182108402252,-1.8167119026184082
1777560092801992000,18.975991943359375,0.9492838382720947,0.1698204129934311,-2.1899502277374268
1777560092820522200,18.994522216796874,0.8155044913291931,1.007315993309021,-1.8887939453125
1777560092839052500,19.013052490234376,0.34147340059280396,0.8277217745780945,-0.29138249158859253
1777560092857582800,19.031582763671874,-0.4416552484035492,-0.47036588191986084,1.2388337850570679
1777560092876113200,19.050113037109377,-0.25350889563560486,-1.9956952333450317,1.4312561750411987
1777560092894643500,19.0686435546875,0.33719736337661743,-2.193615436553955,1.3548980951309204
1777560092913173500,19.087173583984374,0.2467893660068512,-2.327394723892212,1.6267329454421997
1777560092931703800,19.105703857421876,0.13500112295150757,-2.2815799713134766,1.1905754804611206
1777560092950234000,19.124234130859374,0.3634645342826843,-1.147204041481018,0.39400777220726013
1777560092968764400,19.142764404296877,0.4783071279525757,0.18387030065059662,-0.22846342623233795
1777560092987294700,19.161294677734375,0.17104214429855347,1.0781763792037964,-1.2877029180526733
1777560093005824800,19.17982470703125,-0.7745765447616577,2.852738618850708,-1.5045599937438965
1777560093024355000,19.19835498046875,-0.19242240488529205,2.7110178470611572,-0.7428115606307983
1777560093042885400,19.216885498046874,-0.007330377586185932,-0.759304940700531,-0.4819723069667816
1777560093061415700,19.235415771484377,0.3280344009399414,-2.112370491027832,-0.851545512676239
1777560093089211000,19.2632109375,-0.1747073233127594,4.638906955718994,-3.506974697113037
1777560093107741200,19.2817412109375,-0.4422661066055298,6.104371547698975,-3.623649835586548
1777560093126271500,19.300271484375,-0.6524035930633545,3.830122232437134,-2.2369868755340576
1777560093144801800,19.3188017578125,-0.18692462146282196,0.09285144507884979,-0.8179479241371155
1777560093163332000,19.33733203125,0.24740023910999298,-1.0152572393417358,-1.9120067358016968
1777560093181862400,19.3558623046875,0.8625410795211792,1.7421863079071045,-2.6254968643188477
1777560093200392400,19.374392333984375,1.533881425857544,3.6780169010162354,-1.7898337841033936
1777560093218922800,19.3929228515625,1.554650902748108,3.693899393081665,-1.5687007904052734
1777560093237453000,19.411453125,1.0372483730316162,2.7757694721221924,-1.694538950920105
1777560093255983400,19.4299833984375,0.39767298102378845,1.3402373790740967,-1.5314379930496216
1777560093274513700,19.448513671875,-0.10934479534626007,0.7141009569168091,-1.3384047746658325
1777560093293044000,19.4670439453125,-0.2809978127479553,1.130099892616272,-1.324354887008667
1777560093311574000,19.485573974609373,-0.20219624042510986,2.048229694366455,-1.1575887203216553
1777560093330104300,19.504104248046875,-0.06536252796649933,2.500269651412964,-1.0476330518722534
1777560093348634600,19.522634521484374,-0.34086254239082336,1.4746276140213013,-1.1887428760528564
1777560093367165000,19.5411650390625,-0.7635809779167175,0.23823726177215576,-1.3732240200042725
1777560093385695200,19.5596953125,-0.7935133576393127,0.6627882719039917,-1.186299443244934
1777560093404225300,19.578225341796873,-0.5229002237319946,1.5760310888290405,-0.9413426518440247
1777560093422755600,19.596755615234375,-0.3298669755458832,1.5796962976455688,-0.6145299673080444
1777560093441286000,19.615285888671874,-0.20463970303535461,0.8399390578269958,-0.35063639283180237
1777560093459816200,19.633816162109376,-0.12461641430854797,0.19914191961288452,-0.3903425931930542
1777560093478346500,19.652346435546875,-0.06047561392188072,0.2205221801996231,-0.4367683231830597
1777560093496876800,19.670876708984373,-0.014049889519810677,0.6047561168670654,-0.33719736337661743
1777560093515406800,19.68940673828125,-0.013439024798572063,0.4514290690422058,-0.370184063911438
1777560093533937200,19.707937255859374,0.033597562462091446,0.007330377586185932,-0.18814635276794434
1777560093552467500,19.726467529296876,0.20708316564559937,0.23212862014770508,0.21685700118541718
1777560093570997800,19.744997802734375,0.3243691921234131,0.1692095398902893,0.8338304162025452
1777560093589528000,19.763528076171873,0.3610210716724396,-0.5968148708343506,1.3652827739715576
1777560093608058400,19.782058349609375,0.33047783374786377,-1.7751730680465698,1.8997894525527954
1777560093626588400,19.80058837890625,0.46059203147888184,-2.3518292903900146,2.573573350906372
1777560093645118700,19.81911865234375,0.4917461574077606,-2.266308307647705,3.230252981185913
1777560093663649000,19.83764892578125,0.411722868680954,-2.2986841201782227,3.2840089797973633
1777560093682179300,19.856179443359373,0.21441353857517242,-1.7880011796951294,2.9608616828918457
1777560093700709600,19.874709716796875,-0.4013381600379944,-1.4923427104949951,2.5552473068237305
1777560093719239700,19.89323974609375,-0.6511818766593933,-1.5515965223312378,2.4184136390686035
1777560093737770000,19.91177001953125,-0.46975502371788025,-0.9016364216804504,2.7513349056243896
1777560093756300300,19.93030029296875,-0.5302306413650513,-1.0861176252365112,2.9626941680908203
1777560093774830600,19.94883056640625,-0.5943714380264282,-1.6530001163482666,2.66581392288208
1777560093793361000,19.96736083984375,-0.5564978122711182,-1.3713914155960083,2.3793182373046875
1777560093811891200,19.98589111328125,-0.3341430425643921,-1.1997383832931519,2.360992431640625
1777560093830421200,20.004421142578124,0.05070177838206291,-1.4398082494735718,2.254701852798462
1777560093848951600,20.02295166015625,0.4111120104789734,-2.1893393993377686,1.9840887784957886
1777560093867481900,20.04148193359375,0.5943714380264282,-2.748891592025757,1.9181153774261475
1777560093886012200,20.06001220703125,0.657290518283844,-2.864344835281372,1.935219645500183
1777560093904542500,20.07854248046875,0.7073814272880554,-2.7568328380584717,1.6481131315231323
1777560093923072500,20.097072509765624,0.8081740736961365,-2.1087052822113037,0.8277217745780945
1777560093941602800,20.115602783203126,0.8998038172721863,-1.1936297416687012,-0.2657261788845062
1777560093960133000,20.134133056640625,0.9083559513092041,-0.4581485986709595,-1.1166608333587646
1777560093978663400,20.152663330078123,0.8955277800559998,-0.06902772188186646,-1.6713260412216187
1777560093997193700,20.17119384765625,0.943786084651947,0.3390299379825592,-2.134972333908081
1777560094015724000,20.18972412109375,0.9682206511497498,0.9327905178070068,-2.3878703117370605
1777560094034254000,20.208254150390626,0.5766563415527344,1.056185245513916,-1.7544035911560059
1777560094052784400,20.226784423828125,-0.593149721622467,0.19364413619041443,-0.3597993552684784
1777560094071314700,20.245314697265623,-0.8185588121414185,0.013439024798572063,1.8814635276794434
1777560094089845000,20.263844970703126,0.07574722915887833,-1.7208061218261719,1.3878847360610962
1777560094108375000,20.282375,0.33108872175216675,-2.3365578651428223,1.8723005056381226
1777560094126905300,20.3009052734375,-0.18264856934547424,-2.3573272228240967,1.997527837753296
1777560094145435600,20.319435546875,0.056199558079242706,-2.0720534324645996,0.972496747970581
1777560094163966000,20.337966064453123,0.4221075773239136,-0.8888082504272461,-0.47036588191986084
1777560094182496300,20.356496337890626,0.5852084755897522,-0.047036588191986084,-1.1111630201339722
1777560094201026300,20.3750263671875,0.07635809481143951,1.061682939529419,-1.2968659400939941
1777560094219556600,20.393556640625,-1.0445787906646729,2.52042818069458,-1.4782928228378296
1777560094238087000,20.4120869140625,-0.6426297426223755,2.3041820526123047,-0.94439697265625
1777560094256617200,20.4306171875,0.2981020212173462,0.11728604137897491,-0.7794634699821472
1777560094275147500,20.4491474609375,0.7018836140632629,-1.1117738485336304,-1.091004490852356
1777560094293677800,20.467677734375,0.27488914132118225,2.2614214420318604,-2.1783437728881836
1777560094312208000,20.486207763671874,-0.13988803327083588,5.621177673339844,-2.9541420936584473
1777560094330738200,20.50473828125,-0.40805765986442566,4.81666898727417,-2.723845958709717
1777560094349268500,20.5232685546875,-0.8570432662963867,2.3591597080230713,-1.709810495376587
1777560094367798800,20.541798828125,-0.49602219462394714,0.25473061203956604,-0.8790343999862671
1777560094386329000,20.5603291015625,0.4379900395870209,0.24923282861709595,-1.7892229557037354
1777560094404859100,20.578859130859374,1.1117738485336304,2.307847023010254,-2.1777329444885254
1777560094423389400,20.597389404296877,1.4520255327224731,3.1031930446624756,-1.7794491052627563
1777560094441919700,20.615919677734375,1.194240689277649,2.5137085914611816,-1.904065489768982
1777560094460450000,20.634449951171874,0.7727439403533936,1.5308271646499634,-1.8796309232711792
1777560094478980400,20.65298046875,0.19792018830776215,0.26878049969673157,-1.535714030265808
1777560094497510700,20.6715107421875,-0.277332603931427,-0.04520399495959282,-1.3237439393997192
1777560094516040700,20.690040771484377,-0.31154105067253113,0.4935787320137024,-1.2748748064041138
1777560094534571000,20.708571044921875,-0.2571740746498108,1.128878116607666,-1.081230640411377
1777560094553101300,20.727101318359374,-0.1539379209280014,1.7501275539398193,-0.870482325553894
1777560094571631600,20.745631591796876,-0.10873392969369888,1.5601485967636108,-0.8289434909820557
1777560094590162000,20.764161865234374,-0.40317076444625854,0.4557051360607147,-1.0262528657913208
1777560094608692000,20.78269189453125,-0.5393936038017273,-0.0409279391169548,-1.1160500049591064
1777560094627222300,20.80122216796875,-0.5705476999282837,0.5577195286750793,-0.9492838382720947
1777560094645752600,20.819752685546874,-0.4978547990322113,1.0494656562805176,-0.8100066781044006
1777560094664283000,20.838282958984376,-0.3738492429256439,0.9376774430274963,-0.7037162184715271
1777560094682813200,20.856813232421874,-0.3121519088745117,0.39767298102378845,-0.5186241865158081
1777560094701343500,20.875343505859377,-0.23945899307727814,0.15027274191379547,-0.5082395076751709
1777560094719873500,20.89387353515625,-0.15760311484336853,0.1380554437637329,-0.4520399272441864
1777560094738403800,20.91240380859375,-0.08491020649671555,0.3597993552684784,-0.44470956921577454
1777560094756934100,20.93093408203125,0.030543239787220955,0.555276095867157,-0.3481929302215576
1777560094775464400,20.94946435546875,0.12644900381565094,0.25045454502105713,0.004276053514331579
1777560094793994800,20.967994873046877,0.14599667489528656,-0.2467893660068512,0.49602219462394714
1777560094812524800,20.98652490234375,0.23762640357017517,-0.7037162184715271,1.102000117301941
1777560094831055000,21.00505517578125,0.3066541254520416,-1.6927063465118408,1.6401718854904175
1777560094849585400,21.02358544921875,0.4159989058971405,-2.7812674045562744,2.2058327198028564
1777560094868115700,21.04211572265625,0.5039634704589844,-2.5918991565704346,3.1001386642456055
1777560094886646000,21.06064599609375,0.5143481492996216,-1.9944734573364258,3.386634349822998
1777560094905176300,21.07917626953125,0.3402516841888428,-1.2986985445022583,3.0390522480010986
1777560094923706400,21.097706298828125,-0.3488037884235382,-1.4062107801437378,2.724457025527954
1777560094942236700,21.116236572265624,-0.9853248596191406,-2.1893393993377686,2.553414821624756
1777560094960767000,21.13476708984375,-0.8833104968070984,-1.546709656715393,2.7195699214935303
1777560094979297000,21.153297119140625,-0.8216131329536438,-0.13500112295150757,2.979187488555908
1777560094997827600,21.17182763671875,-0.6646208763122559,-0.45937031507492065,2.702465772628784
1777560095016357600,21.190357666015625,-0.4508182108402252,-0.7947350740432739,2.3231186866760254
1777560095034888000,21.208887939453124,-0.32620179653167725,-0.8350521326065063,2.2754712104797363
1777560095062683400,21.236683349609375,0.268169641494751,-1.6029092073440552,1.998138666152954
1777560095081213700,21.255213623046874,0.5338957905769348,-2.282801628112793,1.7947207689285278
1777560095099744000,21.273743896484376,0.4868592321872711,-2.5912883281707764,1.904065489768982
1777560095118274000,21.292274169921875,0.33597561717033386,-2.526536703109741,1.858250617980957
1777560095136804400,21.310804443359373,0.5687150955200195,-2.268141031265259,1.2302817106246948
1777560095155334700,21.329334716796875,0.8002328872680664,-1.5412118434906006,0.11239911615848541
1777560095173865000,21.347864990234374,0.8759800791740417,-0.9706641435623169,-0.8173370957374573
1777560095192395300,21.366395263671876,0.9590576887130737,-0.5174024701118469,-1.5430444478988647
1777560095210925300,21.38492529296875,1.1209368705749512,0.07819069176912308,-2.0977096557617188
1777560095229455600,21.40345556640625,1.164919137954712,0.46975502371788025,-2.455676317214966
1777560095247986000,21.42198583984375,0.7379246354103088,0.2730565667152405,-1.1117738485336304
1777560095266516200,21.44051611328125,-0.29504770040512085,0.6133082509040833,1.2449424266815186
1777560095285046500,21.459046630859376,-0.8399390578269958,-1.0250310897827148,1.8417572975158691
1777560095303576800,21.477576904296875,0.05497783049941063,-1.6853759288787842,1.0739002227783203
1777560095322107000,21.49610693359375,0.050090912729501724,-1.591302752494812,1.3518437147140503
1777560095340637200,21.51463720703125,-0.16615521907806396,-1.9498803615570068,1.1783581972122192
1777560095359167500,21.53316748046875,-0.3170388340950012,-1.7336342334747314,0.2706131041049957
1777560095377697800,21.55169775390625,-0.5283980369567871,-0.38789913058280945,-0.14110976457595825
1777560095396228000,21.57022802734375,-0.6945532560348511,-0.03787361457943916,-0.22907429933547974
1777560095414758400,21.58875830078125,-0.5998691916465759,1.0916153192520142,-0.9022472500801086
1777560095433288400,21.607288330078124,-0.09101885557174683,3.179551124572754,-1.9046764373779297
1777560095451818800,21.62581884765625,0.07147117704153061,1.703091025352478,-1.368947982788086
1777560095470349000,21.64434912109375,0.2419024556875229,-0.13561198115348816,-1.2877029180526733
1777560095488879400,21.66287939453125,0.10445787757635117,2.0244059562683105,-2.35305118560791
1777560095507409700,21.68140966796875,-0.1178968995809555,4.188699722290039,-3.205207586288452
1777560095525940000,21.69993994140625,-0.1844811588525772,4.232071399688721,-2.952920436859131
1777560095544470000,21.718469970703126,-0.3042106628417969,2.342055559158325,-2.0598361492156982
1777560095563000300,21.737000244140624,0.030543239787220955,0.5192350745201111,-1.293811559677124
1777560095581530600,21.755530517578126,0.6798924803733826,0.3280344009399414,-1.9932518005371094
1777560095600061000,21.77406103515625,1.0128138065338135,2.006690740585327,-2.185063362121582
1777560095618591000,21.792591064453124,1.3304635286331177,3.020726442337036,-1.7568471431732178
1777560095637121500,21.81112158203125,1.1801908016204834,2.6694791316986084,-1.7818925380706787
1777560095655651600,21.829651611328124,0.7067705392837524,1.8002184629440308,-1.766010046005249
1777560095674182000,21.848181884765626,0.29504770040512085,0.8466585874557495,-1.4092650413513184
1777560095692712200,21.866712158203125,-0.12644900381565094,0.5442805290222168,-1.3933825492858887
1777560095711242500,21.885242431640624,-0.13194678723812103,0.9755510687828064,-1.3720022439956665
1777560095729772500,21.9037724609375,0.013439024798572063,1.6401718854904175,-1.1099413633346558
1777560095748302800,21.922302734375,-0.009162971749901772,1.6694934368133545,-0.9792162179946899
1777560095766833200,21.940833251953126,-0.31093016266822815,0.6505709886550903,-1.1685843467712402
1777560095785363500,21.959363525390625,-0.6041452884674072,-0.4886918365955353,-1.552207350730896
1777560095803893800,21.977893798828124,-0.7061597108840942,-0.3249800503253937,-1.4556907415390015
1777560095822424000,21.996424072265626,-0.6255255341529846,0.7220421433448792,-1.1435388326644897
1777560095840954000,22.0149541015625,-0.41844236850738525,1.1838558912277222,-0.9040798544883728
1777560095859484400,22.033484375,-0.3298669755458832,0.7257073521614075,-0.7238747477531433
1777560095878014700,22.0520146484375,-0.3072649836540222,0.164322629570961,-0.5442805290222168
1777560095896545000,22.070544921875,-0.2767217457294464,0.12217295914888382,-0.3958403766155243
1777560095915075300,22.089075439453126,-0.12034036219120026,0.16615521907806396,-0.44348782300949097
1777560095933605400,22.10760546875,-0.06414080411195755,0.14538581669330597,-0.5754346251487732
1777560095952135700,22.1261357421875,-0.025045456364750862,-0.19425499439239502,-0.2669478952884674
1777560095970666000,22.144666015625,0.06841685622930527,0.10873392969369888,0.2816086709499359
1777560095989196300,22.1631962890625,0.12095122784376144,-0.17287473380565643,0.8894191384315491
1777560096007726600,22.1817265625,0.27366742491722107,-0.6688969135284424,1.4373648166656494
1777560096026257000,22.2002568359375,0.3329212963581085,-1.7085888385772705,1.9407174587249756
1777560096044787200,22.218787109375,0.526565432548523,-2.2821907997131348,2.5418083667755127
1777560096063317200,22.237317138671877,0.5137372612953186,-2.1893393993377686,3.1728317737579346
1777560096081847600,22.25584765625,0.46425724029541016,-1.9388848543167114,3.2815656661987305
1777560096100377900,22.2743779296875,0.17715078592300415,-1.3158026933670044,2.9345943927764893
1777560096118908200,22.292908203125,-0.3854556679725647,-1.1661409139633179,2.637103319168091
1777560096137438500,22.3114384765625,-0.7238747477531433,-1.674991250038147,2.612668752670288
1777560096155968800,22.32996875,-0.6298015713691711,-1.7849469184875488,2.8735079765319824
1777560096174498800,22.348498779296875,-0.7538071274757385,-2.0323472023010254,2.9327619075775146
1777560096193029000,22.367029052734374,-0.8906408548355103,-1.1905754804611206,2.9773550033569336
1777560096211559400,22.385559326171876,-0.739757239818573,-0.5076286196708679,2.786154270172119
1777560096230089700,22.40408984375,-0.3848448097705841,-0.31520622968673706,2.4410157203674316
1777560096248620000,22.4226201171875,-0.0054977829568088055,-0.5418370366096497,1.9950844049453735
1777560096267150300,22.441150390625,0.39400777220726013,-1.36772620677948,1.5638138055801392
1777560096285680400,22.459680419921874,0.6982184648513794,-1.8319834470748901,1.6059634685516357
1777560096304210700,22.478210693359376,0.7116574645042419,-1.9474369287490845,1.9572107791900635
1777560096322741000,22.496740966796875,0.6102539300918579,-1.9401065111160278,1.746462345123291
1777560096341271300,22.515271240234377,0.768467903137207,-1.4666863679885864,0.8564324378967285
1777560096359801600,22.533801513671875,0.8063415288925171,-1.018311619758606,-0.21135921776294708
1777560096378332000,22.552331787109374,0.8026763200759888,-0.7189878225326538,-1.120326042175293
1777560096396862200,22.5708623046875,0.8710931539535522,-0.2889390289783478,-1.8674136400222778
1777560096415392300,22.589392333984375,1.0115920305252075,0.34208428859710693,-2.4599523544311523
1777560096433922600,22.607922607421877,0.9792162179946899,0.6023126840591431,-2.3701553344726562
1777560096452452900,22.626452880859375,0.2510654330253601,0.17898337543010712,-0.9120211005210876
1777560096470983200,22.644983154296874,-0.8539889454841614,0.8472694754600525,2.1606287956237793
1777560096489513500,22.663513427734376,-0.4007273018360138,-1.7049236297607422,1.232114315032959
1777560096508043800,22.682043701171875,0.1802051067352295,-1.932165265083313,1.4043781757354736
1777560096526574000,22.700573974609377,-0.0360410213470459,-2.0995421409606934,1.693317174911499
1777560096545104100,22.719104248046875,0.04886918142437935,-2.523482322692871,0.8778126835823059
1777560096563634400,22.737634521484374,0.21502439677715302,-1.6267329454421997,-0.3488037884235382
1777560096582164700,22.756164794921876,0.37201663851737976,-0.020158538594841957,-0.729983389377594
1777560096600695000,22.774695068359375,0.04886918142437935,2.0305144786834717,-0.6530144214630127
1777560096619225300,22.793225341796877,-1.4031563997268677,1.5601485967636108,-1.833205223083496
1777560096637755600,22.811755615234375,-0.32681265473365784,1.6401718854904175,-0.9743293523788452
1777560096656286000,22.830285888671874,0.06230820715427399,-0.21258094906806946,-0.5381718873977661
1777560096674816000,22.84881591796875,0.4428769648075104,-0.26511532068252563,-1.1527018547058105
1777560096693346300,22.86734619140625,0.2877173125743866,2.9749114513397217,-2.6193881034851074
1777560096711876600,22.885876708984377,-0.037262752652168274,5.376832008361816,-3.428173065185547
1777560096730407000,22.904406982421875,-0.27550002932548523,4.288881778717041,-2.8148648738861084
1777560096748937200,22.922937255859374,-0.6304124593734741,2.0995421409606934,-1.656665325164795
1777560096767467500,22.941467529296876,0.13561198115348816,-0.2156352698802948,-1.275485634803772
1777560096785997800,22.959997802734375,0.6120865345001221,1.081230640411377,-1.962708592414856
1777560096804527900,22.97852783203125,1.275485634803772,3.071428060531616,-1.7049236297607422
1777560096823058200,22.99705810546875,1.4734058380126953,3.593106746673584,-1.701869249343872
1777560096841588500,23.01558837890625,1.0500766038894653,2.6810855865478516,-2.1245877742767334
1777560096860118800,23.034118896484376,0.37812530994415283,1.0274745225906372,-1.740964651107788
1777560096878649000,23.052649169921875,-0.370184063911438,-0.09834922850131989,-0.9779945015907288
1777560096897179400,23.071179443359377,-0.6407971382141113,-0.15760311484336853,-1.0213658809661865
1777560096915709400,23.08970947265625,-0.28405213356018066,0.7250964641571045,-1.2443315982818604
1777560096934239700,23.10823974609375,0.017715077847242355,1.766010046005249,-1.1545344591140747
1777560096952770000,23.12677001953125,-0.011606430634856224,1.9761475324630737,-0.943786084651947
1777560096971300400,23.14530029296875,-0.2461785078048706,1.0286962985992432,-1.1814124584197998
1777560096989830700,23.16383056640625,-0.46425724029541016,0.06352993845939636,-1.4764602184295654
1777560097008361000,23.18236083984375,-0.545502245426178,0.15760311484336853,-1.388495683670044
1777560097026891300,23.200891357421874,-0.3842339515686035,0.9792162179946899,-1.0323615074157715
1777560097045421300,23.21942138671875,-0.1948658674955368,1.2919789552688599,-0.6126973628997803
1777560097063951600,23.23795166015625,-0.14110976457595825,0.6701186895370483,-0.3744601011276245
