time,seconds_elapsed,z,y,x
1777560073938898200,0.112898193359375,3.9562501907348633,10.46250057220459,-10.162500381469727
1777560073948898000,0.12289794921875,4.518750190734863,9.09375,-10.162500381469727
1777560073978898200,0.152898193359375,5.475000381469727,10.46250057220459,-10.200000762939453
1777560073988898000,0.16289794921875,3.9750001430511475,10.74375057220459,-10.818750381469727
1777560073998898200,0.172898193359375,3.168750047683716,9.9375,-9.543750762939453
1777560074008898000,0.18289794921875,3.168750047683716,9.9375,-9.543750762939453
1777560074018898200,0.192898193359375,5.325000286102295,9.956250190734863,-11.137500762939453
1777560074028898000,0.20289794921875,4.106250286102295,8.456250190734863,-14.49375057220459
1777560074038898200,0.212898193359375,4.350000381469727,9.168750762939453,-8.86875057220459
1777560074048898000,0.22289794921875,3.356250047683716,10.21875,-11.043750762939453
1777560074058898200,0.232898193359375,7.818750381469727,9.450000762939453,-17.100000381469727
1777560074068898000,0.24289794921875,7.518750190734863,9.487500190734863,-16.80000114440918
1777560074078898200,0.252898193359375,2.8687500953674316,7.875000476837158,-15.15000057220459
1777560074088898000,0.26289794921875,1.21875,9.862500190734863,-11.756250381469727
1777560074098898200,0.272898193359375,4.875,9.693750381469727,-12.881250381469727
1777560074108898000,0.28289794921875,3.8062500953674316,10.818750381469727,-9.52500057220459
1777560074118898200,0.292898193359375,-0.28125,11.193750381469727,-8.643750190734863
1777560074128898000,0.30289794921875,2.6812500953674316,8.96250057220459,-9.43125057220459
1777560074138898200,0.312898193359375,2.700000047683716,9.99375057220459,-8.25
1777560074148898000,0.32289794921875,2.7375001907348633,10.125,-9.918750762939453
1777560074158898200,0.332898193359375,1.631250023841858,9.300000190734863,-9.61875057220459
1777560074168898000,0.34289794921875,1.5187500715255737,10.331250190734863,-10.256250381469727
1777560074178898200,0.352898193359375,3.637500047683716,10.481250762939453,-8.30625057220459
1777560074188898000,0.36289794921875,2.0812501907348633,10.03125,-7.237500190734863
1777560074198898200,0.372898193359375,1.162500023841858,9.318750381469727,-8.606250762939453
1777560074208898000,0.38289794921875,2.2875001430511475,9.862500190734863,-11.793750762939453
1777560074218898200,0.392898193359375,2.8687500953674316,9.543750762939453,-10.59375
1777560074228898000,0.40289794921875,4.6875,8.568750381469727,-12.937500953674316
1777560074238898200,0.412898193359375,2.4000000953674316,8.137500762939453,-13.387500762939453
1777560074248898000,0.42289794921875,4.556250095367432,7.875000476837158,-16.89375114440918
1777560074258898200,0.432898193359375,3.5812501907348633,8.193750381469727,-11.287500381469727
1777560074268898000,0.44289794921875,2.0812501907348633,8.34375,-11.925000190734863
1777560074278898200,0.452898193359375,0.5625,9.487500190734863,-8.418750762939453
1777560074288898000,0.46289794921875,0.862500011920929,8.34375,-11.887500762939453
1777560074298898200,0.472898193359375,0.8812500238418579,9.206250190734863,-10.331250190734863
1777560074308898000,0.48289794921875,1.3125,9,-9.956250190734863
1777560074318898200,0.492898193359375,0.9000000357627869,9.262500762939453,-12.43125057220459
1777560074328898000,0.50289794921875,0.13125000894069672,9.600000381469727,-10.237500190734863
1777560074338898200,0.512898193359375,2.2875001430511475,10.387500762939453,-9.84375
1777560074348898000,0.52289794921875,2.2125000953674316,7.256250381469727,-12.562500953674316
1777560074358898200,0.532898193359375,1.443750023841858,7.406250476837158,-11.53125
1777560074368898000,0.54289794921875,0.39375001192092896,8.15625,-10.65000057220459
1777560074378898200,0.552898193359375,0.09375,8.53125,-10.706250190734863
1777560074388898000,0.56289794921875,-0.675000011920929,8.325000762939453,-10.443750381469727
1777560074398898200,0.572898193359375,1.6500000953674316,9.581250190734863,-10.27500057220459
1777560074408898000,0.58289794921875,0.5250000357627869,8.58750057220459,-8.58750057220459
1777560074418898200,0.592898193359375,1.40625,11.68125057220459,-8.737500190734863
1777560074428898000,0.60289794921875,-0.01875000074505806,10.612500190734863,-8.34375
1777560074438898200,0.612898193359375,1.9500000476837158,8.68125057220459,-12.99375057220459
1777560074448898000,0.62289794921875,1.9500000476837158,8.68125057220459,-12.99375057220459
1777560074458898200,0.632898193359375,2.1937501430511475,7.725000381469727,-11.0625
1777560074468898000,0.64289794921875,2.0625,8.362500190734863,-10.08750057220459
1777560074478898200,0.652898193359375,1.443750023841858,8.325000762939453,-9.52500057220459
1777560074488898000,0.66289794921875,1.631250023841858,9.206250190734863,-10.350000381469727
1777560074498898200,0.672898193359375,1.4812500476837158,9,-10.800000190734863
1777560074508898000,0.68289794921875,3,9.956250190734863,-8.550000190734863
1777560074518898200,0.692898193359375,1.9312500953674316,8.90625,-9.84375
1777560074528898000,0.70289794921875,2.1187500953674316,9.731250762939453,-10.96875
1777560074538898200,0.712898193359375,3.731250047683716,8.21250057220459,-10.3125
1777560074548898000,0.72289794921875,0.8250000476837158,9,-7.387500286102295
1777560074558898200,0.732898193359375,1.5562500953674316,8.475000381469727,-6.806250095367432
1777560074568898000,0.74289794921875,1.631250023841858,10.18125057220459,-7.893750190734863
1777560074578898200,0.752898193359375,1.1437500715255737,9.46875,-7.593750476837158
1777560074588898000,0.76289794921875,2.793750047683716,9.09375,-6.731250286102295
1777560074598898200,0.772898193359375,2.793750047683716,8.193750381469727,-8.737500190734863
1777560074608898000,0.78289794921875,0.05625000223517418,8.30625057220459,-7.931250095367432
1777560074618898200,0.792898193359375,0.07500000298023224,9.018750190734863,-7.368750095367432
1777560074628898000,0.80289794921875,3.0375001430511475,11.137500762939453,-7.331250190734863
1777560074638898200,0.812898193359375,4.837500095367432,10.800000190734863,-7.012500286102295
1777560074648898000,0.82289794921875,4.818750381469727,9.24375057220459,-9.15000057220459
1777560074658898200,0.832898193359375,2.6625001430511475,8.71875,-8.49375057220459
1777560074668898000,0.84289794921875,4.59375,7.181250095367432,-9.675000190734863
1777560074678898200,0.852898193359375,4.818750381469727,10.3125,-6.131250381469727
1777560074688898000,0.86289794921875,3.5812501907348633,9.375,-7.406250476837158
1777560074698898200,0.872898193359375,3.5812501907348633,9.375,-7.406250476837158
1777560074708898000,0.88289794921875,4.481250286102295,8.456250190734863,-8.58750057220459
1777560074718898200,0.892898193359375,6.300000190734863,8.512500762939453,-8.193750381469727
1777560074728898000,0.90289794921875,5.493750095367432,7.687500476837158,-6.918750286102295
1777560074738898200,0.912898193359375,6.281250476837158,8.550000190734863,-7.912500381469727
1777560074748898000,0.92289794921875,4.631250381469727,9.693750381469727,-5.25
1777560074758898200,0.932898193359375,5.118750095367432,9.9375,-7.762500286102295
1777560074768898000,0.94289794921875,3.0562500953674316,8.34375,-5.887500286102295
1777560074778898200,0.952898193359375,5.831250190734863,8.71875,-7.575000286102295
1777560074788898000,0.96289794921875,3.5250000953674316,8.49375057220459,-6.581250190734863
1777560074798898200,0.972898193359375,5.53125,8.456250190734863,-8.606250762939453
1777560074808898000,0.98289794921875,3.750000238418579,9.731250762939453,-8.325000762939453
1777560074818898200,0.992898193359375,6.843750476837158,7.575000286102295,-6.843750476837158
1777560074828898000,1.00289794921875,5.362500190734863,8.943750381469727,-6.112500190734863
1777560074838898200,1.012898193359375,5.418750286102295,9.5625,-7.837500095367432
1777560074848898000,1.02289794921875,6.562500476837158,8.231250762939453,-6.712500095367432
1777560074858898200,1.032898193359375,4.612500190734863,9.131250381469727,-6.487500190734863
1777560074868898000,1.04289794921875,3.9937500953674316,7.987500190734863,-7.537500381469727
1777560074878898200,1.052898193359375,3.9937500953674316,7.987500190734863,-7.537500381469727
1777560074888898000,1.06289794921875,6.300000190734863,8.756250381469727,-8.15625
1777560074898898200,1.072898193359375,4.575000286102295,7.556250095367432,-7.068750381469727
1777560074908898000,1.08289794921875,4.631250381469727,9.581250190734863,-5.981250286102295
1777560074918898200,1.092898193359375,8.0625,7.462500095367432,-7.593750476837158
1777560074928898000,1.10289794921875,8.11875057220459,7.575000286102295,-11.100000381469727
1777560074938898200,1.112898193359375,6.206250190734863,6.900000095367432,-6.393750190734863
1777560074948898000,1.12289794921875,7.293750286102295,7.650000095367432,-6.412500381469727
1777560074958898200,1.132898193359375,5.831250190734863,9.225000381469727,-5.793750286102295
1777560074968898000,1.14289794921875,6.318750381469727,8.943750381469727,-9.52500057220459
1777560074978898200,1.152898193359375,6.693750381469727,6.881250381469727,-8.231250762939453
1777560074988898000,1.16289794921875,6.562500476837158,7.275000095367432,-9
1777560074998898200,1.172898193359375,7.518750190734863,8.643750190734863,-8.90625
1777560075008898000,1.18289794921875,6.562500476837158,7.218750476837158,-9.300000190734863
1777560075018898200,1.192898193359375,7.331250190734863,7.968750476837158,-8.475000381469727
1777560075028898000,1.20289794921875,5.0625,7.912500381469727,-8.850000381469727
1777560075038898200,1.212898193359375,5.362500190734863,8.268750190734863,-8.081250190734863
1777560075048898000,1.22289794921875,7.050000190734863,8.0625,-8.737500190734863
1777560075058898200,1.232898193359375,5.0625,7.368750095367432,-10.08750057220459
1777560075068898000,1.24289794921875,7.518750190734863,8.325000762939453,-9.393750190734863
1777560075078898200,1.252898193359375,6.731250286102295,6.806250095367432,-11.362500190734863
1777560075088898000,1.26289794921875,5.0625,6.468750476837158,-11.943750381469727
1777560075098898200,1.272898193359375,3.825000047683716,7.181250095367432,-9.65625
1777560075108898000,1.28289794921875,5.25,8.30625057220459,-9.61875057220459
1777560075118898200,1.292898193359375,4.575000286102295,6.843750476837158,-9.318750381469727
1777560075128898000,1.30289794921875,6.131250381469727,7.312500476837158,-10.40625
1777560075138898200,1.312898193359375,5.8125,7.350000381469727,-10.106250762939453
1777560075148898000,1.32289794921875,4.5,8.887500762939453,-9.918750762939453
1777560075158898200,1.332898193359375,4.3125,6.750000476837158,-12.581250190734863
1777560075168898000,1.34289794921875,5.418750286102295,8.49375057220459,-10.856250762939453
1777560075178898200,1.352898193359375,3.9937500953674316,7.106250286102295,-10.950000762939453
1777560075188898000,1.36289794921875,4.012500286102295,7.387500286102295,-11.606250762939453
1777560075198898200,1.372898193359375,2.9437501430511475,7.668750286102295,-9.675000190734863
1777560075208898000,1.38289794921875,3.543750047683716,7.162500381469727,-11.49375057220459
1777560075218898200,1.392898193359375,5.587500095367432,8.0625,-12.918750762939453
1777560075228898000,1.40289794921875,3.1125001907348633,7.500000476837158,-11.700000762939453
1777560075238898200,1.412898193359375,4.650000095367432,8.49375057220459,-10.83750057220459
1777560075248898000,1.42289794921875,2.793750047683716,6.768750190734863,-12.52500057220459
1777560075258898200,1.432898193359375,4.725000381469727,5.625,-12.656250953674316
1777560075268898000,1.44289794921875,3.7125000953674316,6.543750286102295,-13.162500381469727
1777560075278898200,1.452898193359375,2.981250047683716,7.406250476837158,-13.256250381469727
1777560075288898000,1.46289794921875,3.731250047683716,7.143750190734863,-13.331250190734863
1777560075298898200,1.472898193359375,1.6125000715255737,7.593750476837158,-12.768750190734863
1777560075308898000,1.48289794921875,1.6125000715255737,7.593750476837158,-12.768750190734863
1777560075318898200,1.492898193359375,1.1812500953674316,8.90625,-11.512500762939453
1777560075328898000,1.50289794921875,2.0625,6.806250095367432,-13.912500381469727
1777560075338898200,1.512898193359375,2.1750001907348633,6.712500095367432,-11.96250057220459
1777560075348898000,1.52289794921875,1.9500000476837158,8.53125,-12.318750381469727
1777560075358898200,1.532898193359375,-0.05625000223517418,8.418750762939453,-10.59375
1777560075368898000,1.54289794921875,-0.24375000596046448,7.631250381469727,-10.875
1777560075378898200,1.552898193359375,0.8812500238418579,8.137500762939453,-13.350000381469727
1777560075388898000,1.56289794921875,0.6937500238418579,6.187500476837158,-15.693750381469727
1777560075398898200,1.572898193359375,-0.35625001788139343,7.218750476837158,-14.625000953674316
1777560075408898000,1.58289794921875,2.6625001430511475,6.543750286102295,-14.831250190734863
1777560075418898200,1.592898193359375,-0.3187500238418579,8.34375,-13.706250190734863
1777560075428898000,1.60289794921875,0.8812500238418579,7.237500190734863,-15.206250190734863
1777560075438898200,1.612898193359375,1.631250023841858,6.918750286102295,-15.71250057220459
1777560075448898000,1.62289794921875,-1.0875000953674316,8.34375,-13.687500953674316
1777560075458898200,1.632898193359375,-1.4812500476837158,5.925000190734863,-13.987500190734863
1777560075468898000,1.64289794921875,-1.725000023841858,7.575000286102295,-12.956250190734863
1777560075478898200,1.652898193359375,0.862500011920929,7.293750286102295,-14.925000190734863
1777560075488898000,1.66289794921875,-1.3687500953674316,8.68125057220459,-13.893750190734863
1777560075498898200,1.672898193359375,-1.818750023841858,8.981250762939453,-13.537500381469727
1777560075508898000,1.68289794921875,1.3312500715255737,7.181250095367432,-15.656250953674316
1777560075518898200,1.692898193359375,0.6000000238418579,8.21250057220459,-15.450000762939453
1777560075528898000,1.70289794921875,-0.7312500476837158,9,-15.112500190734863
1777560075538898200,1.712898193359375,0.45000001788139343,7.612500190734863,-16.125
1777560075548898000,1.72289794921875,-0.375,6.450000286102295,-15.61875057220459
1777560075558898200,1.732898193359375,-0.956250011920929,6.993750095367432,-15.206250190734863
1777560075568898000,1.74289794921875,0.6937500238418579,6.075000286102295,-16.42500114440918
1777560075578898200,1.752898193359375,-0.30000001192092896,8.0625,-15.581250190734863
1777560075588898000,1.76289794921875,-0.1875,6.825000286102295,-16.387500762939453
1777560075598898200,1.772898193359375,0.4312500059604645,6.937500476837158,-16.537500381469727
1777560075608898000,1.78289794921875,1.2000000476837158,7.575000286102295,-16.42500114440918
1777560075618898200,1.792898193359375,2.231250047683716,6.806250095367432,-15.61875057220459
1777560075628898000,1.80289794921875,-0.9750000238418579,7.143750190734863,-14.193750381469727
1777560075638898200,1.812898193359375,-0.9750000238418579,7.143750190734863,-14.193750381469727
1777560075648898000,1.82289794921875,-0.20625001192092896,6.618750095367432,-15.300000190734863
1777560075658898200,1.832898193359375,0.13125000894069672,8.043750762939453,-14.062500953674316
1777560075668898000,1.84289794921875,-0.65625,6.993750095367432,-15.225000381469727
1777560075678898200,1.852898193359375,-0.65625,6.337500095367432,-17.17500114440918
1777560075688898000,1.86289794921875,-0.9000000357627869,7.312500476837158,-19.106250762939453
1777560075698898200,1.872898193359375,2.15625,6.825000286102295,-20.700000762939453
1777560075708898000,1.88289794921875,2.8500001430511475,5.643750190734863,-20.231250762939453
1777560075718898200,1.892898193359375,2.418750047683716,5.475000381469727,-21.375
1777560075728898000,1.90289794921875,2.1187500953674316,6.806250095367432,-18.150001525878906
1777560075738898200,1.912898193359375,2.1187500953674316,6.806250095367432,-18.150001525878906
1777560075748898000,1.92289794921875,0.675000011920929,8.11875057220459,-20.400001525878906
1777560075758898200,1.932898193359375,0.675000011920929,8.11875057220459,-20.400001525878906
1777560075768898000,1.94289794921875,-0.28125,7.087500095367432,-19.725000381469727
1777560075778898200,1.952898193359375,-0.7312500476837158,8.49375057220459,-16.912500381469727
1777560075788898000,1.96289794921875,1.256250023841858,8.68125057220459,-17.34375
1777560075798898200,1.972898193359375,-0.13125000894069672,8.362500190734863,-16.106250762939453
1777560075808898000,1.98289794921875,0,7.518750190734863,-16.837501525878906
1777560075818898200,1.992898193359375,0.11250000447034836,6.187500476837158,-18.225000381469727
1777560075828898000,2.00289794921875,1.4812500476837158,6.112500190734863,-17.850000381469727
1777560075838898200,2.012898193359375,-0.9000000357627869,8.268750190734863,-16.80000114440918
1777560075848898000,2.02289794921875,0.13125000894069672,7.425000190734863,-16.575000762939453
1777560075858898200,2.032898193359375,-1.8000000715255737,7.950000286102295,-18.11250114440918
1777560075868898000,2.04289794921875,0.4125000238418579,6.787500381469727,-15.862500190734863
1777560075878898200,2.052898193359375,-1.03125,8.550000190734863,-16.61250114440918
1777560075888898000,2.06289794921875,0.20625001192092896,9.168750762939453,-17.36250114440918
1777560075898898200,2.072898193359375,-1.5,8.550000190734863,-16.59375
1777560075908898000,2.08289794921875,0.4687500298023224,8.700000762939453,-15.487500190734863
1777560075918898200,2.092898193359375,0.6187500357627869,8.0625,-16.462501525878906
1777560075928898000,2.10289794921875,0.16875000298023224,8.325000762939453,-16.40625
1777560075938898200,2.112898193359375,-1.3875000476837158,7.800000190734863,-15.750000953674316
1777560075948898000,2.12289794921875,1.2937500476837158,10.725000381469727,-14.418750762939453
1777560075958898200,2.132898193359375,0.16875000298023224,9.206250190734863,-14.531250953674316
1777560075968898000,2.14289794921875,-0.5625,8.90625,-16.6875
1777560075978898200,2.152898193359375,-0.8437500596046448,9.33750057220459,-18.01875114440918
1777560075988898000,2.16289794921875,-0.26250001788139343,9.356250762939453,-15.33750057220459
1777560075998898200,2.172898193359375,1.4625000953674316,11.137500762939453,-14.21250057220459
1777560076008898000,2.18289794921875,1.0125000476837158,10.668750762939453,-15.693750381469727
1777560076018898200,2.192898193359375,0.1875,9,-15.99375057220459
1777560076028898000,2.20289794921875,3.0375001430511475,8.40000057220459,-14.906250953674316
1777560076038898200,2.212898193359375,1.40625,9.487500190734863,-15.225000381469727
1777560076048898000,2.22289794921875,1.443750023841858,10.93125057220459,-13.818750381469727
1777560076058898200,2.232898193359375,-1.3312500715255737,10.893750190734863,-11.643750190734863
1777560076068898000,2.24289794921875,1.4250000715255737,10.125,-15.093750953674316
1777560076078898200,2.252898193359375,-0.862500011920929,10.350000381469727,-13.593750953674316
1777560076088898000,2.26289794921875,-0.24375000596046448,10.46250057220459,-13.725000381469727
1777560076098898200,2.272898193359375,0.5062500238418579,9.71250057220459,-14.58750057220459
1777560076108898000,2.28289794921875,2.418750047683716,8.30625057220459,-14.77500057220459
1777560076118898200,2.292898193359375,0.8062500357627869,9.487500190734863,-16.05000114440918
1777560076128898000,2.30289794921875,-0.8250000476837158,11.25,-13.425000190734863
1777560076138898200,2.312898193359375,0.7875000238418579,9.450000762939453,-14.643750190734863
1777560076148898000,2.32289794921875,2.71875,8.58750057220459,-13.74375057220459
1777560076158898200,2.332898193359375,0.9750000238418579,9.71250057220459,-15.450000762939453
1777560076168898000,2.34289794921875,1.4250000715255737,9.52500057220459,-16.631250381469727
1777560076178898200,2.352898193359375,1.4250000715255737,9.52500057220459,-16.631250381469727
1777560076188898000,2.36289794921875,0.9000000357627869,11.58750057220459,-17.0625
1777560076198898200,2.372898193359375,4.443750381469727,8.512500762939453,-17.606250762939453
1777560076208898000,2.38289794921875,2.8125,8.793750762939453,-19.068750381469727
1777560076218898200,2.392898193359375,2.418750047683716,7.762500286102295,-15.862500190734863
1777560076228898000,2.40289794921875,1.2937500476837158,10.125,-15.937500953674316
1777560076238898200,2.412898193359375,4.068750381469727,10.6875,-17.17500114440918
1777560076248898000,2.42289794921875,4.612500190734863,8.943750381469727,-18.09375
1777560076258898200,2.432898193359375,1.7625000476837158,9.693750381469727,-18.01875114440918
1777560076268898000,2.44289794921875,2.1750001907348633,8.737500190734863,-17.793750762939453
1777560076278898200,2.452898193359375,3.3937501907348633,9,-17.625
1777560076288898000,2.46289794921875,2.0625,10.012500762939453,-16.6875
1777560076298898200,2.472898193359375,1.725000023841858,10.293750762939453,-13.950000762939453
1777560076308898000,2.48289794921875,3.825000047683716,8.68125057220459,-15.581250190734863
1777560076318898200,2.492898193359375,2.7375001907348633,8.193750381469727,-16.350000381469727
1777560076328898000,2.50289794921875,2.34375,9.90000057220459,-15.731250762939453
1777560076338898200,2.512898193359375,2.15625,9.206250190734863,-14.58750057220459
1777560076348898000,2.52289794921875,3.4125001430511475,10.21875,-15.281250953674316
1777560076358898200,2.532898193359375,3.8625001907348633,10.068750381469727,-14.606250762939453
1777560076368898000,2.54289794921875,0.956250011920929,9.75,-15.168750762939453
1777560076378898200,2.552898193359375,2.793750047683716,10.18125057220459,-13.856250762939453
1777560076388898000,2.56289794921875,1.350000023841858,9.43125057220459,-11.287500381469727
1777560076398898200,2.572898193359375,2.325000047683716,10.350000381469727,-12.675000190734863
1777560076408898000,2.58289794921875,0.862500011920929,11.30625057220459,-14.718750953674316
1777560076418898200,2.592898193359375,2.3625001907348633,11.137500762939453,-13.237500190734863
1777560076428898000,2.60289794921875,-0.01875000074505806,8.4375,-12.975000381469727
1777560076438898200,2.612898193359375,2.15625,10.012500762939453,-13.312500953674316
1777560076448898000,2.62289794921875,1.3125,10.818750381469727,-15.52500057220459
1777560076458898200,2.632898193359375,1.2937500476837158,9.80625057220459,-16.42500114440918
1777560076468898000,2.64289794921875,1.7625000476837158,10.237500190734863,-16.068750381469727
1777560076478898200,2.652898193359375,2.2687501907348633,12.787500381469727,-13.912500381469727
1777560076488898000,2.66289794921875,1.3125,11.475000381469727,-13.575000762939453
1777560076498898200,2.672898193359375,0.5062500238418579,9.24375057220459,-16.087501525878906
1777560076508898000,2.68289794921875,0.8437500596046448,11.043750762939453,-13.912500381469727
1777560076518898200,2.692898193359375,-0.11250000447034836,9.5625,-14.737500190734863
1777560076528898000,2.70289794921875,-0.26250001788139343,9.450000762939453,-14.625000953674316
1777560076538898200,2.712898193359375,-0.956250011920929,11.325000762939453,-14.662500381469727
1777560076548898000,2.72289794921875,-0.9750000238418579,10.893750190734863,-15.037500381469727
1777560076558898200,2.732898193359375,-0.8437500596046448,10.143750190734863,-15.037500381469727
1777560076568898000,2.74289794921875,-0.9375000596046448,10.893750190734863,-17.568750381469727
1777560076578898200,2.752898193359375,-1.7437500953674316,10.18125057220459,-15.562500953674316
1777560076588898000,2.76289794921875,-0.9937500357627869,9.881250381469727,-15.937500953674316
1777560076598898200,2.772898193359375,-2.0250000953674316,10.83750057220459,-16.293750762939453
1777560076608898000,2.78289794921875,-2.0250000953674316,10.83750057220459,-16.293750762939453
1777560076618898200,2.792898193359375,-1.3125,8.793750762939453,-17.400001525878906
1777560076628898000,2.80289794921875,-4.200000286102295,9.768750190734863,-15.018750190734863
1777560076638898200,2.812898193359375,-4.200000286102295,9.768750190734863,-15.018750190734863
1777560076648898000,2.82289794921875,-2.53125,9.99375057220459,-15.168750762939453
1777560076658898200,2.832898193359375,-3.6937501430511475,10.27500057220459,-17.625
1777560076668898000,2.84289794921875,-4.462500095367432,10.27500057220459,-17.606250762939453
1777560076678898200,2.852898193359375,-4.106250286102295,11.268750190734863,-17.55000114440918
1777560076688898000,2.86289794921875,-3.075000047683716,10.800000190734863,-16.556251525878906
1777560076698898200,2.872898193359375,-4.78125,9,-19.51875114440918
1777560076708898000,2.88289794921875,-3.093750238418579,9.61875057220459,-18.600000381469727
1777560076718898200,2.892898193359375,-5.231250286102295,9.637500762939453,-17.700000762939453
1777560076728898000,2.90289794921875,-6.112500190734863,11.137500762939453,-16.818750381469727
1777560076738898200,2.912898193359375,-3.8812501430511475,9.356250762939453,-17.92500114440918
1777560076748898000,2.92289794921875,-4.612500190734863,10.443750381469727,-17.287500381469727
1777560076758898200,2.932898193359375,-6.168750286102295,8.68125057220459,-18.28125
1777560076768898000,2.94289794921875,-4.575000286102295,10.3125,-19.837501525878906
1777560076778898200,2.952898193359375,-4.443750381469727,9.43125057220459,-20.868751525878906
1777560076788898000,2.96289794921875,-4.59375,8.193750381469727,-24.20625114440918
1777560076798898200,2.972898193359375,-3.3187501430511475,10.387500762939453,-21.975000381469727
1777560076808898000,2.98289794921875,-3.0562500953674316,10.200000762939453,-20.606250762939453
1777560076818898200,2.992898193359375,-2.1187500953674316,9.731250762939453,-22.98750114440918
1777560076828898000,3.00289794921875,-2.887500047683716,9.787500381469727,-22.668750762939453
1777560076838898200,3.012898193359375,-3.9562501907348633,10.106250762939453,-20.475000381469727
1777560076848898000,3.02289794921875,-4.462500095367432,8.71875,-21.431251525878906
1777560076858898200,3.032898193359375,-2.4000000953674316,10.481250762939453,-22.125
1777560076868898000,3.04289794921875,-0.862500011920929,11.90625,-20.90625
1777560076878898200,3.052898193359375,-2.0812501907348633,11.0625,-22.443750381469727
1777560076888898000,3.06289794921875,-1.9500000476837158,11.268750190734863,-20.15625
1777560076898898200,3.072898193359375,-3.0375001430511475,9.5625,-23.26875114440918
1777560076908898000,3.08289794921875,-2.1187500953674316,11.175000190734863,-19.89375114440918
1777560076918898200,3.092898193359375,-2.8500001430511475,11.381250381469727,-20.25
1777560076928898000,3.10289794921875,-4.368750095367432,10.818750381469727,-22.443750381469727
1777560076938898200,3.112898193359375,-2.25,10.668750762939453,-21.67500114440918
1777560076948898000,3.12289794921875,-3.9562501907348633,9.84375,-22.21875
1777560076958898200,3.132898193359375,-4.087500095367432,9.787500381469727,-23.493751525878906
1777560076968898000,3.14289794921875,-3.843750238418579,12.731250762939453,-22.087501525878906
1777560076978898200,3.152898193359375,-1.3687500953674316,9.506250381469727,-22.762500762939453
1777560076988898000,3.16289794921875,-2.043750047683716,11.4375,-24.075000762939453
1777560076998898200,3.172898193359375,-2.1000001430511475,9.84375,-24.806251525878906
1777560077008898000,3.18289794921875,-1.6125000715255737,10.800000190734863,-24.20625114440918
1777560077018898200,3.192898193359375,-0.5250000357627869,10.518750190734863,-26.118751525878906
1777560077028898000,3.20289794921875,-1.1437500715255737,9.99375057220459,-26.343751907348633
1777560077038898200,3.212898193359375,-1.1437500715255737,9.99375057220459,-26.343751907348633
1777560077048898000,3.22289794921875,-2.5687501430511475,10.36875057220459,-22.012500762939453
1777560077058898200,3.232898193359375,-2.512500047683716,11.8125,-22.443750381469727
1777560077078898200,3.252898193359375,0.9937500357627869,11.175000190734863,-24.20625114440918
1777560077088898000,3.26289794921875,-1.8937500715255737,10.78125,-25.200000762939453
1777560077098898200,3.272898193359375,0.4125000238418579,11.96250057220459,-23.90625
1777560077108898000,3.28289794921875,-1.2750000953674316,10.912500381469727,-26.025001525878906
1777560077118898200,3.292898193359375,-1.443750023841858,10.518750190734863,-25.256250381469727
1777560077128898000,3.30289794921875,-1.0875000953674316,12.862500190734863,-23.681251525878906
1777560077138898200,3.312898193359375,-0.7875000238418579,12.506250381469727,-23.625
1777560077148898000,3.32289794921875,0.24375000596046448,11.850000381469727,-23.775001525878906
1777560077158898200,3.332898193359375,-2.0250000953674316,12.731250762939453,-22.14375114440918
1777560077168898000,3.34289794921875,-1.2375000715255737,12.262500762939453,-25.350000381469727
1777560077178898200,3.352898193359375,-0.4687500298023224,12.187500953674316,-25.80000114440918
1777560077188898000,3.36289794921875,-1.1062500476837158,12.825000762939453,-22.275001525878906
1777560077198898200,3.372898193359375,-1.6125000715255737,11.756250381469727,-21.900001525878906
1777560077208898000,3.38289794921875,-3.9562501907348633,14.531250953674316,-20.887500762939453
1777560077218898200,3.392898193359375,-1.8937500715255737,12.393750190734863,-20.92500114440918
1777560077228898000,3.40289794921875,0.15000000596046448,14.100000381469727,-22.068750381469727
1777560077238898200,3.412898193359375,-0.3375000059604645,12.71250057220459,-23.025001525878906
1777560077248898000,3.42289794921875,-1.9687501192092896,14.812500953674316,-20.606250762939453
1777560077258898200,3.432898193359375,0.9187500476837158,14.100000381469727,-22.087501525878906
1777560077268898000,3.44289794921875,-2.0250000953674316,13.08750057220459,-21.356250762939453
1777560077278898200,3.452898193359375,-0.3187500238418579,13.762500762939453,-21.84375
1777560077288898000,3.46289794921875,0.9000000357627869,14.250000953674316,-21.075000762939453
1777560077298898200,3.472898193359375,-0.4687500298023224,14.100000381469727,-21.20625114440918
1777560077308898000,3.48289794921875,1.0875000953674316,14.700000762939453,-21.412500381469727
1777560077318898200,3.492898193359375,1.125,14.943750381469727,-23.90625
1777560077328898000,3.50289794921875,0.8437500596046448,15.600000381469727,-23.775001525878906
1777560077348898000,3.52289794921875,4.200000286102295,15.675000190734863,-24.843751907348633
1777560077358898200,3.532898193359375,3.075000047683716,13.350000381469727,-26.381250381469727
1777560077368898000,3.54289794921875,6.318750381469727,11.606250762939453,-34.85625076293945
1777560077378898200,3.552898193359375,6.562500476837158,14.831250190734863,-33.26250076293945
1777560077388898000,3.56289794921875,5.887500286102295,13.74375057220459,-30.48750114440918
1777560077398898200,3.572898193359375,5.34375,15.093750953674316,-31.481250762939453
1777560077408898000,3.58289794921875,5.90625,15.300000190734863,-28.350000381469727
1777560077418898200,3.592898193359375,2.3625001907348633,14.02500057220459,-27.656251907348633
1777560077428898000,3.60289794921875,4.462500095367432,15.093750953674316,-22.837501525878906
1777560077438898200,3.612898193359375,3.262500047683716,13.818750381469727,-28.275001525878906
1777560077448898000,3.62289794921875,4.162500381469727,16.462501525878906,-19.462501525878906
1777560077458898200,3.632898193359375,1.6125000715255737,17.568750381469727,-18.76875114440918
1777560077468898000,3.64289794921875,1.6125000715255737,17.568750381469727,-18.76875114440918
1777560077478898200,3.652898193359375,3.3187501430511475,14.86875057220459,-17.64375114440918
1777560077488898000,3.66289794921875,2.0250000953674316,15.61875057220459,-21.825000762939453
1777560077498898200,3.672898193359375,2.625,15.731250762939453,-20.26875114440918
1777560077508898000,3.68289794921875,1.2375000715255737,16.125,-18.46875
1777560077518898200,3.692898193359375,1.2375000715255737,16.125,-18.46875
1777560077528898000,3.70289794921875,2.6437501907348633,16.106250762939453,-20.193750381469727
1777560077538898200,3.712898193359375,0.8062500357627869,16.087501525878906,-20.4375
1777560077548898000,3.72289794921875,5.081250190734863,16.98750114440918,-19.256250381469727
1777560077558898200,3.732898193359375,4.125,15.637500762939453,-19.200000762939453
1777560077568898000,3.74289794921875,3.3937501907348633,16.21875,-19.5
1777560077578898200,3.752898193359375,2.53125,17.0625,-20.587501525878906
1777560077588898000,3.76289794921875,5.081250190734863,16.462501525878906,-20.34375
1777560077598898200,3.772898193359375,5.212500095367432,16.200000762939453,-19.537500381469727
1777560077608898000,3.78289794921875,2.0625,16.275001525878906,-21.712501525878906
1777560077618898200,3.792898193359375,4.5,17.493751525878906,-19.275001525878906
1777560077628898000,3.80289794921875,3.3937501907348633,15.99375057220459,-20.943750381469727
1777560077638898200,3.812898193359375,4.931250095367432,16.912500381469727,-18.975000381469727
1777560077648898000,3.82289794921875,3.075000047683716,15.675000190734863,-20.568750381469727
1777560077658898200,3.832898193359375,2.8125,16.368751525878906,-21
1777560077668898000,3.84289794921875,4.068750381469727,18.48750114440918,-19.21875
1777560077678898200,3.852898193359375,5.231250286102295,16.837501525878906,-19.42500114440918
1777560077688898000,3.86289794921875,4.275000095367432,15.843750953674316,-18.600000381469727
1777560077698898200,3.872898193359375,5.925000190734863,17.700000762939453,-22.950000762939453
1777560077708898000,3.88289794921875,6.768750190734863,17.043750762939453,-19.70625114440918
1777560077718898200,3.892898193359375,5.0625,15.750000953674316,-20.90625
1777560077728898000,3.90289794921875,4.21875,17.4375,-21.412500381469727
1777560077738898200,3.912898193359375,5.587500095367432,17.306251525878906,-21.318750381469727
1777560077748898000,3.92289794921875,4.368750095367432,17.418750762939453,-20.568750381469727
1777560077758898200,3.932898193359375,4.050000190734863,18.506250381469727,-17.381250381469727
1777560077768898000,3.94289794921875,2.8500001430511475,17.400001525878906,-20.8125
1777560077778898200,3.952898193359375,3.281250238418579,17.118751525878906,-20.17500114440918
1777560077788898000,3.96289794921875,3.4875001907348633,18.993751525878906,-19.256250381469727
1777560077798898200,3.972898193359375,1.7625000476837158,17.83125114440918,-17.868751525878906
1777560077808898000,3.98289794921875,1.8000000715255737,18.450000762939453,-19.59375
1777560077818898200,3.992898193359375,2.137500047683716,19.368751525878906,-20.137500762939453
1777560077828898000,4.00289794921875,1.068750023841858,18.9375,-20.475000381469727
1777560077838898200,4.012898193359375,1.068750023841858,19.05000114440918,-19.743751525878906
1777560077848898000,4.02289794921875,0.9000000357627869,18.150001525878906,-20.756250381469727
1777560077858898200,4.032898193359375,0.3375000059604645,19.481250762939453,-21.056251525878906
1777560077868898000,4.04289794921875,-0.6000000238418579,19.293750762939453,-19.80000114440918
1777560077878898200,4.052898193359375,-0.11250000447034836,19.51875114440918,-20.73750114440918
1777560077888898000,4.06289794921875,-1.8750001192092896,17.681251525878906,-19.78125
1777560077898898200,4.072898193359375,-0.9000000357627869,18.84375,-21.131250381469727
1777560077908898000,4.08289794921875,-0.9000000357627869,18.84375,-21.131250381469727
1777560077918898200,4.092898193359375,-3.3375000953674316,18.506250381469727,-21
1777560077928898000,4.10289794921875,-2.25,19.23750114440918,-21.01875114440918
1777560077938898200,4.112898193359375,-1.9687501192092896,19.443750381469727,-19.575000762939453
1777560077948898000,4.12289794921875,-2.043750047683716,20.15625,-22.40625
1777560077958898200,4.132898193359375,-0.3375000059604645,21.787500381469727,-20.587501525878906
1777560077968898000,4.14289794921875,-1.2000000476837158,19.275001525878906,-20.775001525878906
1777560077978898200,4.152898193359375,-4.068750381469727,18.900001525878906,-22.59375
1777560077988898000,4.16289794921875,-3.468750238418579,18.543750762939453,-23.25
1777560077998898200,4.172898193359375,-3.450000047683716,19.78125,-21.600000381469727
1777560078008898000,4.18289794921875,-4.518750190734863,20.006250381469727,-20.118751525878906
1777560078018898200,4.192898193359375,-4.5,19.6875,-22.293750762939453
1777560078038898200,4.212898193359375,-3.5812501907348633,19.537500381469727,-22.481250762939453
1777560078048898000,4.22289794921875,-3.4125001430511475,19.40625,-24.20625114440918
1777560078058898200,4.232898193359375,-4.21875,18.975000381469727,-22.856250762939453
1777560078068898000,4.24289794921875,-3.9937500953674316,21,-22.61250114440918
1777560078078898200,4.252898193359375,-2.9250001907348633,21.150001525878906,-22.481250762939453
1777560078088898000,4.26289794921875,-2.0250000953674316,21.262500762939453,-20.793750762939453
1777560078098898200,4.272898193359375,-2.1750001907348633,21.20625114440918,-22.068750381469727
1777560078108898000,4.28289794921875,-3.562500238418579,20.568750381469727,-21.30000114440918
1777560078118898200,4.292898193359375,-1.5750000476837158,19.5,-25.23750114440918
1777560078128898000,4.30289794921875,-2.887500047683716,21.637500762939453,-23.381250381469727
1777560078138898200,4.312898193359375,-0.8437500596046448,19.387500762939453,-24.281251907348633
1777560078148898000,4.32289794921875,-1.2000000476837158,22.61250114440918,-22.668750762939453
1777560078158898200,4.332898193359375,-1.5562500953674316,20.887500762939453,-22.575000762939453
1777560078168898000,4.34289794921875,-0.4312500059604645,22.537500381469727,-23.118751525878906
1777560078178898200,4.352898193359375,-0.9187500476837158,22.012500762939453,-22.5
1777560078188898000,4.36289794921875,0.4125000238418579,20.83125114440918,-22.912500381469727
1777560078198898200,4.372898193359375,0.05625000223517418,23.193750381469727,-23.868751525878906
1777560078208898000,4.38289794921875,-1.818750023841858,22.481250762939453,-21.825000762939453
1777560078218898200,4.392898193359375,-0.9000000357627869,22.05000114440918,-23.90625
1777560078228898000,4.40289794921875,-2.7562501430511475,21.600000381469727,-22.818750381469727
1777560078238898200,4.412898193359375,-0.26250001788139343,22.443750381469727,-24.712501525878906
1777560078248898000,4.42289794921875,-2.1000001430511475,22.70625114440918,-22.912500381469727
1777560078258898200,4.432898193359375,-2.15625,20.53125,-25.012500762939453
1777560078268898000,4.44289794921875,-0.8812500238418579,22.443750381469727,-23.83125114440918
1777560078278898200,4.452898193359375,-0.8812500238418579,21.95625114440918,-24.637500762939453
1777560078288898000,4.46289794921875,-0.9187500476837158,22.068750381469727,-22.068750381469727
1777560078298898200,4.472898193359375,-0.375,23.71875,-23.606250762939453
1777560078308898000,4.48289794921875,-1.5562500953674316,21.243751525878906,-21.787500381469727
1777560078318898200,4.492898193359375,-0.6937500238418579,23.193750381469727,-23.850000381469727
1777560078328898000,4.50289794921875,0.05625000223517418,23.193750381469727,-23.868751525878906
1777560078338898200,4.512898193359375,0.05625000223517418,23.193750381469727,-23.868751525878906
1777560078348898000,4.52289794921875,-0.65625,24.881250381469727,-22.537500381469727
1777560078358898200,4.532898193359375,-1.9500000476837158,22.912500381469727,-22.3125
1777560078368898000,4.54289794921875,-1.5187500715255737,22.537500381469727,-21.543750762939453
1777560078378898200,4.552898193359375,-1.0125000476837158,23.4375,-22.087501525878906
1777560078388898000,4.56289794921875,-0.375,24.787500381469727,-20.587501525878906
1777560078398898200,4.572898193359375,-0.862500011920929,23.15625,-23.287500381469727
1777560078408898000,4.58289794921875,1.4812500476837158,25.106250762939453,-22.6875
1777560078418898200,4.592898193359375,1.9312500953674316,25.087501525878906,-22.70625114440918
1777560078428898000,4.60289794921875,2.1000001430511475,26.418750762939453,-20.475000381469727
1777560078438898200,4.612898193359375,2.3812501430511475,25.350000381469727,-21.825000762939453
1777560078448898000,4.62289794921875,3.093750238418579,24.600000381469727,-20.15625
1777560078458898200,4.632898193359375,2.6437501907348633,24.375001907348633,-20.73750114440918
1777560078468898000,4.64289794921875,1.9687501192092896,26.906251907348633,-20.53125
1777560078478898200,4.652898193359375,1.6500000953674316,26.45625114440918,-20.17500114440918
1777560078488898000,4.66289794921875,2.8500001430511475,25.668750762939453,-21.356250762939453
1777560078498898200,4.672898193359375,3.656250238418579,26.625001907348633,-21.618751525878906
1777560078508898000,4.68289794921875,4.40625,26.83125114440918,-20.17500114440918
1777560078518898200,4.692898193359375,5.306250095367432,25.725000381469727,-22.668750762939453
1777560078528898000,4.70289794921875,3.0375001430511475,26.64375114440918,-20.606250762939453
1777560078538898200,4.712898193359375,6.225000381469727,26.812501907348633,-20.231250762939453
1777560078548898000,4.72289794921875,5.606250286102295,27.150001525878906,-18.881250381469727
1777560078558898200,4.732898193359375,6.018750190734863,26.418750762939453,-17.90625
1777560078568898000,4.74289794921875,6.656250476837158,27.093751907348633,-18.356250762939453
1777560078578898200,4.752898193359375,6.656250476837158,27.618751525878906,-16.42500114440918
1777560078588898000,4.76289794921875,8.287500381469727,26.493751525878906,-17.231250762939453
1777560078598898200,4.772898193359375,8.58750057220459,26.962501525878906,-15.750000953674316
1777560078608898000,4.78289794921875,9.075000762939453,27.506250381469727,-16.368751525878906
1777560078618898200,4.792898193359375,9.99375057220459,27.225000381469727,-17.4375
1777560078628898000,4.80289794921875,8.15625,26.381250381469727,-18.95625114440918
1777560078638898200,4.812898193359375,8.325000762939453,27.337501525878906,-17.512500762939453
1777560078648898000,4.82289794921875,8.30625057220459,27.243751525878906,-16.387500762939453
1777560078658898200,4.832898193359375,10.08750057220459,25.950000762939453,-16.6875
1777560078678898200,4.852898193359375,9.825000762939453,26.287500381469727,-18.731250762939453
1777560078688898000,4.86289794921875,9.84375,26.531251907348633,-18.693750381469727
1777560078698898200,4.872898193359375,10.143750190734863,27.131250381469727,-17.17500114440918
1777560078708898000,4.88289794921875,11.381250381469727,27.281251907348633,-17.887500762939453
1777560078718898200,4.892898193359375,12.112500190734863,26.568750381469727,-18.450000762939453
1777560078728898000,4.90289794921875,12.131250381469727,26.906251907348633,-18.67500114440918
1777560078738898200,4.912898193359375,12.24375057220459,25.818750381469727,-18.46875
1777560078748898000,4.92289794921875,12.787500381469727,24.11250114440918,-18.243751525878906
1777560078758898200,4.932898193359375,12.843750953674316,25.125001907348633,-19.743751525878906
1777560078768898000,4.94289794921875,12.843750953674316,25.125001907348633,-19.743751525878906
1777560078778898200,4.952898193359375,15.24375057220459,26.287500381469727,-15.206250190734863
1777560078788898000,4.96289794921875,15.24375057220459,26.287500381469727,-15.206250190734863
1777560078798898200,4.972898193359375,10.575000762939453,26.381250381469727,-18.01875114440918
1777560078808898000,4.98289794921875,14.475000381469727,25.012500762939453,-17.118751525878906
1777560078818898200,4.992898193359375,13.65000057220459,23.475000381469727,-17.400001525878906
1777560078828898000,5.00289794921875,16.05000114440918,26.156251907348633,-17.793750762939453
1777560078838898200,5.012898193359375,14.831250190734863,26.775001525878906,-16.087501525878906
1777560078848898000,5.02289794921875,15.843750953674316,25.181251525878906,-17.700000762939453
1777560078858898200,5.032898193359375,13.55625057220459,25.443750381469727,-15.881250381469727
1777560078868898000,5.04289794921875,15.843750953674316,25.275001525878906,-16.96875
1777560078878898200,5.052898193359375,15.52500057220459,24.86250114440918,-16.481250762939453
1777560078888898000,5.06289794921875,14.437500953674316,24.412500381469727,-16.950000762939453
1777560078898898200,5.072898193359375,15.937500953674316,21.993751525878906,-20.700000762939453
1777560078908898000,5.08289794921875,17.475000381469727,23.17500114440918,-19.387500762939453
1777560078918898200,5.092898193359375,16.293750762939453,23.512500762939453,-21.412500381469727
1777560078928898000,5.10289794921875,15.881250381469727,25.70625114440918,-18.30000114440918
1777560078938898200,5.112898193359375,16.89375114440918,23.512500762939453,-20.587501525878906
1777560078948898000,5.12289794921875,16.21875,23.193750381469727,-16.818750381469727
1777560078958898200,5.132898193359375,14.250000953674316,23.981250762939453,-14.77500057220459
1777560078968898000,5.14289794921875,13.031250953674316,24.48750114440918,-13.93125057220459
1777560078978898200,5.152898193359375,13.18125057220459,24.900001525878906,-11.887500762939453
1777560078988898000,5.16289794921875,12.843750953674316,24.731250762939453,-10.5
1777560078998898200,5.172898193359375,11.362500190734863,25.725000381469727,-10.55625057220459
1777560079008898000,5.18289794921875,10.537500381469727,23.36250114440918,-11.40000057220459
1777560079018898200,5.192898193359375,10.46250057220459,25.875001907348633,-10.350000381469727
1777560079028898000,5.20289794921875,8.737500190734863,25.031251907348633,-8.49375057220459
1777560079038898200,5.212898193359375,6.937500476837158,25.368751525878906,-9.65625
1777560079048898000,5.22289794921875,7.350000381469727,24.525001525878906,-9.412500381469727
1777560079058898200,5.232898193359375,5.737500190734863,26.756250381469727,-7.800000190734863
1777560079068898000,5.24289794921875,5.8125,24.787500381469727,-7.612500190734863
1777560079078898200,5.252898193359375,4.950000286102295,25.33125114440918,-9.037500381469727
1777560079088898000,5.26289794921875,4.368750095367432,25.162500381469727,-11.043750762939453
1777560079098898200,5.272898193359375,3.843750238418579,23.700000762939453,-10.875
1777560079108898000,5.28289794921875,3.8812501430511475,24.600000381469727,-10.706250190734863
1777560079118898200,5.292898193359375,2.1937501430511475,23.90625,-12.075000762939453
1777560079128898000,5.30289794921875,3.7687501907348633,22.556251525878906,-19.575000762939453
1777560079138898200,5.312898193359375,3.4125001430511475,21.918750762939453,-17.137500762939453
1777560079148898000,5.32289794921875,2.7750000953674316,24.806251525878906,-18.693750381469727
1777560079158898200,5.332898193359375,3.3375000953674316,22.40625,-21.412500381469727
1777560079168898000,5.34289794921875,1.0500000715255737,23.231250762939453,-18.375
1777560079178898200,5.352898193359375,2.5500001907348633,21.67500114440918,-20.55000114440918
1777560079188898000,5.36289794921875,2.8687500953674316,21.600000381469727,-22.6875
1777560079198898200,5.372898193359375,2.8687500953674316,21.600000381469727,-22.6875
1777560079208898000,5.38289794921875,-1.818750023841858,20.400001525878906,-16.443750381469727
1777560079218898200,5.392898193359375,0.9937500357627869,23.025001525878906,-15.600000381469727
1777560079228898000,5.40289794921875,-2.5687501430511475,21.375,-14.11875057220459
1777560079238898200,5.412898193359375,-2.9625000953674316,18.806251525878906,-14.606250762939453
1777560079248898000,5.42289794921875,-5.643750190734863,20.73750114440918,-14.156250953674316
1777560079258898200,5.432898193359375,-7.650000095367432,20.118751525878906,-12.52500057220459
1777560079268898000,5.44289794921875,-6.412500381469727,21.39375114440918,-11.475000381469727
1777560079278898200,5.452898193359375,-7.668750286102295,20.850000381469727,-9.99375057220459
1777560079288898000,5.46289794921875,-9.037500381469727,19.856250762939453,-11.700000762939453
1777560079298898200,5.472898193359375,-9.61875057220459,20.775001525878906,-12.356250762939453
1777560079308898000,5.48289794921875,-7.181250095367432,21.450000762939453,-11.02500057220459
1777560079318898200,5.492898193359375,-6.131250381469727,20.006250381469727,-13.293750762939453
1777560079328898000,5.50289794921875,-6.843750476837158,20.962501525878906,-13.518750190734863
1777560079338898200,5.512898193359375,-6.450000286102295,19.89375114440918,-13.162500381469727
1777560079348898000,5.52289794921875,-9.262500762939453,22.537500381469727,-10.481250762939453
1777560079358898200,5.532898193359375,-7.650000095367432,21.918750762939453,-8.662500381469727
1777560079368898000,5.54289794921875,-7.275000095367432,22.78125,-11.325000762939453
1777560079378898200,5.552898193359375,-7.162500381469727,22.350000381469727,-9.15000057220459
1777560079388898000,5.56289794921875,-7.368750095367432,24.412500381469727,-10.443750381469727
1777560079398898200,5.572898193359375,-6.918750286102295,20.53125,-9.65625
1777560079408898000,5.58289794921875,-6.450000286102295,20.55000114440918,-11.21250057220459
1777560079418898200,5.592898193359375,-8.0625,21.993751525878906,-10.74375057220459
1777560079428898000,5.60289794921875,-8.53125,21.30000114440918,-12.15000057220459
1777560079438898200,5.612898193359375,-7.612500190734863,21.30000114440918,-13.012500762939453
1777560079448898000,5.62289794921875,-9.1875,20.26875114440918,-11.475000381469727
1777560079458898200,5.632898193359375,-10.068750381469727,20.306251525878906,-12.99375057220459
1777560079468898000,5.64289794921875,-8.4375,19.368751525878906,-13.350000381469727
1777560079478898200,5.652898193359375,-9.1875,20.006250381469727,-11.512500762939453
1777560079488898000,5.66289794921875,-10.443750381469727,17.793750762939453,-15.731250762939453
1777560079498898200,5.672898193359375,-9.787500381469727,18.787500381469727,-16.537500381469727
1777560079508898000,5.68289794921875,-10.331250190734863,20.73750114440918,-15.168750762939453
1777560079518898200,5.692898193359375,-11.137500762939453,19.5,-15.093750953674316
1777560079528898000,5.70289794921875,-9.787500381469727,19.650001525878906,-13.125000953674316
1777560079538898200,5.712898193359375,-10.068750381469727,20.08125114440918,-14.456250190734863
1777560079548898000,5.72289794921875,-10.65000057220459,20.45625114440918,-14.49375057220459
1777560079558898200,5.732898193359375,-12.206250190734863,21.48750114440918,-10.03125
1777560079568898000,5.74289794921875,-11.30625057220459,20.587501525878906,-11.081250190734863
1777560079578898200,5.752898193359375,-11.58750057220459,20.25,-13.387500762939453
1777560079588898000,5.76289794921875,-10.818750381469727,19.875,-15.881250381469727
1777560079598898200,5.772898193359375,-11.381250381469727,21.600000381469727,-13.55625057220459
1777560079608898000,5.78289794921875,-10.08750057220459,18.900001525878906,-15.80625057220459
1777560079618898200,5.792898193359375,-10.293750762939453,21.20625114440918,-16.200000762939453
1777560079628898000,5.80289794921875,-9.881250381469727,20.287500381469727,-15.693750381469727
1777560079638898200,5.812898193359375,-9.881250381469727,20.287500381469727,-15.693750381469727
1777560079648898000,5.82289794921875,-9.262500762939453,21.65625,-13.893750190734863
1777560079658898200,5.832898193359375,-9.862500190734863,22.05000114440918,-12.093750953674316
1777560079668898000,5.84289794921875,-8.793750762939453,22.725000381469727,-11.71875
1777560079678898200,5.852898193359375,-7.556250095367432,23.568750381469727,-10.18125057220459
1777560079688898000,5.86289794921875,-7.931250095367432,22.106250762939453,-9.1875
1777560079698898200,5.872898193359375,-7.293750286102295,22.78125,-9.637500762939453
1777560079708898000,5.88289794921875,-6.543750286102295,22.462501525878906,-9.28125
1777560079718898200,5.892898193359375,-7.162500381469727,22.200000762939453,-10.162500381469727
1777560079728898000,5.90289794921875,-6.693750381469727,23.043750762939453,-8.606250762939453
1777560079738898200,5.912898193359375,-6.525000095367432,23.100000381469727,-9.168750762939453
1777560079748898000,5.92289794921875,-5.118750095367432,23.850000381469727,-9.90000057220459
1777560079758898200,5.932898193359375,-3.7687501907348633,23.606250762939453,-9.84375
1777560079768898000,5.94289794921875,-4.200000286102295,24.95625114440918,-7.462500095367432
1777560079778898200,5.952898193359375,-3.6937501430511475,23.306251525878906,-5.118750095367432
1777560079788898000,5.96289794921875,-3.4875001907348633,24.037500381469727,-6.956250190734863
1777560079798898200,5.972898193359375,-2.7375001907348633,23.325000762939453,-7.537500381469727
1777560079808898000,5.98289794921875,-1.068750023841858,24.712501525878906,-3.918750047683716
1777560079818898200,5.992898193359375,0.16875000298023224,24.39375114440918,-6.131250381469727
1777560079828898000,6.00289794921875,0.48750001192092896,24.993751525878906,-6.318750381469727
1777560079838898200,6.012898193359375,1.0875000953674316,24.750001907348633,-6.225000381469727
1777560079848898000,6.02289794921875,-0.5437500476837158,26.381250381469727,-5.306250095367432
1777560079858898200,6.032898193359375,-0.30000001192092896,24.937501907348633,-4.181250095367432
1777560079868898000,6.04289794921875,0.3187500238418579,24.562501907348633,-5.831250190734863
1777560079878898200,6.052898193359375,0.16875000298023224,23.793750762939453,-7.650000095367432
1777560079888898000,6.06289794921875,0.9375000596046448,24.506250381469727,-7.125000476837158
1777560079898898200,6.072898193359375,1.40625,24.431251525878906,-8.418750762939453
1777560079908898000,6.08289794921875,0.9750000238418579,25.51875114440918,-6.918750286102295
1777560079918898200,6.092898193359375,-1.9312500953674316,24.562501907348633,-7.593750476837158
1777560079928898000,6.10289794921875,0.9937500357627869,26.212501525878906,-6.506250381469727
1777560079938898200,6.112898193359375,1.443750023841858,26.36250114440918,-6.356250286102295
1777560079948898000,6.12289794921875,1.8750001192092896,25.293750762939453,-6.862500190734863
1777560079958898200,6.132898193359375,1.912500023841858,25.14375114440918,-10.40625
1777560079968898000,6.14289794921875,0.24375000596046448,26.325000762939453,-7.462500095367432
1777560079978898200,6.152898193359375,1.2937500476837158,25.725000381469727,-7.331250190734863
1777560079988898000,6.16289794921875,0.5062500238418579,25.631250381469727,-6.187500476837158
1777560079998898200,6.172898193359375,1.8000000715255737,26.73750114440918,-8.831250190734863
1777560080008898000,6.18289794921875,3.468750238418579,26.662500381469727,-8.475000381469727
1777560080018898200,6.192898193359375,2.6625001430511475,25.500001907348633,-7.968750476837158
1777560080028898000,6.20289794921875,1.9875000715255737,27.525001525878906,-8.550000190734863
1777560080038898200,6.212898193359375,2.231250047683716,25.537500381469727,-9.356250762939453
1777560080048898000,6.22289794921875,0.581250011920929,26.381250381469727,-9.581250190734863
1777560080058898200,6.232898193359375,-0.30000001192092896,27.58125114440918,-8.193750381469727
1777560080068898000,6.24289794921875,-0.30000001192092896,27.58125114440918,-8.193750381469727
1777560080078898200,6.252898193359375,-0.03750000149011612,26.793750762939453,-7.650000095367432
1777560080088898000,6.26289794921875,1.068750023841858,26.437501907348633,-10.987500190734863
1777560080098898200,6.272898193359375,1.818750023841858,26.64375114440918,-9.5625
1777560080108898000,6.28289794921875,1.9875000715255737,27.11250114440918,-9.75
1777560080118898200,6.292898193359375,0.45000001788139343,26.475000381469727,-9.84375
1777560080128898000,6.30289794921875,0.5062500238418579,28.387500762939453,-9.46875
1777560080138898200,6.312898193359375,1.40625,27.750001907348633,-10.46250057220459
1777560080148898000,6.32289794921875,1.5,26.887500762939453,-8.662500381469727
1777560080158898200,6.332898193359375,1.3875000476837158,27.562501907348633,-10.08750057220459
1777560080168898000,6.34289794921875,1.5750000476837158,27.750001907348633,-11.325000762939453
1777560080178898200,6.352898193359375,2.0250000953674316,26.887500762939453,-12.90000057220459
1777560080188898000,6.36289794921875,-0.4125000238418579,27.30000114440918,-11.925000190734863
1777560080198898200,6.372898193359375,0.6937500238418579,28.087501525878906,-12.506250381469727
1777560080208898000,6.38289794921875,-1.8750001192092896,28.275001525878906,-13.818750381469727
1777560080218898200,6.392898193359375,-1.125,27.562501907348633,-14.381250381469727
1777560080228898000,6.40289794921875,-3.9000000953674316,27.243751525878906,-12.262500762939453
1777560080238898200,6.412898193359375,-4.818750381469727,26.512500762939453,-13.93125057220459
1777560080248898000,6.42289794921875,-4.200000286102295,27.506250381469727,-12.206250190734863
1777560080258898200,6.432898193359375,-5.118750095367432,27.543750762939453,-11.175000190734863
1777560080268898000,6.44289794921875,-4.068750381469727,26.118751525878906,-14.02500057220459
1777560080278898200,6.452898193359375,-7.725000381469727,26.493751525878906,-13.293750762939453
1777560080288898000,6.46289794921875,-8.662500381469727,26.26875114440918,-11.325000762939453
1777560080298898200,6.472898193359375,-7.087500095367432,25.293750762939453,-18.056251525878906
1777560080308898000,6.48289794921875,-8.737500190734863,26.92500114440918,-14.58750057220459
1777560080318898200,6.492898193359375,-9.05625057220459,26.118751525878906,-15.862500190734863
1777560080328898000,6.50289794921875,-11.700000762939453,25.275001525878906,-13.987500190734863
1777560080338898200,6.512898193359375,-9.675000190734863,25.725000381469727,-16.762500762939453
1777560080348898000,6.52289794921875,-11.21250057220459,25.593751907348633,-16.05000114440918
1777560080358898200,6.532898193359375,-13.950000762939453,25.293750762939453,-15.61875057220459
1777560080368898000,6.54289794921875,-14.30625057220459,23.90625,-16.575000762939453
1777560080378898200,6.552898193359375,-13.93125057220459,26.36250114440918,-15.131250381469727
1777560080388898000,6.56289794921875,-13.968750953674316,24.412500381469727,-17.325000762939453
1777560080398898200,6.572898193359375,-13.950000762939453,24.750001907348633,-17.55000114440918
1777560080408898000,6.58289794921875,-15.33750057220459,24.48750114440918,-16.856250762939453
1777560080418898200,6.592898193359375,-13.331250190734863,24.787500381469727,-18.11250114440918
1777560080428898000,6.60289794921875,-16.89375114440918,23.212501525878906,-17.0625
1777560080438898200,6.612898193359375,-13.687500953674316,23.043750762939453,-19.856250762939453
1777560080448898000,6.62289794921875,-16.106250762939453,23.212501525878906,-19.61250114440918
1777560080458898200,6.632898193359375,-15.375000953674316,23.137500762939453,-17.53125
1777560080468898000,6.64289794921875,-16.40625,22.42500114440918,-21.600000381469727
1777560080478898200,6.652898193359375,-16.856250762939453,23.118751525878906,-20.325000762939453
1777560080488898000,6.66289794921875,-15.80625057220459,22.106250762939453,-22.950000762939453
1777560080498898200,6.672898193359375,-15.80625057220459,22.106250762939453,-22.950000762939453
1777560080508898000,6.68289794921875,-15.768750190734863,23.006250381469727,-22.78125
1777560080518898200,6.692898193359375,-17.962501525878906,21.900001525878906,-20.943750381469727
1777560080528898000,6.70289794921875,-16.575000762939453,21.65625,-23.4375
1777560080538898200,6.712898193359375,-16.537500381469727,22.14375114440918,-24.318750381469727
1777560080548898000,6.72289794921875,-15.075000762939453,25.031251907348633,-23.400001525878906
1777560080558898200,6.732898193359375,-15.15000057220459,23.34375,-22.162500381469727
1777560080568898000,6.74289794921875,-17.100000381469727,24.075000762939453,-23.100000381469727
1777560080578898200,6.752898193359375,-14.737500190734863,25.98750114440918,-22.80000114440918
1777560080588898000,6.76289794921875,-12.656250953674316,25.387500762939453,-21.693750381469727
1777560080598898200,6.772898193359375,-13.893750190734863,24.168750762939453,-23.306251525878906
1777560080608898000,6.78289794921875,-14.02500057220459,25.087501525878906,-22.98750114440918
1777560080618898200,6.792898193359375,-12.637500762939453,26.137500762939453,-20.850000381469727
1777560080628898000,6.80289794921875,-13.143750190734863,28.537500381469727,-22.350000381469727
1777560080638898200,6.812898193359375,-12.318750381469727,26.718751907348633,-21.168750762939453
1777560080648898000,6.82289794921875,-14.062500953674316,28.650001525878906,-20.756250381469727
1777560080658898200,6.832898193359375,-13.537500381469727,25.61250114440918,-23.606250762939453
1777560080668898000,6.84289794921875,-14.231250762939453,28.068750381469727,-21.28125
1777560080678898200,6.852898193359375,-13.237500190734863,26.681251525878906,-20.587501525878906
1777560080688898000,6.86289794921875,-14.268750190734863,26.512500762939453,-23.418750762939453
1777560080698898200,6.872898193359375,-13.350000381469727,26.83125114440918,-22.106250762939453
1777560080708898000,6.88289794921875,-13.18125057220459,26.887500762939453,-23.36250114440918
1777560080718898200,6.892898193359375,-13.050000190734863,25.23750114440918,-27.075000762939453
1777560080728898000,6.90289794921875,-13.18125057220459,25.275001525878906,-27.637500762939453
1777560080738898200,6.912898193359375,-14.100000381469727,25.387500762939453,-27.731250762939453
1777560080748898000,6.92289794921875,-13.08750057220459,25.33125114440918,-23.8125
1777560080758898200,6.932898193359375,-13.818750381469727,25.068750381469727,-25.668750762939453
1777560080768898000,6.94289794921875,-13.425000190734863,27.693750381469727,-26.45625114440918
1777560080778898200,6.952898193359375,-14.081250190734863,27.262500762939453,-23.418750762939453
1777560080788898000,6.96289794921875,-13.818750381469727,25.98750114440918,-23.662500381469727
1777560080798898200,6.972898193359375,-13.818750381469727,26.025001525878906,-23.381250381469727
1777560080808898000,6.98289794921875,-13.443750381469727,27.225000381469727,-25.42500114440918
1777560080818898200,6.992898193359375,-12.581250190734863,27.150001525878906,-22.481250762939453
1777560080828898000,7.00289794921875,-14.850000381469727,27.48750114440918,-21.9375
1777560080838898200,7.012898193359375,-13.875000953674316,28.875001907348633,-22.6875
1777560080848898000,7.02289794921875,-14.081250190734863,27.20625114440918,-23.850000381469727
1777560080858898200,7.032898193359375,-13.27500057220459,29.08125114440918,-22.106250762939453
1777560080868898000,7.04289794921875,-14.175000190734863,30.037500381469727,-20.625
1777560080878898200,7.052898193359375,-10.21875,30.056251525878906,-21.30000114440918
1777560080888898000,7.06289794921875,-9.318750381469727,28.89375114440918,-22.387500762939453
1777560080898898200,7.072898193359375,-11.86875057220459,30.67500114440918,-20.568750381469727
1777560080908898000,7.08289794921875,-11.40000057220459,32.118751525878906,-18.318750381469727
1777560080918898200,7.092898193359375,-10.050000190734863,31.350000381469727,-18.375
1777560080928898000,7.10289794921875,-10.668750762939453,30.76875114440918,-19.03125
1777560080938898200,7.112898193359375,-10.668750762939453,30.76875114440918,-19.03125
1777560080948898000,7.12289794921875,-9.318750381469727,31.350000381469727,-15.843750953674316
1777560080958898200,7.132898193359375,-11.02500057220459,30.506250381469727,-16.51875114440918
1777560080968898000,7.14289794921875,-7.125000476837158,32.868751525878906,-17.306251525878906
1777560080978898200,7.152898193359375,-7.443750381469727,32.23125076293945,-18.262500762939453
1777560080988898000,7.16289794921875,-8.662500381469727,32.34375,-16.668750762939453
1777560080998898200,7.172898193359375,-6.881250381469727,31.481250762939453,-15.750000953674316
1777560081008898000,7.18289794921875,-9.112500190734863,33.525001525878906,-14.58750057220459
1777560081018898200,7.192898193359375,-7.181250095367432,31.80000114440918,-16.106250762939453
1777560081028898000,7.20289794921875,-6.787500381469727,33.9375,-15.975000381469727
1777560081038898200,7.212898193359375,-4.050000190734863,34.48125076293945,-14.831250190734863
1777560081048898000,7.22289794921875,-5.325000286102295,33.41250228881836,-13.575000762939453
1777560081058898200,7.232898193359375,-3.937500238418579,33.67500305175781,-15.262500762939453
1777560081068898000,7.24289794921875,-4.650000095367432,35.0625,-14.268750190734863
1777560081078898200,7.252898193359375,-1.6125000715255737,34.931251525878906,-15.093750953674316
1777560081088898000,7.26289794921875,-1.350000023841858,34.61250305175781,-13.031250953674316
1777560081098898200,7.272898193359375,-2.8500001430511475,34.40625,-14.437500953674316
1777560081108898000,7.28289794921875,-2.0812501907348633,34.25625228881836,-15.487500190734863
1777560081118898200,7.292898193359375,-2.1000001430511475,34.931251525878906,-12.52500057220459
1777560081128898000,7.30289794921875,0.35625001788139343,34.85625076293945,-13.875000953674316
1777560081138898200,7.312898193359375,-1.8000000715255737,34.181251525878906,-14.231250762939453
1777560081148898000,7.32289794921875,-0.5250000357627869,35.775001525878906,-13.537500381469727
1777560081158898200,7.332898193359375,0.03750000149011612,34.66875076293945,-13.481250762939453
1777560081168898000,7.34289794921875,0.26250001788139343,36.20625305175781,-14.887500762939453
1777560081178898200,7.352898193359375,1.162500023841858,35.98125076293945,-14.68125057220459
1777560081188898000,7.36289794921875,0.9750000238418579,35.493751525878906,-12.937500953674316
1777560081198898200,7.372898193359375,0.9937500357627869,36.13125228881836,-12.80625057220459
1777560081208898000,7.38289794921875,2.1750001907348633,35.55000305175781,-12.52500057220459
1777560081218898200,7.392898193359375,1.443750023841858,36.09375,-13.106250762939453
1777560081228898000,7.40289794921875,1.8937500715255737,34.95000076293945,-15.731250762939453
1777560081238898200,7.412898193359375,1.7625000476837158,35.8125,-15.000000953674316
1777560081248898000,7.42289794921875,2.4937500953674316,34.42500305175781,-15.99375057220459
1777560081258898200,7.432898193359375,3.843750238418579,33.88125228881836,-16.275001525878906
1777560081268898000,7.44289794921875,4.350000381469727,34.44375228881836,-18.450000762939453
1777560081278898200,7.452898193359375,4.087500095367432,35.66250228881836,-18.618751525878906
1777560081288898000,7.46289794921875,4.78125,33.1875,-20.100000381469727
1777560081298898200,7.472898193359375,5.137500286102295,34.40625,-20.306251525878906
1777560081308898000,7.48289794921875,5.100000381469727,33.84375,-19.98750114440918
1777560081318898200,7.492898193359375,4.03125,34.95000076293945,-16.650001525878906
1777560081328898000,7.50289794921875,8.043750762939453,35.13750076293945,-20.381250381469727
1777560081338898200,7.512898193359375,4.256250381469727,36.54375076293945,-17.606250762939453
1777560081348898000,7.52289794921875,4.21875,36.28125,-15.112500190734863
1777560081358898200,7.532898193359375,4.012500286102295,38.681251525878906,-15.787500381469727
1777560081368898000,7.54289794921875,4.012500286102295,38.681251525878906,-15.787500381469727
1777560081378898200,7.552898193359375,4.387500286102295,36.9375,-14.156250953674316
1777560081388898000,7.56289794921875,3.168750047683716,36.54375076293945,-15.037500381469727
1777560081398898200,7.572898193359375,2.9625000953674316,34.91250228881836,-15.206250190734863
1777560081408898000,7.58289794921875,4.03125,34.80000305175781,-15.975000381469727
1777560081418898200,7.592898193359375,2.5500001907348633,36.150001525878906,-15.24375057220459
1777560081428898000,7.60289794921875,1.5187500715255737,36.58125305175781,-16.537500381469727
1777560081438898200,7.612898193359375,0.6937500238418579,34.66875076293945,-16.89375114440918
1777560081448898000,7.62289794921875,-1.0875000953674316,36.58125305175781,-14.925000190734863
1777560081458898200,7.632898193359375,-0.581250011920929,34.10625076293945,-13.856250762939453
1777560081468898000,7.64289794921875,-2.418750047683716,34.125,-13.800000190734863
1777560081478898200,7.652898193359375,-2.4375,33.07500076293945,-15.000000953674316
1777560081488898000,7.66289794921875,-4.800000190734863,35.34375,-13.237500190734863
1777560081498898200,7.672898193359375,-4.875,33.41250228881836,-13.593750953674316
1777560081508898000,7.68289794921875,-6.843750476837158,34.63125228881836,-11.193750381469727
1777560081518898200,7.692898193359375,-6.693750381469727,34.10625076293945,-12.281250953674316
1777560081528898000,7.70289794921875,-7.462500095367432,33.58125305175781,-13.350000381469727
1777560081538898200,7.712898193359375,-8.40000057220459,33.900001525878906,-10.3125
1777560081548898000,7.72289794921875,-7.575000286102295,33.900001525878906,-14.550000190734863
1777560081558898200,7.732898193359375,-10.3125,33.712501525878906,-15.093750953674316
1777560081568898000,7.74289794921875,-10.800000190734863,32.56875228881836,-15.99375057220459
1777560081578898200,7.752898193359375,-10.293750762939453,33.39375305175781,-17.26875114440918
1777560081588898000,7.76289794921875,-12.43125057220459,33.618751525878906,-16.59375
1777560081598898200,7.772898193359375,-13.050000190734863,32.23125076293945,-18.39375114440918
1777560081608898000,7.78289794921875,-13.83750057220459,32.493751525878906,-16.631250381469727
1777560081618898200,7.792898193359375,-14.756250381469727,32.34375,-16.78125
1777560081628898000,7.80289794921875,-14.643750190734863,30.806251525878906,-17.92500114440918
1777560081638898200,7.812898193359375,-16.200000762939453,29.64375114440918,-17.400001525878906
1777560081648898000,7.82289794921875,-16.293750762939453,31.931251525878906,-15.412500381469727
1777560081658898200,7.832898193359375,-15.731250762939453,31.23750114440918,-15.000000953674316
1777560081668898000,7.84289794921875,-15.393750190734863,31.181251525878906,-17.137500762939453
1777560081678898200,7.852898193359375,-17.34375,31.068750381469727,-18.787500381469727
1777560081688898000,7.86289794921875,-18.900001525878906,29.681251525878906,-19.725000381469727
1777560081698898200,7.872898193359375,-17.700000762939453,30.58125114440918,-16.89375114440918
1777560081708898000,7.88289794921875,-19.481250762939453,31.031251907348633,-18.1875
1777560081718898200,7.892898193359375,-18.900001525878906,29.681251525878906,-19.725000381469727
1777560081728898000,7.90289794921875,-19.931251525878906,30.562501907348633,-19.668750762939453
1777560081738898200,7.912898193359375,-20.868751525878906,29.587501525878906,-20.400001525878906
1777560081748898000,7.92289794921875,-19.631250381469727,29.756250381469727,-21.806251525878906
1777560081758898200,7.932898193359375,-19.3125,29.868751525878906,-22.78125
1777560081768898000,7.94289794921875,-16.556251525878906,31.387500762939453,-20.868751525878906
1777560081778898200,7.952898193359375,-17.306251525878906,32.45625305175781,-17.83125114440918
1777560081788898000,7.96289794921875,-18.543750762939453,31.556251525878906,-19.650001525878906
1777560081798898200,7.972898193359375,-17.90625,31.687501907348633,-20.493751525878906
1777560081808898000,7.98289794921875,-17.90625,31.687501907348633,-20.493751525878906
1777560081818898200,7.992898193359375,-17.26875114440918,32.775001525878906,-19.875
1777560081828898000,8.00289794921875,-16.23750114440918,32.83125305175781,-17.775001525878906
1777560081838898200,8.012898193359375,-16.068750381469727,33.31875228881836,-17.83125114440918
1777560081848898000,8.02289794921875,-16.33125114440918,34.181251525878906,-17.943750381469727
1777560081858898200,8.032898193359374,-13.631250381469727,33.76875305175781,-17.25
1777560081868898000,8.04289794921875,-13.312500953674316,33.9375,-17.793750762939453
1777560081878898200,8.052898193359376,-17.681251525878906,35.08125305175781,-16.89375114440918
1777560081888898000,8.06289794921875,-16.481250762939453,34.01250076293945,-18.262500762939453
1777560081898898200,8.072898193359375,-17.08125114440918,32.94375228881836,-22.106250762939453
1777560081908898000,8.08289794921875,-14.081250190734863,32.56875228881836,-20.4375
1777560081918898200,8.092898193359375,-16.200000762939453,33.73125076293945,-17.606250762939453
1777560081928898000,8.10289794921875,-18.375,31.89375114440918,-19.03125
1777560081938898200,8.112898193359374,-19.068750381469727,32.8125,-21.375
1777560081948898000,8.12289794921875,-20.118751525878906,32.90625,-22.462501525878906
1777560081958898200,8.132898193359376,-18.693750381469727,30.431251525878906,-22.275001525878906
1777560081968898000,8.14289794921875,-18.637500762939453,32.10000228881836,-21.95625114440918
1777560081978898200,8.152898193359375,-18.65625,31.350000381469727,-22.80000114440918
1777560081988898000,8.16289794921875,-18.58125114440918,34.51875305175781,-19.931251525878906
1777560081998898200,8.172898193359375,-18.506250381469727,32.587501525878906,-19.462501525878906
1777560082008898000,8.18289794921875,-18.48750114440918,32.85000228881836,-19.40625
1777560082018898200,8.192898193359374,-19.03125,35.04375076293945,-18.84375
1777560082028898000,8.20289794921875,-17.700000762939453,33.86250305175781,-19.23750114440918
1777560082038898200,8.212898193359376,-18.262500762939453,35.36250305175781,-18.375
1777560082048898000,8.22289794921875,-18.806251525878906,33.54375076293945,-17.15625
1777560082058898200,8.232898193359375,-18,33.375,-20.025001525878906
1777560082068898000,8.24289794921875,-17.981250762939453,34.44375228881836,-19.537500381469727
1777560082078898200,8.252898193359375,-19.78125,34.462501525878906,-20.34375
1777560082088898000,8.26289794921875,-18.58125114440918,34.61250305175781,-19.21875
1777560082098898200,8.272898193359374,-17.681251525878906,34.70625305175781,-17.662500381469727
1777560082108898000,8.28289794921875,-16.21875,35.4375,-12.61875057220459
1777560082118898200,8.292898193359376,-16.14375114440918,36.76875305175781,-13.781250953674316
1777560082128898000,8.30289794921875,-15.600000381469727,35.70000076293945,-11.737500190734863
1777560082138898200,8.312898193359375,-13.818750381469727,37.875,-14.756250381469727
1777560082148898000,8.32289794921875,-13.068750381469727,37.61250305175781,-14.831250190734863
1777560082158898200,8.332898193359375,-13.218750953674316,37.03125,-15.356250762939453
1777560082168898000,8.34289794921875,-12.750000953674316,38.38125228881836,-13.856250762939453
1777560082178898200,8.352898193359374,-11.981250762939453,38.306251525878906,-14.30625057220459
1777560082188898000,8.36289794921875,-10.762500762939453,39.431251525878906,-10.875
1777560082198898200,8.372898193359376,-11.362500190734863,40.368751525878906,-9.5625
1777560082208898000,8.38289794921875,-10.96875,39.31875228881836,-8.21250057220459
1777560082218898200,8.392898193359375,-9.075000762939453,41.17500305175781,-8.325000762939453
1777560082228898000,8.40289794921875,-9.075000762939453,41.17500305175781,-8.325000762939453
1777560082238898200,8.412898193359375,-7.612500190734863,39.78750228881836,-7.500000476837158
1777560082248898000,8.42289794921875,-6.187500476837158,42,-6
1777560082258898200,8.432898193359375,-4.987500190734863,40.66875076293945,-7.406250476837158
1777560082268898000,8.44289794921875,-2.8312501907348633,40.3125,-10.631250381469727
1777560082278898200,8.452898193359376,-3.4875001907348633,39.525001525878906,-9.225000381469727
1777560082288898000,8.46289794921875,-2.6812500953674316,41.681251525878906,-7.275000095367432
1777560082298898200,8.472898193359375,-5.081250190734863,42.67500305175781,-7.312500476837158
1777560082308898000,8.48289794921875,-3.7125000953674316,42.16875076293945,-8.287500381469727
1777560082318898200,8.492898193359375,-1.350000023841858,39.76875305175781,-10.068750381469727
1777560082328898000,8.50289794921875,-2.1750001907348633,42.13125228881836,-10.162500381469727
1777560082338898200,8.512898193359375,-2.3062500953674316,42.69375228881836,-9.768750190734863
1777560082348898000,8.52289794921875,-1.125,41.92500305175781,-9.80625057220459
1777560082358898200,8.532898193359374,-0.4687500298023224,43.462501525878906,-8.68125057220459
1777560082368898000,8.54289794921875,-1.2375000715255737,43.57500076293945,-7.931250095367432
1777560082378898200,8.552898193359376,0.8812500238418579,42.91875076293945,-8.96250057220459
1777560082388898000,8.56289794921875,1.8562500476837158,44.19375228881836,-9.600000381469727
1777560082398898200,8.572898193359375,-0.4687500298023224,42.9375,-9.768750190734863
1777560082408898000,8.58289794921875,1.9312500953674316,42.712501525878906,-8.756250381469727
1777560082418898200,8.592898193359375,1.8562500476837158,43.743751525878906,-11.100000381469727
1777560082428898000,8.60289794921875,1.725000023841858,44.0625,-12.300000190734863
1777560082438898200,8.612898193359374,2.1937501430511475,45.26250076293945,-9.112500190734863
1777560082448898000,8.62289794921875,2.4562501907348633,43.125,-11.793750762939453
1777560082458898200,8.632898193359376,4.556250095367432,43.125,-10.162500381469727
1777560082468898000,8.64289794921875,0.28125,42.97500228881836,-9.506250381469727
1777560082478898200,8.652898193359375,1.9500000476837158,42.75,-10.162500381469727
1777560082488898000,8.66289794921875,1.818750023841858,43.81875228881836,-7.968750476837158
1777560082498898200,8.672898193359375,2.7375001907348633,42.91875076293945,-11.550000190734863
1777560082508898000,8.68289794921875,3.4125001430511475,45.150001525878906,-9.881250381469727
1777560082518898200,8.692898193359374,4.462500095367432,43.275001525878906,-14.21250057220459
1777560082528898000,8.70289794921875,3.262500047683716,43.275001525878906,-15.037500381469727
1777560082538898200,8.712898193359376,4.21875,45.20625305175781,-13.83750057220459
1777560082548898000,8.72289794921875,4.987500190734863,44.493751525878906,-16.125
1777560082558898200,8.732898193359375,5.756250381469727,45.50625228881836,-13.406250953674316
1777560082568898000,8.74289794921875,2.625,43.51875305175781,-12.562500953674316
1777560082578898200,8.752898193359375,3.262500047683716,44.79375076293945,-11.49375057220459
1777560082588898000,8.76289794921875,-0.07500000298023224,45.28125,-10.74375057220459
1777560082598898200,8.772898193359374,-0.8437500596046448,45.28125,-9.037500381469727
1777560082608898000,8.78289794921875,0.3375000059604645,43.931251525878906,-11.4375
1777560082618898200,8.792898193359376,-2.4750001430511475,45.76875305175781,-10.875
1777560082628898000,8.80289794921875,-4.350000381469727,44.25,-11.11875057220459
1777560082638898200,8.812898193359375,-7.068750381469727,44.79375076293945,-11.643750190734863
1777560082648898000,8.82289794921875,-5.625,42.1875,-12.468750953674316
1777560082658898200,8.832898193359375,-5.625,42.1875,-12.468750953674316
1777560082668898000,8.84289794921875,-7.368750095367432,43.89375305175781,-13.500000953674316
1777560082678898200,8.852898193359374,-11.100000381469727,42.525001525878906,-10.987500190734863
1777560082688898000,8.86289794921875,-11.100000381469727,42.525001525878906,-10.987500190734863
1777560082698898200,8.872898193359376,-13.125000953674316,41.400001525878906,-11.006250381469727
1777560082708898000,8.88289794921875,-13.968750953674316,43.125,-11.21250057220459
1777560082718898200,8.892898193359375,-16.05000114440918,40.25625228881836,-11.287500381469727
1777560082728898000,8.90289794921875,-16.668750762939453,39.67500305175781,-12.656250953674316
1777560082738898200,8.912898193359375,-16.3125,40.20000076293945,-14.250000953674316
1777560082748898000,8.92289794921875,-18.693750381469727,38.0625,-13.46250057220459
1777560082758898200,8.932898193359375,-19.762500762939453,38.56875228881836,-11.793750762939453
1777560082768898000,8.94289794921875,-21.450000762939453,37.14375305175781,-13.856250762939453
1777560082778898200,8.952898193359376,-21.600000381469727,35.41875076293945,-17.981250762939453
1777560082788898000,8.96289794921875,-22.387500762939453,35.26875305175781,-17.287500381469727
1777560082798898200,8.972898193359375,-23.325000762939453,35.00625228881836,-15.768750190734863
1777560082808898000,8.98289794921875,-22.40625,35.70000076293945,-14.381250381469727
1777560082818898200,8.992898193359375,-25.293750762939453,34.80000305175781,-17.15625
1777560082828898000,9.00289794921875,-23.943750381469727,34.42500305175781,-16.275001525878906
1777560082838898200,9.012898193359375,-24.937501907348633,31.856250762939453,-17.73750114440918
1777560082848898000,9.02289794921875,-25.837501525878906,32.26875305175781,-16.650001525878906
1777560082858898200,9.032898193359374,-27.187501907348633,32.88750076293945,-17.475000381469727
1777560082868898000,9.04289794921875,-24.76875114440918,31.556251525878906,-18.918750762939453
1777560082878898200,9.052898193359376,-27.806251525878906,32.32500076293945,-18
1777560082888898000,9.06289794921875,-26.306251525878906,31.23750114440918,-19.368751525878906
1777560082898898200,9.072898193359375,-26.418750762939453,30.375001907348633,-23.625
1777560082908898000,9.08289794921875,-28.856250762939453,31.200000762939453,-21.431251525878906
1777560082918898200,9.092898193359375,-27.356250762939453,30.543750762939453,-21.600000381469727
1777560082928898000,9.10289794921875,-27.056251525878906,30.431251525878906,-22.33125114440918
1777560082938898200,9.112898193359374,-27.225000381469727,28.14375114440918,-26.156251907348633
1777560082948898000,9.12289794921875,-27.225000381469727,28.687501907348633,-24.918750762939453
1777560082958898200,9.132898193359376,-27.000001907348633,31.256250381469727,-23.587501525878906
1777560082968898000,9.14289794921875,-26.568750381469727,30.712501525878906,-22.98750114440918
1777560082978898200,9.152898193359375,-25.650001525878906,31.181251525878906,-22.368751525878906
1777560082988898000,9.16289794921875,-23.17500114440918,31.80000114440918,-24
1777560082998898200,9.172898193359375,-25.781251907348633,31.181251525878906,-24.056251525878906
1777560083008898000,9.18289794921875,-22.70625114440918,31.950000762939453,-24.693750381469727
1777560083018898200,9.192898193359374,-23.83125114440918,31.162500381469727,-22.40625
1777560083028898000,9.20289794921875,-19.912500381469727,33.91875076293945,-23.118751525878906
1777560083038898200,9.212898193359376,-23.26875114440918,34.16250228881836,-21.58125114440918
1777560083048898000,9.22289794921875,-23.137500762939453,35.0625,-18.731250762939453
1777560083058898200,9.232898193359375,-21.76875114440918,33.76875305175781,-21.693750381469727
1777560083068898000,9.24289794921875,-22.725000381469727,32.26875305175781,-22.51875114440918
1777560083078898200,9.252898193359375,-24.843751907348633,32.45625305175781,-22.14375114440918
1777560083088898000,9.26289794921875,-23.306251525878906,33.73125076293945,-20.25
1777560083098898200,9.272898193359374,-23.306251525878906,33.73125076293945,-20.25
1777560083108898000,9.28289794921875,-23.53125,31.106250762939453,-22.012500762939453
1777560083118898200,9.292898193359376,-24.543750762939453,31.500001907348633,-24.450000762939453
1777560083128898000,9.30289794921875,-23.512500762939453,30.431251525878906,-24.95625114440918
1777560083138898200,9.312898193359375,-22.668750762939453,29.625001907348633,-22.743751525878906
1777560083148898000,9.32289794921875,-23.868751525878906,28.931251525878906,-24.95625114440918
1777560083158898200,9.332898193359375,-23.606250762939453,28.218751907348633,-24.67500114440918
1777560083168898000,9.34289794921875,-23.26875114440918,28.61250114440918,-26.306251525878906
1777560083178898200,9.352898193359374,-23.568750381469727,29.681251525878906,-23.26875114440918
1777560083188898000,9.36289794921875,-22.61250114440918,30.637500762939453,-24.375001907348633
1777560083198898200,9.372898193359376,-22.818750381469727,29.718751907348633,-23.006250381469727
1777560083208898000,9.38289794921875,-22.068750381469727,29.062501907348633,-23.137500762939453
1777560083218898200,9.392898193359375,-21.58125114440918,30.30000114440918,-22.350000381469727
1777560083228898000,9.40289794921875,-20.868751525878906,29.92500114440918,-20.606250762939453
1777560083238898200,9.412898193359375,-21.637500762939453,29.587501525878906,-20.381250381469727
1777560083248898000,9.42289794921875,-21.95625114440918,28.743751525878906,-21.9375
1777560083258898200,9.432898193359375,-21.262500762939453,30.95625114440918,-21.243751525878906
1777560083268898000,9.44289794921875,-21.731250762939453,30.95625114440918,-21.243751525878906
1777560083278898200,9.452898193359376,-20.0625,30.356250762939453,-21.95625114440918
1777560083288898000,9.46289794921875,-22.03125,31.968751907348633,-18.637500762939453
1777560083298898200,9.472898193359375,-18.356250762939453,33.60000228881836,-15.881250381469727
1777560083308898000,9.48289794921875,-16.837501525878906,33.69375228881836,-15.206250190734863
1777560083318898200,9.492898193359375,-15.600000381469727,33.63750076293945,-17.36250114440918
1777560083328898000,9.50289794921875,-14.718750953674316,34.05000305175781,-13.631250381469727
1777560083338898200,9.512898193359375,-15.61875057220459,33.95625305175781,-15.187500953674316
1777560083348898000,9.52289794921875,-14.137500762939453,33.5625,-13.612500190734863
1777560083358898200,9.532898193359374,-13.350000381469727,33.73125076293945,-15.000000953674316
1777560083368898000,9.54289794921875,-13.93125057220459,34.53750228881836,-14.550000190734863
1777560083378898200,9.552898193359376,-13.631250381469727,34.89375305175781,-13.781250953674316
1777560083388898000,9.56289794921875,-11.831250190734863,34.837501525878906,-11.58750057220459
1777560083398898200,9.572898193359375,-12.318750381469727,34.5,-11.362500190734863
1777560083408898000,9.58289794921875,-10.59375,35.98125076293945,-10.55625057220459
1777560083418898200,9.592898193359375,-9.52500057220459,37.275001525878906,-7.650000095367432
1777560083428898000,9.60289794921875,-7.818750381469727,34.06875228881836,-8.30625057220459
1777560083438898200,9.612898193359374,-7.762500286102295,35.400001525878906,-7.631250381469727
1777560083448898000,9.62289794921875,-4.856250286102295,35.26875305175781,-9.43125057220459
1777560083458898200,9.632898193359376,-7.012500286102295,35.90625,-5.868750095367432
1777560083468898000,9.64289794921875,-5.381250381469727,35.212501525878906,-5.475000381469727
1777560083478898200,9.652898193359375,-6.675000190734863,36.41250228881836,-6.768750190734863
1777560083488898000,9.66289794921875,-5.306250095367432,36.97500228881836,-6.262500286102295
1777560083498898200,9.672898193359375,-3.187500238418579,36.056251525878906,-7.350000381469727
1777560083508898000,9.68289794921875,-3.9937500953674316,34.6875,-8.287500381469727
1777560083518898200,9.692898193359374,-4.125,35.94375228881836,-6.506250381469727
1777560083528898000,9.70289794921875,-4.125,35.94375228881836,-6.506250381469727
1777560083538898200,9.712898193359376,-3.187500238418579,36.28125,-7.593750476837158
1777560083548898000,9.72289794921875,-1.350000023841858,37.125,-6.056250095367432
1777560083558898200,9.732898193359375,-2.2875001430511475,35.88750076293945,-6.843750476837158
1777560083568898000,9.74289794921875,-2.9437501430511475,34.462501525878906,-7.237500190734863
1777560083578898200,9.752898193359375,-2.3062500953674316,36.58125305175781,-4.59375
1777560083588898000,9.76289794921875,-0.6187500357627869,36.375,-5.231250286102295
1777560083598898200,9.772898193359374,-0.13125000894069672,36.78750228881836,-6.581250190734863
1777560083608898000,9.78289794921875,-0.01875000074505806,36.01875305175781,-5.887500286102295
1777560083618898200,9.792898193359376,-0.13125000894069672,36.75,-6.881250381469727
1777560083628898000,9.80289794921875,1.818750023841858,36.39375305175781,-5.868750095367432
1777560083638898200,9.812898193359375,-0.75,35.56875228881836,-9.05625057220459
1777560083648898000,9.82289794921875,0.30000001192092896,35.868751525878906,-6.918750286102295
1777560083658898200,9.832898193359375,0.9750000238418579,38.38125228881836,-5.887500286102295
1777560083668898000,9.84289794921875,2.25,35.00625228881836,-8.53125
1777560083678898200,9.852898193359374,0.75,35.70000076293945,-8.081250190734863
1777560083688898000,9.86289794921875,0.956250011920929,35.8125,-10.74375057220459
1777560083698898200,9.872898193359376,0.7312500476837158,34.80000305175781,-8.25
1777560083708898000,9.88289794921875,3.2250001430511475,36.76875305175781,-8.362500190734863
1777560083718898200,9.892898193359375,3.9750001430511475,36.16875076293945,-8.21250057220459
1777560083728898000,9.90289794921875,2.90625,36.88125228881836,-5.943750381469727
1777560083738898200,9.912898193359375,2.418750047683716,36.13125228881836,-6.768750190734863
1777560083748898000,9.92289794921875,2.2875001430511475,35.64375305175781,-8.418750762939453
1777560083758898200,9.932898193359375,3.1312501430511475,35.41875076293945,-4.818750381469727
1777560083768898000,9.94289794921875,4.087500095367432,36,-6
1777560083778898200,9.952898193359376,1.6125000715255737,34.10625076293945,-7.837500095367432
1777560083788898000,9.96289794921875,3.7875001430511475,36,-6
1777560083798898200,9.972898193359375,3.093750238418579,33.993751525878906,-6.075000286102295
1777560083808898000,9.98289794921875,4.181250095367432,33.67500305175781,-8.287500381469727
1777560083818898200,9.992898193359375,3.262500047683716,34.462501525878906,-6.262500286102295
1777560083828898000,10.00289794921875,3.1500000953674316,34.25625228881836,-8.568750381469727
1777560083838898200,10.012898193359375,2.137500047683716,31.687501907348633,-8.175000190734863
1777560083848898000,10.02289794921875,1.3125,34.48125076293945,-7.068750381469727
1777560083858898200,10.032898193359374,1.4250000715255737,33.73125076293945,-7.068750381469727
1777560083868898000,10.04289794921875,-2.2875001430511475,32.587501525878906,-5.493750095367432
1777560083878898200,10.052898193359376,-1.1062500476837158,31.668750762939453,-4.987500190734863
1777560083888898000,10.06289794921875,-3.7875001430511475,32.90625,-5.118750095367432
1777560083898898200,10.072898193359375,-5.025000095367432,32.98125076293945,-3.7875001430511475
1777560083908898000,10.08289794921875,-5.043750286102295,31.275001525878906,-6.937500476837158
1777560083918898200,10.092898193359375,-4.875,31.80000114440918,-6.712500095367432
1777560083928898000,10.10289794921875,-4.912500381469727,30.468751907348633,-7.237500190734863
1777560083938898200,10.112898193359374,-8.268750190734863,31.106250762939453,-4.631250381469727
1777560083948898000,10.12289794921875,-7.968750476837158,30.95625114440918,-5.662500381469727
1777560083958898200,10.132898193359376,-7.968750476837158,30.95625114440918,-5.662500381469727
1777560083968898000,10.14289794921875,-8.568750381469727,30.900001525878906,-5.231250286102295
1777560083978898200,10.152898193359375,-8.90625,30.637500762939453,-4.425000190734863
1777560083988898000,10.16289794921875,-11.043750762939453,30.30000114440918,-4.293750286102295
1777560083998898200,10.172898193359375,-10.21875,31.087501525878906,-7.406250476837158
1777560084008898000,10.18289794921875,-9.862500190734863,29.306251525878906,-4.21875
1777560084018898200,10.192898193359374,-11.643750190734863,29.418750762939453,-6.843750476837158
1777560084028898000,10.20289794921875,-14.137500762939453,28.218751907348633,-5.737500190734863
1777560084038898200,10.212898193359376,-12.093750953674316,29.493751525878906,-7.237500190734863
1777560084048898000,10.22289794921875,-15.956250190734863,28.481250762939453,-5.625
1777560084058898200,10.232898193359375,-14.456250190734863,26.943750381469727,-7.650000095367432
1777560084068898000,10.24289794921875,-14.643750190734863,26.493751525878906,-7.312500476837158
1777560084078898200,10.252898193359375,-18.243751525878906,27.656251907348633,-7.143750190734863
1777560084088898000,10.26289794921875,-18.11250114440918,27.225000381469727,-6.656250476837158
1777560084098898200,10.272898193359374,-17.962501525878906,26.700000762939453,-7.612500190734863
1777560084108898000,10.28289794921875,-21.243751525878906,25.162500381469727,-6.262500286102295
1777560084118898200,10.292898193359376,-19.23750114440918,25.087501525878906,-8.456250190734863
1777560084128898000,10.30289794921875,-20.34375,24.150001525878906,-8.043750762939453
1777560084138898200,10.312898193359375,-19.725000381469727,24.67500114440918,-7.106250286102295
1777560084148898000,10.32289794921875,-21.543750762939453,24.11250114440918,-9.28125
1777560084158898200,10.332898193359375,-20.36250114440918,23.45625114440918,-8.58750057220459
1777560084168898000,10.34289794921875,-20.92500114440918,23.681251525878906,-11.362500190734863
1777560084178898200,10.352898193359374,-22.33125114440918,22.556251525878906,-11.40000057220459
1777560084188898000,10.36289794921875,-21.375,23.850000381469727,-10.18125057220459
1777560084198898200,10.372898193359376,-22.762500762939453,23.55000114440918,-10.481250762939453
1777560084208898000,10.38289794921875,-22.125,24.037500381469727,-10.55625057220459
1777560084218898200,10.392898193359375,-20.043750762939453,23.45625114440918,-9.450000762939453
1777560084228898000,10.40289794921875,-20.73750114440918,24.937501907348633,-9.5625
1777560084238898200,10.412898193359375,-19.856250762939453,24.618751525878906,-9.09375
1777560084248898000,10.42289794921875,-18.28125,24.937501907348633,-11.193750381469727
1777560084258898200,10.432898193359375,-18.30000114440918,25.256250381469727,-9
1777560084268898000,10.44289794921875,-19.70625114440918,25.23750114440918,-7.425000190734863
1777560084278898200,10.452898193359376,-18.450000762939453,25.837501525878906,-7.631250381469727
1777560084288898000,10.46289794921875,-18.506250381469727,23.53125,-10.59375
1777560084298898200,10.472898193359375,-20.90625,24.037500381469727,-10.575000762939453
1777560084308898000,10.48289794921875,-19.556251525878906,23.775001525878906,-10.668750762939453
1777560084318898200,10.492898193359375,-19.668750762939453,24.450000762939453,-11.100000381469727
1777560084328898000,10.50289794921875,-20.306251525878906,23.493751525878906,-12.543750762939453
1777560084338898200,10.512898193359375,-20.475000381469727,22.650001525878906,-12.412500381469727
1777560084348898000,10.52289794921875,-21,21.30000114440918,-12.225000381469727
1777560084358898200,10.532898193359374,-21.356250762939453,21.84375,-17.0625
1777560084368898000,10.54289794921875,-20.4375,22.443750381469727,-16.40625
1777560084378898200,10.552898193359376,-20.4375,22.5,-15.975000381469727
1777560084388898000,10.56289794921875,-20.4375,22.5,-15.975000381469727
1777560084398898200,10.572898193359375,-20.26875114440918,23.043750762939453,-15.731250762939453
1777560084408898000,10.58289794921875,-19.725000381469727,21.58125114440918,-15.468750953674316
1777560084418898200,10.592898193359375,-21.67500114440918,21.76875114440918,-15.937500953674316
1777560084428898000,10.60289794921875,-22.743751525878906,22.350000381469727,-14.531250953674316
1777560084438898200,10.612898193359374,-20.53125,20.45625114440918,-14.662500381469727
1777560084448898000,10.62289794921875,-19.200000762939453,23.08125114440918,-16.3125
1777560084458898200,10.632898193359376,-19.275001525878906,22.275001525878906,-13.218750953674316
1777560084468898000,10.64289794921875,-21.20625114440918,23.08125114440918,-13.725000381469727
1777560084478898200,10.652898193359375,-20.943750381469727,23.100000381469727,-11.043750762939453
1777560084488898000,10.66289794921875,-19.80000114440918,24.843751907348633,-11.86875057220459
1777560084498898200,10.672898193359375,-18.168750762939453,24.01875114440918,-11.512500762939453
1777560084508898000,10.68289794921875,-18.01875114440918,24.58125114440918,-9.43125057220459
1777560084518898200,10.692898193359374,-18.131250381469727,25.443750381469727,-10.237500190734863
1777560084528898000,10.70289794921875,-17.943750381469727,27.39375114440918,-7.200000286102295
1777560084538898200,10.712898193359376,-14.287500381469727,28.443750381469727,-5.118750095367432
1777560084548898000,10.72289794921875,-13.725000381469727,27.356250762939453,-4.78125
1777560084558898200,10.732898193359375,-12.956250190734863,28.743751525878906,-2.137500047683716
1777560084568898000,10.74289794921875,-12.768750190734863,29.343751907348633,-3.1500000953674316
1777560084578898200,10.752898193359375,-10.518750190734863,28.837501525878906,-2.325000047683716
1777560084588898000,10.76289794921875,-9.731250762939453,28.462501525878906,-4.818750381469727
1777560084598898200,10.772898193359374,-9.862500190734863,29.100000381469727,-5.681250095367432
1777560084608898000,10.78289794921875,-9.600000381469727,28.837501525878906,-3.187500238418579
1777560084618898200,10.792898193359376,-9.787500381469727,27.450000762939453,-3.3187501430511475
1777560084628898000,10.80289794921875,-8.381250381469727,28.61250114440918,-2.981250047683716
1777560084638898200,10.812898193359375,-6.600000381469727,28.125001907348633,-1.9875000715255737
1777560084648898000,10.82289794921875,-6.281250476837158,29.025001525878906,-0.13125000894069672
1777560084658898200,10.832898193359375,-6.806250095367432,28.593751907348633,2.887500047683716
1777560084668898000,10.84289794921875,-4.743750095367432,30.67500114440918,2.6812500953674316
1777560084678898200,10.852898193359374,-3.7875001430511475,27.01875114440918,0.675000011920929
1777560084688898000,10.86289794921875,-2.625,30.131250381469727,2.3812501430511475
1777560084698898200,10.872898193359376,-0.8437500596046448,29.681251525878906,3.656250238418579
1777560084708898000,10.88289794921875,-4.387500286102295,28.275001525878906,3.3375000953674316
1777560084718898200,10.892898193359375,-1.9500000476837158,27.637500762939453,0.75
1777560084728898000,10.90289794921875,-1.5937501192092896,29.850000381469727,3
1777560084738898200,10.912898193359375,-0.8062500357627869,30.150001525878906,2.606250047683716
1777560084748898000,10.92289794921875,-0.24375000596046448,28.875001907348633,1.5
1777560084758898200,10.932898193359375,-1.2000000476837158,27.918750762939453,2.625
1777560084768898000,10.94289794921875,-0.07500000298023224,29.943750381469727,3.6750001907348633
1777560084778898200,10.952898193359376,1.2750000953674316,29.568750381469727,3.7125000953674316
1777560084788898000,10.96289794921875,0.22500000894069672,29.568750381469727,3.750000238418579
1777560084798898200,10.972898193359375,2.0625,30.262500762939453,4.256250381469727
1777560084808898000,10.98289794921875,0.9750000238418579,30.093751907348633,5.662500381469727
1777560084818898200,10.992898193359375,0.9750000238418579,30.093751907348633,5.662500381469727
1777560084828898000,11.00289794921875,1.256250023841858,29.250001907348633,4.087500095367432
1777560084838898200,11.012898193359375,1.256250023841858,29.250001907348633,4.087500095367432
1777560084848898000,11.02289794921875,3.0375001430511475,30.825000762939453,1.21875
1777560084858898200,11.032898193359374,2.137500047683716,31.912500381469727,2.7375001907348633
1777560084868898000,11.04289794921875,4.40625,30.243751525878906,-0.1875
1777560084878898200,11.052898193359376,3.9562501907348633,31.05000114440918,1.1062500476837158
1777560084888898000,11.06289794921875,4.387500286102295,30.30000114440918,0.24375000596046448
1777560084898898200,11.072898193359375,4.6875,30.618751525878906,2.418750047683716
1777560084908898000,11.08289794921875,3.937500238418579,30.468751907348633,1.4250000715255737
1777560084918898200,11.092898193359375,5.137500286102295,29.662500381469727,0.09375
1777560084928898000,11.10289794921875,6.225000381469727,30.075000762939453,-1.256250023841858
1777560084938898200,11.112898193359374,6.506250381469727,29.193750381469727,-1.2937500476837158
1777560084948898000,11.12289794921875,4.575000286102295,30.281251907348633,-2.4375
1777560084958898200,11.132898193359376,4.387500286102295,30.30000114440918,0.24375000596046448
1777560084968898000,11.14289794921875,5.456250190734863,30.225000381469727,-0.22500000894069672
1777560084978898200,11.152898193359375,2.793750047683716,32.38125228881836,0.8250000476837158
1777560084988898000,11.16289794921875,6.825000286102295,30.056251525878906,0.28125
1777560084998898200,11.172898193359375,6.075000286102295,30.225000381469727,-1.0875000953674316
1777560085008898000,11.18289794921875,4.575000286102295,31.350000381469727,0.581250011920929
1777560085018898200,11.192898193359374,5.775000095367432,31.14375114440918,0.9375000596046448
1777560085028898000,11.20289794921875,5.15625,30.187501907348633,-0.5062500238418579
1777560085038898200,11.212898193359376,5.325000286102295,30.48750114440918,-1.0125000476837158
1777560085048898000,11.22289794921875,4.275000095367432,30.506250381469727,-0.9937500357627869
1777560085058898200,11.232898193359375,3.356250047683716,30.843751907348633,-0.3375000059604645
1777560085068898000,11.24289794921875,3.6750001907348633,31.593751907348633,0.5062500238418579
1777560085078898200,11.252898193359375,3.9562501907348633,29.08125114440918,-3.937500238418579
1777560085088898000,11.26289794921875,2.3062500953674316,29.681251525878906,-4.893750190734863
1777560085098898200,11.272898193359374,2.2687501907348633,28.912500381469727,-3.356250047683716
1777560085108898000,11.28289794921875,0.26250001788139343,28.875001907348633,-1.0500000715255737
1777560085118898200,11.292898193359376,-0.48750001192092896,29.025001525878906,-1.7062500715255737
1777560085128898000,11.30289794921875,-2.1000001430511475,27.075000762939453,-0.6187500357627869
1777560085138898200,11.312898193359375,-5.231250286102295,28.837501525878906,0.35625001788139343
1777560085148898000,11.32289794921875,-3.281250238418579,28.593751907348633,1.256250023841858
1777560085158898200,11.332898193359375,-4.3125,28.968751907348633,-0.48750001192092896
1777560085168898000,11.34289794921875,-5.868750095367432,27.093751907348633,-2.2125000953674316
1777560085178898200,11.352898193359374,-5.587500095367432,26.568750381469727,-1.6125000715255737
1777560085188898000,11.36289794921875,-7.406250476837158,27.918750762939453,0.8062500357627869
1777560085198898200,11.372898193359376,-7.275000095367432,27.375001907348633,0.5625
1777560085208898000,11.38289794921875,-7.556250095367432,26.568750381469727,-2.4000000953674316
1777560085218898200,11.392898193359375,-7.237500190734863,27.356250762939453,-1.2750000953674316
1777560085228898000,11.40289794921875,-8.30625057220459,28.42500114440918,1.7812501192092896
1777560085238898200,11.412898193359375,-10.050000190734863,26.325000762939453,0.9937500357627869
1777560085248898000,11.42289794921875,-10.050000190734863,26.325000762939453,0.9937500357627869
1777560085258898200,11.432898193359375,-11.268750190734863,25.106250762939453,-1.4625000953674316
1777560085268898000,11.44289794921875,-12.15000057220459,26.062501907348633,-1.6687500476837158
1777560085278898200,11.452898193359376,-10.350000381469727,24.600000381469727,-3.1312501430511475
1777560085288898000,11.46289794921875,-12.356250762939453,24.787500381469727,-1.068750023841858
1777560085298898200,11.472898193359375,-11.418750762939453,25.631250381469727,-0.375
1777560085308898000,11.48289794921875,-12.15000057220459,26.606250762939453,-0.581250011920929
1777560085318898200,11.492898193359375,-13.050000190734863,25.42500114440918,-3.468750238418579
1777560085328898000,11.50289794921875,-16.89375114440918,25.443750381469727,-0.8250000476837158
1777560085338898200,11.512898193359375,-13.83750057220459,24.86250114440918,-3.1312501430511475
1777560085348898000,11.52289794921875,-15.375000953674316,24.375001907348633,-3.8812501430511475
1777560085358898200,11.532898193359374,-16.931251525878906,24,-2.231250047683716
1777560085368898000,11.54289794921875,-17.55000114440918,22.89375114440918,-4.6875
1777560085378898200,11.552898193359376,-19.80000114440918,23.025001525878906,-5.587500095367432
1777560085388898000,11.56289794921875,-16.912500381469727,22.837501525878906,-5.981250286102295
1777560085398898200,11.572898193359375,-18.450000762939453,21.9375,-7.800000190734863
1777560085408898000,11.58289794921875,-20.53125,23.4375,-7.031250476837158
1777560085418898200,11.592898193359375,-19.14375114440918,23.625,-7.462500095367432
1777560085428898000,11.60289794921875,-17.793750762939453,23.15625,-7.162500381469727
1777560085438898200,11.612898193359374,-20.08125114440918,23.17500114440918,-7.106250286102295
1777560085448898000,11.62289794921875,-17.681251525878906,23.043750762939453,-4.5
1777560085458898200,11.632898193359376,-19.350000381469727,23.0625,-5.306250095367432
1777560085468898000,11.64289794921875,-17.793750762939453,24.281251907348633,-5.400000095367432
1777560085478898200,11.652898193359375,-14.68125057220459,25.931251525878906,-5.15625
1777560085488898000,11.66289794921875,-15.33750057220459,23.962501525878906,-6.787500381469727
1777560085498898200,11.672898193359375,-16.23750114440918,24.543750762939453,-6.243750095367432
1777560085508898000,11.68289794921875,-14.475000381469727,23.887500762939453,-3.8625001907348633
1777560085518898200,11.692898193359374,-15.24375057220459,23.475000381469727,-4.912500381469727
1777560085528898000,11.70289794921875,-15.375000953674316,23.962501525878906,-5.100000381469727
1777560085538898200,11.712898193359376,-14.325000762939453,22.23750114440918,-8.268750190734863
1777560085548898000,11.72289794921875,-16.762500762939453,22.875,-6.543750286102295
1777560085558898200,11.732898193359375,-16.59375,23.006250381469727,-7.368750095367432
1777560085568898000,11.74289794921875,-15.956250190734863,23.306251525878906,-7.893750190734863
1777560085578898200,11.752898193359375,-18.262500762939453,22.3125,-8.71875
1777560085588898000,11.76289794921875,-17.71875,21.150001525878906,-7.275000095367432
1777560085598898200,11.772898193359374,-16.350000381469727,21.543750762939453,-7.087500095367432
1777560085608898000,11.78289794921875,-20.212501525878906,20.25,-5.831250190734863
1777560085618898200,11.792898193359376,-20.73750114440918,20.850000381469727,-9.356250762939453
1777560085628898000,11.80289794921875,-18.30000114440918,21.993751525878906,-6.675000190734863
1777560085638898200,11.812898193359375,-19.21875,21.84375,-6.806250095367432
1777560085648898000,11.82289794921875,-18.11250114440918,22.59375,-7.687500476837158
1777560085658898200,11.832898193359375,-16.631250381469727,22.6875,-5.306250095367432
1777560085668898000,11.84289794921875,-15.881250381469727,23.137500762939453,-3.825000047683716
1777560085678898200,11.852898193359374,-15.881250381469727,23.137500762939453,-3.825000047683716
1777560085688898000,11.86289794921875,-13.893750190734863,22.762500762939453,-4.668750286102295
1777560085698898200,11.872898193359376,-16.837501525878906,21.825000762939453,-3.4875001907348633
1777560085708898000,11.88289794921875,-15.393750190734863,24.262500762939453,-2.9250001907348633
1777560085718898200,11.892898193359375,-14.625000953674316,23.625,-4.762500286102295
1777560085728898000,11.90289794921875,-15.075000762939453,24.01875114440918,-4.668750286102295
1777560085738898200,11.912898193359375,-14.21250057220459,23.400001525878906,-2.8312501907348633
1777560085748898000,11.92289794921875,-15.05625057220459,25.275001525878906,-2.043750047683716
1777560085758898200,11.932898193359375,-11.137500762939453,24.562501907348633,-1.7062500715255737
1777560085768898000,11.94289794921875,-9.168750762939453,26.043750762939453,2.4750001430511475
1777560085778898200,11.952898193359376,-7.443750381469727,26.08125114440918,-0.675000011920929
1777560085788898000,11.96289794921875,-8.381250381469727,25.293750762939453,-0.9375000596046448
1777560085798898200,11.972898193359375,-6.750000476837158,24.918750762939453,-0.05625000223517418
1777560085808898000,11.98289794921875,-6.393750190734863,25.950000762939453,0.13125000894069672
1777560085818898200,11.992898193359375,-7.162500381469727,26.906251907348633,2.4375
1777560085828898000,12.00289794921875,-7.350000381469727,24.825000762939453,0.07500000298023224
1777560085838898200,12.012898193359375,-6.900000095367432,26.137500762939453,3.1312501430511475
1777560085848898000,12.02289794921875,-5.362500190734863,27.01875114440918,4.950000286102295
1777560085858898200,12.032898193359374,-5.381250381469727,25.912500381469727,3.3375000953674316
1777560085868898000,12.04289794921875,-2.8500001430511475,24.787500381469727,4.181250095367432
1777560085878898200,12.052898193359376,-2.1187500953674316,24.506250381469727,4.818750381469727
1777560085888898000,12.06289794921875,0.8250000476837158,26.006250381469727,4.875
1777560085898898200,12.072898193359375,0.3375000059604645,24.975000381469727,4.706250190734863
1777560085908898000,12.08289794921875,0.7875000238418579,25.668750762939453,6.937500476837158
1777560085918898200,12.092898193359375,1.725000023841858,26.418750762939453,6.918750286102295
1777560085928898000,12.10289794921875,1.6875001192092896,24.412500381469727,4.275000095367432
1777560085938898200,12.112898193359374,3.9937500953674316,24.937501907348633,3.6000001430511475
1777560085948898000,12.12289794921875,4.3125,25.481250762939453,4.837500095367432
1777560085958898200,12.132898193359376,2.6625001430511475,26.775001525878906,5.962500095367432
1777560085968898000,12.14289794921875,3.262500047683716,26.306251525878906,6.150000095367432
1777560085978898200,12.152898193359375,4.912500381469727,25.631250381469727,4.987500190734863
1777560085988898000,12.16289794921875,4.950000286102295,26.718751907348633,5.625
1777560085998898200,12.172898193359375,3.093750238418579,26.493751525878906,6.618750095367432
1777560086008898000,12.18289794921875,5.512500286102295,25.650001525878906,5.962500095367432
1777560086018898200,12.192898193359374,5.831250190734863,26.287500381469727,6.075000286102295
1777560086028898000,12.20289794921875,5.475000381469727,24.30000114440918,5.287500381469727
1777560086038898200,12.212898193359376,6.581250190734863,25.031251907348633,4.256250381469727
1777560086048898000,12.22289794921875,7.950000286102295,25.218751907348633,3.843750238418579
1777560086058898200,12.232898193359375,6.618750095367432,26.36250114440918,4.931250095367432
1777560086068898000,12.24289794921875,7.256250381469727,26.325000762939453,2.9437501430511475
1777560086078898200,12.252898193359375,9.956250190734863,24.543750762939453,0.9750000238418579
1777560086088898000,12.26289794921875,8.943750381469727,25.51875114440918,-0.9375000596046448
1777560086098898200,12.272898193359374,10.762500762939453,24.750001907348633,-1.8375000953674316
1777560086108898000,12.28289794921875,10.293750762939453,25.668750762939453,1.03125
1777560086118898200,12.292898193359376,10.293750762939453,25.668750762939453,1.03125
1777560086128898000,12.30289794921875,9.5625,26.212501525878906,0.45000001788139343
1777560086138898200,12.312898193359375,9.90000057220459,24.075000762939453,3.7125000953674316
1777560086148898000,12.32289794921875,7.387500286102295,25.087501525878906,0.45000001788139343
1777560086158898200,12.332898193359375,10.27500057220459,25.462501525878906,1.2750000953674316
1777560086168898000,12.34289794921875,8.887500762939453,24.58125114440918,1.2937500476837158
1777560086178898200,12.352898193359374,9.768750190734863,24.637500762939453,2.5500001907348633
1777560086188898000,12.36289794921875,9.9375,25.650001525878906,4.293750286102295
1777560086198898200,12.372898193359376,8.568750381469727,25.89375114440918,5.925000190734863
1777560086208898000,12.38289794921875,9.46875,25.350000381469727,4.818750381469727
1777560086228898000,12.40289794921875,8.287500381469727,25.631250381469727,2.4937500953674316
1777560086238898200,12.412898193359375,9.05625057220459,26.137500762939453,4.275000095367432
1777560086248898000,12.42289794921875,8.25,24.825000762939453,3.750000238418579
1777560086258898200,12.432898193359375,8.700000762939453,24.825000762939453,3.750000238418579
1777560086268898000,12.44289794921875,8.081250190734863,25.125001907348633,4.950000286102295
1777560086278898200,12.452898193359376,5.081250190734863,25.743751525878906,4.856250286102295
1777560086288898000,12.46289794921875,5.53125,25.743751525878906,4.856250286102295
1777560086298898200,12.472898193359375,6.468750476837158,25.762500762939453,3.281250238418579
1777560086308898000,12.48289794921875,4.3125,25.42500114440918,4.40625
1777560086318898200,12.492898193359375,2.6437501907348633,25.443750381469727,3.6000001430511475
1777560086328898000,12.50289794921875,2.4937500953674316,25.650001525878906,4.200000286102295
1777560086338898200,12.512898193359375,1.5,24.750001907348633,7.443750381469727
1777560086348898000,12.52289794921875,1.6875001192092896,24.468751907348633,4.706250190734863
1777560086358898200,12.532898193359374,0.26250001788139343,23.700000762939453,6.150000095367432
1777560086368898000,12.54289794921875,-1.3312500715255737,24.225000381469727,2.90625
1777560086378898200,12.552898193359376,-3.187500238418579,24.243751525878906,4.800000190734863
1777560086388898000,12.56289794921875,-1.1812500953674316,24.67500114440918,4.256250381469727
1777560086398898200,12.572898193359375,-5.325000286102295,24.225000381469727,5.418750286102295
1777560086408898000,12.58289794921875,-5.118750095367432,24.881250381469727,3.1312501430511475
1777560086418898200,12.592898193359375,-5.456250190734863,23.943750381469727,2.6812500953674316
1777560086428898000,12.60289794921875,-5.006250381469727,23.90625,3.2250001430511475
1777560086438898200,12.612898193359374,-5.100000381469727,25.275001525878906,3.2062501907348633
1777560086448898000,12.62289794921875,-6.506250381469727,24.168750762939453,3.3187501430511475
1777560086458898200,12.632898193359376,-5.006250381469727,24,3.9562501907348633
1777560086468898000,12.64289794921875,-7.706250190734863,24.150001525878906,2.3625001907348633
1777560086478898200,12.652898193359375,-7.575000286102295,23.850000381469727,2.8687500953674316
1777560086488898000,12.66289794921875,-9.05625057220459,25.98750114440918,4.725000381469727
1777560086498898200,12.672898193359375,-9.450000762939453,23.493751525878906,4.668750286102295
1777560086508898000,12.68289794921875,-10.78125,24.075000762939453,3.543750047683716
1777560086518898200,12.692898193359374,-10.762500762939453,23.381250381469727,1.2937500476837158
1777560086528898000,12.70289794921875,-11.71875,22.856250762939453,2.7750000953674316
1777560086538898200,12.712898193359376,-11.71875,22.80000114440918,2.4937500953674316
1777560086548898000,12.72289794921875,-11.71875,22.80000114440918,2.4937500953674316
1777560086558898200,12.732898193359375,-12.543750762939453,21.787500381469727,4.012500286102295
1777560086568898000,12.74289794921875,-14.925000190734863,22.23750114440918,1.8937500715255737
1777560086578898200,12.752898193359375,-15.543750762939453,21.731250762939453,0.9750000238418579
1777560086588898000,12.76289794921875,-13.83750057220459,22.443750381469727,0.7875000238418579
1777560086598898200,12.772898193359374,-14.606250762939453,21.693750381469727,-0.05625000223517418
1777560086608898000,12.78289794921875,-15.99375057220459,22.125,2.043750047683716
1777560086618898200,12.792898193359376,-17.100000381469727,20.850000381469727,1.8375000953674316
1777560086628898000,12.80289794921875,-13.893750190734863,20.775001525878906,0.4687500298023224
1777560086638898200,12.812898193359375,-15.43125057220459,20.100000381469727,0.09375
1777560086648898000,12.82289794921875,-17.100000381469727,20.92500114440918,2.2687501907348633
1777560086658898200,12.832898193359375,-16.03125,20.700000762939453,0.7875000238418579
1777560086668898000,12.84289794921875,-15.412500381469727,21.693750381469727,2.512500047683716
1777560086678898200,12.852898193359374,-16.293750762939453,22.087501525878906,1.7625000476837158
1777560086688898000,12.86289794921875,-13.237500190734863,21.431251525878906,-0.9750000238418579
1777560086698898200,12.872898193359376,-15.693750381469727,22.087501525878906,2.5875000953674316
1777560086708898000,12.88289794921875,-14.68125057220459,20.34375,1.818750023841858
1777560086718898200,12.892898193359375,-12.24375057220459,20.53125,1.3687500953674316
1777560086728898000,12.90289794921875,-14.40000057220459,20.25,2.9250001907348633
1777560086738898200,12.912898193359375,-12.412500381469727,20.287500381469727,1.4625000953674316
1777560086748898000,12.92289794921875,-13.968750953674316,19.96875,3.562500238418579
1777560086758898200,12.932898193359375,-15.281250953674316,20.793750762939453,1.5
1777560086768898000,12.94289794921875,-16.05000114440918,20.212501525878906,1.6875001192092896
1777560086778898200,12.952898193359376,-16.200000762939453,20.36250114440918,1.8562500476837158
1777560086788898000,12.96289794921875,-17.55000114440918,20.756250381469727,1.125
1777560086798898200,12.972898193359375,-16.275001525878906,17.118751525878906,-1.5750000476837158
1777560086808898000,12.98289794921875,-17.025001525878906,16.912500381469727,-3.0187501907348633
1777560086818898200,12.992898193359375,-19.51875114440918,16.125,-0.6937500238418579
1777560086828898000,13.00289794921875,-20.0625,16.818750381469727,-3.656250238418579
1777560086838898200,13.012898193359375,-17.756250381469727,17.512500762939453,-3.168750047683716
1777560086848898000,13.02289794921875,-19.106250762939453,18.356250762939453,-2.5500001907348633
1777560086858898200,13.032898193359374,-17.887500762939453,18.787500381469727,-2.0625
1777560086868898000,13.04289794921875,-19.443750381469727,18.58125114440918,0.75
1777560086878898200,13.052898193359376,-19.856250762939453,20.231250762939453,1.7812501192092896
1777560086888898000,13.06289794921875,-15.675000190734863,18.39375114440918,2.0250000953674316
1777560086898898200,13.072898193359375,-18.48750114440918,19.96875,0.862500011920929
1777560086908898000,13.08289794921875,-15.318750381469727,20.475000381469727,3.543750047683716
1777560086918898200,13.092898193359375,-14.86875057220459,20.512500762939453,3.825000047683716
1777560086928898000,13.10289794921875,-16.818750381469727,19.950000762939453,1.6500000953674316
1777560086938898200,13.112898193359374,-17.118751525878906,20.8125,3.2437500953674316
1777560086948898000,13.12289794921875,-14.531250953674316,21.712501525878906,5.175000190734863
1777560086958898200,13.132898193359376,-15.000000953674316,20.625,3.7125000953674316
1777560086968898000,13.14289794921875,-14.531250953674316,21.637500762939453,4.743750095367432
1777560086978898200,13.152898193359375,-14.531250953674316,21.637500762939453,4.743750095367432
1777560086988898000,13.16289794921875,-11.006250381469727,22.162500381469727,4.03125
1777560086998898200,13.172898193359375,-8.737500190734863,22.89375114440918,7.368750095367432
1777560087008898000,13.18289794921875,-9.375,22.200000762939453,7.818750381469727
1777560087018898200,13.192898193359374,-7.706250190734863,22.03125,7.462500095367432
1777560087028898000,13.20289794921875,-8.568750381469727,22.818750381469727,6.075000286102295
1777560087038898200,13.212898193359376,-6.187500476837158,22.012500762939453,7.406250476837158
1777560087048898000,13.22289794921875,-8.15625,22.743751525878906,8.02500057220459
1777560087058898200,13.232898193359375,-6.731250286102295,23.512500762939453,6.581250190734863
1777560087068898000,13.24289794921875,-2.9437501430511475,23.53125,6.768750190734863
1777560087078898200,13.252898193359375,-5.268750190734863,23.193750381469727,10.293750762939453
1777560087088898000,13.26289794921875,-1.4812500476837158,22.575000762939453,8.662500381469727
1777560087098898200,13.272898193359374,0.03750000149011612,22.725000381469727,9.787500381469727
1777560087108898000,13.28289794921875,0.956250011920929,23.25,9.99375057220459
1777560087118898200,13.292898193359376,0.01875000074505806,22.931251525878906,11.231250762939453
1777560087128898000,13.30289794921875,3.843750238418579,23.193750381469727,10.481250762939453
1777560087138898200,13.312898193359375,1.8375000953674316,22.556251525878906,10.40625
1777560087148898000,13.32289794921875,2.325000047683716,22.61250114440918,9
1777560087158898200,13.332898193359375,2.606250047683716,22.556251525878906,10.387500762939453
1777560087168898000,13.34289794921875,3.1125001907348633,22.70625114440918,7.162500381469727
1777560087178898200,13.352898193359374,4.162500381469727,22.762500762939453,7.556250095367432
1777560087188898000,13.36289794921875,3.075000047683716,22.275001525878906,8.49375057220459
1777560087198898200,13.372898193359376,3.262500047683716,23.625,10.012500762939453
1777560087208898000,13.38289794921875,5.381250381469727,22.875,8.25
1777560087218898200,13.392898193359375,6.131250381469727,23.325000762939453,9.731250762939453
