time,seconds_elapsed,z,y,x
1777560073948898000,0.12289794921875,-45.76875305175781,74.0250015258789,99.46875762939453
1777560073978898200,0.152898193359375,-44.79375076293945,75.375,99.41250610351562
1777560073988898000,0.16289794921875,-46.29375076293945,75.67500305175781,98.81250762939453
1777560073998898200,0.172898193359375,-47.10000228881836,74.85000610351562,100.0875015258789
1777560074008898000,0.18289794921875,-47.10000228881836,74.85000610351562,100.0875015258789
1777560074018898200,0.192898193359375,-44.962501525878906,74.8687515258789,98.47500610351562
1777560074028898000,0.20289794921875,-46.181251525878906,73.38750457763672,95.1187515258789
1777560074038898200,0.212898193359375,-45.9375,74.08125305175781,100.7437515258789
1777560074048898000,0.22289794921875,-46.931251525878906,75.13125610351562,98.56875610351562
1777560074058898200,0.232898193359375,-42.46875,74.36250305175781,92.53125
1777560074068898000,0.24289794921875,-42.76875305175781,74.41875457763672,92.83125305175781
1777560074078898200,0.252898193359375,-47.41875076293945,72.78750610351562,94.48125457763672
1777560074088898000,0.26289794921875,-49.05000305175781,74.79375457763672,97.85625457763672
1777560074098898200,0.272898193359375,-45.39375305175781,74.625,96.75000762939453
1777560074108898000,0.28289794921875,-46.462501525878906,75.73125457763672,100.0875015258789
1777560074118898200,0.292898193359375,-50.56875228881836,76.125,100.98750305175781
1777560074128898000,0.30289794921875,-47.60625076293945,73.875,100.1812515258789
1777560074138898200,0.312898193359375,-47.587501525878906,74.92500305175781,101.38125610351562
1777560074148898000,0.32289794921875,-47.55000305175781,75.0562515258789,99.7125015258789
1777560074158898200,0.332898193359375,-48.656253814697266,74.23125457763672,99.9937515258789
1777560074168898000,0.34289794921875,-48.750003814697266,75.2437515258789,99.35625457763672
1777560074178898200,0.352898193359375,-46.650001525878906,75.41250610351562,101.3062515258789
1777560074188898000,0.36289794921875,-48.20625305175781,74.94375610351562,102.39375305175781
1777560074198898200,0.372898193359375,-49.125003814697266,74.25,101.00625610351562
1777560074208898000,0.38289794921875,-48,74.7750015258789,97.8375015258789
1777560074218898200,0.392898193359375,-47.41875076293945,74.45625305175781,99.01875305175781
1777560074228898000,0.40289794921875,-45.60000228881836,73.48125457763672,96.67500305175781
1777560074238898200,0.412898193359375,-47.88750076293945,73.05000305175781,96.22500610351562
1777560074248898000,0.42289794921875,-45.712501525878906,72.78750610351562,92.73750305175781
1777560074258898200,0.432898193359375,-46.6875,73.10625457763672,98.32500457763672
1777560074268898000,0.44289794921875,-48.20625305175781,73.25625610351562,97.68750762939453
1777560074278898200,0.452898193359375,-49.72500228881836,74.4000015258789,101.19375610351562
1777560074288898000,0.46289794921875,-49.406253814697266,73.2750015258789,97.72500610351562
1777560074298898200,0.472898193359375,-49.406253814697266,74.1187515258789,99.30000305175781
1777560074308898000,0.48289794921875,-48.95625305175781,73.9312515258789,99.67500305175781
1777560074318898200,0.492898193359375,-49.368751525878906,74.19375610351562,97.20000457763672
1777560074328898000,0.50289794921875,-50.156253814697266,74.51250457763672,99.39375305175781
1777560074338898200,0.512898193359375,-48,75.31875610351562,99.76875305175781
1777560074348898000,0.52289794921875,-48.07500076293945,72.16875457763672,97.05000305175781
1777560074358898200,0.532898193359375,-48.843753814697266,72.31875610351562,98.10000610351562
1777560074368898000,0.54289794921875,-49.89375305175781,73.0875015258789,98.9625015258789
1777560074378898200,0.552898193359375,-50.17500305175781,73.44375610351562,98.90625762939453
1777560074388898000,0.56289794921875,-50.962501525878906,73.23750305175781,99.16875457763672
1777560074398898200,0.572898193359375,-48.63750076293945,74.51250457763672,99.35625457763672
1777560074408898000,0.58289794921875,-49.76250076293945,73.5,101.0250015258789
1777560074418898200,0.592898193359375,-48.88125228881836,76.59375,100.89375305175781
1777560074428898000,0.60289794921875,-50.28750228881836,75.54375457763672,101.28750610351562
1777560074438898200,0.612898193359375,-48.31875228881836,73.61250305175781,96.63750457763672
1777560074448898000,0.62289794921875,-48.31875228881836,73.61250305175781,96.63750457763672
1777560074458898200,0.632898193359375,-48.07500076293945,72.63750457763672,98.55000305175781
1777560074468898000,0.64289794921875,-48.22500228881836,73.2750015258789,99.5250015258789
1777560074478898200,0.652898193359375,-48.843753814697266,73.23750305175781,100.10625457763672
1777560074488898000,0.66289794921875,-48.63750076293945,74.1187515258789,99.28125762939453
1777560074498898200,0.672898193359375,-48.78750228881836,73.9312515258789,98.81250762939453
1777560074508898000,0.68289794921875,-47.26875305175781,74.8687515258789,101.08125305175781
1777560074518898200,0.692898193359375,-48.35625076293945,73.81875610351562,99.76875305175781
1777560074528898000,0.70289794921875,-48.150001525878906,74.64375305175781,98.66250610351562
1777560074538898200,0.712898193359375,-46.556251525878906,73.125,99.31875610351562
1777560074548898000,0.72289794921875,-49.44375228881836,73.9312515258789,102.22500610351562
1777560074558898200,0.732898193359375,-48.712501525878906,73.38750457763672,102.8062515258789
1777560074568898000,0.74289794921875,-48.63750076293945,75.09375,101.71875762939453
1777560074578898200,0.752898193359375,-49.125003814697266,74.4000015258789,102.01875305175781
1777560074588898000,0.76289794921875,-47.47500228881836,74.0250015258789,102.9000015258789
1777560074598898200,0.772898193359375,-47.493751525878906,73.10625457763672,100.89375305175781
1777560074608898000,0.78289794921875,-50.23125076293945,73.21875,101.6812515258789
1777560074618898200,0.792898193359375,-50.212501525878906,73.9312515258789,102.2437515258789
1777560074628898000,0.80289794921875,-47.25,76.05000305175781,102.28125762939453
1777560074638898200,0.812898193359375,-45.431251525878906,75.7125015258789,102.60000610351562
1777560074648898000,0.82289794921875,-45.46875,74.15625,100.4625015258789
1777560074658898200,0.832898193359375,-47.625,73.63125610351562,101.13750457763672
1777560074668898000,0.84289794921875,-45.69375228881836,72.09375,99.93750762939453
1777560074678898200,0.852898193359375,-45.46875,75.22500610351562,103.50000762939453
1777560074688898000,0.86289794921875,-46.70625305175781,74.28750610351562,102.22500610351562
1777560074698898200,0.872898193359375,-46.70625305175781,74.28750610351562,102.22500610351562
1777560074708898000,0.88289794921875,-45.806251525878906,73.3687515258789,101.04375457763672
1777560074718898200,0.892898193359375,-43.98750305175781,73.42500305175781,101.41875457763672
1777560074728898000,0.90289794921875,-44.79375076293945,72.6187515258789,102.69375610351562
1777560074738898200,0.912898193359375,-43.98750305175781,73.4625015258789,101.71875762939453
1777560074748898000,0.92289794921875,-45.65625,74.60625457763672,104.36250305175781
1777560074758898200,0.932898193359375,-45.150001525878906,74.8687515258789,101.8687515258789
1777560074768898000,0.94289794921875,-47.212501525878906,73.2750015258789,103.7437515258789
1777560074778898200,0.952898193359375,-44.4375,73.6500015258789,102.03750610351562
1777560074788898000,0.96289794921875,-46.743751525878906,73.42500305175781,103.05000305175781
1777560074798898200,0.972898193359375,-44.73750305175781,73.3687515258789,101.00625610351562
1777560074808898000,0.98289794921875,-46.51875305175781,74.66250610351562,101.3062515258789
1777560074818898200,0.992898193359375,-43.42500305175781,72.50625610351562,102.78750610351562
1777560074828898000,1.00289794921875,-44.90625,73.85625457763672,103.50000762939453
1777560074838898200,1.012898193359375,-44.868751525878906,74.47500610351562,101.79375457763672
1777560074848898000,1.02289794921875,-43.70625305175781,73.14375305175781,102.91875457763672
1777560074858898200,1.032898193359375,-45.65625,74.04375457763672,103.14375305175781
1777560074868898000,1.04289794921875,-46.29375076293945,72.9000015258789,102.09375762939453
1777560074878898200,1.052898193359375,-46.29375076293945,72.9000015258789,102.09375762939453
1777560074888898000,1.06289794921875,-43.98750305175781,73.6875,101.47500610351562
1777560074898898200,1.072898193359375,-45.712501525878906,72.46875,102.56250762939453
1777560074908898000,1.08289794921875,-45.65625,74.4937515258789,103.6500015258789
1777560074918898200,1.092898193359375,-42.20625305175781,72.39375305175781,102.01875305175781
1777560074928898000,1.10289794921875,-42.150001525878906,72.50625610351562,98.51250457763672
1777560074938898200,1.112898193359375,-44.0625,71.8125,103.23750305175781
1777560074948898000,1.12289794921875,-42.97500228881836,72.5625,103.20000457763672
1777560074958898200,1.132898193359375,-44.45625305175781,74.15625,103.8375015258789
1777560074968898000,1.14289794921875,-43.95000076293945,73.85625457763672,100.0875015258789
1777560074978898200,1.152898193359375,-43.59375,71.79375457763672,101.38125610351562
1777560074988898000,1.16289794921875,-43.72500228881836,72.1875,100.61250305175781
1777560074998898200,1.172898193359375,-42.75,73.57500457763672,100.70625305175781
1777560075008898000,1.18289794921875,-43.70625305175781,72.1500015258789,100.31250762939453
1777560075018898200,1.192898193359375,-42.9375,72.88125610351562,101.15625762939453
1777560075028898000,1.20289794921875,-45.22500228881836,72.84375,100.78125762939453
1777560075038898200,1.212898193359375,-44.90625,73.20000457763672,101.55000305175781
1777560075048898000,1.22289794921875,-43.23750305175781,72.97500610351562,100.89375305175781
1777560075058898200,1.232898193359375,-45.22500228881836,72.28125,99.54375457763672
1777560075068898000,1.24289794921875,-42.76875305175781,73.25625610351562,100.21875762939453
1777560075078898200,1.252898193359375,-43.556251525878906,71.71875,98.26875305175781
1777560075088898000,1.26289794921875,-45.22500228881836,71.38125610351562,97.66875457763672
1777560075098898200,1.272898193359375,-46.44375228881836,72.09375,99.95625305175781
1777560075108898000,1.28289794921875,-45.03750228881836,73.21875,99.9937515258789
1777560075118898200,1.292898193359375,-45.712501525878906,71.7750015258789,100.29375457763672
1777560075128898000,1.30289794921875,-44.15625,72.22500610351562,99.22500610351562
1777560075138898200,1.312898193359375,-44.45625305175781,72.28125,99.5250015258789
1777560075148898000,1.32289794921875,-45.76875305175781,73.80000305175781,99.7125015258789
1777560075158898200,1.332898193359375,-45.97500228881836,71.66250610351562,97.05000305175781
1777560075168898000,1.34289794921875,-44.868751525878906,73.40625,98.75625610351562
1777560075178898200,1.352898193359375,-46.275001525878906,72.03750610351562,98.6812515258789
1777560075188898000,1.36289794921875,-46.25625228881836,72.31875610351562,98.0250015258789
1777560075198898200,1.372898193359375,-47.34375,72.60000610351562,99.93750762939453
1777560075208898000,1.38289794921875,-46.72500228881836,72.07500457763672,98.13750457763672
1777560075218898200,1.392898193359375,-44.70000076293945,72.9937515258789,96.69375610351562
1777560075228898000,1.40289794921875,-47.17500305175781,72.4312515258789,97.9312515258789
1777560075238898200,1.412898193359375,-45.618751525878906,73.42500305175781,98.7750015258789
1777560075248898000,1.42289794921875,-47.493751525878906,71.6812515258789,97.0875015258789
1777560075258898200,1.432898193359375,-45.54375076293945,70.53750610351562,96.95625305175781
1777560075268898000,1.44289794921875,-46.57500076293945,71.45625305175781,96.45000457763672
1777560075278898200,1.452898193359375,-47.306251525878906,72.31875610351562,96.35625457763672
1777560075288898000,1.46289794921875,-46.556251525878906,72.0562515258789,96.28125762939453
1777560075298898200,1.472898193359375,-48.67500305175781,72.5250015258789,96.86250305175781
1777560075308898000,1.48289794921875,-48.67500305175781,72.5250015258789,96.86250305175781
1777560075318898200,1.492898193359375,-49.087501525878906,73.81875610351562,98.10000610351562
1777560075328898000,1.50289794921875,-48.22500228881836,71.73750305175781,95.70000457763672
1777560075338898200,1.512898193359375,-48.11250305175781,71.64375305175781,97.66875457763672
1777560075348898000,1.52289794921875,-48.337501525878906,73.4625015258789,97.31250762939453
1777560075358898200,1.532898193359375,-50.343753814697266,73.33125305175781,99.03750610351562
1777560075368898000,1.54289794921875,-50.51250076293945,72.54375457763672,98.73750305175781
1777560075378898200,1.552898193359375,-49.406253814697266,73.06875610351562,96.26250457763672
1777560075388898000,1.56289794921875,-49.593753814697266,71.10000610351562,93.91875457763672
1777560075398898200,1.572898193359375,-50.625003814697266,72.13125610351562,95.00625610351562
1777560075408898000,1.58289794921875,-47.60625076293945,71.47500610351562,94.80000305175781
1777560075418898200,1.592898193359375,-50.60625076293945,73.25625610351562,95.92500305175781
1777560075428898000,1.60289794921875,-49.406253814697266,72.16875457763672,94.40625
1777560075438898200,1.612898193359375,-48.656253814697266,71.85000610351562,93.9000015258789
1777560075448898000,1.62289794921875,-51.35625076293945,73.25625610351562,95.94375610351562
1777560075458898200,1.632898193359375,-51.750003814697266,70.85625457763672,95.625
1777560075468898000,1.64289794921875,-52.01250076293945,72.50625610351562,96.65625762939453
1777560075478898200,1.652898193359375,-49.406253814697266,72.20625305175781,94.70625305175781
1777560075488898000,1.66289794921875,-51.656253814697266,73.61250305175781,95.73750305175781
1777560075498898200,1.672898193359375,-52.10625076293945,73.91250610351562,96.07500457763672
1777560075508898000,1.68289794921875,-48.95625305175781,72.09375,93.95625305175781
1777560075518898200,1.692898193359375,-49.66875076293945,73.125,94.1812515258789
1777560075528898000,1.70289794921875,-51.01875305175781,73.9312515258789,94.5
1777560075538898200,1.712898193359375,-49.837501525878906,72.5250015258789,93.50625610351562
1777560075548898000,1.72289794921875,-50.64375305175781,71.36250305175781,94.01250457763672
1777560075558898200,1.732898193359375,-51.243751525878906,71.92500305175781,94.40625
1777560075568898000,1.74289794921875,-49.593753814697266,70.98750305175781,93.20625305175781
1777560075578898200,1.752898193359375,-50.587501525878906,72.9937515258789,94.03125
1777560075588898000,1.76289794921875,-50.47500228881836,71.73750305175781,93.22500610351562
1777560075598898200,1.772898193359375,-49.85625076293945,71.85000610351562,93.09375
1777560075608898000,1.78289794921875,-49.06875228881836,72.48750305175781,93.1875
1777560075618898200,1.792898193359375,-48.056251525878906,71.73750305175781,94.01250457763672
1777560075628898000,1.80289794921875,-51.243751525878906,72.07500457763672,95.41875457763672
1777560075638898200,1.812898193359375,-51.243751525878906,72.07500457763672,95.41875457763672
1777560075648898000,1.82289794921875,-50.493751525878906,71.53125,94.3125
1777560075658898200,1.832898193359375,-50.156253814697266,72.95625305175781,95.56875610351562
1777560075668898000,1.84289794921875,-50.94375228881836,71.92500305175781,94.40625
1777560075678898200,1.852898193359375,-50.92500305175781,71.25,92.4375
1777560075688898000,1.86289794921875,-51.16875076293945,72.22500610351562,90.50625610351562
1777560075698898200,1.872898193359375,-48.13125228881836,71.73750305175781,88.9312515258789
1777560075708898000,1.88289794921875,-47.41875076293945,70.5562515258789,89.38125610351562
1777560075718898200,1.892898193359375,-47.868751525878906,70.38750457763672,88.23750305175781
1777560075728898000,1.90289794921875,-48.16875076293945,71.73750305175781,91.4625015258789
1777560075738898200,1.912898193359375,-48.16875076293945,71.73750305175781,91.4625015258789
1777560075748898000,1.92289794921875,-49.61250305175781,73.03125,89.2125015258789
1777560075758898200,1.932898193359375,-49.61250305175781,73.03125,89.2125015258789
1777560075768898000,1.94289794921875,-50.56875228881836,72,89.88750457763672
1777560075778898200,1.952898193359375,-51.01875305175781,73.42500305175781,92.71875
1777560075788898000,1.96289794921875,-49.01250076293945,73.59375,92.26875305175781
1777560075798898200,1.972898193359375,-50.41875076293945,73.29375457763672,93.5250015258789
1777560075808898000,1.98289794921875,-50.28750228881836,72.4312515258789,92.79375457763672
1777560075818898200,1.992898193359375,-50.156253814697266,71.10000610351562,91.40625
1777560075828898000,2.00289794921875,-48.806251525878906,71.0250015258789,91.78125
1777560075838898200,2.012898193359375,-51.16875076293945,73.1812515258789,92.8125
1777560075848898000,2.02289794921875,-50.13750076293945,72.3375015258789,93.0562515258789
1777560075858898200,2.032898193359375,-52.06875228881836,72.86250305175781,91.5
1777560075868898000,2.04289794921875,-49.875003814697266,71.70000457763672,93.76875305175781
1777560075878898200,2.052898193359375,-51.31875228881836,73.4625015258789,93.01875305175781
1777560075888898000,2.06289794921875,-50.062503814697266,74.10000610351562,92.25
1777560075898898200,2.072898193359375,-51.76875305175781,73.4625015258789,93.01875305175781
1777560075908898000,2.08289794921875,-49.80000305175781,73.61250305175781,94.125
1777560075918898200,2.092898193359375,-49.66875076293945,72.97500610351562,93.1500015258789
1777560075928898000,2.10289794921875,-50.118751525878906,73.23750305175781,93.22500610351562
1777560075938898200,2.112898193359375,-51.656253814697266,72.7125015258789,93.86250305175781
1777560075948898000,2.12289794921875,-48.993751525878906,75.63750457763672,95.19375610351562
1777560075958898200,2.132898193359375,-50.10000228881836,74.13750457763672,95.08125305175781
1777560075968898000,2.14289794921875,-50.85000228881836,73.81875610351562,92.92500305175781
1777560075978898200,2.152898193359375,-51.11250305175781,74.25,91.61250305175781
1777560075988898000,2.16289794921875,-50.55000305175781,74.26875305175781,94.2750015258789
1777560075998898200,2.172898193359375,-48.82500076293945,76.05000305175781,95.41875457763672
1777560076008898000,2.18289794921875,-49.275001525878906,75.58125305175781,93.91875457763672
1777560076018898200,2.192898193359375,-50.10000228881836,73.9312515258789,93.63750457763672
1777560076028898000,2.20289794921875,-47.25,73.33125305175781,94.70625305175781
1777560076038898200,2.212898193359375,-48.86250305175781,74.4000015258789,94.40625
1777560076048898000,2.22289794921875,-48.843753814697266,75.86250305175781,95.79375457763672
1777560076058898200,2.232898193359375,-51.60000228881836,75.8062515258789,97.98750305175781
1777560076068898000,2.24289794921875,-48.843753814697266,75.0562515258789,94.51875305175781
1777560076078898200,2.252898193359375,-51.13125228881836,75.28125,96.03750610351562
1777560076088898000,2.26289794921875,-50.531253814697266,75.375,95.88750457763672
1777560076098898200,2.272898193359375,-49.781253814697266,74.625,95.0250015258789
1777560076108898000,2.28289794921875,-47.85000228881836,73.21875,94.85625457763672
1777560076118898200,2.292898193359375,-49.462501525878906,74.41875457763672,93.5625
1777560076128898000,2.30289794921875,-51.11250305175781,76.16250610351562,96.20625305175781
1777560076138898200,2.312898193359375,-49.48125076293945,74.36250305175781,94.96875
1777560076148898000,2.32289794921875,-47.55000305175781,73.5,95.88750457763672
1777560076158898200,2.332898193359375,-49.312503814697266,74.625,94.16250610351562
1777560076168898000,2.34289794921875,-48.843753814697266,74.45625305175781,93
1777560076178898200,2.352898193359375,-48.843753814697266,74.45625305175781,93
1777560076188898000,2.36289794921875,-49.368751525878906,76.5,92.55000305175781
1777560076198898200,2.372898193359375,-45.82500076293945,73.42500305175781,92.00625610351562
1777560076208898000,2.38289794921875,-47.47500228881836,73.72500610351562,90.5625
1777560076218898200,2.392898193359375,-47.868751525878906,72.69375610351562,93.76875305175781
1777560076228898000,2.40289794921875,-48.993751525878906,75.0562515258789,93.67500305175781
1777560076238898200,2.412898193359375,-46.21875,75.6187515258789,92.4375
1777560076248898000,2.42289794921875,-45.65625,73.85625457763672,91.51875305175781
1777560076258898200,2.432898193359375,-48.525001525878906,74.625,91.61250305175781
1777560076268898000,2.44289794921875,-48.093753814697266,73.6500015258789,91.8375015258789
1777560076278898200,2.452898193359375,-46.875,73.9312515258789,91.98750305175781
1777560076288898000,2.46289794921875,-48.22500228881836,74.94375610351562,92.92500305175781
1777560076298898200,2.472898193359375,-48.562503814697266,75.20625305175781,95.6812515258789
1777560076308898000,2.48289794921875,-46.462501525878906,73.59375,94.03125
1777560076318898200,2.492898193359375,-47.53125,73.125,93.26250457763672
1777560076328898000,2.50289794921875,-47.94375228881836,74.83125305175781,93.88125610351562
1777560076338898200,2.512898193359375,-48.13125228881836,74.1187515258789,95.0250015258789
1777560076348898000,2.52289794921875,-46.875,75.1500015258789,94.35000610351562
1777560076358898200,2.532898193359375,-46.42500305175781,74.98125457763672,95.00625610351562
1777560076368898000,2.54289794921875,-49.312503814697266,74.66250610351562,94.4625015258789
1777560076378898200,2.552898193359375,-47.493751525878906,75.09375,95.75625610351562
1777560076388898000,2.56289794921875,-48.91875076293945,74.36250305175781,98.34375762939453
1777560076398898200,2.572898193359375,-47.962501525878906,75.28125,96.93750762939453
1777560076408898000,2.58289794921875,-49.42500305175781,76.21875,94.89375305175781
1777560076418898200,2.592898193359375,-47.92500305175781,76.06875610351562,96.37500762939453
1777560076428898000,2.60289794921875,-50.306251525878906,73.3687515258789,96.63750457763672
1777560076438898200,2.612898193359375,-48.11250305175781,74.92500305175781,96.31875610351562
1777560076448898000,2.62289794921875,-48.97500228881836,75.73125457763672,94.0875015258789
1777560076458898200,2.632898193359375,-48.993751525878906,74.73750305175781,93.1875
1777560076468898000,2.64289794921875,-48.525001525878906,75.1500015258789,93.54375457763672
1777560076478898200,2.652898193359375,-48,77.71875,95.71875
1777560076488898000,2.66289794921875,-48.97500228881836,76.38750457763672,96.0562515258789
1777560076498898200,2.672898193359375,-49.781253814697266,74.15625,93.5250015258789
1777560076508898000,2.68289794921875,-49.44375228881836,75.97500610351562,95.70000457763672
1777560076518898200,2.692898193359375,-50.400001525878906,74.47500610351562,94.875
1777560076528898000,2.70289794921875,-50.55000305175781,74.38125610351562,95.00625610351562
1777560076538898200,2.712898193359375,-51.243751525878906,76.23750305175781,94.95000457763672
1777560076548898000,2.72289794921875,-51.243751525878906,75.8062515258789,94.59375
1777560076558898200,2.732898193359375,-51.13125228881836,75.0562515258789,94.57500457763672
1777560076568898000,2.74289794921875,-51.22500228881836,75.8062515258789,92.04375457763672
1777560076578898200,2.752898193359375,-52.031253814697266,75.11250305175781,94.05000305175781
1777560076588898000,2.76289794921875,-51.281253814697266,74.8125,93.69375610351562
1777560076598898200,2.772898193359375,-52.29375076293945,75.75,93.3375015258789
1777560076608898000,2.78289794921875,-52.29375076293945,75.75,93.3375015258789
1777560076618898200,2.792898193359375,-51.60000228881836,73.72500610351562,92.2125015258789
1777560076628898000,2.80289794921875,-54.48750305175781,74.70000457763672,94.59375
1777560076638898200,2.812898193359375,-54.48750305175781,74.70000457763672,94.59375
1777560076648898000,2.82289794921875,-52.80000305175781,74.92500305175781,94.4625015258789
1777560076658898200,2.832898193359375,-53.98125076293945,75.1875,92.00625610351562
1777560076668898000,2.84289794921875,-54.73125076293945,75.1875,92.0250015258789
1777560076678898200,2.852898193359375,-54.39375305175781,76.20000457763672,92.0625
1777560076688898000,2.86289794921875,-53.36250305175781,75.7125015258789,93.07500457763672
1777560076698898200,2.872898193359375,-55.05000305175781,73.91250610351562,90.09375
1777560076708898000,2.88289794921875,-53.38125228881836,74.55000305175781,91.01250457763672
1777560076718898200,2.892898193359375,-55.51875305175781,74.55000305175781,91.91250610351562
1777560076728898000,2.90289794921875,-56.38125228881836,76.05000305175781,92.79375457763672
1777560076738898200,2.912898193359375,-54.150001525878906,74.26875305175781,91.6875
1777560076748898000,2.92289794921875,-54.88125228881836,75.35625457763672,92.34375
1777560076758898200,2.932898193359375,-56.45625305175781,73.59375,91.33125305175781
1777560076768898000,2.94289794921875,-54.86250305175781,75.2437515258789,89.7750015258789
1777560076778898200,2.952898193359375,-54.712501525878906,74.34375,88.7437515258789
1777560076788898000,2.96289794921875,-54.86250305175781,73.10625457763672,85.42500305175781
1777560076798898200,2.972898193359375,-53.60625076293945,75.30000305175781,87.63750457763672
1777560076808898000,2.98289794921875,-53.32500076293945,75.13125610351562,89.00625610351562
1777560076818898200,2.992898193359375,-52.406253814697266,74.66250610351562,86.625
1777560076828898000,3.00289794921875,-53.156253814697266,74.70000457763672,86.94375610351562
1777560076838898200,3.012898193359375,-54.243751525878906,75.01875305175781,89.15625
1777560076848898000,3.02289794921875,-54.73125076293945,73.63125610351562,88.20000457763672
1777560076868898000,3.04289794921875,-51.13125228881836,76.81875610351562,88.70625305175781
1777560076878898200,3.052898193359375,-52.35000228881836,75.97500610351562,87.16875457763672
1777560076888898000,3.06289794921875,-52.23750305175781,76.1812515258789,89.45625305175781
1777560076898898200,3.072898193359375,-53.306251525878906,74.4937515258789,86.34375
1777560076908898000,3.08289794921875,-52.38750076293945,76.10625457763672,89.73750305175781
1777560076918898200,3.092898193359375,-53.13750076293945,76.29375457763672,89.36250305175781
1777560076928898000,3.10289794921875,-54.656253814697266,75.73125457763672,87.1875
1777560076938898200,3.112898193359375,-52.53750228881836,75.60000610351562,87.9375
1777560076948898000,3.12289794921875,-54.22500228881836,74.7750015258789,87.41250610351562
1777560076958898200,3.132898193359375,-54.375003814697266,74.70000457763672,86.13750457763672
1777560076968898000,3.14289794921875,-54.13125228881836,77.66250610351562,87.5250015258789
1777560076978898200,3.152898193359375,-51.656253814697266,74.4375,86.85000610351562
1777560076988898000,3.16289794921875,-52.33125305175781,76.3687515258789,85.53750610351562
1777560076998898200,3.172898193359375,-52.368751525878906,74.75625610351562,84.82500457763672
1777560077008898000,3.18289794921875,-51.88125228881836,75.7125015258789,85.40625
1777560077018898200,3.192898193359375,-50.812503814697266,75.4312515258789,83.4937515258789
1777560077028898000,3.20289794921875,-51.431251525878906,74.90625,83.26875305175781
1777560077038898200,3.212898193359375,-51.431251525878906,74.90625,83.26875305175781
1777560077048898000,3.22289794921875,-52.837501525878906,75.30000305175781,87.6187515258789
1777560077058898200,3.232898193359375,-52.781253814697266,76.72500610351562,87.1875
1777560077068898000,3.24289794921875,-52.48125076293945,76.61250305175781,86.4375
1777560077078898200,3.252898193359375,-49.29375076293945,76.0875015258789,85.40625
1777560077088898000,3.26289794921875,-52.181251525878906,75.69375610351562,84.4312515258789
1777560077098898200,3.272898193359375,-49.875003814697266,76.875,85.72500610351562
1777560077108898000,3.28289794921875,-51.562503814697266,75.82500457763672,83.5875015258789
1777560077118898200,3.292898193359375,-51.73125076293945,75.45000457763672,84.375
1777560077128898000,3.30289794921875,-51.35625076293945,77.79375457763672,85.9312515258789
1777560077138898200,3.312898193359375,-51.07500076293945,77.41875457763672,86.00625610351562
1777560077148898000,3.32289794921875,-50.025001525878906,76.78125,85.85625457763672
1777560077158898200,3.332898193359375,-52.29375076293945,77.64375305175781,87.48750305175781
1777560077168898000,3.34289794921875,-51.50625228881836,77.17500305175781,84.26250457763672
1777560077178898200,3.352898193359375,-50.75625228881836,77.10000610351562,83.8125
1777560077188898000,3.36289794921875,-51.375003814697266,77.73750305175781,87.3375015258789
1777560077198898200,3.372898193359375,-51.88125228881836,76.6875,87.7125015258789
1777560077208898000,3.38289794921875,-54.22500228881836,79.44375610351562,88.72500610351562
1777560077218898200,3.392898193359375,-52.181251525878906,77.32500457763672,88.6875
1777560077228898000,3.40289794921875,-50.118751525878906,79.01250457763672,87.54375457763672
1777560077238898200,3.412898193359375,-50.625003814697266,77.64375305175781,86.5875015258789
1777560077248898000,3.42289794921875,-52.23750305175781,79.7437515258789,89.00625610351562
1777560077258898200,3.432898193359375,-49.368751525878906,79.01250457763672,87.5250015258789
1777560077268898000,3.44289794921875,-52.29375076293945,78,88.25625610351562
1777560077278898200,3.452898193359375,-50.587501525878906,78.67500305175781,87.76875305175781
1777560077288898000,3.46289794921875,-49.368751525878906,79.16250610351562,88.53750610351562
1777560077298898200,3.472898193359375,-50.73750305175781,79.01250457763672,88.40625
1777560077308898000,3.48289794921875,-49.20000076293945,79.61250305175781,88.20000457763672
1777560077318898200,3.492898193359375,-49.16250228881836,79.875,85.70625305175781
1777560077328898000,3.50289794921875,-49.44375228881836,80.51250457763672,85.8375015258789
1777560077348898000,3.52289794921875,-46.06875228881836,80.60625457763672,84.78750610351562
1777560077358898200,3.532898193359375,-47.212501525878906,78.26250457763672,83.23125457763672
1777560077368898000,3.54289794921875,-43.96875,76.51875305175781,74.7750015258789
1777560077378898200,3.552898193359375,-43.70625305175781,79.7437515258789,76.3687515258789
1777560077388898000,3.56289794921875,-44.400001525878906,78.65625,79.14375305175781
1777560077398898200,3.572898193359375,-44.94375228881836,80.00625610351562,78.1500015258789
1777560077408898000,3.58289794921875,-44.36250305175781,80.2125015258789,81.26250457763672
1777560077418898200,3.592898193359375,-47.92500305175781,78.95625305175781,81.97500610351562
1777560077428898000,3.60289794921875,-45.82500076293945,80.0250015258789,86.7750015258789
1777560077438898200,3.612898193359375,-47.00625228881836,78.73125457763672,81.3375015258789
1777560077448898000,3.62289794921875,-46.125,81.39375305175781,90.1500015258789
1777560077458898200,3.632898193359375,-48.67500305175781,82.48125457763672,90.86250305175781
1777560077468898000,3.64289794921875,-48.67500305175781,82.48125457763672,90.86250305175781
1777560077478898200,3.652898193359375,-46.96875,79.78125,91.98750305175781
1777560077488898000,3.66289794921875,-48.243751525878906,80.55000305175781,87.78750610351562
1777560077498898200,3.672898193359375,-47.66250228881836,80.64375305175781,89.34375
1777560077508898000,3.68289794921875,-49.031253814697266,81.03750610351562,91.14375305175781
1777560077518898200,3.692898193359375,-49.031253814697266,81.03750610351562,91.14375305175781
1777560077528898000,3.70289794921875,-47.64375305175781,81.03750610351562,89.41875457763672
1777560077538898200,3.712898193359375,-49.462501525878906,81,89.17500305175781
1777560077548898000,3.72289794921875,-45.1875,81.91875457763672,90.375
1777560077558898200,3.732898193359375,-46.16250228881836,80.55000305175781,90.41250610351562
1777560077568898000,3.74289794921875,-46.89375305175781,81.13125610351562,90.13125610351562
1777560077578898200,3.752898193359375,-47.75625228881836,81.97500610351562,89.04375457763672
1777560077588898000,3.76289794921875,-45.20625305175781,81.375,89.28750610351562
1777560077598898200,3.772898193359375,-45.07500076293945,81.13125610351562,90.07500457763672
1777560077608898000,3.78289794921875,-48.22500228881836,81.1875,87.91875457763672
1777560077618898200,3.792898193359375,-45.78750228881836,82.40625,90.3375015258789
1777560077628898000,3.80289794921875,-46.875,80.92500305175781,88.66875457763672
1777560077638898200,3.812898193359375,-45.35625076293945,81.82500457763672,90.63750457763672
1777560077648898000,3.82289794921875,-47.19375228881836,80.60625457763672,89.04375457763672
1777560077658898200,3.832898193359375,-47.47500228881836,81.28125,88.61250305175781
1777560077668898000,3.84289794921875,-46.20000076293945,83.41875457763672,90.39375305175781
1777560077678898200,3.852898193359375,-45.03750228881836,81.76875305175781,90.1875
1777560077688898000,3.86289794921875,-46.01250076293945,80.75625610351562,91.01250457763672
1777560077698898200,3.872898193359375,-44.36250305175781,82.61250305175781,86.66250610351562
1777560077708898000,3.88289794921875,-43.51875305175781,81.97500610351562,89.90625
1777560077718898200,3.892898193359375,-45.22500228881836,80.6812515258789,88.72500610351562
1777560077728898000,3.90289794921875,-46.06875228881836,82.35000610351562,88.21875
1777560077738898200,3.912898193359375,-44.70000076293945,82.23750305175781,88.29375457763672
1777560077748898000,3.92289794921875,-45.91875076293945,82.35000610351562,89.0625
1777560077758898200,3.932898193359375,-46.21875,83.4375,92.23125457763672
1777560077768898000,3.94289794921875,-47.4375,82.3125,88.81875610351562
1777560077778898200,3.952898193359375,-47.00625228881836,82.03125,89.45625305175781
1777560077788898000,3.96289794921875,-46.80000305175781,83.90625,90.375
1777560077798898200,3.972898193359375,-48.525001525878906,82.7437515258789,91.7437515258789
1777560077808898000,3.98289794921875,-48.48750305175781,83.36250305175781,90.01875305175781
1777560077818898200,3.992898193359375,-48.13125228881836,84.28125,89.4937515258789
1777560077828898000,4.00289794921875,-49.20000076293945,83.8687515258789,89.15625
1777560077838898200,4.012898193359375,-49.218753814697266,83.9625015258789,89.88750457763672
1777560077848898000,4.02289794921875,-49.38750076293945,83.08125305175781,88.875
1777560077858898200,4.032898193359375,-49.931251525878906,84.39375305175781,88.57500457763672
1777560077868898000,4.04289794921875,-50.868751525878906,84.20625305175781,89.83125305175781
1777560077878898200,4.052898193359375,-50.400001525878906,84.45000457763672,88.875
1777560077888898000,4.06289794921875,-52.14375305175781,82.59375,89.83125305175781
1777560077898898200,4.072898193359375,-51.187503814697266,83.7750015258789,88.48125457763672
1777560077908898000,4.08289794921875,-51.187503814697266,83.7750015258789,88.48125457763672
1777560077918898200,4.092898193359375,-53.625003814697266,83.41875457763672,88.61250305175781
1777560077928898000,4.10289794921875,-52.53750228881836,84.16875457763672,88.59375
1777560077938898200,4.112898193359375,-52.23750305175781,84.375,90.03750610351562
1777560077948898000,4.12289794921875,-52.33125305175781,85.0875015258789,87.20625305175781
1777560077958898200,4.132898193359375,-50.625003814697266,86.71875,89.0250015258789
1777560077968898000,4.14289794921875,-51.468753814697266,84.20625305175781,88.85625457763672
1777560077978898200,4.152898193359375,-54.35625076293945,83.8125,87.01875305175781
1777560077988898000,4.16289794921875,-53.73750305175781,83.47500610351562,86.38125610351562
1777560077998898200,4.172898193359375,-53.718753814697266,84.7125015258789,88.03125
1777560078008898000,4.18289794921875,-54.806251525878906,84.91875457763672,89.51250457763672
1777560078018898200,4.192898193359375,-54.78750228881836,84.60000610351562,87.31875610351562
1777560078038898200,4.212898193359375,-53.868751525878906,84.45000457763672,87.13125610351562
1777560078048898000,4.22289794921875,-53.70000076293945,84.31875610351562,85.40625
1777560078058898200,4.232898193359375,-54.48750305175781,83.90625,86.75625610351562
1777560078068898000,4.24289794921875,-54.26250076293945,85.9312515258789,87
1777560078078898200,4.252898193359375,-53.19375228881836,86.0625,87.13125610351562
1777560078088898000,4.26289794921875,-52.312503814697266,86.19375610351562,88.8375015258789
1777560078098898200,4.272898193359375,-52.44375228881836,86.13750457763672,87.5625
1777560078108898000,4.28289794921875,-53.85000228881836,85.5,88.3125
1777560078118898200,4.292898193359375,-51.86250305175781,84.41250610351562,84.39375305175781
1777560078128898000,4.30289794921875,-53.17500305175781,86.56875610351562,86.25
1777560078138898200,4.312898193359375,-51.11250305175781,84.30000305175781,85.33125305175781
1777560078148898000,4.32289794921875,-51.468753814697266,87.5250015258789,86.94375610351562
1777560078158898200,4.332898193359375,-51.843753814697266,85.80000305175781,87.0562515258789
1777560078168898000,4.34289794921875,-50.718753814697266,87.46875,86.4937515258789
1777560078178898200,4.352898193359375,-51.187503814697266,86.92500305175781,87.11250305175781
1777560078188898000,4.36289794921875,-49.85625076293945,85.7437515258789,86.70000457763672
1777560078198898200,4.372898193359375,-50.212501525878906,88.10625457763672,85.76250457763672
1777560078208898000,4.38289794921875,-52.10625076293945,87.41250610351562,87.78750610351562
1777560078218898200,4.392898193359375,-51.16875076293945,86.98125457763672,85.70625305175781
1777560078228898000,4.40289794921875,-53.025001525878906,86.51250457763672,86.79375457763672
1777560078238898200,4.412898193359375,-50.55000305175781,87.35625457763672,84.91875457763672
1777560078248898000,4.42289794921875,-52.38750076293945,87.6187515258789,86.71875
1777560078258898200,4.432898193359375,-52.42500305175781,85.44375610351562,84.60000610351562
1777560078268898000,4.44289794921875,-51.16875076293945,87.35625457763672,85.78125
1777560078278898200,4.452898193359375,-51.16875076293945,86.8687515258789,84.97500610351562
1777560078288898000,4.46289794921875,-51.20625305175781,87,87.54375457763672
1777560078298898200,4.472898193359375,-50.66250228881836,88.6500015258789,86.00625610351562
1777560078308898000,4.48289794921875,-51.843753814697266,86.17500305175781,87.82500457763672
1777560078318898200,4.492898193359375,-50.98125076293945,88.10625457763672,85.78125
1777560078328898000,4.50289794921875,-50.212501525878906,88.10625457763672,85.76250457763672
1777560078338898200,4.512898193359375,-50.212501525878906,88.10625457763672,85.76250457763672
1777560078348898000,4.52289794921875,-50.94375228881836,89.79375457763672,87.09375
1777560078358898200,4.532898193359375,-52.23750305175781,87.84375,87.31875610351562
1777560078368898000,4.54289794921875,-51.806251525878906,87.45000457763672,88.06875610351562
1777560078378898200,4.552898193359375,-51.30000305175781,88.3687515258789,87.5250015258789
1777560078388898000,4.56289794921875,-50.66250228881836,89.70000457763672,89.04375457763672
1777560078398898200,4.572898193359375,-51.150001525878906,88.06875610351562,86.34375
1777560078408898000,4.58289794921875,-48.806251525878906,90.01875305175781,86.92500305175781
1777560078418898200,4.592898193359375,-48.337501525878906,90.01875305175781,86.92500305175781
1777560078428898000,4.60289794921875,-48.16875076293945,91.33125305175781,89.13750457763672
1777560078438898200,4.612898193359375,-47.88750076293945,90.26250457763672,87.8062515258789
1777560078448898000,4.62289794921875,-47.17500305175781,89.51250457763672,89.47500610351562
1777560078458898200,4.632898193359375,-47.64375305175781,89.3062515258789,88.875
1777560078468898000,4.64289794921875,-48.30000305175781,91.8375015258789,89.10000610351562
1777560078478898200,4.652898193359375,-48.63750076293945,91.38750457763672,89.4375
1777560078488898000,4.66289794921875,-47.4375,90.58125305175781,88.2750015258789
1777560078498898200,4.672898193359375,-46.63125228881836,91.53750610351562,88.01250457763672
1777560078508898000,4.68289794921875,-45.88125228881836,91.7437515258789,89.4375
1777560078518898200,4.692898193359375,-44.98125076293945,90.63750457763672,86.94375610351562
1777560078528898000,4.70289794921875,-47.25,91.57500457763672,89.0250015258789
1777560078538898200,4.712898193359375,-44.0625,91.7437515258789,89.4000015258789
1777560078548898000,4.72289794921875,-44.681251525878906,92.0625,90.73125457763672
1777560078558898200,4.732898193359375,-44.25,91.33125305175781,91.72500610351562
1777560078568898000,4.74289794921875,-43.61250305175781,92.00625610351562,91.2750015258789
1777560078578898200,4.752898193359375,-43.63125228881836,92.55000305175781,93.20625305175781
1777560078588898000,4.76289794921875,-41.98125076293945,91.42500305175781,92.38125610351562
1777560078598898200,4.772898193359375,-41.681251525878906,91.89375305175781,93.88125610351562
1777560078608898000,4.78289794921875,-41.19375228881836,92.41875457763672,93.26250457763672
1777560078618898200,4.792898193359375,-40.275001525878906,92.13750457763672,92.19375610351562
1777560078628898000,4.80289794921875,-42.11250305175781,91.29375457763672,90.67500305175781
1777560078638898200,4.812898193359375,-41.94375228881836,92.25,92.1187515258789
1777560078648898000,4.82289794921875,-41.962501525878906,92.17500305175781,93.22500610351562
1777560078658898200,4.832898193359375,-40.181251525878906,90.88125610351562,92.94375610351562
1777560078668898000,4.84289794921875,-38.45625305175781,92.0250015258789,91.40625
1777560078678898200,4.852898193359375,-40.44375228881836,91.20000457763672,90.88125610351562
1777560078688898000,4.86289794921875,-40.44375228881836,91.4625015258789,90.9375
1777560078698898200,4.872898193359375,-40.14375305175781,92.04375457763672,92.45625305175781
1777560078708898000,4.88289794921875,-38.90625,92.19375610351562,91.7437515258789
1777560078718898200,4.892898193359375,-38.17500305175781,91.48125457763672,91.16250610351562
1777560078728898000,4.90289794921875,-38.15625,91.8375015258789,90.9375
1777560078738898200,4.912898193359375,-38.04375076293945,90.73125457763672,91.16250610351562
1777560078748898000,4.92289794921875,-37.5,89.0250015258789,91.38750457763672
1777560078758898200,4.932898193359375,-37.44375228881836,90.0562515258789,89.88750457763672
1777560078768898000,4.94289794921875,-37.44375228881836,90.0562515258789,89.88750457763672
1777560078778898200,4.952898193359375,-35.025001525878906,91.20000457763672,94.40625
1777560078788898000,4.96289794921875,-35.025001525878906,91.20000457763672,94.40625
1777560078798898200,4.972898193359375,-39.69375228881836,91.3125,91.59375
1777560078808898000,4.98289794921875,-35.8125,89.92500305175781,92.4937515258789
1777560078818898200,4.992898193359375,-36.618751525878906,88.40625,92.23125457763672
1777560078828898000,5.00289794921875,-34.23750305175781,91.06875610351562,91.81875610351562
1777560078838898200,5.012898193359375,-35.45625305175781,91.70625305175781,93.5250015258789
1777560078848898000,5.02289794921875,-34.42500305175781,90.09375,91.9312515258789
1777560078858898200,5.032898193359375,-36.73125076293945,90.35625457763672,93.73125457763672
1777560078868898000,5.04289794921875,-34.44375228881836,90.20625305175781,92.66250610351562
1777560078878898200,5.052898193359375,-34.76250076293945,89.7750015258789,93.1500015258789
1777560078888898000,5.06289794921875,-35.83125305175781,89.32500457763672,92.66250610351562
1777560078898898200,5.072898193359375,-34.35000228881836,86.92500305175781,88.91250610351562
1777560078908898000,5.08289794921875,-32.8125,88.10625457763672,90.22500610351562
1777560078918898200,5.092898193359375,-33.97500228881836,88.42500305175781,88.21875
1777560078928898000,5.10289794921875,-34.40625,90.63750457763672,91.33125305175781
1777560078938898200,5.112898193359375,-33.39375305175781,88.42500305175781,89.04375457763672
1777560078948898000,5.12289794921875,-34.05000305175781,88.10625457763672,92.8125
1777560078958898200,5.132898193359375,-36.03750228881836,88.91250610351562,94.85625457763672
1777560078968898000,5.14289794921875,-37.23750305175781,89.4000015258789,95.6812515258789
1777560078978898200,5.152898193359375,-37.10625076293945,89.83125305175781,97.72500610351562
1777560078988898000,5.16289794921875,-37.42500305175781,89.66250610351562,99.11250305175781
1777560078998898200,5.172898193359375,-38.90625,90.63750457763672,99.07500457763672
1777560079008898000,5.18289794921875,-39.75,88.2750015258789,98.2125015258789
1777560079018898200,5.192898193359375,-39.82500076293945,90.8062515258789,99.26250457763672
1777560079028898000,5.20289794921875,-41.55000305175781,89.94375610351562,101.1187515258789
1777560079038898200,5.212898193359375,-43.35000228881836,90.28125,99.95625305175781
1777560079048898000,5.22289794921875,-42.91875076293945,89.45625305175781,100.21875762939453
1777560079058898200,5.232898193359375,-44.53125,91.6875,101.81250762939453
1777560079068898000,5.24289794921875,-44.45625305175781,89.71875,102.00000762939453
1777560079078898200,5.252898193359375,-45.337501525878906,90.26250457763672,100.57500457763672
1777560079088898000,5.26289794921875,-45.91875076293945,90.09375,98.5875015258789
1777560079098898200,5.272898193359375,-46.42500305175781,88.61250305175781,98.73750305175781
1777560079108898000,5.28289794921875,-46.40625,89.51250457763672,98.90625762939453
1777560079118898200,5.292898193359375,-48.07500076293945,88.81875610351562,97.5562515258789
1777560079128898000,5.30289794921875,-46.5,87.46875,90.0562515258789
1777560079138898200,5.312898193359375,-46.85625076293945,86.83125305175781,92.47500610351562
1777560079148898000,5.32289794921875,-47.493751525878906,89.71875,90.9375
1777560079158898200,5.332898193359375,-46.931251525878906,87.3375015258789,88.20000457763672
1777560079168898000,5.34289794921875,-49.23750305175781,88.16250610351562,91.23750305175781
1777560079178898200,5.352898193359375,-47.73750305175781,86.5875015258789,89.0625
1777560079188898000,5.36289794921875,-47.400001525878906,86.53125,86.92500305175781
1777560079198898200,5.372898193359375,-47.400001525878906,86.53125,86.92500305175781
1777560079208898000,5.38289794921875,-52.10625076293945,85.33125305175781,93.1875
1777560079218898200,5.392898193359375,-49.275001525878906,87.9375,94.03125
1777560079228898000,5.40289794921875,-52.85625076293945,86.28750610351562,95.4937515258789
1777560079238898200,5.412898193359375,-53.250003814697266,83.71875,95.0250015258789
1777560079248898000,5.42289794921875,-55.91250228881836,85.66875457763672,95.45625305175781
1777560079258898200,5.432898193359375,-57.937503814697266,85.03125,97.0875015258789
1777560079268898000,5.44289794921875,-56.681251525878906,86.3062515258789,98.13750457763672
1777560079278898200,5.452898193359375,-57.937503814697266,85.78125,99.63750457763672
1777560079288898000,5.46289794921875,-59.32500076293945,84.78750610351562,97.9312515258789
1777560079298898200,5.472898193359375,-59.88750076293945,85.6875,97.2750015258789
1777560079308898000,5.48289794921875,-57.45000076293945,86.38125610351562,98.60625457763672
1777560079318898200,5.492898193359375,-56.41875076293945,84.91875457763672,96.31875610351562
1777560079328898000,5.50289794921875,-57.13125228881836,85.89375305175781,96.09375762939453
1777560079338898200,5.512898193359375,-56.718753814697266,84.8062515258789,96.45000457763672
1777560079348898000,5.52289794921875,-59.55000305175781,87.45000457763672,99.1500015258789
1777560079358898200,5.532898193359375,-57.91875076293945,86.85000610351562,100.96875762939453
1777560079368898000,5.54289794921875,-57.54375076293945,87.69375610351562,98.28750610351562
1777560079378898200,5.552898193359375,-57.45000076293945,87.26250457763672,100.4625015258789
1777560079388898000,5.56289794921875,-57.656253814697266,89.32500457763672,99.16875457763672
1777560079398898200,5.572898193359375,-57.20625305175781,85.4625015258789,99.97500610351562
1777560079408898000,5.58289794921875,-56.718753814697266,85.48125457763672,98.41875457763672
1777560079418898200,5.592898193359375,-58.35000228881836,86.90625,98.8687515258789
1777560079428898000,5.60289794921875,-58.81875228881836,86.2125015258789,97.48125457763672
1777560079438898200,5.612898193359375,-57.88125228881836,86.2125015258789,96.60000610351562
1777560079448898000,5.62289794921875,-59.47500228881836,85.20000457763672,98.15625762939453
1777560079458898200,5.632898193359375,-60.35625076293945,85.21875,96.6187515258789
1777560079468898000,5.64289794921875,-58.70625305175781,84.30000305175781,96.26250457763672
1777560079478898200,5.652898193359375,-59.47500228881836,84.9375,98.10000610351562
1777560079488898000,5.66289794921875,-60.712501525878906,82.70625305175781,93.9000015258789
1777560079498898200,5.672898193359375,-60.056251525878906,83.70000457763672,93.07500457763672
1777560079508898000,5.68289794921875,-60.618751525878906,85.6500015258789,94.4625015258789
1777560079518898200,5.692898193359375,-61.42500305175781,84.41250610351562,94.51875305175781
1777560079528898000,5.70289794921875,-60.07500076293945,84.58125305175781,96.48750305175781
1777560079538898200,5.712898193359375,-60.337501525878906,85.01250457763672,95.17500305175781
1777560079548898000,5.72289794921875,-60.937503814697266,85.3687515258789,95.1187515258789
1777560079558898200,5.732898193359375,-62.47500228881836,86.4000015258789,99.58125305175781
1777560079568898000,5.74289794921875,-61.593753814697266,85.5,98.55000305175781
1777560079578898200,5.752898193359375,-61.875003814697266,85.16250610351562,96.22500610351562
1777560079588898000,5.76289794921875,-61.087501525878906,84.8062515258789,93.75
1777560079598898200,5.772898193359375,-61.66875076293945,86.51250457763672,96.0562515258789
1777560079608898000,5.78289794921875,-60.375003814697266,83.8125,93.82500457763672
1777560079618898200,5.792898193359375,-60.58125305175781,86.1187515258789,93.41250610351562
1777560079628898000,5.80289794921875,-60.16875076293945,85.20000457763672,93.9375
1777560079638898200,5.812898193359375,-60.16875076293945,85.20000457763672,93.9375
1777560079648898000,5.82289794921875,-59.531253814697266,86.5875015258789,95.73750305175781
1777560079658898200,5.832898193359375,-60.150001525878906,86.9625015258789,97.51875305175781
1777560079668898000,5.84289794921875,-59.062503814697266,87.65625,97.89375305175781
1777560079678898200,5.852898193359375,-57.843753814697266,88.5,99.4312515258789
1777560079688898000,5.86289794921875,-58.218753814697266,87.01875305175781,100.44375610351562
1777560079698898200,5.872898193359375,-57.58125305175781,87.69375610351562,99.9937515258789
1777560079708898000,5.88289794921875,-56.83125305175781,87.375,100.33125305175781
1777560079718898200,5.892898193359375,-57.431251525878906,87.13125610351562,99.45000457763672
1777560079728898000,5.90289794921875,-56.962501525878906,87.97500610351562,101.00625610351562
1777560079738898200,5.912898193359375,-56.812503814697266,88.01250457763672,100.44375610351562
1777560079748898000,5.92289794921875,-55.406253814697266,88.78125,99.7125015258789
1777560079758898200,5.932898193359375,-54.03750228881836,88.53750610351562,99.76875305175781
1777560079768898000,5.94289794921875,-54.48750305175781,89.88750457763672,102.1500015258789
1777560079778898200,5.952898193359375,-53.962501525878906,88.21875,104.51250457763672
1777560079788898000,5.96289794921875,-53.775001525878906,88.95000457763672,102.67500305175781
1777560079798898200,5.972898193359375,-53.025001525878906,88.23750305175781,102.09375762939453
1777560079808898000,5.98289794921875,-51.35625076293945,89.64375305175781,105.69375610351562
1777560079818898200,5.992898193359375,-50.118751525878906,89.32500457763672,103.48125457763672
1777560079828898000,6.00289794921875,-49.781253814697266,89.90625,103.31250762939453
1777560079838898200,6.012898193359375,-49.20000076293945,89.6812515258789,103.38750457763672
1777560079848898000,6.02289794921875,-50.812503814697266,91.3125,104.3062515258789
1777560079858898200,6.032898193359375,-50.587501525878906,89.85000610351562,105.4312515258789
1777560079868898000,6.04289794921875,-49.968753814697266,89.4937515258789,103.80000305175781
1777560079878898200,6.052898193359375,-50.118751525878906,88.72500610351562,101.9625015258789
1777560079888898000,6.06289794921875,-49.33125305175781,89.41875457763672,102.50625610351562
1777560079898898200,6.072898193359375,-48.86250305175781,89.36250305175781,101.19375610351562
1777560079908898000,6.08289794921875,-49.312503814697266,90.45000457763672,102.69375610351562
1777560079918898200,6.092898193359375,-52.218753814697266,89.47500610351562,102.01875305175781
1777560079928898000,6.10289794921875,-49.29375076293945,91.125,103.10625457763672
1777560079938898200,6.112898193359375,-48.82500076293945,91.2750015258789,103.25625610351562
1777560079948898000,6.12289794921875,-48.41250228881836,90.20625305175781,102.76875305175781
1777560079958898200,6.132898193359375,-48.35625076293945,90.0562515258789,99.20625305175781
1777560079968898000,6.14289794921875,-50.025001525878906,91.23750305175781,102.1500015258789
1777560079978898200,6.152898193359375,-48.993751525878906,90.63750457763672,102.30000305175781
1777560079988898000,6.16289794921875,-49.76250076293945,90.5625,103.42500305175781
1777560079998898200,6.172898193359375,-48.468753814697266,91.66875457763672,100.78125762939453
1777560080008898000,6.18289794921875,-46.81875228881836,91.59375,101.15625762939453
1777560080018898200,6.192898193359375,-47.625,90.41250610351562,101.66250610351562
1777560080028898000,6.20289794921875,-48.30000305175781,92.45625305175781,101.08125305175781
1777560080038898200,6.212898193359375,-48.056251525878906,90.46875,100.25625610351562
1777560080048898000,6.22289794921875,-49.687503814697266,91.3125,100.05000305175781
1777560080058898200,6.232898193359375,-50.587501525878906,92.51250457763672,101.41875457763672
1777560080068898000,6.24289794921875,-50.587501525878906,92.51250457763672,101.41875457763672
1777560080078898200,6.252898193359375,-50.306251525878906,91.70625305175781,101.98125457763672
1777560080088898000,6.26289794921875,-49.218753814697266,91.35000610351562,98.62500762939453
1777560080098898200,6.272898193359375,-48.468753814697266,91.5562515258789,100.05000305175781
1777560080108898000,6.28289794921875,-48.30000305175781,92.0250015258789,99.86250305175781
1777560080118898200,6.292898193359375,-49.837501525878906,91.38750457763672,99.78750610351562
1777560080128898000,6.30289794921875,-49.781253814697266,93.31875610351562,100.14375305175781
1777560080138898200,6.312898193359375,-48.86250305175781,92.66250610351562,99.1500015258789
1777560080148898000,6.32289794921875,-48.76875305175781,91.81875610351562,100.96875762939453
1777560080158898200,6.332898193359375,-48.88125228881836,92.47500610351562,99.54375457763672
1777560080168898000,6.34289794921875,-48.712501525878906,92.66250610351562,98.3062515258789
1777560080178898200,6.352898193359375,-48.26250076293945,91.81875610351562,96.7125015258789
1777560080188898000,6.36289794921875,-50.70000076293945,92.2125015258789,97.70625305175781
1777560080198898200,6.372898193359375,-49.593753814697266,93,97.12500762939453
1777560080208898000,6.38289794921875,-52.14375305175781,93.1875,95.8125
1777560080218898200,6.392898193359375,-51.41250228881836,92.47500610351562,95.23125457763672
1777560080228898000,6.40289794921875,-54.187503814697266,92.17500305175781,97.3687515258789
1777560080238898200,6.412898193359375,-55.10625076293945,91.42500305175781,95.70000457763672
1777560080248898000,6.42289794921875,-54.48750305175781,92.4375,97.42500305175781
1777560080258898200,6.432898193359375,-55.406253814697266,92.45625305175781,98.43750762939453
1777560080268898000,6.44289794921875,-54.35625076293945,91.05000305175781,95.60625457763672
1777560080278898200,6.452898193359375,-57.993751525878906,91.40625,96.3375015258789
1777560080288898000,6.46289794921875,-58.95000076293945,91.20000457763672,98.28750610351562
1777560080298898200,6.472898193359375,-57.375003814697266,90.20625305175781,91.57500457763672
1777560080308898000,6.48289794921875,-59.025001525878906,91.8375015258789,95.0250015258789
1777560080318898200,6.492898193359375,-59.343753814697266,91.03125,93.75
1777560080328898000,6.50289794921875,-61.98750305175781,90.1875,95.64375305175781
1777560080338898200,6.512898193359375,-59.94375228881836,90.65625,92.85000610351562
1777560080348898000,6.52289794921875,-61.48125076293945,90.50625610351562,93.5625
1777560080358898200,6.532898193359375,-64.23750305175781,90.20625305175781,94.01250457763672
1777560080368898000,6.54289794921875,-64.57500457763672,88.81875610351562,93.0562515258789
1777560080378898200,6.552898193359375,-64.20000457763672,91.2750015258789,94.5
1777560080388898000,6.56289794921875,-64.25625610351562,89.32500457763672,92.28750610351562
1777560080398898200,6.572898193359375,-64.23750305175781,89.6812515258789,92.08125305175781
1777560080408898000,6.58289794921875,-65.625,89.4000015258789,92.75625610351562
1777560080418898200,6.592898193359375,-63.618751525878906,89.71875,91.5
1777560080428898000,6.60289794921875,-67.1812515258789,88.125,92.56875610351562
1777560080438898200,6.612898193359375,-63.95625305175781,87.97500610351562,89.75625610351562
1777560080448898000,6.62289794921875,-66.39375305175781,88.125,90
1777560080458898200,6.632898193359375,-65.66250610351562,88.05000305175781,92.08125305175781
1777560080468898000,6.64289794921875,-66.69375610351562,87.3375015258789,88.03125
1777560080478898200,6.652898193359375,-67.14375305175781,88.03125,89.28750610351562
1777560080488898000,6.66289794921875,-66.07500457763672,87.01875305175781,86.6812515258789
1777560080498898200,6.672898193359375,-66.07500457763672,87.01875305175781,86.6812515258789
1777560080508898000,6.68289794921875,-66.0562515258789,87.91875457763672,86.85000610351562
1777560080518898200,6.692898193359375,-68.25,86.8125,88.66875457763672
1777560080528898000,6.70289794921875,-66.84375,86.5875015258789,86.19375610351562
1777560080538898200,6.712898193359375,-66.82500457763672,87.07500457763672,85.29375457763672
1777560080548898000,6.72289794921875,-65.36250305175781,89.94375610351562,86.23125457763672
1777560080558898200,6.732898193359375,-65.4375,88.25625610351562,87.45000457763672
1777560080568898000,6.74289794921875,-67.3687515258789,89.00625610351562,86.51250457763672
1777560080578898200,6.752898193359375,-65.0250015258789,90.9000015258789,86.83125305175781
1777560080588898000,6.76289794921875,-62.94375228881836,90.31875610351562,87.91875457763672
1777560080598898200,6.772898193359375,-64.1812515258789,89.08125305175781,86.3062515258789
1777560080608898000,6.78289794921875,-64.29375457763672,90,86.625
1777560080618898200,6.792898193359375,-62.92500305175781,91.06875610351562,88.78125
1777560080628898000,6.80289794921875,-63.41250228881836,93.46875,87.26250457763672
1777560080638898200,6.812898193359375,-62.587501525878906,91.63125610351562,88.44375610351562
1777560080648898000,6.82289794921875,-64.35000610351562,93.5625,88.875
1777560080658898200,6.832898193359375,-63.806251525878906,90.54375457763672,86.00625610351562
1777560080668898000,6.84289794921875,-64.51875305175781,93,88.33125305175781
1777560080678898200,6.852898193359375,-63.50625228881836,91.59375,89.0250015258789
1777560080688898000,6.86289794921875,-64.53750610351562,91.44375610351562,86.2125015258789
1777560080698898200,6.872898193359375,-63.63750076293945,91.7437515258789,87.50625610351562
1777560080708898000,6.88289794921875,-63.468753814697266,91.81875610351562,86.25
1777560080718898200,6.892898193359375,-63.31875228881836,90.1500015258789,82.53750610351562
1777560080728898000,6.90289794921875,-63.468753814697266,90.20625305175781,81.9937515258789
1777560080738898200,6.912898193359375,-64.3687515258789,90.31875610351562,81.9000015258789
1777560080748898000,6.92289794921875,-63.35625076293945,90.26250457763672,85.80000305175781
1777560080758898200,6.932898193359375,-64.10625457763672,89.98125457763672,83.94375610351562
1777560080768898000,6.94289794921875,-63.69375228881836,92.60625457763672,83.15625
1777560080778898200,6.952898193359375,-64.3687515258789,92.19375610351562,86.2125015258789
1777560080788898000,6.96289794921875,-64.10625457763672,90.9000015258789,85.95000457763672
1777560080798898200,6.972898193359375,-64.10625457763672,90.9375,86.25
1777560080808898000,6.98289794921875,-63.73125076293945,92.13750457763672,84.20625305175781
1777560080818898200,6.992898193359375,-62.868751525878906,92.0625,87.13125610351562
1777560080828898000,7.00289794921875,-65.13750457763672,92.4000015258789,87.67500305175781
1777560080838898200,7.012898193359375,-64.16250610351562,93.78750610351562,86.92500305175781
1777560080848898000,7.02289794921875,-64.35000610351562,92.1187515258789,85.76250457763672
1777560080858898200,7.032898193359375,-63.562503814697266,93.9937515258789,87.50625610351562
1777560080868898000,7.04289794921875,-64.44375610351562,94.96875,88.98750305175781
1777560080878898200,7.052898193359375,-60.48750305175781,94.98750305175781,88.33125305175781
1777560080888898000,7.06289794921875,-59.60625076293945,93.82500457763672,87.2437515258789
1777560080898898200,7.072898193359375,-62.156253814697266,95.5875015258789,89.04375457763672
1777560080908898000,7.08289794921875,-61.66875076293945,97.03125762939453,91.29375457763672
1777560080918898200,7.092898193359375,-60.337501525878906,96.28125762939453,91.25625610351562
1777560080928898000,7.10289794921875,-60.95625305175781,95.6812515258789,90.60000610351562
1777560080938898200,7.112898193359375,-60.95625305175781,95.6812515258789,90.60000610351562
1777560080948898000,7.12289794921875,-59.60625076293945,96.26250457763672,93.76875305175781
1777560080958898200,7.132898193359375,-61.29375076293945,95.41875457763672,93.09375
1777560080968898000,7.14289794921875,-57.39375305175781,97.80000305175781,92.3062515258789
1777560080978898200,7.152898193359375,-57.712501525878906,97.16250610351562,91.35000610351562
1777560080988898000,7.16289794921875,-58.95000076293945,97.2750015258789,92.9625015258789
1777560080998898200,7.172898193359375,-57.16875076293945,96.41250610351562,93.88125610351562
1777560081008898000,7.18289794921875,-59.400001525878906,98.43750762939453,95.0250015258789
1777560081018898200,7.192898193359375,-57.45000076293945,96.73125457763672,93.5250015258789
1777560081028898000,7.20289794921875,-57.07500076293945,98.8687515258789,93.63750457763672
1777560081038898200,7.212898193359375,-54.337501525878906,99.39375305175781,94.80000305175781
1777560081048898000,7.22289794921875,-55.61250305175781,98.34375762939453,96.03750610351562
1777560081058898200,7.232898193359375,-54.20625305175781,98.5875015258789,94.35000610351562
1777560081068898000,7.24289794921875,-54.937503814697266,99.97500610351562,95.34375
1777560081078898200,7.252898193359375,-51.88125228881836,99.86250305175781,94.53750610351562
1777560081088898000,7.26289794921875,-51.618751525878906,99.5250015258789,96.58125305175781
1777560081098898200,7.272898193359375,-53.13750076293945,99.31875610351562,95.17500305175781
1777560081108898000,7.28289794921875,-52.368751525878906,99.16875457763672,94.14375305175781
1777560081118898200,7.292898193359375,-52.368751525878906,99.86250305175781,97.0875015258789
1777560081128898000,7.30289794921875,-49.931251525878906,99.76875305175781,95.73750305175781
1777560081138898200,7.312898193359375,-52.06875228881836,99.11250305175781,95.38125610351562
1777560081148898000,7.32289794921875,-50.812503814697266,100.70625305175781,96.07500457763672
1777560081158898200,7.332898193359375,-50.250003814697266,99.58125305175781,96.13125610351562
1777560081168898000,7.34289794921875,-50.025001525878906,101.1187515258789,94.72500610351562
1777560081178898200,7.352898193359375,-49.125003814697266,100.91250610351562,94.95000457763672
1777560081188898000,7.36289794921875,-49.312503814697266,100.40625762939453,96.69375610351562
1777560081198898200,7.372898193359375,-49.29375076293945,101.06250762939453,96.8062515258789
1777560081208898000,7.38289794921875,-48.093753814697266,100.4625015258789,97.0875015258789
1777560081218898200,7.392898193359375,-48.82500076293945,101.00625610351562,96.50625610351562
1777560081228898000,7.40289794921875,-48.375003814697266,99.88125610351562,93.88125610351562
1777560081238898200,7.412898193359375,-48.50625228881836,100.72500610351562,94.61250305175781
1777560081248898000,7.42289794921875,-47.79375076293945,99.3375015258789,93.6187515258789
1777560081258898200,7.432898193359375,-46.44375228881836,98.79375457763672,93.3375015258789
1777560081268898000,7.44289794921875,-45.9375,99.35625457763672,91.1812515258789
1777560081278898200,7.452898193359375,-46.181251525878906,100.57500457763672,90.9937515258789
1777560081288898000,7.46289794921875,-45.50625228881836,98.1187515258789,89.51250457763672
1777560081298898200,7.472898193359375,-45.150001525878906,99.3375015258789,89.32500457763672
1777560081308898000,7.48289794921875,-45.16875076293945,98.75625610351562,89.625
1777560081318898200,7.492898193359375,-46.23750305175781,99.86250305175781,92.98125457763672
1777560081328898000,7.50289794921875,-42.22500228881836,100.06875610351562,89.23125457763672
1777560081338898200,7.512898193359375,-46.01250076293945,101.47500610351562,92.00625610351562
1777560081348898000,7.52289794921875,-46.06875228881836,101.2125015258789,94.5
1777560081358898200,7.532898193359375,-46.275001525878906,103.61250305175781,93.82500457763672
1777560081368898000,7.54289794921875,-46.275001525878906,103.61250305175781,93.82500457763672
1777560081378898200,7.552898193359375,-45.900001525878906,101.85000610351562,95.45625305175781
1777560081388898000,7.56289794921875,-47.118751525878906,101.47500610351562,94.57500457763672
1777560081398898200,7.572898193359375,-47.32500076293945,99.82500457763672,94.40625
1777560081408898000,7.58289794921875,-46.25625228881836,99.7125015258789,93.65625
1777560081418898200,7.592898193359375,-47.73750305175781,101.06250762939453,94.3687515258789
1777560081428898000,7.60289794921875,-48.76875305175781,101.51250457763672,93.07500457763672
1777560081438898200,7.612898193359375,-49.593753814697266,99.58125305175781,92.73750305175781
1777560081448898000,7.62289794921875,-51.375003814697266,101.4937515258789,94.6875
1777560081458898200,7.632898193359375,-50.868751525878906,99.03750610351562,95.75625610351562
1777560081468898000,7.64289794921875,-52.687503814697266,99.03750610351562,95.8125
1777560081478898200,7.652898193359375,-52.70625305175781,98.00625610351562,94.63125610351562
1777560081488898000,7.66289794921875,-55.087501525878906,100.25625610351562,96.39375305175781
1777560081498898200,7.672898193359375,-55.16250228881836,98.32500457763672,96.01875305175781
1777560081508898000,7.68289794921875,-57.11250305175781,99.56250762939453,98.43750762939453
1777560081518898200,7.692898193359375,-56.962501525878906,99.01875305175781,97.33125305175781
1777560081528898000,7.70289794921875,-57.73125076293945,98.4937515258789,96.26250457763672
1777560081538898200,7.712898193359375,-58.66875076293945,98.81250762939453,99.31875610351562
1777560081548898000,7.72289794921875,-57.86250305175781,98.81250762939453,95.0625
1777560081558898200,7.732898193359375,-60.60000228881836,98.62500762939453,94.53750610351562
1777560081568898000,7.74289794921875,-61.087501525878906,97.50000762939453,93.6187515258789
1777560081578898200,7.752898193359375,-60.58125305175781,98.3062515258789,92.34375
1777560081588898000,7.76289794921875,-62.70000076293945,98.53125762939453,93.01875305175781
1777560081598898200,7.772898193359375,-63.337501525878906,97.14375305175781,91.21875
1777560081608898000,7.78289794921875,-64.10625457763672,97.40625762939453,92.98125457763672
1777560081618898200,7.792898193359375,-65.0250015258789,97.25625610351562,92.83125305175781
1777560081628898000,7.80289794921875,-64.91250610351562,95.71875,91.6875
1777560081638898200,7.812898193359375,-66.48750305175781,94.5562515258789,92.2125015258789
1777560081648898000,7.82289794921875,-66.58125305175781,96.84375762939453,94.20000457763672
1777560081658898200,7.832898193359375,-66,96.1500015258789,94.63125610351562
1777560081668898000,7.84289794921875,-65.6812515258789,96.09375762939453,92.4937515258789
1777560081678898200,7.852898193359375,-67.63125610351562,95.98125457763672,90.82500457763672
1777560081688898000,7.86289794921875,-69.1875,94.59375,89.90625
1777560081698898200,7.872898193359375,-67.96875,95.51250457763672,92.71875
1777560081708898000,7.88289794921875,-69.76875305175781,95.94375610351562,91.44375610351562
1777560081718898200,7.892898193359375,-69.1875,94.59375,89.90625
1777560081728898000,7.90289794921875,-70.21875,95.47500610351562,89.94375610351562
1777560081738898200,7.912898193359375,-71.15625,94.5,89.23125457763672
1777560081748898000,7.92289794921875,-69.91875457763672,94.66875457763672,87.8062515258789
1777560081758898200,7.932898193359375,-69.60000610351562,94.78125,86.83125305175781
1777560081768898000,7.94289794921875,-66.82500457763672,96.30000305175781,88.7437515258789
1777560081778898200,7.952898193359375,-67.59375,97.3687515258789,91.80000305175781
1777560081788898000,7.96289794921875,-68.8125,96.48750305175781,89.9625015258789
1777560081798898200,7.972898193359375,-68.19375610351562,96.60000610351562,89.1187515258789
1777560081808898000,7.98289794921875,-68.19375610351562,96.60000610351562,89.1187515258789
1777560081818898200,7.992898193359375,-67.5562515258789,97.68750762939453,89.73750305175781
1777560081828898000,8.00289794921875,-66.50625610351562,97.7437515258789,91.8375015258789
1777560081838898200,8.012898193359375,-66.3375015258789,98.23125457763672,91.78125
1777560081848898000,8.02289794921875,-66.6187515258789,99.09375762939453,91.66875457763672
1777560081858898200,8.032898193359374,-63.900001525878906,98.70000457763672,92.38125610351562
1777560081868898000,8.04289794921875,-63.58125305175781,98.8687515258789,91.8375015258789
1777560081878898200,8.052898193359376,-67.96875,99.9937515258789,92.73750305175781
1777560081888898000,8.06289794921875,-66.76875305175781,98.92500305175781,91.3687515258789
1777560081898898200,8.072898193359375,-67.3687515258789,97.85625457763672,87.50625610351562
1777560081908898000,8.08289794921875,-64.3687515258789,97.48125457763672,89.19375610351562
1777560081918898200,8.092898193359375,-66.48750305175781,98.64375305175781,92.00625610351562
1777560081928898000,8.10289794921875,-68.66250610351562,96.82500457763672,90.58125305175781
1777560081938898200,8.112898193359374,-69.35625457763672,97.72500610351562,88.23750305175781
1777560081948898000,8.12289794921875,-70.40625,97.81875610351562,87.1500015258789
1777560081958898200,8.132898193359376,-68.98125457763672,95.34375,87.35625457763672
1777560081968898000,8.14289794921875,-68.92500305175781,97.01250457763672,87.67500305175781
1777560081978898200,8.152898193359375,-68.92500305175781,96.28125762939453,86.83125305175781
1777560081988898000,8.16289794921875,-68.85000610351562,99.4312515258789,89.6812515258789
1777560081998898200,8.172898193359375,-68.7750015258789,97.50000762939453,90.1500015258789
1777560082008898000,8.18289794921875,-68.7750015258789,97.76250457763672,90.20625305175781
1777560082018898200,8.192898193359374,-69.30000305175781,99.95625305175781,90.78750610351562
1777560082028898000,8.20289794921875,-67.96875,98.7750015258789,90.375
1777560082038898200,8.212898193359376,-68.55000305175781,100.2750015258789,91.25625610351562
1777560082048898000,8.22289794921875,-69.07500457763672,98.45625305175781,92.47500610351562
1777560082058898200,8.232898193359375,-68.28750610351562,98.28750610351562,89.5875015258789
1777560082068898000,8.24289794921875,-68.25,99.35625457763672,90.07500457763672
1777560082078898200,8.252898193359375,-70.06875610351562,99.37500762939453,89.28750610351562
1777560082088898000,8.26289794921875,-68.8687515258789,99.54375457763672,90.41250610351562
1777560082098898200,8.272898193359374,-67.96875,99.63750457763672,91.95000457763672
1777560082108898000,8.28289794921875,-66.48750305175781,100.3687515258789,96.9937515258789
1777560082118898200,8.292898193359376,-66.4312515258789,101.70000457763672,95.83125305175781
1777560082128898000,8.30289794921875,-65.88750457763672,100.61250305175781,97.87500762939453
1777560082138898200,8.312898193359375,-64.0875015258789,102.78750610351562,94.85625457763672
1777560082148898000,8.32289794921875,-63.337501525878906,102.5250015258789,94.78125
1777560082158898200,8.332898193359375,-63.50625228881836,101.9625015258789,94.25625610351562
1777560082168898000,8.34289794921875,-63.01875305175781,103.29375457763672,95.7750015258789
1777560082178898200,8.352898193359374,-62.250003814697266,103.23750305175781,95.3062515258789
1777560082188898000,8.36289794921875,-61.05000305175781,104.34375762939453,98.73750305175781
1777560082198898200,8.372898193359376,-61.63125228881836,105.28125762939453,100.06875610351562
1777560082208898000,8.38289794921875,-61.23750305175781,104.23125457763672,101.4000015258789
1777560082218898200,8.392898193359375,-59.343753814697266,106.0875015258789,101.28750610351562
1777560082228898000,8.40289794921875,-59.343753814697266,106.0875015258789,101.28750610351562
1777560082238898200,8.412898193359375,-57.900001525878906,104.70000457763672,102.11250305175781
1777560082248898000,8.42289794921875,-56.45625305175781,106.91250610351562,103.63125610351562
1777560082258898200,8.432898193359375,-55.275001525878906,105.60000610351562,102.20625305175781
1777560082268898000,8.44289794921875,-53.118751525878906,105.2437515258789,98.98125457763672
1777560082278898200,8.452898193359376,-53.775001525878906,104.45625305175781,100.40625762939453
1777560082288898000,8.46289794921875,-52.968753814697266,106.59375762939453,102.3375015258789
1777560082298898200,8.472898193359375,-55.35000228881836,107.60625457763672,102.31875610351562
1777560082318898200,8.492898193359375,-51.618751525878906,104.70000457763672,99.54375457763672
1777560082328898000,8.50289794921875,-52.44375228881836,107.04375457763672,99.45000457763672
1777560082338898200,8.512898193359375,-52.593753814697266,107.60625457763672,99.84375762939453
1777560082348898000,8.52289794921875,-51.39375305175781,106.85625457763672,99.8062515258789
1777560082358898200,8.532898193359374,-50.75625228881836,108.39375305175781,100.9312515258789
1777560082368898000,8.54289794921875,-51.50625228881836,108.50625610351562,101.6812515258789
1777560082378898200,8.552898193359376,-49.38750076293945,107.85000610351562,100.6500015258789
1777560082388898000,8.56289794921875,-48.431251525878906,109.12500762939453,100.03125762939453
1777560082398898200,8.572898193359375,-50.75625228881836,107.85000610351562,99.84375762939453
1777560082408898000,8.58289794921875,-48.337501525878906,107.62500762939453,100.85625457763672
1777560082418898200,8.592898193359375,-48.431251525878906,108.65625762939453,98.53125762939453
1777560082428898000,8.60289794921875,-48.54375076293945,108.97500610351562,97.31250762939453
1777560082438898200,8.612898193359374,-48.093753814697266,110.19375610351562,100.50000762939453
1777560082448898000,8.62289794921875,-47.83125305175781,108.0562515258789,97.81875610351562
1777560082458898200,8.632898193359376,-45.73125076293945,108.03750610351562,99.46875762939453
1777560082468898000,8.64289794921875,-49.98750305175781,107.88750457763672,100.10625457763672
1777560082478898200,8.652898193359375,-48.31875228881836,107.66250610351562,99.46875762939453
1777560082488898000,8.66289794921875,-48.468753814697266,108.73125457763672,101.64375305175781
1777560082498898200,8.672898193359375,-47.53125,107.83125305175781,98.06250762939453
1777560082508898000,8.68289794921875,-46.875,110.08125305175781,99.73125457763672
1777560082518898200,8.692898193359374,-45.82500076293945,108.18750762939453,95.4000015258789
1777560082528898000,8.70289794921875,-47.025001525878906,108.20625305175781,94.59375
1777560082538898200,8.712898193359376,-46.05000305175781,110.1187515258789,95.7750015258789
1777560082548898000,8.72289794921875,-45.28125,109.40625762939453,93.50625610351562
1777560082558898200,8.732898193359375,-44.53125,110.43750762939453,96.22500610351562
1777560082568898000,8.74289794921875,-47.66250228881836,108.4312515258789,97.05000305175781
1777560082578898200,8.752898193359375,-47.00625228881836,109.70625305175781,98.1187515258789
1777560082588898000,8.76289794921875,-50.343753814697266,110.2125015258789,98.8687515258789
1777560082598898200,8.772898193359374,-51.13125228881836,110.2125015258789,100.57500457763672
1777560082608898000,8.78289794921875,-49.931251525878906,108.86250305175781,98.17500305175781
1777560082618898200,8.792898193359376,-52.76250076293945,110.6812515258789,98.73750305175781
1777560082628898000,8.80289794921875,-54.63750076293945,109.16250610351562,98.4937515258789
1777560082638898200,8.812898193359375,-57.337501525878906,109.70625305175781,97.96875762939453
1777560082648898000,8.82289794921875,-55.91250228881836,107.10000610351562,97.16250610351562
1777560082658898200,8.832898193359375,-55.91250228881836,107.10000610351562,97.16250610351562
1777560082668898000,8.84289794921875,-57.656253814697266,108.82500457763672,96.11250305175781
1777560082678898200,8.852898193359374,-61.38750076293945,107.45625305175781,98.64375305175781
1777560082688898000,8.86289794921875,-61.38750076293945,107.45625305175781,98.64375305175781
1777560082698898200,8.872898193359376,-63.41250228881836,106.33125305175781,98.62500762939453
1777560082708898000,8.88289794921875,-64.25625610351562,108.03750610351562,98.4000015258789
1777560082718898200,8.892898193359375,-66.3375015258789,105.16875457763672,98.32500457763672
1777560082728898000,8.90289794921875,-66.9375,104.60625457763672,96.97500610351562
1777560082738898200,8.912898193359375,-66.60000610351562,105.11250305175781,95.36250305175781
1777560082748898000,8.92289794921875,-68.9625015258789,102.9937515258789,96.1500015258789
1777560082758898200,8.932898193359375,-70.03125,103.48125457763672,97.81875610351562
1777560082768898000,8.94289794921875,-71.73750305175781,102.07500457763672,95.75625610351562
1777560082778898200,8.952898193359376,-71.88750457763672,100.35000610351562,91.63125610351562
1777560082788898000,8.96289794921875,-72.65625,100.20000457763672,92.32500457763672
1777560082798898200,8.972898193359375,-73.61250305175781,99.91875457763672,93.86250305175781
1777560082808898000,8.98289794921875,-72.69375610351562,100.61250305175781,95.23125457763672
1777560082818898200,8.992898193359375,-75.5625,99.73125457763672,92.45625305175781
1777560082828898000,9.00289794921875,-74.23125457763672,99.35625457763672,93.3375015258789
1777560082838898200,9.012898193359375,-75.20625305175781,96.76875305175781,91.875
1777560082848898000,9.02289794921875,-76.125,97.1812515258789,92.98125457763672
1777560082858898200,9.032898193359374,-77.45625305175781,97.81875610351562,92.13750457763672
1777560082868898000,9.04289794921875,-75.0562515258789,96.46875762939453,90.69375610351562
1777560082878898200,9.052898193359376,-78.07500457763672,97.23750305175781,91.63125610351562
1777560082888898000,9.06289794921875,-76.57500457763672,96.16875457763672,90.2437515258789
1777560082898898200,9.072898193359375,-76.70625305175781,95.28750610351562,85.98750305175781
1777560082908898000,9.08289794921875,-79.14375305175781,96.11250305175781,88.20000457763672
1777560082918898200,9.092898193359375,-77.64375305175781,95.47500610351562,88.03125
1777560082928898000,9.10289794921875,-77.32500457763672,95.36250305175781,87.30000305175781
1777560082938898200,9.112898193359374,-77.51250457763672,93.0562515258789,83.47500610351562
1777560082948898000,9.12289794921875,-77.51250457763672,93.6187515258789,84.7125015258789
1777560082958898200,9.132898193359376,-77.28750610351562,96.16875457763672,86.04375457763672
1777560082968898000,9.14289794921875,-76.85625457763672,95.64375305175781,86.625
1777560082978898200,9.152898193359375,-75.9375,96.09375762939453,87.26250457763672
1777560082988898000,9.16289794921875,-73.4625015258789,96.73125457763672,85.61250305175781
1777560082998898200,9.172898193359375,-76.06875610351562,96.09375762939453,85.57500457763672
1777560083008898000,9.18289794921875,-72.9937515258789,96.88125610351562,84.91875457763672
1777560083018898200,9.192898193359374,-74.1187515258789,96.09375762939453,87.20625305175781
1777560083028898000,9.20289794921875,-70.20000457763672,98.85000610351562,86.4937515258789
1777560083038898200,9.212898193359376,-73.5562515258789,99.07500457763672,88.05000305175781
1777560083048898000,9.22289794921875,-73.40625,99.9937515258789,90.9000015258789
1777560083058898200,9.232898193359375,-72.0562515258789,98.6812515258789,87.9375
1777560083068898000,9.24289794921875,-73.01250457763672,97.20000457763672,87.11250305175781
1777560083078898200,9.252898193359375,-75.13125610351562,97.3687515258789,87.48750305175781
1777560083088898000,9.26289794921875,-73.59375,98.64375305175781,89.38125610351562
1777560083098898200,9.272898193359374,-73.59375,98.64375305175781,89.38125610351562
1777560083108898000,9.28289794921875,-73.81875610351562,96.01875305175781,87.6187515258789
1777560083118898200,9.292898193359376,-74.83125305175781,96.41250610351562,85.16250610351562
1777560083128898000,9.30289794921875,-73.80000305175781,95.34375,84.65625
1777560083138898200,9.312898193359375,-72.95625305175781,94.53750610351562,86.88750457763672
1777560083148898000,9.32289794921875,-74.15625,93.84375,84.65625
1777560083158898200,9.332898193359375,-73.875,93.1500015258789,84.9375
1777560083168898000,9.34289794921875,-73.53750610351562,93.5250015258789,83.3062515258789
1777560083178898200,9.352898193359374,-73.85625457763672,94.59375,86.34375
1777560083188898000,9.36289794921875,-72.88125610351562,95.55000305175781,85.23750305175781
1777560083198898200,9.372898193359376,-73.0875015258789,94.63125610351562,86.625
1777560083208898000,9.38289794921875,-72.35625457763672,93.9937515258789,86.47500610351562
1777560083218898200,9.392898193359375,-71.8687515258789,95.2125015258789,87.26250457763672
1777560083228898000,9.40289794921875,-71.13750457763672,94.85625457763672,89.00625610351562
1777560083238898200,9.412898193359375,-71.92500305175781,94.51875305175781,89.25
1777560083248898000,9.42289794921875,-72.22500610351562,93.65625,87.67500305175781
1777560083258898200,9.432898193359375,-71.55000305175781,95.88750457763672,88.3687515258789
1777560083268898000,9.44289794921875,-72,95.88750457763672,88.38750457763672
1777560083278898200,9.452898193359376,-70.35000610351562,95.26875305175781,87.65625
1777560083288898000,9.46289794921875,-72.31875610351562,96.88125610351562,90.97500610351562
1777560083298898200,9.472898193359375,-68.64375305175781,98.53125762939453,93.73125457763672
1777560083308898000,9.48289794921875,-67.125,98.62500762939453,94.42500305175781
1777560083318898200,9.492898193359375,-65.88750457763672,98.55000305175781,92.25
1777560083328898000,9.50289794921875,-65.00625610351562,98.9625015258789,95.98125457763672
1777560083338898200,9.512898193359375,-65.90625,98.8687515258789,94.44375610351562
1777560083348898000,9.52289794921875,-64.42500305175781,98.47500610351562,96.01875305175781
1777560083358898200,9.532898193359374,-63.63750076293945,98.64375305175781,94.61250305175781
1777560083368898000,9.54289794921875,-64.21875,99.45000457763672,95.0625
1777560083378898200,9.552898193359376,-63.91875076293945,99.82500457763672,95.83125305175781
1777560083388898000,9.56289794921875,-62.118751525878906,99.76875305175781,98.04375457763672
1777560083398898200,9.572898193359375,-62.587501525878906,99.4312515258789,98.26875305175781
1777560083408898000,9.58289794921875,-60.88125228881836,100.91250610351562,99.07500457763672
1777560083418898200,9.592898193359375,-59.812503814697266,102.20625305175781,101.9625015258789
1777560083428898000,9.60289794921875,-58.087501525878906,98.98125457763672,101.3062515258789
1777560083438898200,9.612898193359374,-58.05000305175781,100.33125305175781,101.98125457763672
1777560083448898000,9.62289794921875,-55.14375305175781,100.1812515258789,100.1812515258789
1777560083458898200,9.632898193359376,-57.30000305175781,100.8375015258789,103.76250457763672
1777560083468898000,9.64289794921875,-55.650001525878906,100.14375305175781,104.13750457763672
1777560083478898200,9.652898193359375,-56.962501525878906,101.32500457763672,102.86250305175781
1777560083488898000,9.66289794921875,-55.57500076293945,101.88750457763672,103.35000610351562
1777560083498898200,9.672898193359375,-53.47500228881836,100.98750305175781,102.28125762939453
1777560083508898000,9.68289794921875,-54.26250076293945,99.60000610351562,101.32500457763672
1777560083518898200,9.692898193359374,-54.39375305175781,100.85625457763672,103.12500762939453
1777560083528898000,9.70289794921875,-54.39375305175781,100.85625457763672,103.12500762939453
1777560083538898200,9.712898193359376,-53.45625305175781,101.19375610351562,102.03750610351562
1777560083548898000,9.72289794921875,-51.618751525878906,102.03750610351562,103.5562515258789
1777560083558898200,9.732898193359375,-52.57500076293945,100.80000305175781,102.78750610351562
1777560083568898000,9.74289794921875,-53.23125076293945,99.37500762939453,102.39375305175781
1777560083578898200,9.752898193359375,-52.57500076293945,101.51250457763672,105.03750610351562
1777560083588898000,9.76289794921875,-50.906253814697266,101.28750610351562,104.38125610351562
1777560083598898200,9.772898193359374,-50.41875076293945,101.71875762939453,103.03125762939453
1777560083608898000,9.78289794921875,-50.306251525878906,100.95000457763672,103.72500610351562
1777560083618898200,9.792898193359376,-50.41875076293945,101.66250610351562,102.75000762939453
1777560083628898000,9.80289794921875,-48.468753814697266,101.32500457763672,103.76250457763672
1777560083638898200,9.812898193359375,-51.03750228881836,100.48125457763672,100.5562515258789
1777560083648898000,9.82289794921875,-49.98750305175781,100.80000305175781,102.7125015258789
1777560083658898200,9.832898193359375,-49.29375076293945,103.31250762939453,103.7437515258789
1777560083668898000,9.84289794921875,-48.01875305175781,99.93750762939453,101.08125305175781
1777560083678898200,9.852898193359374,-49.51875305175781,100.61250305175781,101.53125762939453
1777560083688898000,9.86289794921875,-49.33125305175781,100.72500610351562,98.8687515258789
1777560083698898200,9.872898193359376,-49.556251525878906,99.73125457763672,101.36250305175781
1777560083708898000,9.88289794921875,-47.04375076293945,101.70000457763672,101.25000762939453
1777560083718898200,9.892898193359375,-46.3125,101.10000610351562,101.4000015258789
1777560083728898000,9.90289794921875,-47.38125228881836,101.79375457763672,103.68750762939453
1777560083738898200,9.912898193359375,-47.85000228881836,101.06250762939453,102.84375762939453
1777560083748898000,9.92289794921875,-48,100.57500457763672,101.19375610351562
1777560083758898200,9.932898193359375,-47.13750076293945,100.35000610351562,104.81250762939453
1777560083768898000,9.94289794921875,-46.20000076293945,100.91250610351562,103.61250305175781
1777560083778898200,9.952898193359376,-48.67500305175781,99.03750610351562,101.7750015258789
1777560083788898000,9.96289794921875,-46.5,100.91250610351562,103.63125610351562
1777560083798898200,9.972898193359375,-47.17500305175781,98.92500305175781,103.5562515258789
1777560083808898000,9.98289794921875,-46.10625076293945,98.5875015258789,101.34375762939453
1777560083818898200,9.992898193359375,-47.00625228881836,99.39375305175781,103.35000610351562
1777560083828898000,10.00289794921875,-47.13750076293945,99.16875457763672,101.06250762939453
1777560083838898200,10.012898193359375,-48.150001525878906,96.6187515258789,101.43750762939453
1777560083848898000,10.02289794921875,-48.97500228881836,99.39375305175781,102.56250762939453
1777560083858898200,10.032898193359374,-48.843753814697266,98.64375305175781,102.54375457763672
1777560083868898000,10.04289794921875,-52.556251525878906,97.51875305175781,104.1187515258789
1777560083878898200,10.052898193359376,-51.39375305175781,96.58125305175781,104.62500762939453
1777560083888898000,10.06289794921875,-54.07500076293945,97.81875610351562,104.51250457763672
1777560083898898200,10.072898193359375,-55.312503814697266,97.89375305175781,105.82500457763672
1777560083908898000,10.08289794921875,-55.33125305175781,96.18750762939453,102.67500305175781
1777560083918898200,10.092898193359375,-55.16250228881836,96.7125015258789,102.91875457763672
1777560083928898000,10.10289794921875,-55.20000076293945,95.4000015258789,102.37500762939453
1777560083938898200,10.112898193359374,-58.556251525878906,96.03750610351562,105.00000762939453
1777560083948898000,10.12289794921875,-58.23750305175781,95.88750457763672,103.96875762939453
1777560083958898200,10.132898193359376,-58.23750305175781,95.88750457763672,103.96875762939453
1777560083968898000,10.14289794921875,-58.85625076293945,95.8125,104.4000015258789
1777560083978898200,10.152898193359375,-59.17500305175781,95.56875610351562,105.20625305175781
1777560083988898000,10.16289794921875,-61.33125305175781,95.2125015258789,105.3375015258789
1777560083998898200,10.172898193359375,-60.48750305175781,96,102.20625305175781
1777560084008898000,10.18289794921875,-60.150001525878906,94.21875,105.39375305175781
1777560084018898200,10.192898193359374,-61.931251525878906,94.35000610351562,102.78750610351562
1777560084028898000,10.20289794921875,-64.42500305175781,93.1500015258789,103.89375305175781
1777560084038898200,10.212898193359376,-62.38125228881836,94.40625,102.39375305175781
1777560084048898000,10.22289794921875,-66.2437515258789,93.41250610351562,103.98750305175781
1777560084058898200,10.232898193359375,-64.7437515258789,91.85625457763672,101.9625015258789
1777560084068898000,10.24289794921875,-64.91250610351562,91.40625,102.30000305175781
1777560084078898200,10.252898193359375,-68.53125,92.56875610351562,102.46875762939453
1777560084088898000,10.26289794921875,-68.4000015258789,92.13750457763672,102.95625305175781
1777560084098898200,10.272898193359374,-68.25,91.63125610351562,102.00000762939453
1777560084108898000,10.28289794921875,-71.51250457763672,90.09375,103.35000610351562
1777560084118898200,10.292898193359376,-69.50625610351562,90.01875305175781,101.17500305175781
1777560084128898000,10.30289794921875,-70.61250305175781,89.08125305175781,101.5875015258789
1777560084138898200,10.312898193359375,-69.9937515258789,89.5875015258789,102.50625610351562
1777560084148898000,10.32289794921875,-71.8125,89.0250015258789,100.33125305175781
1777560084158898200,10.332898193359375,-70.63125610351562,88.3687515258789,101.0250015258789
1777560084168898000,10.34289794921875,-71.19375610351562,88.59375,98.26875305175781
1777560084178898200,10.352898193359374,-72.60000610351562,87.46875,98.23125457763672
1777560084188898000,10.36289794921875,-71.66250610351562,88.76250457763672,99.4312515258789
1777560084198898200,10.372898193359376,-73.03125,88.48125457763672,99.13125610351562
1777560084208898000,10.38289794921875,-72.41250610351562,88.96875,99.07500457763672
1777560084218898200,10.392898193359375,-70.3125,88.3687515258789,100.1812515258789
1777560084228898000,10.40289794921875,-71.0250015258789,89.85000610351562,100.05000305175781
1777560084238898200,10.412898193359375,-70.125,89.55000305175781,100.53750610351562
1777560084248898000,10.42289794921875,-68.56875610351562,89.8687515258789,98.43750762939453
1777560084258898200,10.432898193359375,-68.5875015258789,90.1875,100.61250305175781
1777560084268898000,10.44289794921875,-69.97500610351562,90.16875457763672,102.20625305175781
1777560084278898200,10.452898193359376,-68.73750305175781,90.75,102.00000762939453
1777560084288898000,10.46289794921875,-68.7750015258789,88.44375610351562,99.01875305175781
1777560084298898200,10.472898193359375,-71.19375610351562,88.95000457763672,99.03750610351562
1777560084308898000,10.48289794921875,-69.82500457763672,88.6875,98.94375610351562
1777560084318898200,10.492898193359375,-69.95625305175781,89.38125610351562,98.51250457763672
1777560084328898000,10.50289794921875,-70.57500457763672,88.42500305175781,97.0875015258789
1777560084338898200,10.512898193359375,-70.76250457763672,87.5625,97.20000457763672
1777560084348898000,10.52289794921875,-71.26875305175781,86.23125457763672,97.38750457763672
1777560084358898200,10.532898193359374,-71.64375305175781,86.7750015258789,92.56875610351562
1777560084368898000,10.54289794921875,-70.72500610351562,87.35625457763672,93.20625305175781
1777560084378898200,10.552898193359376,-70.72500610351562,87.4312515258789,93.65625
1777560084388898000,10.56289794921875,-70.72500610351562,87.4312515258789,93.65625
1777560084398898200,10.572898193359375,-70.5562515258789,87.95625305175781,93.88125610351562
1777560084408898000,10.58289794921875,-69.9937515258789,86.4937515258789,94.16250610351562
1777560084418898200,10.592898193359375,-71.9625015258789,86.6812515258789,93.67500305175781
1777560084428898000,10.60289794921875,-73.03125,87.26250457763672,95.10000610351562
1777560084438898200,10.612898193359374,-70.81875610351562,85.3687515258789,94.95000457763672
1777560084448898000,10.62289794921875,-69.46875,87.9937515258789,93.30000305175781
1777560084458898200,10.632898193359376,-69.54375457763672,87.20625305175781,96.39375305175781
1777560084468898000,10.64289794921875,-71.4937515258789,87.9937515258789,95.90625
1777560084478898200,10.652898193359375,-71.2125015258789,88.01250457763672,98.56875610351562
1777560084488898000,10.66289794921875,-70.0875015258789,89.75625610351562,97.7437515258789
1777560084498898200,10.672898193359375,-68.4375,88.95000457763672,98.1187515258789
1777560084508898000,10.68289794921875,-68.3062515258789,89.4937515258789,100.20000457763672
1777560084518898200,10.692898193359374,-68.41875457763672,90.375,99.37500762939453
1777560084528898000,10.70289794921875,-68.23125457763672,92.3062515258789,102.41250610351562
1777560084538898200,10.712898193359376,-64.57500457763672,93.35625457763672,104.4937515258789
1777560084548898000,10.72289794921875,-64.01250457763672,92.28750610351562,104.85000610351562
1777560084558898200,10.732898193359375,-63.243751525878906,93.65625,107.4937515258789
1777560084568898000,10.74289794921875,-63.03750228881836,94.25625610351562,106.4625015258789
1777560084578898200,10.752898193359375,-60.806251525878906,93.75,107.3062515258789
1777560084588898000,10.76289794921875,-60.01875305175781,93.39375305175781,104.81250762939453
1777560084598898200,10.772898193359374,-60.13125228881836,94.01250457763672,103.95000457763672
1777560084608898000,10.78289794921875,-59.868751525878906,93.75,106.42500305175781
1777560084618898200,10.792898193359376,-60.07500076293945,92.36250305175781,106.31250762939453
1777560084628898000,10.80289794921875,-58.66875076293945,93.5250015258789,106.63125610351562
1777560084638898200,10.812898193359375,-56.868751525878906,93.0562515258789,107.62500762939453
1777560084648898000,10.82289794921875,-56.56875228881836,93.9375,109.48125457763672
1777560084658898200,10.832898193359375,-57.07500076293945,93.50625610351562,112.51875305175781
1777560084668898000,10.84289794921875,-55.031253814697266,95.5875015258789,112.29375457763672
1777560084678898200,10.852898193359374,-54.07500076293945,91.9312515258789,110.3062515258789
1777560084688898000,10.86289794921875,-52.91250228881836,95.04375457763672,111.9937515258789
1777560084698898200,10.872898193359376,-51.13125228881836,94.61250305175781,113.26875305175781
1777560084708898000,10.88289794921875,-54.656253814697266,93.1875,112.95000457763672
1777560084718898200,10.892898193359375,-52.218753814697266,92.56875610351562,110.38125610351562
1777560084728898000,10.90289794921875,-51.86250305175781,94.76250457763672,112.61250305175781
1777560084738898200,10.912898193359375,-51.093753814697266,95.08125305175781,112.23750305175781
1777560084748898000,10.92289794921875,-50.51250076293945,93.78750610351562,111.13125610351562
1777560084758898200,10.932898193359375,-51.468753814697266,92.83125305175781,112.23750305175781
1777560084768898000,10.94289794921875,-50.36250305175781,94.85625457763672,113.3062515258789
1777560084778898200,10.952898193359376,-48.993751525878906,94.48125457763672,113.34375762939453
1777560084788898000,10.96289794921875,-50.062503814697266,94.5,113.36250305175781
1777560084798898200,10.972898193359375,-48.22500228881836,95.19375610351562,113.8687515258789
1777560084808898000,10.98289794921875,-49.312503814697266,95.0250015258789,115.2750015258789
1777560084818898200,10.992898193359375,-49.312503814697266,95.0250015258789,115.2750015258789
1777560084828898000,11.00289794921875,-49.01250076293945,94.16250610351562,113.70000457763672
1777560084838898200,11.012898193359375,-49.01250076293945,94.16250610351562,113.70000457763672
1777560084848898000,11.02289794921875,-47.25,95.73750305175781,110.85000610351562
1777560084858898200,11.032898193359374,-48.13125228881836,96.84375762939453,112.35000610351562
1777560084868898000,11.04289794921875,-45.88125228881836,95.15625,109.42500305175781
1777560084878898200,11.052898193359376,-46.33125305175781,95.9625015258789,110.71875762939453
1777560084888898000,11.06289794921875,-45.88125228881836,95.23125457763672,109.85625457763672
1777560084898898200,11.072898193359375,-45.60000228881836,95.53125,112.03125762939453
1777560084908898000,11.08289794921875,-46.35000228881836,95.4000015258789,111.03750610351562
1777560084918898200,11.092898193359375,-45.150001525878906,94.57500457763672,109.72500610351562
1777560084928898000,11.10289794921875,-44.04375076293945,95.00625610351562,108.35625457763672
1777560084938898200,11.112898193359374,-43.78125,94.125,108.3375015258789
1777560084948898000,11.12289794921875,-45.69375228881836,95.2125015258789,107.17500305175781
1777560084958898200,11.132898193359376,-45.88125228881836,95.23125457763672,109.85625457763672
1777560084968898000,11.14289794921875,-44.8125,95.15625,109.40625762939453
1777560084978898200,11.152898193359375,-47.493751525878906,97.31250762939453,110.43750762939453
1777560084988898000,11.16289794921875,-43.462501525878906,94.96875,109.89375305175781
1777560084998898200,11.172898193359375,-44.19375228881836,95.15625,108.54375457763672
1777560085008898000,11.18289794921875,-45.69375228881836,96.26250457763672,110.19375610351562
1777560085018898200,11.192898193359374,-44.493751525878906,96.07500457763672,110.55000305175781
1777560085028898000,11.20289794921875,-45.11250305175781,95.1187515258789,109.12500762939453
1777560085038898200,11.212898193359376,-44.94375228881836,95.41875457763672,108.60000610351562
1777560085048898000,11.22289794921875,-46.01250076293945,95.41875457763672,108.63750457763672
1777560085058898200,11.232898193359375,-46.91250228881836,95.75625610351562,109.29375457763672
1777560085068898000,11.24289794921875,-46.59375,96.50625610351562,110.13750457763672
1777560085078898200,11.252898193359375,-46.33125305175781,93.9937515258789,105.69375610351562
1777560085088898000,11.26289794921875,-47.962501525878906,94.59375,104.71875762939453
1777560085098898200,11.272898193359374,-48.01875305175781,93.82500457763672,106.2750015258789
1777560085108898000,11.28289794921875,-50.025001525878906,93.78750610351562,108.58125305175781
1777560085118898200,11.292898193359376,-50.775001525878906,93.95625305175781,107.92500305175781
1777560085128898000,11.30289794921875,-52.368751525878906,91.98750305175781,108.9937515258789
1777560085138898200,11.312898193359375,-55.51875305175781,93.76875305175781,109.98750305175781
1777560085148898000,11.32289794921875,-53.56875228881836,93.50625610351562,110.8687515258789
1777560085158898200,11.332898193359375,-54.58125305175781,93.88125610351562,109.14375305175781
1777560085168898000,11.34289794921875,-56.156253814697266,92.0250015258789,107.4000015258789
1777560085178898200,11.352898193359374,-55.875003814697266,91.48125457763672,108.00000762939453
1777560085188898000,11.36289794921875,-57.67500305175781,92.83125305175781,110.41875457763672
1777560085198898200,11.372898193359376,-57.54375076293945,92.3062515258789,110.17500305175781
1777560085208898000,11.38289794921875,-57.843753814697266,91.5,107.2125015258789
1777560085218898200,11.392898193359375,-57.525001525878906,92.28750610351562,108.3375015258789
1777560085228898000,11.40289794921875,-58.593753814697266,93.35625457763672,111.39375305175781
1777560085238898200,11.412898193359375,-60.31875228881836,91.23750305175781,110.62500762939453
1777560085248898000,11.42289794921875,-60.31875228881836,91.23750305175781,110.62500762939453
1777560085258898200,11.432898193359375,-61.556251525878906,90.01875305175781,108.1500015258789
1777560085268898000,11.44289794921875,-62.41875076293945,90.9937515258789,107.94375610351562
1777560085278898200,11.452898193359376,-60.63750076293945,89.53125,106.48125457763672
1777560085288898000,11.46289794921875,-62.64375305175781,89.70000457763672,108.54375457763672
1777560085298898200,11.472898193359375,-61.70625305175781,90.54375457763672,109.25625610351562
1777560085308898000,11.48289794921875,-62.41875076293945,91.51875305175781,109.03125762939453
1777560085318898200,11.492898193359375,-63.337501525878906,90.35625457763672,106.14375305175781
1777560085328898000,11.50289794921875,-67.1812515258789,90.375,108.8062515258789
1777560085338898200,11.512898193359375,-64.125,89.7750015258789,106.48125457763672
1777560085348898000,11.52289794921875,-65.64375305175781,89.3062515258789,105.73125457763672
1777560085358898200,11.532898193359374,-67.20000457763672,88.91250610351562,107.4000015258789
1777560085368898000,11.54289794921875,-67.81875610351562,87.82500457763672,104.94375610351562
1777560085378898200,11.552898193359376,-70.0875015258789,87.9375,104.04375457763672
1777560085388898000,11.56289794921875,-67.20000457763672,87.75,103.63125610351562
1777560085398898200,11.572898193359375,-68.71875,86.8687515258789,101.81250762939453
1777560085408898000,11.58289794921875,-70.80000305175781,88.35000610351562,102.58125305175781
1777560085418898200,11.592898193359375,-69.4312515258789,88.53750610351562,102.1500015258789
1777560085428898000,11.60289794921875,-68.08125305175781,88.0875015258789,102.45000457763672
1777560085438898200,11.612898193359374,-70.3687515258789,88.0875015258789,102.5250015258789
1777560085448898000,11.62289794921875,-67.96875,87.97500610351562,105.11250305175781
1777560085458898200,11.632898193359376,-69.63750457763672,87.97500610351562,104.3062515258789
1777560085468898000,11.64289794921875,-68.0625,89.2125015258789,104.23125457763672
1777560085478898200,11.652898193359375,-64.96875,90.86250305175781,104.45625305175781
1777560085488898000,11.66289794921875,-65.625,88.875,102.82500457763672
1777560085498898200,11.672898193359375,-66.5250015258789,89.45625305175781,103.38750457763672
1777560085508898000,11.68289794921875,-64.76250457763672,88.80000305175781,105.75000762939453
1777560085518898200,11.692898193359374,-65.51250457763672,88.40625,104.70000457763672
1777560085528898000,11.70289794921875,-65.64375305175781,88.875,104.51250457763672
1777560085538898200,11.712898193359376,-64.61250305175781,87.16875457763672,101.34375762939453
1777560085548898000,11.72289794921875,-67.03125,87.78750610351562,103.0875015258789
1777560085558898200,11.732898193359375,-66.86250305175781,87.91875457763672,102.2437515258789
1777560085568898000,11.74289794921875,-66.2437515258789,88.21875,101.71875762939453
1777560085578898200,11.752898193359375,-68.55000305175781,87.22500610351562,100.89375305175781
1777560085588898000,11.76289794921875,-68.00625610351562,86.0625,102.35625457763672
1777560085598898200,11.772898193359374,-66.6187515258789,86.47500610351562,102.5250015258789
1777560085608898000,11.78289794921875,-70.48125457763672,85.16250610351562,103.80000305175781
1777560085618898200,11.792898193359376,-71.0250015258789,85.76250457763672,100.25625610351562
1777560085628898000,11.80289794921875,-68.5875015258789,86.90625,102.95625305175781
1777560085638898200,11.812898193359375,-69.50625610351562,86.75625610351562,102.8062515258789
1777560085648898000,11.82289794921875,-68.4000015258789,87.50625610351562,101.92500305175781
1777560085658898200,11.832898193359375,-66.9000015258789,87.60000610351562,104.3062515258789
1777560085668898000,11.84289794921875,-66.1500015258789,88.06875610351562,105.78750610351562
1777560085678898200,11.852898193359374,-66.1500015258789,88.06875610351562,105.78750610351562
1777560085688898000,11.86289794921875,-64.1812515258789,87.69375610351562,104.9625015258789
1777560085698898200,11.872898193359376,-67.125,86.73750305175781,106.12500762939453
1777560085708898000,11.88289794921875,-65.66250610351562,89.19375610351562,106.70625305175781
1777560085718898200,11.892898193359375,-64.91250610351562,88.5562515258789,104.8687515258789
1777560085728898000,11.90289794921875,-65.34375,88.9312515258789,104.94375610351562
1777560085738898200,11.912898193359375,-64.48125457763672,88.33125305175781,106.78125762939453
1777560085748898000,11.92289794921875,-65.34375,90.1875,107.5875015258789
1777560085758898200,11.932898193359375,-61.42500305175781,89.47500610351562,107.90625762939453
1777560085768898000,11.94289794921875,-59.437503814697266,90.95625305175781,112.0875015258789
1777560085778898200,11.952898193359376,-57.73125076293945,90.9937515258789,108.95625305175781
1777560085788898000,11.96289794921875,-58.66875076293945,90.20625305175781,108.67500305175781
1777560085798898200,11.972898193359375,-57.01875305175781,89.83125305175781,109.5562515258789
1777560085808898000,11.98289794921875,-56.681251525878906,90.86250305175781,109.7437515258789
1777560085818898200,11.992898193359375,-57.431251525878906,91.81875610351562,112.06875610351562
1777560085828898000,12.00289794921875,-57.63750076293945,89.73750305175781,109.68750762939453
1777560085838898200,12.012898193359375,-57.16875076293945,91.05000305175781,112.76250457763672
1777560085848898000,12.02289794921875,-55.650001525878906,91.9312515258789,114.58125305175781
1777560085858898200,12.032898193359374,-55.66875076293945,90.82500457763672,112.95000457763672
1777560085868898000,12.04289794921875,-53.13750076293945,89.70000457763672,113.79375457763672
1777560085878898200,12.052898193359376,-52.38750076293945,89.41875457763672,114.4312515258789
1777560085888898000,12.06289794921875,-49.44375228881836,90.91875457763672,114.50625610351562
1777560085898898200,12.072898193359375,-49.95000076293945,89.88750457763672,114.31875610351562
1777560085908898000,12.08289794921875,-49.500003814697266,90.60000610351562,116.55000305175781
1777560085918898200,12.092898193359375,-48.54375076293945,91.33125305175781,116.53125762939453
1777560085928898000,12.10289794921875,-48.58125305175781,89.32500457763672,113.88750457763672
1777560085938898200,12.112898193359374,-46.275001525878906,89.85000610351562,113.23125457763672
1777560085948898000,12.12289794921875,-45.97500228881836,90.41250610351562,114.45000457763672
1777560085958898200,12.132898193359376,-47.60625076293945,91.70625305175781,115.59375762939453
1777560085968898000,12.14289794921875,-47.025001525878906,91.21875,115.76250457763672
1777560085978898200,12.152898193359375,-45.35625076293945,90.54375457763672,114.60000610351562
1777560085988898000,12.16289794921875,-45.337501525878906,91.6500015258789,115.23750305175781
1777560085998898200,12.172898193359375,-47.17500305175781,91.42500305175781,116.23125457763672
1777560086008898000,12.18289794921875,-44.775001525878906,90.5625,115.57500457763672
1777560086018898200,12.192898193359374,-44.4375,91.20000457763672,115.68750762939453
1777560086028898000,12.20289794921875,-44.8125,89.23125457763672,114.9000015258789
1777560086038898200,12.212898193359376,-43.70625305175781,89.94375610351562,113.88750457763672
1777560086048898000,12.22289794921875,-42.31875228881836,90.13125610351562,113.45625305175781
1777560086058898200,12.232898193359375,-43.66875076293945,91.29375457763672,114.56250762939453
1777560086068898000,12.24289794921875,-43.03125,91.25625610351562,112.5562515258789
1777560086078898200,12.252898193359375,-40.33125305175781,89.45625305175781,110.5875015258789
1777560086088898000,12.26289794921875,-41.34375,90.4312515258789,108.69375610351562
1777560086098898200,12.272898193359374,-39.525001525878906,89.6812515258789,107.79375457763672
1777560086108898000,12.28289794921875,-39.993751525878906,90.60000610351562,110.66250610351562
1777560086118898200,12.292898193359376,-39.993751525878906,90.60000610351562,110.66250610351562
1777560086128898000,12.30289794921875,-40.72500228881836,91.125,110.08125305175781
1777560086138898200,12.312898193359375,-40.38750076293945,88.98750305175781,113.32500457763672
1777560086148898000,12.32289794921875,-42.88125228881836,90.01875305175781,110.06250762939453
1777560086158898200,12.332898193359375,-39.993751525878906,90.375,110.90625762939453
1777560086168898000,12.34289794921875,-41.400001525878906,89.51250457763672,110.90625762939453
1777560086178898200,12.352898193359374,-40.5,89.56875610351562,112.16250610351562
1777560086188898000,12.36289794921875,-40.33125305175781,90.5625,113.90625762939453
1777560086198898200,12.372898193359376,-41.71875,90.8062515258789,115.53750610351562
1777560086208898000,12.38289794921875,-40.81875228881836,90.26250457763672,114.4312515258789
1777560086228898000,12.40289794921875,-41.98125076293945,90.5625,112.12500762939453
1777560086238898200,12.412898193359375,-41.23125076293945,91.06875610351562,113.88750457763672
1777560086248898000,12.42289794921875,-42.03750228881836,89.73750305175781,113.38125610351562
1777560086258898200,12.432898193359375,-41.56875228881836,89.73750305175781,113.36250305175781
1777560086268898000,12.44289794921875,-42.1875,90.03750610351562,114.56250762939453
1777560086278898200,12.452898193359376,-45.20625305175781,90.65625,114.48750305175781
1777560086288898000,12.46289794921875,-44.75625228881836,90.65625,114.46875762939453
1777560086298898200,12.472898193359375,-43.81875228881836,90.67500305175781,112.89375305175781
1777560086308898000,12.48289794921875,-45.97500228881836,90.3375015258789,114.01875305175781
1777560086318898200,12.492898193359375,-47.625,90.35625457763672,113.2125015258789
1777560086328898000,12.50289794921875,-47.775001525878906,90.5625,113.83125305175781
1777560086338898200,12.512898193359375,-48.76875305175781,89.66250610351562,117.07500457763672
1777560086348898000,12.52289794921875,-48.60000228881836,89.4000015258789,114.3375015258789
1777560086358898200,12.532898193359374,-50.00625228881836,88.61250305175781,115.76250457763672
1777560086368898000,12.54289794921875,-51.618751525878906,89.13750457763672,112.51875305175781
1777560086378898200,12.552898193359376,-53.47500228881836,89.17500305175781,114.41250610351562
1777560086388898000,12.56289794921875,-51.468753814697266,89.5875015258789,113.8687515258789
1777560086398898200,12.572898193359375,-55.593753814697266,89.13750457763672,115.03125762939453
1777560086408898000,12.58289794921875,-55.38750076293945,89.8125,112.7437515258789
1777560086418898200,12.592898193359375,-55.72500228881836,88.875,112.29375457763672
1777560086428898000,12.60289794921875,-55.275001525878906,88.81875610351562,112.8375015258789
1777560086438898200,12.612898193359374,-55.38750076293945,90.1875,112.81875610351562
1777560086448898000,12.62289794921875,-56.79375076293945,89.08125305175781,112.9312515258789
1777560086458898200,12.632898193359376,-55.29375076293945,88.9312515258789,113.56875610351562
1777560086468898000,12.64289794921875,-57.993751525878906,89.08125305175781,111.97500610351562
1777560086478898200,12.652898193359375,-57.86250305175781,88.76250457763672,112.48125457763672
1777560086488898000,12.66289794921875,-59.32500076293945,90.91875457763672,114.3375015258789
1777560086498898200,12.672898193359375,-59.718753814697266,88.42500305175781,114.30000305175781
1777560086508898000,12.68289794921875,-61.05000305175781,89.00625610351562,113.17500305175781
1777560086518898200,12.692898193359374,-61.05000305175781,88.29375457763672,110.92500305175781
1777560086528898000,12.70289794921875,-62.00625228881836,87.76875305175781,112.40625762939453
1777560086538898200,12.712898193359376,-62.00625228881836,87.73125457763672,112.10625457763672
1777560086548898000,12.72289794921875,-62.00625228881836,87.73125457763672,112.10625457763672
1777560086558898200,12.732898193359375,-62.812503814697266,86.70000457763672,113.62500762939453
1777560086568898000,12.74289794921875,-65.19375610351562,87.1500015258789,111.5250015258789
1777560086578898200,12.752898193359375,-65.8125,86.64375305175781,110.5875015258789
1777560086588898000,12.76289794921875,-64.10625457763672,87.35625457763672,110.4000015258789
1777560086598898200,12.772898193359374,-64.89375305175781,86.625,109.57500457763672
1777560086608898000,12.78289794921875,-66.26250457763672,87.0562515258789,111.67500305175781
1777560086618898200,12.792898193359376,-67.38750457763672,85.78125,111.45000457763672
1777560086628898000,12.80289794921875,-64.16250610351562,85.6875,110.08125305175781
1777560086638898200,12.812898193359375,-65.71875,85.01250457763672,109.70625305175781
1777560086648898000,12.82289794921875,-67.38750457763672,85.8375015258789,111.88125610351562
1777560086658898200,12.832898193359375,-66.30000305175781,85.61250305175781,110.4000015258789
1777560086668898000,12.84289794921875,-65.6812515258789,86.625,112.14375305175781
1777560086678898200,12.852898193359374,-66.58125305175781,87,111.39375305175781
1777560086688898000,12.86289794921875,-63.525001525878906,86.36250305175781,108.63750457763672
1777560086698898200,12.872898193359376,-65.98125457763672,87,112.21875762939453
1777560086708898000,12.88289794921875,-64.96875,85.2750015258789,111.4312515258789
1777560086718898200,12.892898193359375,-62.51250076293945,85.44375610351562,110.98125457763672
1777560086728898000,12.90289794921875,-64.6875,85.1812515258789,112.53750610351562
1777560086738898200,12.912898193359375,-62.681251525878906,85.21875,111.07500457763672
1777560086748898000,12.92289794921875,-64.23750305175781,84.9000015258789,113.17500305175781
1777560086758898200,12.932898193359375,-65.55000305175781,85.72500610351562,111.11250305175781
1777560086768898000,12.94289794921875,-66.3375015258789,85.125,111.30000305175781
1777560086778898200,12.952898193359376,-66.48750305175781,85.2750015258789,111.46875762939453
1777560086788898000,12.96289794921875,-67.8375015258789,85.66875457763672,110.73750305175781
1777560086798898200,12.972898193359375,-66.5625,82.03125,108.03750610351562
1777560086808898000,12.98289794921875,-67.3125,81.82500457763672,106.61250305175781
1777560086818898200,12.992898193359375,-69.8062515258789,81.0562515258789,108.91875457763672
1777560086828898000,13.00289794921875,-70.33125305175781,81.73125457763672,105.95625305175781
1777560086838898200,13.012898193359375,-68.04375457763672,82.42500305175781,106.4625015258789
1777560086848898000,13.02289794921875,-69.39375305175781,83.26875305175781,107.08125305175781
1777560086858898200,13.032898193359374,-68.15625,83.71875,107.55000305175781
1777560086868898000,13.04289794921875,-69.73125457763672,83.4937515258789,110.38125610351562
1777560086878898200,13.052898193359376,-70.14375305175781,85.14375305175781,111.41250610351562
1777560086888898000,13.06289794921875,-65.94375610351562,83.3062515258789,111.65625762939453
1777560086898898200,13.072898193359375,-68.7750015258789,84.88125610351562,110.47500610351562
1777560086908898000,13.08289794921875,-65.5875015258789,85.40625,113.17500305175781
1777560086918898200,13.092898193359375,-65.13750457763672,85.44375610351562,113.45625305175781
1777560086928898000,13.10289794921875,-67.10625457763672,84.88125610351562,111.28125762939453
1777560086938898200,13.112898193359374,-67.40625,85.72500610351562,112.85625457763672
1777560086948898000,13.12289794921875,-64.81875610351562,86.625,114.78750610351562
1777560086958898200,13.132898193359376,-65.28750610351562,85.53750610351562,113.32500457763672
1777560086968898000,13.14289794921875,-64.80000305175781,86.56875610351562,114.35625457763672
1777560086978898200,13.152898193359375,-64.80000305175781,86.56875610351562,114.35625457763672
1777560086988898000,13.16289794921875,-61.275001525878906,87.07500457763672,113.66250610351562
1777560086998898200,13.172898193359375,-59.025001525878906,87.8062515258789,116.98125457763672
1777560087008898000,13.18289794921875,-59.66250228881836,87.13125610351562,117.4312515258789
1777560087018898200,13.192898193359374,-57.993751525878906,86.94375610351562,117.07500457763672
1777560087028898000,13.20289794921875,-58.85625076293945,87.75,115.70625305175781
1777560087038898200,13.212898193359376,-56.47500228881836,86.94375610351562,117.03750610351562
1777560087048898000,13.22289794921875,-58.42500305175781,87.65625,117.63750457763672
1777560087058898200,13.232898193359375,-57.01875305175781,88.44375610351562,116.2125015258789
1777560087068898000,13.24289794921875,-53.212501525878906,88.4625015258789,116.38125610351562
1777560087078898200,13.252898193359375,-55.556251525878906,88.10625457763672,119.90625762939453
1777560087088898000,13.26289794921875,-51.750003814697266,87.48750305175781,118.2750015258789
1777560087098898200,13.272898193359374,-50.250003814697266,87.63750457763672,119.4000015258789
1777560087108898000,13.28289794921875,-49.312503814697266,88.1812515258789,119.62500762939453
1777560087118898200,13.292898193359376,-50.26875305175781,87.86250305175781,120.86250305175781
1777560087128898000,13.30289794921875,-46.44375228881836,88.10625457763672,120.09375762939453
1777560087138898200,13.312898193359375,-48.431251525878906,87.48750305175781,120.03750610351562
1777560087148898000,13.32289794921875,-47.962501525878906,87.5250015258789,118.61250305175781
1777560087158898200,13.332898193359375,-47.681251525878906,87.48750305175781,120.00000762939453
1777560087168898000,13.34289794921875,-47.17500305175781,87.63750457763672,116.7750015258789
1777560087178898200,13.352898193359374,-46.10625076293945,87.69375610351562,117.18750762939453
1777560087188898000,13.36289794921875,-47.212501525878906,87.20625305175781,118.10625457763672
1777560087198898200,13.372898193359376,-47.025001525878906,88.53750610351562,119.62500762939453
1777560087208898000,13.38289794921875,-44.90625,87.78750610351562,117.88125610351562
1777560087218898200,13.392898193359375,-44.13750076293945,88.25625610351562,119.36250305175781
1777560087228898000,13.40289794921875,-41.56875228881836,87.0562515258789,117.22500610351562
1777560087238898200,13.412898193359375,-42.30000305175781,87.7125015258789,115.66875457763672
1777560087248898000,13.42289794921875,-41.868751525878906,87.16875457763672,116.26875305175781
1777560087258898200,13.432898193359375,-42.5625,88.7437515258789,115.87500762939453
1777560087268898000,13.44289794921875,-41.79375076293945,88.66875457763672,115.42500305175781
1777560087278898200,13.452898193359376,-40.125,88.81875610351562,115.53750610351562
1777560087288898000,13.46289794921875,-40.650001525878906,86.5875015258789,114.86250305175781
1777560087298898200,13.472898193359375,-42.13125228881836,88.8375015258789,117.4312515258789
1777560087308898000,13.48289794921875,-40.61250305175781,87.0562515258789,113.81250762939453
1777560087318898200,13.492898193359375,-41.306251525878906,89.34375,114.97500610351562
1777560087328898000,13.50289794921875,-39.243751525878906,87.20625305175781,113.94375610351562
1777560087338898200,13.512898193359375,-39.11250305175781,87.3375015258789,115.66875457763672
1777560087348898000,13.52289794921875,-39.95625305175781,88.875,115.12500762939453
1777560087358898200,13.532898193359374,-39.1875,88.59375,113.2125015258789
1777560087368898000,13.54289794921875,-39.993751525878906,88.0875015258789,115.68750762939453
1777560087378898200,13.552898193359376,-40.57500076293945,89.3062515258789,116.36250305175781
1777560087388898000,13.56289794921875,-38.306251525878906,88.91250610351562,116.2125015258789
1777560087398898200,13.572898193359375,-39.60000228881836,90.63750457763672,116.15625762939453
1777560087408898000,13.58289794921875,-39.60000228881836,90.63750457763672,116.15625762939453
1777560087418898200,13.592898193359375,-37.03125,89.71875,114.93750762939453
1777560087428898000,13.60289794921875,-36.337501525878906,87.9000015258789,113.56875610351562
