time,seconds_elapsed,z,y,x
1776037938424516600,-1522135.4014833984,-0.2322375625371933,-0.2322375625371933,0.26096799969673157
1776037938444197000,-1522135.3818029785,-0.24899697303771973,-0.090979665517807,0.0454898327589035
1776037938453868000,-1522135.3721320801,-0.2106897532939911,-0.040701430290937424,-0.009576806798577309
1776037938483280400,-1522135.3427197265,-0.06224924325942993,0.047884032130241394,0.1604115068912506
1776037938493251000,-1522135.3327490233,-0.19393034279346466,0.13168109953403473,0.07900865375995636
1776037938513331700,-1522135.312668213,-0.1628057211637497,0.363918662071228,0.07661445438861847
1776037938543574800,-1522135.282425293,-0.17238251864910126,0.3495534360408783,0.19632454216480255
1776037938553554000,-1522135.272446045,-0.2585737705230713,0.10773907601833344,0.2082955539226532
1776037938563655200,-1522135.2623447266,-0.181959331035614,0.11252748221158981,0.17238251864910126
1776037938573665000,-1522135.252334961,-0.15801730751991272,0.009576806798577309,0.2106897532939911
1776037938583735800,-1522135.2422641602,-0.10295066982507706,0.16998831927776337,0.2106897532939911
1776037938593745700,-1522135.2322543946,-0.05746084079146385,0.3064578175544739,0.12210428714752197
1776037938603847000,-1522135.2221530762,0.05506663769483566,0.3758896589279175,-0.004788403399288654
1776037938613917700,-1522135.2120822754,0.08858546614646912,0.3687070608139038,-0.07182604819536209
1776037938624019000,-1522135.201980957,0.10055647045373917,0.28969839215278625,-0.2106897532939911
1776037938654170400,-1522135.1718295899,0.4141969084739685,0.09816227108240128,-0.38546648621559143
1776037938664241200,-1522135.161758789,0.36152446269989014,0.021547814831137657,-0.45010992884635925
1776037938674281500,-1522135.151718506,0.1843535304069519,0.090979665517807,-0.49559974670410156
1776037938684382700,-1522135.1416171875,-0.21308395266532898,0.26096799969673157,-0.4572925269603729
1776037938694423000,-1522135.1315769043,-0.42377370595932007,0.06703764945268631,-0.3495534360408783
1776037938704493800,-1522135.1215061035,-0.6129156351089478,0.26815059781074524,-0.19871874153614044
1776037938714534100,-1522135.1114658203,-0.9313444495201111,0.524330198764801,-0.023942016065120697
1776037938724635400,-1522135.101364502,-1.4197616577148438,0.586579442024231,0.2346317619085312
1776037938734706200,-1522135.0912939452,-1.920149803161621,0.4572925269603729,0.3447650372982025
1776037938764918800,-1522135.0610812989,-3.3925838470458984,0.26575639843940735,-0.17717093229293823
1776037938774958800,-1522135.0510412597,-3.866635799407959,0.13168109953403473,-0.5123591423034668
1776037938785029600,-1522135.0409704589,-4.268861770629883,-0.040701430290937424,-0.912190854549408
1776037938795070000,-1522135.0309299317,-4.702212333679199,-0.14604631066322327,-1.5490485429763794
1776037938805140700,-1522135.020859375,-4.819528102874756,-0.31842881441116333,-2.2194249629974365
1776037938815181000,-1522135.0108188477,-5.173870086669922,-0.30885201692581177,-2.8562827110290527
1776037938855433700,-1522134.9705661621,-7.163451671600342,-0.6991068720817566,-5.477933406829834
1776037938875544800,-1522134.9504550782,-8.11634349822998,-0.7733271718025208,-5.592854976654053
1776037938885646000,-1522134.9403540038,-8.252813339233398,-0.667982280254364,-5.621585369110107
1776037938895686400,-1522134.9303137206,-8.29590892791748,-0.4908113479614258,-5.48272180557251
1776037938905757200,-1522134.9202429198,-8.147468566894531,-0.42616790533065796,-5.43723201751709
1776037938915797500,-1522134.9102023926,-7.845798969268799,-0.08858546614646912,-5.25527286529541
1776037938925899000,-1522134.9001010743,-7.33583402633667,0.1173158809542656,-5.245696067810059
1776037938935969800,-1522134.8900302735,-6.900089263916016,0.38067805767059326,-5.250484466552734
1776037938946071000,-1522134.879928955,-6.347028732299805,0.5195417404174805,-5.372588634490967
1776037938976283400,-1522134.8497165528,-5.051765441894531,0.9672574996948242,-5.944802761077881
1776037938996425000,-1522134.8295749512,-4.280832767486572,0.8858546018600464,-6.299144744873047
1776037939006495700,-1522134.8195041504,-3.8522706031799316,0.7948749661445618,-6.562506675720215
1776037939016536000,-1522134.8094638672,-3.404554843902588,0.730231523513794,-6.682217121124268
1776037939026606800,-1522134.7993930664,-3.0095114707946777,0.6009446382522583,-6.751648902893066
1776037939036677600,-1522134.7893222657,-2.647987127304077,0.4165911078453064,-7.029376029968262
1776037939046779000,-1522134.7792211913,-2.2026655673980713,0.07422025501728058,-7.405265808105469
1776037939056850000,-1522134.7691501465,-1.8914192914962769,-0.8020575642585754,-7.613561630249023
1776037939077022000,-1522134.7489780274,-1.3192051649093628,-2.8371291160583496,-7.857769966125488
1776037939087123200,-1522134.738876709,-1.280897855758667,-3.1651346683502197,-7.4986395835876465
1776037939097194000,-1522134.7288059082,-1.0223240852355957,-3.909731388092041,-7.161057472229004
1776037939117366300,-1522134.708633789,-0.2298433631658554,-5.492298603057861,-6.447585105895996
1776037939127437000,-1522134.6985629883,0.0933738648891449,-5.980715751647949,-6.13633918762207
1776037939137477400,-1522134.688522705,0.524330198764801,-6.224924564361572,-5.700594425201416
1776037939147548200,-1522134.6784519043,0.8212111592292786,-6.332663536071777,-5.3342814445495605
1776037939218043600,-1522134.6079562989,0.4357447028160095,-4.867412090301514,-1.3431471586227417
1776037939278468400,-1522134.5475317382,1.2401964664459229,-5.992686748504639,0.8307880163192749
1776037939338954200,-1522134.4870456543,1.2401964664459229,-6.8043212890625,1.800439715385437
1776037939379207000,-1522134.4467929688,1.3838485479354858,-5.458779811859131,1.946485996246338
1776037939389277700,-1522134.436722412,1.4484920501708984,-5.190629482269287,2.0183119773864746
1776037939399318000,-1522134.4266818848,1.5921441316604614,-4.831499099731445,2.0039467811584473
1776037939409388800,-1522134.416611084,1.5945383310317993,-4.481945514678955,1.8842366933822632
1776037939419459600,-1522134.4065405272,1.6903064250946045,-4.242525577545166,1.6184803247451782
1776037939439601200,-1522134.3863989257,2.406172752380371,-3.890577793121338,0.608127236366272
1776037939449672200,-1522134.376327881,2.5785553455352783,-3.732560396194458,0.17477671802043915
1776037939459712300,-1522134.3662878417,2.494758129119873,-3.404554843902588,-0.40940847992897034
1776037939489924900,-1522134.3360751953,1.8339585065841675,-3.2417490482330322,-1.9991583824157715
1776037939530177500,-1522134.2958225098,2.7269957065582275,-4.338293552398682,-4.240131378173828
1776037939540248300,-1522134.285751709,2.741360902786255,-4.113238334655762,-4.350264549255371
1776037939550319000,-1522134.2756809082,2.4827871322631836,-3.797203779220581,-4.268861770629883
1776037939560390000,-1522134.2656101075,2.0398597717285156,-3.576937437057495,-4.034229755401611
1776037939590541300,-1522134.2354587403,0.5650315880775452,-2.4444799423217773,-3.3470940589904785
1776037939620753700,-1522134.205246338,-0.6440402865409851,-1.2521674633026123,-3.095702886581421
1776037939640895200,-1522134.1851047364,-1.1803414821624756,-0.9576807022094727,-3.4979286193847656
1776037939650966000,-1522134.1750339356,-1.3838485479354858,-0.8020575642585754,-3.8091750144958496
1776037939661036800,-1522134.1649631348,-1.6735470294952393,-0.6224924325942993,-4.113238334655762
1776037939671107600,-1522134.154892334,-1.946485996246338,-0.3902548849582672,-4.256890773773193
1776037939691218700,-1522134.13478125,-2.6575639247894287,0.2082955539226532,-4.223371982574463
1776037939701289500,-1522134.1247104493,-3.1507694721221924,0.3734954595565796,-4.244919776916504
1776037939711360300,-1522134.1146396485,-3.3686418533325195,0.8403648138046265,-4.357447147369385
1776037939721431000,-1522134.1045688477,-3.598485231399536,1.1827356815338135,-4.153939723968506
1776037939731501800,-1522134.094498291,-3.7181951999664307,1.2306196689605713,-4.266467571258545
1776037939741572600,-1522134.0844274901,-4.129997730255127,1.0438719987869263,-4.091690540313721
1776037939751643400,-1522134.0743566894,-4.230554580688477,1.0965443849563599,-3.8570590019226074
1776037939761714400,-1522134.0642856446,-4.467580318450928,0.9792284965515137,-3.7469255924224854
1776037939771785200,-1522134.0542148438,-4.548983097076416,0.8906430602073669,-3.5458126068115234
1776037939801997600,-1522134.0240024414,-4.855441093444824,1.460463047027588,-2.7772738933563232
1776037939812068400,-1522134.0139316407,-5.085284233093262,1.778891921043396,-2.6240451335906982
1776037939822139100,-1522134.0038608399,-5.367800235748291,2.049436569213867,-2.454056739807129
1776037939832240400,-1522133.9937595215,-5.638344764709473,1.9728221893310547,-2.3247697353363037
1776037939842280700,-1522133.9837192383,-5.815515995025635,1.8938134908676147,-2.169146776199341
1776037939852351500,-1522133.9736484375,-6.107608318328857,1.920149803161621,-1.8842366933822632
1776037939862422300,-1522133.9635776368,-6.260837554931641,1.845929503440857,-1.656787633895874
1776037939872493000,-1522133.953506836,-6.392518520355225,1.8531121015548706,-1.4508862495422363
1776037939912776400,-1522133.9132236328,-6.167463779449463,2.4444799423217773,-1.2258312702178955
1776037939922877700,-1522133.9031223145,-6.04775333404541,2.454056739807129,-1.1779472827911377
1776037939932948500,-1522133.8930515137,-5.949591159820557,2.33913516998291,-1.1779472827911377
1776037939942988800,-1522133.8830112305,-5.623979568481445,2.5306711196899414,-1.0438719987869263
1776037939953059600,-1522133.8729404297,-5.295974254608154,2.6144683361053467,-1.0007762908935547
1776037939963160800,-1522133.8628391114,-4.8267107009887695,2.695871114730835,-0.9768342971801758
1776037939973231600,-1522133.8527683106,-4.484339714050293,2.7246015071868896,-1.0462661981582642
1776037939983302400,-1522133.8426975098,-4.261679172515869,2.8107926845550537,-1.091755986213684
1776037939993403600,-1522133.8325964354,-4.247313976287842,3.028665065765381,-1.213860273361206
1776037940003474700,-1522133.8225253907,-4.290409564971924,3.359065055847168,-1.2425906658172607
1776037940013514800,-1522133.8124853515,-4.266467571258545,3.5242648124694824,-1.2425906658172607
1776037940023585500,-1522133.8024145507,-4.01268196105957,3.4189200401306152,-1.2761094570159912
1776037940033625900,-1522133.7923740235,-3.8139634132385254,3.509899616241455,-1.2282254695892334
1776037940043727400,-1522133.782272705,-3.6846764087677,3.6607344150543213,-1.1971008777618408
1776037940053767400,-1522133.772232666,-3.6320040225982666,3.93367338180542,-1.1755530834197998
1776037940063838200,-1522133.7621618651,-3.31118106842041,4.14915132522583,-1.2042834758758545
1776037940073848000,-1522133.7521518555,-2.920926094055176,4.343081951141357,-1.45806884765625
1776037940083980000,-1522133.7420200196,-2.5665841102600098,4.211400985717773,-1.8100165128707886
1776037940124232700,-1522133.701767334,-0.6512228846549988,3.1052796840667725,-3.603273630142212
1776037940134334000,-1522133.6916660157,-0.31603461503982544,2.96162748336792,-3.8953661918640137
1776037940144404700,-1522133.6815952149,0.08858546614646912,2.542642116546631,-4.244919776916504
1776037940154475500,-1522133.671524414,0.36152446269989014,2.341529369354248,-4.714183330535889
1776037940164576800,-1522133.6614233397,0.3016694188117981,2.3989901542663574,-5.288791656494141
1776037940174678300,-1522133.6513217774,0.07661445438861847,2.580949544906616,-5.772420406341553
1776037940184718300,-1522133.6412817382,-0.2849099934101105,2.7964274883270264,-6.385335922241211
1776037940194758700,-1522133.631241455,-0.8451532125473022,2.983175277709961,-7.043741226196289
1776037940214900200,-1522133.6110998534,-1.237802267074585,2.4157495498657227,-7.390900611877441
1776037940224971300,-1522133.6010288086,-0.9289502501487732,1.7980455160140991,-7.091625213623047
1776037940235011300,-1522133.5909887694,-0.6560112833976746,1.0869675874710083,-6.557718276977539
1776037940245112800,-1522133.580887207,-0.33279404044151306,0.3016694188117981,-5.906495571136475
1776037940255214000,-1522133.5707858887,-0.08858546614646912,-0.3471592366695404,-5.240907669067383
1776037940265284900,-1522133.560715088,0.19153612852096558,-0.8451532125473022,-4.654327869415283
1776037940285426400,-1522133.5405734864,-0.09576806426048279,-1.2401964664459229,-3.8307228088378906
1776037940295497200,-1522133.5305026856,-0.47644615173339844,-1.0558429956436157,-3.584120035171509
1776037940305507000,-1522133.52049292,-0.9816226959228516,-0.8810662031173706,-3.3279404640197754
1776037940335689000,-1522133.4903110352,-2.183511972427368,-0.011971008032560349,-3.4524388313293457
1776037940345759700,-1522133.4802402344,-2.4372973442077637,0.05985504388809204,-3.44765043258667
1776037940355830500,-1522133.4701694336,-2.5019407272338867,0.038307227194309235,-3.294421434402466
1776037940365901300,-1522133.4600986328,-2.580949544906616,-0.0454898327589035,-2.9472622871398926
1776037940376002600,-1522133.4499975585,-2.691082715988159,0.15083470940589905,-2.5450363159179688
1776037940386073300,-1522133.4399267577,-2.786850690841675,0.13168109953403473,-2.207453966140747
1776037940396113700,-1522133.4298862305,-2.82515811920166,-0.031124621629714966,-1.843535304069519
1776037940406154000,-1522133.4198459473,-2.9927520751953125,-0.15801730751991272,-1.5921441316604614
1776037940426295600,-1522133.3997043457,-3.0166940689086914,-0.5961562395095825,-0.8667010068893433
1776037940436366300,-1522133.389633545,-3.095702886581421,-0.8092401623725891,-0.5339069962501526
1776037940446437000,-1522133.3795629882,-3.0550012588500977,-1.0055646896362305,-0.17238251864910126
1776037940456477400,-1522133.369522461,-3.043030261993408,-1.259350061416626,0.14844051003456116
1776037940466487300,-1522133.3595126953,-3.028665065765381,-1.3335703611373901,0.5554547905921936
1776037940476588500,-1522133.349411377,-3.0813376903533936,-1.4437036514282227,0.8068459630012512
1776037940486659300,-1522133.3393405762,-2.985569477081299,-1.5155296325683594,1.0462661981582642
1776037940496760600,-1522133.3292395019,-2.873042106628418,-1.6879122257232666,1.173158884048462
1776037940547023000,-1522133.2789768067,-2.7724854946136475,-1.9273324012756348,1.7717092037200928
1776037940567164700,-1522133.258835449,-2.607285737991333,-2.1116859912872314,1.5873557329177856
1776037940577266200,-1522133.2487338868,-2.38462495803833,-2.209848165512085,1.2976573705673218
1776037940587337000,-1522133.238663086,-2.0422539710998535,-2.3798365592956543,1.139639973640442
1776037940597438200,-1522133.2285617676,-1.8100165128707886,-2.47560453414917,1.115697979927063
1776037940607509000,-1522133.2184909668,-1.6663644313812256,-2.477998733520508,1.0271124839782715
1776037940637721300,-1522133.1882785645,-0.6200982332229614,-2.827552318572998,0.7254431247711182
1776037940647792000,-1522133.1782077637,-0.11971008777618408,-2.964021682739258,0.545877993106842
1776037940657893600,-1522133.1681064453,0.28730419278144836,-2.9233202934265137,0.44771572947502136
1776037940667933700,-1522133.1580664061,0.35913026332855225,-2.8586769104003906,0.3256114423274994
1776037940688106000,-1522133.137894043,0.4357447028160095,-2.7317841053009033,0.38307225704193115
1776037940698207200,-1522133.1277927246,0.5650315880775452,-2.806004285812378,0.3687070608139038
1776037940708278000,-1522133.1177219239,0.993593692779541,-2.875436305999756,0.19153612852096558
1776037940718348800,-1522133.107651123,1.4197616577148438,-3.064578056335449,-0.1628057211637497
1776037940748622300,-1522133.0773776856,2.1787235736846924,-2.7461493015289307,-1.173158884048462
1776037940758693000,-1522133.0673068848,2.2457611560821533,-2.6623523235321045,-1.4700398445129395
1776037940768764000,-1522133.057236084,2.3582887649536133,-2.6168625354766846,-1.8267759084701538
1776037940778865200,-1522133.0471347657,2.2002713680267334,-2.451662540435791,-2.145204782485962
1776037940788875000,-1522133.037125,2.1571757793426514,-2.363077163696289,-2.43011474609375
1776037940798976300,-1522133.0270236817,2.1978771686553955,-2.3056161403656006,-2.7222073078155518
1776037940809047000,-1522133.016952881,2.2385785579681396,-2.4157495498657227,-3.002328872680664
1776037940819117800,-1522133.00688208,2.296039342880249,-2.3582887649536133,-3.0382418632507324
1776037940849361000,-1522132.9766391602,2.4660277366638184,-2.389413356781006,-2.846705913543701
1776037940859431700,-1522132.9665683594,2.4181437492370605,-2.806004285812378,-2.719813108444214
1776037940869502500,-1522132.9564975586,1.845929503440857,-3.864241600036621,-3.0789434909820557
1776037940889674500,-1522132.9363254395,1.764526605606079,-4.381389141082764,-3.2297780513763428
1776037940899775700,-1522132.9262243651,1.3192051649093628,-3.8570590019226074,-2.8778305053710938
1776037940909785600,-1522132.9162143555,1.137245774269104,-2.1930887699127197,-2.408566951751709
1776037940919856400,-1522132.9061435547,0.8164227604866028,-0.5530605912208557,-2.054224967956543
1776037940950068700,-1522132.8759311524,-0.33279404044151306,0.21787235140800476,-2.1787235736846924
1776037940970241000,-1522132.8557590332,-0.6775590777397156,-0.11252748221158981,-2.801215887069702
1776037940980342300,-1522132.8456577149,-0.6799532771110535,0.0071826050989329815,-3.1052796840667725
1776037940990413000,-1522132.835586914,-0.6991068720817566,0.12689268589019775,-3.5170822143554688
1776037941000453400,-1522132.825546631,-0.9840168952941895,0.0694318488240242,-3.974374771118164
1776037941010524200,-1522132.81547583,-1.3215993642807007,-0.0071826050989329815,-4.299986362457275
1776037941020595000,-1522132.8054050293,-1.8052281141281128,-0.05506663769483566,-4.513070106506348
1776037941050807300,-1522132.775192627,-3.2752678394317627,0.17238251864910126,-4.666299343109131
1776037941060908500,-1522132.7650915526,-3.5745432376861572,0.26096799969673157,-4.426878929138184
1776037941070918400,-1522132.755081543,-3.9863457679748535,0.3902548849582672,-4.086902141571045
1776037941080989200,-1522132.7450107422,-4.378994941711426,0.6368576288223267,-3.799597978591919
1776037941091060000,-1522132.7349399414,-4.888959884643555,0.6248866319656372,-3.512293815612793
1776037941101161200,-1522132.724838867,-5.197812080383301,0.6224924325942993,-3.270479440689087
1776037941111232300,-1522132.7147678223,-5.456385612487793,0.7038952708244324,-3.0334534645080566
1776037941121303000,-1522132.7046970215,-5.779603004455566,0.7781155705451965,-2.8371291160583496
1776037941161494500,-1522132.6645053711,-6.418854713439941,1.5825673341751099,-2.3271639347076416
1776037941171565300,-1522132.6544345703,-6.517016887664795,1.6328455209732056,-2.2888567447662354
1776037941181636000,-1522132.6443640136,-6.584054470062256,1.5705963373184204,-2.205059766769409
1776037941191707000,-1522132.6342932128,-6.71334171295166,1.4245500564575195,-2.164358377456665
1776037941201777700,-1522132.624222412,-6.871358871459961,1.5394717454910278,-2.1930887699127197
1776037941211848700,-1522132.6141513672,-6.806715488433838,1.900996208190918,-2.075772762298584
1776037941221919500,-1522132.6040805664,-6.904877662658691,2.2625205516815186,-2.013523578643799
1776037941231990300,-1522132.5940097657,-6.964732646942139,2.585737943649292,-1.9752163887023926
1776037941252101400,-1522132.5738986817,-7.041347026824951,2.801215887069702,-1.8339585065841675
1776037941282344200,-1522132.5436557618,-6.67982292175293,3.758896589279175,-1.6974890232086182
1776037941292415000,-1522132.533584961,-6.698976516723633,3.794809579849243,-1.6376339197158813
1776037941302485800,-1522132.5235141602,-6.789956092834473,3.687070608139038,-1.577778935432434
1776037941312465200,-1522132.5135349121,-6.737283706665039,3.6535518169403076,-1.5849615335464478
1776037941322566400,-1522132.5034335938,-6.4834980964660645,3.584120035171509,-1.7693150043487549
1776037941332637200,-1522132.493362793,-5.928043365478516,3.5673606395721436,-1.920149803161621
1776037941352809200,-1522132.4731906739,-5.56173038482666,3.691859006881714,-2.1787235736846924
1776037941362880000,-1522132.463120117,-5.506663799285889,3.7181951999664307,-2.4444799423217773
1776037941372950800,-1522132.4530493163,-5.595249176025391,3.622427225112915,-2.604891538619995
1776037941383021600,-1522132.4429785155,-5.535394191741943,3.4548330307006836,-2.7557260990142822
1776037941393092600,-1522132.4329074707,-5.051765441894531,3.3207578659057617,-3.0190882682800293
1776037941403193900,-1522132.4228061524,-4.6471452713012695,3.1890766620635986,-3.3279404640197754
1776037941413264600,-1522132.4127353516,-4.094084739685059,3.0382418632507324,-3.8355112075805664
1776037941423335400,-1522132.4026645508,-3.423708438873291,2.96162748336792,-4.393360137939453
1776037941433375700,-1522132.3926242676,-2.7078421115875244,3.0190882682800293,-4.977545261383057
1776037941463588000,-1522132.3624118653,-2.140416383743286,2.5019407272338867,-6.962338447570801
1776037941473598000,-1522132.3524020996,-2.1811177730560303,2.365471363067627,-7.747636795043945
1776037941483668700,-1522132.3423312989,-2.252943754196167,1.802833914756775,-8.700529098510742
1776037941493739500,-1522132.332260498,-2.363077163696289,1.4173674583435059,-9.44991397857666
1776037941503840800,-1522132.3221591797,-2.360682964324951,1.3215993642807007,-9.648633003234863
1776037941513850600,-1522132.312149414,-1.9033904075622559,1.192312479019165,-9.301473617553711
1776037941523951900,-1522132.3020480957,-1.4053963422775269,0.8020575642585754,-8.638279914855957
1776037941534022700,-1522132.291977295,-0.9002198576927185,0.33279404044151306,-7.704541206359863
1776037941544093400,-1522132.2819064942,-0.2777273952960968,0.06703764945268631,-6.763619899749756
1776037941564174000,-1522132.2618259278,0.40462008118629456,-0.12449848651885986,-4.982333660125732
1776037941574244900,-1522132.251755127,0.2968810200691223,0.08140286058187485,-4.3191399574279785
1776037941584315600,-1522132.2416843262,-0.23702596127986908,0.24899697303771973,-3.9217023849487305
1776037941594325500,-1522132.2316745606,-0.8020575642585754,0.26575639843940735,-3.840299606323242
1776037941604426800,-1522132.2215732422,-1.3838485479354858,0.0694318488240242,-3.883395195007324
1776037941614467000,-1522132.211532959,-1.9800047874450684,-0.028730420395731926,-3.9408559799194336
1776037941624568300,-1522132.2014316407,-2.449268341064453,-0.07900865375995636,-3.847482204437256
1776037941644679400,-1522132.1813205567,-0.7757213711738586,-0.4572925269603729,-3.708618402481079
1776037941684901600,-1522132.1410983887,-1.2258312702178955,0.4357447028160095,-2.2577321529388428
1776037941694880800,-1522132.1311191407,-0.912190854549408,-1.314416766166687,-2.094926595687866
1776037941704921000,-1522132.1210788575,-0.7589619159698486,-3.004723072052002,-1.2306196689605713
1776037941714931000,-1522132.1110690918,-0.9050082564353943,-3.667917013168335,-0.3423708379268646
1776037941725032200,-1522132.1009677735,-0.7781155705451965,-2.959233283996582,0.5315127968788147
1776037941735103000,-1522132.0908969727,-1.0438719987869263,-1.5969325304031372,0.993593692779541
1776037941745204200,-1522132.0807956543,-1.0797849893569946,-0.7086837291717529,1.0247182846069336
1776037941775264000,-1522132.0507360839,-1.7884687185287476,-1.0869675874710083,1.8315643072128296
1776037941785365500,-1522132.0406345215,-1.824381709098816,-1.2090718746185303,2.1523873805999756
1776037941795375000,-1522132.030625,-1.7717092037200928,-1.1324573755264282,2.4851813316345215
1776037941805446000,-1522132.020554199,-1.5538369417190552,-1.0079588890075684,2.5761611461639404
1776037941815455700,-1522132.0105441895,-1.3910311460494995,-1.2449848651885986,2.671929121017456
1776037941825557000,-1522132.0004431151,-1.1061211824417114,-1.601720929145813,2.4851813316345215
1776037941835597300,-1522131.990402588,-0.849941611289978,-1.8794482946395874,2.5067291259765625
1776037941845668000,-1522131.9803317871,-0.6129156351089478,-2.1499931812286377,2.3965959548950195
1776037941865779200,-1522131.9602207032,0.043095629662275314,-2.190694570541382,1.9967641830444336
1776037941885920800,-1522131.9400793456,0.1388636976480484,-2.4803929328918457,1.5275006294250488
1776037941895961000,-1522131.9300388184,0.2059013396501541,-2.432508945465088,1.4748282432556152
1776037941906031900,-1522131.9199680176,0.5339069962501526,-2.38462495803833,1.4413094520568848
1776037941916102700,-1522131.9098974608,1.5203180313110352,-2.1164743900299072,1.139639973640442
1776037941926173400,-1522131.89982666,2.0039467811584473,-1.745373010635376,0.6919242739677429
1776037941936244200,-1522131.8897558593,2.006340980529785,-1.4844050407409668,0.15083470940589905
1776037941946315300,-1522131.8796848145,1.845929503440857,-1.3527239561080933,0.016759412363171577
1776037941956324900,-1522131.8696750489,1.6974890232086182,-1.139639973640442,-0.10295066982507706
1776037941976466400,-1522131.8495334473,1.292868971824646,-1.1875240802764893,-0.05985504388809204
1776037941986537200,-1522131.8394628905,1.3215993642807007,-1.192312479019165,-0.33758243918418884
1776037941996577500,-1522131.8294223633,1.50355863571167,-1.259350061416626,-0.6344634294509888
1776037942006678800,-1522131.819321289,1.742978811264038,-1.4173674583435059,-1.0462661981582642
1776037942016719000,-1522131.8092810058,1.8171991109848022,-1.1635819673538208,-1.4748282432556152
1776037942026790000,-1522131.799210205,1.7908629179000854,-0.9313444495201111,-1.900996208190918
1776037942036830200,-1522131.7891696778,1.7405846118927002,-0.545877993106842,-2.33913516998291
1776037942046901000,-1522131.779099121,1.680729627609253,-0.23702596127986908,-2.7030537128448486
1776037942077022000,-1522131.7489780274,1.5825673341751099,0.10055647045373917,-3.2632968425750732
1776037942087092700,-1522131.7389072266,1.4221558570861816,0.07900865375995636,-3.1004912853240967
1776037942097133000,-1522131.7288669434,1.1827356815338135,-0.08619125932455063,-2.9520506858825684
1776037942107173400,-1522131.7188266602,1.1755530834197998,-0.23702596127986908,-3.00711727142334
1776037942117213700,-1522131.708786377,1.4676456451416016,-0.33279404044151306,-3.184288263320923
1776037942127253800,-1522131.6987463378,1.845929503440857,-0.40940847992897034,-3.5410242080688477
1776037942137294000,-1522131.6887058106,2.0614075660705566,-0.44771572947502136,-3.8355112075805664
1776037942147364900,-1522131.6786352538,1.941697597503662,-0.4908113479614258,-3.8307228088378906
1776037942157435600,-1522131.668564453,1.3886369466781616,-0.28969839215278625,-3.4356794357299805
1776037942197749500,-1522131.6282504883,-0.7852981686592102,-0.1173158809542656,-2.6647465229034424
1776037942207820300,-1522131.6181796875,-0.42856210470199585,-0.05506663769483566,-2.868253707885742
1776037942217860600,-1522131.6081394043,-0.2585737705230713,0.1173158809542656,-3.3925838470458984
1776037942227931400,-1522131.5980686035,0.028730420395731926,-0.05267243832349777,-3.8139634132385254
1776037942237971700,-1522131.5880283203,0.090979665517807,-0.3734954595565796,-4.0964789390563965
1776037942248042500,-1522131.5779575196,-0.1149216815829277,-0.5961562395095825,-4.084507942199707
1776037942258113300,-1522131.5678867188,-0.545877993106842,-0.6584054827690125,-4.050989151000977
1776037942278254800,-1522131.5477451172,-1.7094600200653076,-0.5315127968788147,-3.77565598487854
1776037942288325600,-1522131.5376743164,-2.2194249629974365,-0.4381389021873474,-3.509899616241455
1776037942298396400,-1522131.5276035157,-2.7269957065582275,-0.3016694188117981,-3.28963303565979
1776037942308436700,-1522131.5175632325,-3.090914487838745,-0.07661445438861847,-3.050212860107422
1776037942318477000,-1522131.5075229493,-3.3686418533325195,0.2992752194404602,-2.8443117141723633
1776037942328517400,-1522131.497482666,-3.6128504276275635,0.49559974670410156,-2.540247917175293
1776037942338588200,-1522131.4874118653,-3.801992416381836,0.5793967843055725,-2.276885747909546
1776037942348659000,-1522131.4773410645,-3.957615375518799,0.5363011956214905,-1.9823989868164062
1776037942358729700,-1522131.4672702637,-4.079719543457031,0.5363011956214905,-1.745373010635376
1776037942378901800,-1522131.4470981446,-4.587290287017822,0.6560112833976746,-1.3718775510787964
1776037942399012900,-1522131.4269870606,-5.197812080383301,1.1563993692398071,-1.0271124839782715
1776037942409114000,-1522131.4168859862,-5.185841083526611,1.0606313943862915,-0.9433154463768005
1776037942419185000,-1522131.4068151854,-5.082890033721924,0.7134721279144287,-0.8020575642585754
1776037942429256000,-1522131.3967441407,-4.881777286529541,0.43335050344467163,-0.8810662031173706
1776037942439296000,-1522131.3867041015,-4.886565685272217,0.19871874153614044,-0.950498104095459
1776037942449397500,-1522131.376602539,-5.008669853210449,0.2513911724090576,-0.933738648891449
1776037942459437800,-1522131.366562256,-5.262455463409424,0.4165911078453064,-0.9361328482627869
1776037942469508600,-1522131.356491455,-5.521028995513916,0.7422025203704834,-1.01753568649292
1776037942489619500,-1522131.3363806151,-6.1530985832214355,1.2521674633026123,-1.1827356815338135
1776037942499598800,-1522131.326401123,-6.035782337188721,1.5897499322891235,-1.2090718746185303
1776037942509700000,-1522131.3162998047,-5.6910176277160645,2.140416383743286,-1.522712230682373
1776037942519740400,-1522131.3062595215,-5.592854976654053,2.7748796939849854,-1.8818424940109253
1776037942529811200,-1522131.2961887207,-5.336675643920898,3.2106244564056396,-2.4133553504943848
1776037942539882000,-1522131.28611792,-5.078101634979248,3.380612850189209,-2.7054479122161865
1776037942549983200,-1522131.2760168456,-4.924872875213623,3.450044631958008,-3.002328872680664
1776037942560023600,-1522131.2659765624,-4.807557106018066,3.4308910369873047,-2.9233202934265137
1776037942570125000,-1522131.255875,-4.704606533050537,3.2968156337738037,-2.96162748336792
1776037942600307000,-1522131.2256931153,-4.642356872558594,3.4404678344726562,-3.0310592651367188
1776037942620418000,-1522131.2055820313,-4.158728122711182,3.5027170181274414,-3.737348794937134
1776037942630488800,-1522131.1955112305,-4.127603530883789,3.6535518169403076,-3.971980571746826
1776037942640559600,-1522131.1854404297,-3.9049429893493652,3.648763418197632,-4.216189384460449
1776037942650660900,-1522131.1753391114,-3.7612907886505127,3.643975019454956,-4.400542736053467
1776037942660731600,-1522131.1652683106,-3.220201253890991,3.6128504276275635,-4.680664539337158
1776037942670772000,-1522131.1552280274,-2.762908697128296,3.5721490383148193,-5.027823448181152
1776037942680812300,-1522131.1451877442,-2.3989901542663574,3.5625722408294678,-5.382165431976318
1776037942690883000,-1522131.1351169434,-1.7477672100067139,3.4524388313293457,-5.710171222686768
1776037942721034500,-1522131.1049655762,-0.8930372595787048,3.7181951999664307,-6.672640323638916
1776037942731135700,-1522131.0948642578,-0.9840168952941895,3.801992416381836,-7.070077419281006
1776037942741206500,-1522131.084793457,-0.9911994934082031,3.7421371936798096,-6.97430944442749
1776037942751307800,-1522131.0746921387,-1.0079588890075684,3.845088005065918,-7.254431247711182
1776037942761378600,-1522131.064621338,-1.048660397529602,3.7660791873931885,-7.4555439949035645
1776037942771480000,-1522131.0545200196,-0.9457096457481384,3.622427225112915,-7.187393665313721
1776037942781520100,-1522131.0444799804,-0.7350199222564697,3.399766445159912,-6.5912370681762695
1776037942811732700,-1522131.014267334,-0.6105214357376099,2.5474305152893066,-4.623203277587891
1776037942821803500,-1522131.0041965332,-0.706289529800415,2.33913516998291,-4.489128112792969
1776037942831874300,-1522130.9941257325,-0.8834604024887085,2.094926595687866,-4.489128112792969
1776037942841914600,-1522130.9840854493,-1.1085153818130493,2.0015525817871094,-4.697423934936523
1776037942851924200,-1522130.9740756836,-1.3335703611373901,1.8052281141281128,-4.896142482757568
1776037942861995000,-1522130.9640048828,-1.6352397203445435,1.7357962131500244,-5.094861030578613
1776037942872065800,-1522130.953934326,-1.98958158493042,1.8052281141281128,-5.207388877868652
1776037942882136600,-1522130.9438635253,-2.276885747909546,1.8626888990402222,-5.0876784324646
1776037942912349200,-1522130.913650879,-2.5282769203186035,1.7908629179000854,-4.185064792633057
1776037942922420000,-1522130.9035800782,-2.719813108444214,1.6208745241165161,-3.6535518169403076
1776037942932490800,-1522130.8935092774,-2.650381326675415,1.5634137392044067,-3.1244332790374756
1776037942942561500,-1522130.8834384766,-2.6647465229034424,1.3670891523361206,-2.652775526046753
1776037942952662800,-1522130.8733371582,-2.7006595134735107,1.2617442607879639,-2.207453966140747
1776037942962733600,-1522130.8632663575,-2.784456491470337,1.0630255937576294,-1.659181833267212
1776037942972804400,-1522130.8531955567,-2.9664158821105957,0.950498104095459,-1.2689268589019775
1776037942982875100,-1522130.843124756,-3.1004912853240967,0.7661445140838623,-0.8188169598579407
1776037942992915500,-1522130.8330844727,-3.3279404640197754,0.7613561153411865,-0.49559974670410156
1776037943023005700,-1522130.8029943847,-3.464409828186035,0.5937620401382446,0.07182604819536209
1776037943043116800,-1522130.7828833007,-3.4332852363586426,0.6105214357376099,0.3256114423274994
1776037943053187600,-1522130.7728125,-3.3638534545898438,0.45489832758903503,0.45250412821769714
1776037943063258600,-1522130.762741455,-3.2632968425750732,0.42616790533065796,0.545877993106842
1776037943073329400,-1522130.7526706543,-3.117250680923462,0.181959331035614,0.48602294921875
1776037943083430700,-1522130.742569336,-2.827552318572998,-0.07182604819536209,0.33758243918418884
1776037943093532000,-1522130.7324680176,-2.5091233253479004,-0.42377370595932007,-0.021547814831137657
1776037943103602700,-1522130.7223972168,-2.2673089504241943,-0.5339069962501526,-0.18914192914962769
1776037943133845800,-1522130.692154297,-1.3886369466781616,-0.7733271718025208,0.12928688526153564
1776037943143916500,-1522130.6820834961,-1.2018892765045166,-0.6655880808830261,0.29209262132644653
1776037943153926100,-1522130.6720739745,-0.8690952062606812,-0.8930372595787048,0.1412578970193863
1776037943164027600,-1522130.6619724121,-0.6392518281936646,-0.9433154463768005,0.038307227194309235
1776037943174098400,-1522130.6519016114,-0.545877993106842,-0.8954314589500427,-0.1604115068912506
1776037943184108000,-1522130.6418920897,-0.3232172429561615,-0.8810662031173706,-0.33039984107017517
1776037943194148400,-1522130.6318515625,0.019153613597154617,-0.9552865028381348,-0.3687070608139038
1776037943204249600,-1522130.6217504882,0.45250412821769714,-1.1803414821624756,-0.40222588181495667
1776037943214320600,-1522130.6116794434,0.7326257228851318,-1.2880805730819702,-0.3998316824436188
1776037943244471800,-1522130.5815280762,2.008735179901123,-2.1715409755706787,-0.9624691009521484
1776037943254542600,-1522130.5714575194,2.3271639347076416,-2.212242364883423,-1.2689268589019775
1776037943264613400,-1522130.5613867186,2.492363929748535,-2.363077163696289,-1.659181833267212
1776037943274653700,-1522130.5513461914,2.5450363159179688,-2.427720546722412,-2.027888774871826
1776037943284755200,-1522130.541244873,2.698265314102173,-2.3726539611816406,-2.298433542251587
1776037943294826000,-1522130.5311740723,2.6886885166168213,-2.094926595687866,-2.473210334777832
1776037943304896800,-1522130.5211032715,2.5905263423919678,-1.8602946996688843,-2.6839001178741455
1776037943345149400,-1522130.480850586,2.27209734916687,-1.9776105880737305,-2.741360902786255
1776037943365291000,-1522130.4607089844,2.4899697303771973,-2.276885747909546,-3.1747114658355713
1776037943375361800,-1522130.4506381836,2.5953147411346436,-2.229001760482788,-3.268085241317749
1776037943385432600,-1522130.4405673828,2.650381326675415,-2.2242133617401123,-3.1076738834381104
1776037943395473000,-1522130.4305270996,2.542642116546631,-2.3535003662109375,-2.7293899059295654
1776037943405543700,-1522130.4204562989,2.142810583114624,-2.52109432220459,-2.2577321529388428
1776037943415584000,-1522130.4104160157,1.5705963373184204,-2.6408045291900635,-1.8124107122421265
1776037943425563100,-1522130.4004367676,1.0749965906143188,-2.6168625354766846,-1.4221558570861816
1776037943445674200,-1522130.3803256836,0.5722141861915588,-2.6791117191314697,-1.8962076902389526
1776037943455745000,-1522130.3702548828,0.5195417404174805,-2.5689783096313477,-2.382230758666992
1776037943465815800,-1522130.360184082,0.48602294921875,-2.1475989818573,-2.7222073078155518
1776037943475886600,-1522130.3501135253,0.49559974670410156,-1.7597382068634033,-2.8874073028564453
1776037943485896400,-1522130.3401035157,0.42377370595932007,-1.5753847360610962,-2.9927520751953125
1776037943495997700,-1522130.3300021973,0.13407529890537262,-1.4987702369689941,-3.1076738834381104
1776037943506068500,-1522130.3199316405,-0.1604115068912506,-1.2641384601593018,-3.3016040325164795
1776037943516170000,-1522130.3098300782,-0.5171475410461426,-0.9864110946655273,-3.380612850189209
1776037943526149000,-1522130.29985083,-0.8810662031173706,-0.5554547905921936,-3.485957622528076
1776037943546321200,-1522130.279678955,-1.3838485479354858,0.2753331959247589,-3.428496837615967
1776037943556361500,-1522130.2696384278,-1.6879122257232666,0.5626373887062073,-3.3207578659057617
1776037943566371300,-1522130.2596286621,-2.013523578643799,0.7637503147125244,-3.1747114658355713
1776037943576442000,-1522130.2495578614,-2.233790159225464,1.0199298858642578,-2.959233283996582
1776037943586452000,-1522130.2395480957,-2.5067291259765625,1.3335703611373901,-2.7485435009002686
1776037943596492000,-1522130.2295080565,-2.7772738933563232,1.4844050407409668,-2.604891538619995
1776037943606562800,-1522130.2194372558,-3.138798475265503,1.53707754611969,-2.5330653190612793
1776037943616664300,-1522130.2093356934,-3.488351821899414,1.6041151285171509,-2.3774423599243164
1776037943656947500,-1522130.1690524903,-5.039794445037842,2.5785553455352783,-2.255337953567505
1776037943667018200,-1522130.1589816895,-5.341464042663574,2.7676970958709717,-2.3127987384796143
1776037943677119500,-1522130.1488806151,-5.5760955810546875,2.9305028915405273,-2.169146776199341
1776037943687190300,-1522130.1388098144,-5.74129581451416,3.141192674636841,-2.169146776199341
1776037943697230600,-1522130.1287692871,-5.901707172393799,3.423708438873291,-2.2218191623687744
1776037943707271000,-1522130.118729004,-6.066906929016113,3.6367924213409424,-2.3535003662109375
1776037943717341700,-1522130.1086582032,-6.138733386993408,3.8283286094665527,-2.3918075561523438
1776037943727412500,-1522130.0985874024,-6.081272125244141,3.9384617805480957,-2.43011474609375
1776037943737483300,-1522130.0885168456,-5.9735331535339355,3.9911341667175293,-2.5115175247192383
1776037943757655600,-1522130.0683444825,-5.702988624572754,4.151545524597168,-2.477998733520508
1776037943767726300,-1522130.0582736817,-5.489904403686523,4.3622355461120605,-2.4468741416931152
1776037943777797000,-1522130.048202881,-5.4444146156311035,4.496310710906982,-2.5330653190612793
1776037943787868000,-1522130.03813208,-5.4013190269470215,4.714183330535889,-2.647987127304077
1776037943807979000,-1522130.0180209961,-5.224148273468018,5.123591423034668,-3.2609026432037354
1776037943818080300,-1522130.0079196778,-5.125985622406006,5.212177276611328,-3.6774938106536865
1776037943828151000,-1522129.997848877,-4.910507678985596,5.305551052093506,-4.106055736541748
1776037943868434200,-1522129.9575659179,-3.557783842086792,5.243301868438721,-5.276820659637451
1776037943878505000,-1522129.947495117,-3.450044631958008,5.207388877868652,-5.372588634490967
1776037943888545300,-1522129.9374548339,-3.2585084438323975,5.104437828063965,-5.147533416748047
1776037943898616000,-1522129.927384033,-3.028665065765381,4.922478675842285,-5.137956619262695
1776037943908686800,-1522129.9173132323,-3.0119056701660156,4.920084476470947,-5.3797712326049805
1776037943918758000,-1522129.9072421875,-2.889801502227783,4.666299343109131,-5.731719017028809
1776037943928798000,-1522129.8972021483,-2.7102363109588623,4.527435302734375,-6.112396717071533
1776037943938868700,-1522129.8871313476,-2.166752576828003,4.417302131652832,-6.574477672576904
1776037943979182600,-1522129.8468173828,-1.577778935432434,3.6990416049957275,-7.620744228363037
1776037943999324200,-1522129.8266757813,-1.0773907899856567,2.738966703414917,-7.041347026824951
1776037944009364500,-1522129.816635498,-0.768538773059845,2.2433669567108154,-6.507440090179443
1776037944019435300,-1522129.8065646973,-0.13407529890537262,1.659181833267212,-5.971138954162598
1776037944029506000,-1522129.7964938965,0.5171475410461426,1.292868971824646,-5.523423194885254
1776037944039607300,-1522129.7863928222,0.871489405632019,1.0582371950149536,-5.394136428833008
1776037944069820000,-1522129.7561801758,1.194706678390503,0.9983820915222168,-5.669469833374023
1776037944079921200,-1522129.7460788575,0.9816226959228516,1.3215993642807007,-5.805939197540283
1776037944100062700,-1522129.725937256,0.15083470940589905,1.8794482946395874,-5.652710437774658
1776037944110133500,-1522129.715866455,-0.22505496442317963,2.1092917919158936,-5.329493045806885
1776037944120234800,-1522129.7057651368,-0.7493851184844971,2.252943754196167,-4.967968463897705
1776037944130244600,-1522129.6957553711,-1.0462661981582642,2.1284453868865967,-4.606443881988525
1776037944140315400,-1522129.6856845703,-1.213860273361206,2.097320795059204,-4.292803764343262
1776037944150386200,-1522129.6756137696,-1.3910311460494995,1.7884687185287476,-3.6583402156829834
1776037944200709600,-1522129.6252902832,-2.2194249629974365,0.8547300100326538,-0.12210428714752197
1776037944220820700,-1522129.6051791993,-2.564189910888672,0.629675030708313,0.8834604024887085
1776037944240871000,-1522129.5851291504,-2.5498247146606445,0.4596867263317108,1.2473790645599365
1776037944250880500,-1522129.5751193848,-2.652775526046753,0.27054479718208313,1.434126853942871
1776037944260982000,-1522129.5650180664,-2.6839001178741455,0.1364694982767105,1.5083470344543457
1776037944291194400,-1522129.534805664,-2.3271639347076416,-0.524330198764801,1.6879122257232666
1776037944301265200,-1522129.5247348633,-2.231395959854126,-0.7398083209991455,1.6065093278884888
1776037944311336000,-1522129.5146640625,-2.070984363555908,-0.849941611289978,1.6136919260025024
1776037944321406700,-1522129.5045932618,-1.944091796875,-0.9792284965515137,1.4700398445129395
1776037944331477500,-1522129.494522461,-1.824381709098816,-1.036689281463623,1.3239935636520386
1776037944341548300,-1522129.4844516602,-1.7310078144073486,-0.9409212470054626,1.0821791887283325
1776037944351619000,-1522129.4743808594,-1.745373010635376,-0.9217676520347595,0.9169792532920837
1776037944361659400,-1522129.4643405762,-1.6759412288665771,-0.9097966551780701,0.768538773059845
1776037944391749600,-1522129.4342504882,-1.158793568611145,-1.400607943534851,0.1364694982767105
1776037944411891200,-1522129.4141088866,-0.5889736413955688,-1.3838485479354858,-0.3280056416988373
1776037944421992700,-1522129.4040073243,-0.18914192914962769,-1.4389152526855469,-0.5650315880775452
1776037944432063500,-1522129.3939365235,0.31124621629714966,-1.5394717454910278,-0.7541735172271729
1776037944442134300,-1522129.3838657227,0.3758896589279175,-1.2641384601593018,-0.8882488012313843
1776037944452113400,-1522129.3738864746,0.2346317619085312,-1.170764684677124,-1.048660397529602
1776037944462215000,-1522129.3637851563,0.21547815203666687,-1.192312479019165,-1.2066776752471924
1776037944472285700,-1522129.3537143555,0.181959331035614,-1.3431471586227417,-1.3623007535934448
1776037944492335600,-1522129.3336643067,1.0534487962722778,-1.867477297782898,-2.0015525817871094
1776037944502406400,-1522129.323593506,1.3215993642807007,-1.867477297782898,-2.3343467712402344
1776037944512477200,-1522129.313522705,1.5298948287963867,-1.745373010635376,-2.5785553455352783
1776037944522517500,-1522129.303482422,1.6615760326385498,-1.5298948287963867,-2.942473888397217
1776037944532557800,-1522129.2934421387,2.011129379272461,-1.53707754611969,-3.069366693496704
1776037944542659000,-1522129.2833408203,2.2409727573394775,-1.3910311460494995,-3.114856481552124
1776037944552669000,-1522129.2733310547,2.2577321529388428,-1.2018892765045166,-3.117250680923462
1776037944562770200,-1522129.2632297364,2.3487119674682617,-1.1085153818130493,-2.9041666984558105
1776037944572810500,-1522129.2531894532,2.3271639347076416,-1.2018892765045166,-2.655169725418091
1776037944592982500,-1522129.233017578,2.87064790725708,-1.702277421951294,-2.8634653091430664
1776037944613002200,-1522129.2129978028,3.2800562381744385,-2.126051187515259,-3.1220390796661377
1776037944623103500,-1522129.2028964844,3.2154128551483154,-1.965639591217041,-2.942473888397217
1776037944633143800,-1522129.1928562012,3.1076738834381104,-1.7525556087493896,-2.779668092727661
1776037944643184000,-1522129.182815918,2.9089550971984863,-1.338358759880066,-2.58813214302063
1776037944653193700,-1522129.1728061524,2.382230758666992,-1.0893617868423462,-2.2577321529388428
1776037944663295200,-1522129.162704834,2.051830768585205,-0.950498104095459,-1.7573440074920654
1776037944673366000,-1522129.1526340332,1.2258312702178955,-1.4413094520568848,-1.6831238269805908
1776037944683467300,-1522129.1425327149,0.5817909836769104,-1.8052281141281128,-1.821987509727478
1776037944713679600,-1522129.1123203125,-0.002394201699644327,-1.2282254695892334,-2.894589900970459
1776037944723750400,-1522129.1022495118,-0.0071826050989329815,-0.5123591423034668,-3.1483752727508545
1776037944733821200,-1522129.092178711,-0.009576806798577309,0.3256114423274994,-3.44765043258667
1776037944743892000,-1522129.0821079102,-0.21787235140800476,0.9409212470054626,-3.627215623855591
1776037944753962800,-1522129.0720373534,-0.6416460275650024,1.1803414821624756,-3.7684733867645264
1776037944764064300,-1522129.061935791,-0.9744400978088379,1.1994950771331787,-3.8522706031799316
1776037944774104600,-1522129.0518955078,-1.5107412338256836,1.1061211824417114,-3.8762125968933105
1776037944794215400,-1522129.0317846679,-2.1475989818573,0.993593692779541,-3.620033025741577
1776037944814387700,-1522129.0116123047,-2.8443117141723633,1.0869675874710083,-3.2992098331451416
1776037944824458500,-1522129.001541504,-3.098097085952759,1.1300631761550903,-3.0789434909820557
1776037944834468000,-1522128.9915319823,-3.4787750244140625,1.3096283674240112,-2.7533318996429443
1776037944844569600,-1522128.98143042,-3.7660791873931885,1.6136919260025024,-2.6360161304473877
1776037944854640400,-1522128.9713596192,-4.089296340942383,2.0853497982025146,-2.4612393379211426
1776037944864741600,-1522128.9612583008,-4.347870349884033,2.3080103397369385,-2.3702597618103027
1776037944874782000,-1522128.9512180176,-4.687847137451172,2.432508945465088,-2.2242133617401123
1776037944905024800,-1522128.9209753417,-5.834669589996338,2.0159177780151367,-1.886630892753601
1776037944925136000,-1522128.9008640137,-6.48828649520874,1.2545616626739502,-1.9632453918457031
1776037944935206700,-1522128.890793457,-6.7061591148376465,1.1540051698684692,-1.968033790588379
1776037944945308200,-1522128.8806918946,-6.799532890319824,1.1635819673538208,-2.0685901641845703
1776037944955287300,-1522128.8707126465,-6.876147270202637,1.5514427423477173,-2.1164743900299072
1776037944965388500,-1522128.8606115722,-6.955155849456787,2.169146776199341,-2.185906171798706
1776037944975459300,-1522128.8505407714,-6.926425457000732,2.7485435009002686,-2.183511972427368
1776037944985560800,-1522128.840439209,-6.933608055114746,3.1028854846954346,-2.1068975925445557
1776037945005702400,-1522128.8202976075,-6.88332986831665,3.7636849880218506,-2.123656988143921
1776037945015712000,-1522128.8102880858,-7.015010833740234,3.885789394378662,-2.185906171798706
1776037945025783000,-1522128.800217041,-7.0317702293396,4.108449935913086,-2.1547815799713135
1776037945035792600,-1522128.7902072754,-7.082048416137695,4.0749311447143555,-2.4468741416931152
1776037945045894000,-1522128.780106201,-7.005434036254883,4.089296340942383,-2.6455929279327393
1776037945055964700,-1522128.7700354003,-6.756437301635742,4.02465295791626,-2.9017724990844727
1776037945066035700,-1522128.7599643555,-6.615179061889648,4.046200752258301,-3.098097085952759
1776037945076106500,-1522128.7498935547,-6.248866558074951,4.000710964202881,-3.308786630630493
1776037945086207700,-1522128.7397922364,-6.0621185302734375,3.9049429893493652,-3.4572272300720215
1776037945096278500,-1522128.7297214356,-5.7125654220581055,3.8355112075805664,-3.6607344150543213
1776037945126521300,-1522128.6994787597,-4.426878929138184,3.648763418197632,-4.6950297355651855
1776037945136592100,-1522128.6894079589,-4.199429988861084,3.892971992492676,-5.102043628692627
1776037945146663200,-1522128.679336914,-3.8331170082092285,4.170699596405029,-5.48272180557251
1776037945156703200,-1522128.669296875,-3.7253777980804443,4.2090067863464355,-5.846640586853027
1776037945166804700,-1522128.6591953125,-3.869029998779297,4.091690540313721,-6.234501361846924
1776037945176844800,-1522128.6491552733,-3.6104562282562256,3.5242648124694824,-6.842628479003906
1776037945186915800,-1522128.6390842285,-3.1866824626922607,3.1507694721221924,-7.671022415161133
1776037945196925400,-1522128.629074463,-2.518700122833252,2.4803929328918457,-8.621520042419434
1776037945217097700,-1522128.6089023438,-1.7693150043487549,2.233790159225464,-9.14585018157959
1776037945227199000,-1522128.5988010254,-1.5969325304031372,2.6360161304473877,-8.669404029846191
1776037945237239300,-1522128.5887607422,-1.256955862045288,2.5761611461639404,-7.8314337730407715
1776037945247340500,-1522128.5786594239,-0.8547300100326538,2.4444799423217773,-7.029376029968262
1776037945257411300,-1522128.568588623,-0.35434186458587646,2.0039467811584473,-6.464344501495361
1776037945267512600,-1522128.5584873047,0.2106897532939911,1.359906554222107,-6.191405773162842
1776037945277583400,-1522128.548416748,0.8427590131759644,0.9050082564353943,-5.928043365478516
1776037945287684900,-1522128.5383151856,1.4293384552001953,0.6153098344802856,-5.8442463874816895
1776037945317897200,-1522128.5081027832,0.5961562395095825,1.6687586307525635,-5.032611846923828
1776037945327998500,-1522128.4980014649,-0.1628057211637497,2.027888774871826,-4.697423934936523
1776037945338069200,-1522128.487930664,-0.9481038451194763,2.5665841102600098,-4.333505153656006
1776037945348170500,-1522128.4778295897,-1.6615760326385498,2.9927520751953125,-4.05817174911499
1776037945358210800,-1522128.4677890625,-2.099714994430542,3.3446998596191406,-3.797203779220581
1776037945368312300,-1522128.4576877442,-2.5282769203186035,3.7205893993377686,-3.620033025741577
1776037945378383000,-1522128.4476169434,-2.918531894683838,3.713406801223755,-3.3901896476745605
1776037945388484400,-1522128.437515625,-1.6280571222305298,3.8091750144958496,-3.6320040225982666
1776037945398555100,-1522128.4274448243,-5.825092792510986,3.3446998596191406,-2.894589900970459
1776037945408626000,-1522128.4173740235,-2.389413356781006,2.434903144836426,-2.7964274883270264
1776037945438868700,-1522128.3871313476,-2.9017724990844727,-2.0231003761291504,-1.2689268589019775
1776037945448939800,-1522128.3770603028,-2.676717519760132,-2.8610711097717285,0.023942016065120697
1776037945458949400,-1522128.3670505371,-2.832340717315674,-2.255337953567505,1.2473790645599365
1776037945469020200,-1522128.3569797364,-2.760514497756958,-0.9002198576927185,1.802833914756775
1776037945479091000,-1522128.3469089356,-2.7676970958709717,0.38067805767059326,1.7190368175506592
1776037945489161700,-1522128.3368383788,-2.454056739807129,0.7924807667732239,1.4460978507995605
1776037945499232500,-1522128.326767578,-2.142810583114624,0.35913026332855225,1.2880805730819702
1776037945539485200,-1522128.2865148925,-1.5969325304031372,0.1173158809542656,2.1739351749420166
1776037945549586700,-1522128.27641333,-1.290474772453308,-0.043095629662275314,2.1308395862579346
1776037945559627000,-1522128.266373047,-1.0079588890075684,-0.31842881441116333,2.0614075660705566
1776037945569728300,-1522128.2562717285,-0.7996633648872375,-0.6416460275650024,1.9345149993896484
1776037945579799000,-1522128.2462009278,-0.4189853072166443,-1.0055646896362305,1.9057846069335938
1776037945589900300,-1522128.2360996094,-0.15801730751991272,-1.37906014919281,1.601720929145813
1776037945599940600,-1522128.2260593262,0.031124621629714966,-1.599326729774475,1.403002142906189
1776037945610041900,-1522128.2159582519,0.3064578175544739,-1.8914192914962769,1.113303780555725
1776037945620112600,-1522128.205887451,0.3687070608139038,-2.1092917919158936,0.8738836050033569
1776037945670436400,-1522128.1555637207,1.8555063009262085,-2.1954829692840576,-0.5793967843055725
1776037945680507100,-1522128.14549292,2.0159177780151367,-1.9847931861877441,-1.137245774269104
1776037945690608400,-1522128.1353916016,2.410961151123047,-1.6855180263519287,-1.8052281141281128
1776037945700679200,-1522128.1253208008,2.63362193107605,-1.5322890281677246,-2.123656988143921
1776037945710780400,-1522128.1152194825,2.9472622871398926,-1.4748282432556152,-2.296039342880249
1776037945720820700,-1522128.1051791993,3.5027170181274414,-1.6112977266311646,-2.341529369354248
1776037945740962300,-1522128.0850375977,3.8570590019226074,-1.3000515699386597,-2.7509377002716064
1776037945751033000,-1522128.074966797,3.845088005065918,-1.2856862545013428,-2.760514497756958
1776037945761104000,-1522128.0648962401,3.162740468978882,-0.7158663272857666,-2.9688100814819336
1776037945771174700,-1522128.0548254394,3.1435868740081787,-0.6847416758537292,-3.0765492916107178
1776037945781276200,-1522128.044723877,2.8179752826690674,-0.40222588181495667,-3.004723072052002
1776037945791316500,-1522128.0346835938,2.492363929748535,-0.2849099934101105,-2.8419175148010254
1776037945801387300,-1522128.024612793,2.27209734916687,-0.272938996553421,-2.5282769203186035
1776037945811458000,-1522128.0145419922,2.3582887649536133,-0.5506663918495178,-2.315192937850952
1776037945821528800,-1522128.0044711914,2.5258827209472656,-0.849941611289978,-2.319981336593628
1776037945861751000,-1522127.9642490235,2.2816741466522217,-1.161187767982483,-2.5043349266052246
1776037945871852300,-1522127.954147705,1.8171991109848022,-1.048660397529602,-2.3247697353363037
1776037945881923000,-1522127.9440769043,1.278503656387329,-1.0342950820922852,-2.315192937850952
1776037945891963400,-1522127.9340366211,0.8212111592292786,-1.1252747774124146,-2.4013843536376953
1776037945902034200,-1522127.9239658203,0.5530605912208557,-1.235408067703247,-2.655169725418091
1776037945912105000,-1522127.9138950196,0.2513911724090576,-1.3670891523361206,-3.138798475265503
1776037945922175700,-1522127.9038242188,0.11013327538967133,-1.161187767982483,-3.6176388263702393
1776037945962336800,-1522127.86366333,-1.115697979927063,-0.6392518281936646,-5.145139217376709
1776037945972377000,-1522127.8536228028,-1.623268723487854,-0.45489832758903503,-5.018246650695801
1776037945982447900,-1522127.843552246,-2.1978771686553955,-0.22744916379451752,-4.836287498474121
1776037945992518700,-1522127.8334814452,-2.8107926845550537,0.07661445438861847,-4.491522312164307
1776037946012629800,-1522127.8133703612,-3.622427225112915,0.8164227604866028,-3.7014358043670654
1776037946022700500,-1522127.8032995604,-3.9264907836914062,1.1563993692398071,-3.2369606494903564
1776037946032771300,-1522127.7932287597,-4.189853191375732,1.357512354850769,-2.7964274883270264
1776037946062922800,-1522127.7630771485,-4.726154327392578,1.800439715385437,-2.0159177780151367
1776037946072993500,-1522127.7530063477,-4.900930881500244,1.8914192914962769,-2.1140801906585693
1776037946083064300,-1522127.742935791,-5.027823448181152,2.0661959648132324,-2.231395959854126
1776037946093165800,-1522127.7328342285,-5.212177276611328,2.0446481704711914,-2.250549554824829
1776037946113337900,-1522127.7126621094,-5.434837818145752,2.477998733520508,-2.3535003662109375
1776037946123408600,-1522127.7025913086,-5.48272180557251,2.5546131134033203,-2.410961151123047
1776037946133510000,-1522127.6924899903,-5.60722017288208,2.5737667083740234,-2.341529369354248
1776037946153621000,-1522127.6723789063,-5.669469833374023,2.935291290283203,-2.1978771686553955
1776037946204005600,-1522127.6219943848,-6.13633918762207,4.065354347229004,-2.470816135406494
1776037946214046000,-1522127.6119541016,-5.949591159820557,4.3861775398254395,-2.6455929279327393
1776037946224086000,-1522127.6019140624,-5.793968200683594,4.721365928649902,-2.7293899059295654
1776037946234157000,-1522127.5918430176,-5.48272180557251,4.683058738708496,-2.896984100341797
1776037946264308200,-1522127.5616918944,-4.795586109161377,4.896142482757568,-2.9305028915405273
1776037946274287600,-1522127.5517124024,-4.273650169372559,4.99669885635376,-3.1316158771514893
1776037946284358400,-1522127.5416416016,-4.039018154144287,5.092466831207275,-3.7205893993377686
1776037946294398700,-1522127.5316013184,-3.7397429943084717,5.185841083526611,-4.086902141571045
1776037946304408300,-1522127.5215917968,-3.624821424484253,5.43723201751709,-4.436455726623535
1776037946314448600,-1522127.5115512696,-3.7038300037384033,5.57370138168335,-4.730942726135254
1776037946324550000,-1522127.5014501952,-3.6296098232269287,5.657498836517334,-4.903325080871582
1776037946334621000,-1522127.4913791504,-3.6176388263702393,5.717353820800781,-5.008669853210449
1776037946364802800,-1522127.4611972657,-1.6089035272598267,4.422090530395508,-5.815515995025635
1776037946374904000,-1522127.4510959473,-0.689530074596405,4.292803764343262,-6.349422931671143
1776037946384974800,-1522127.4410251465,0.004788403399288654,4.311957359313965,-6.710947513580322
1776037946395015200,-1522127.4309848633,0.2849099934101105,4.431667327880859,-7.1921820640563965
1776037946405116400,-1522127.420883545,0.45250412821769714,4.3191399574279785,-7.82185697555542
1776037946415187200,-1522127.4108127442,0.09576806426048279,4.2951979637146,-8.166622161865234
1776037946425258000,-1522127.4007419434,-0.181959331035614,3.9839515686035156,-8.343792915344238
1776037946435267800,-1522127.3907321778,-0.12928688526153564,3.5913026332855225,-8.382100105285645
1776037946445369000,-1522127.3806308594,-0.0694318488240242,3.4620156288146973,-8.008605003356934
1776037946455409400,-1522127.3705905762,-0.05027823522686958,3.2992098331451416,-7.287950038909912
1776037946475490000,-1522127.3505100098,-0.2801215946674347,2.183511972427368,-5.595249176025391
1776037946485591300,-1522127.3404086914,-0.28730419278144836,1.5179238319396973,-5.2696380615234375
1776037946495662000,-1522127.3303378907,-0.22026655077934265,1.173158884048462,-5.403713226318359
1776037946505732900,-1522127.3202670899,-0.10534487664699554,1.0223240852355957,-5.7987565994262695
1776037946515803600,-1522127.310196289,-0.028730420395731926,1.2186486721038818,-6.172252178192139
1776037946525905000,-1522127.3000952147,-0.24899697303771973,1.6089035272598267,-6.203376770019531
1776037946535975700,-1522127.290024414,-0.5291185975074768,1.941697597503662,-6.066906929016113
1776037946545985500,-1522127.2800144043,-0.6919242739677429,2.0039467811584473,-5.8657941818237305
1776037946556056300,-1522127.2699436035,-1.1827356815338135,1.98958158493042,-5.523423194885254
1776037946586177300,-1522127.239822754,-2.1164743900299072,1.920149803161621,-3.9456443786621094
1776037946606349300,-1522127.2196506348,-2.1739351749420166,2.097320795059204,-2.980781078338623
1776037946616420000,-1522127.209579834,-2.073378562927246,1.9800047874450684,-2.5067291259765625
1776037946626491000,-1522127.1995090332,-2.054224967956543,1.9345149993896484,-1.9632453918457031
1776037946636561700,-1522127.1894382325,-2.190694570541382,1.8914192914962769,-1.3072341680526733
1776037946646632400,-1522127.1793674317,-2.434903144836426,2.032677173614502,-0.6631938815116882
1776037946656703200,-1522127.169296875,-2.8131868839263916,1.9177556037902832,-0.19393034279346466
1776037946696986600,-1522127.1290134278,-3.0190882682800293,1.625662922859192,0.8236053586006165
1776037946707057400,-1522127.118942627,-2.892195701599121,1.3838485479354858,1.0414776802062988
1776037946717128200,-1522127.1088718262,-2.6647465229034424,1.0462661981582642,1.139639973640442
1776037946727199000,-1522127.0988010254,-2.4803929328918457,0.7733271718025208,1.2306196689605713
1776037946737269800,-1522127.0887302246,-2.2625205516815186,0.6847416758537292,1.2306196689605713
1776037946747340500,-1522127.0786594239,-1.9488801956176758,0.48602294921875,1.1085153818130493
1776037946757441800,-1522127.0685581055,-1.5203180313110352,0.2777273952960968,0.9074024558067322
1776037946777553000,-1522127.0484470215,-0.8906430602073669,-0.15322890877723694,0.4692635238170624
1776037946787654100,-1522127.0383459472,-0.7206547260284424,-0.4692635238170624,0.35673606395721436
1776037946797725000,-1522127.0282751464,-0.7613561153411865,-0.43335050344467163,0.3495534360408783
1776037946807765200,-1522127.0182348632,-0.9624691009521484,-0.5913678407669067,0.3711012601852417
1776037946817836000,-1522127.0081640624,-1.0821791887283325,-0.8451532125473022,0.3232172429561615
1776037946827876400,-1522126.9981235352,-1.1109095811843872,-1.0271124839782715,0.33039984107017517
1776037946837916700,-1522126.988083252,-0.9672574996948242,-1.2689268589019775,0.13168109953403473
1776037946847957000,-1522126.9780429688,-0.5650315880775452,-1.821987509727478,-0.10534487664699554
1776037946858058200,-1522126.9679416504,-0.016759412363171577,-2.1475989818573,-0.4381389021873474
1776037946868098600,-1522126.9579013672,0.6177040338516235,-2.4157495498657227,-0.9169792532920837
1776037946888179200,-1522126.9378208008,1.5945383310317993,-2.913743495941162,-1.2665326595306396
1776037946908290300,-1522126.9177097168,2.52109432220459,-3.205836057662964,-1.5298948287963867
1776037946918391600,-1522126.9076083985,2.4803929328918457,-2.9735984802246094,-1.843535304069519
1776037946928401400,-1522126.8975986328,2.367865562438965,-2.8826189041137695,-2.0470423698425293
1776037946938502700,-1522126.8874973145,2.3343467712402344,-2.8586769104003906,-2.3080103397369385
1776037946948573400,-1522126.8774265137,2.255337953567505,-2.918531894683838,-2.3965959548950195
1776037946958613800,-1522126.8673862305,2.4803929328918457,-2.9544448852539062,-2.564189910888672
1776037946968684500,-1522126.8573154297,2.7748796939849854,-2.913743495941162,-2.5761611461639404
1776037947008998100,-1522126.817001953,3.3255462646484375,-2.1499931812286377,-3.004723072052002
1776037947019099600,-1522126.8069003907,3.098097085952759,-2.118868589401245,-3.2968156337738037
1776037947029170400,-1522126.7968295899,2.8850131034851074,-2.1811177730560303,-3.4332852363586426
1776037947039241200,-1522126.786758789,2.5929205417633057,-2.365471363067627,-3.3494882583618164
1776037947049312000,-1522126.7766879883,2.3056161403656006,-2.628833532333374,-3.0406360626220703
1776037947059413200,-1522126.76658667,1.9273324012756348,-2.717418909072876,-2.542642116546631
1776037947069484000,-1522126.7565158692,1.4867992401123047,-2.6384103298187256,-2.0614075660705566
1776037947099696400,-1522126.7263037108,0.8882488012313843,-1.9153614044189453,-2.296039342880249
1776037947109767200,-1522126.71623291,0.8523358106613159,-1.482010841369629,-2.75812029838562
1776037947119868700,-1522126.7061313477,0.7852981686592102,-1.3718775510787964,-3.045424461364746
1776037947129939500,-1522126.696060547,0.8188169598579407,-1.139639973640442,-3.2178070545196533
1776037947140040700,-1522126.6859592285,0.7374141216278076,-0.8882488012313843,-3.4356794357299805
1776037947150111500,-1522126.6758884278,0.5434837937355042,-0.7948749661445618,-3.5865142345428467
1776037947160212700,-1522126.6657873534,0.31603461503982544,-0.6584054827690125,-3.734954595565796
1776037947170222600,-1522126.6557773438,0.0694318488240242,-0.44532153010368347,-3.7038300037384033
1776037947200435000,-1522126.6255649414,-0.790086567401886,0.3687070608139038,-3.6176388263702393
1776037947210475300,-1522126.6155246582,-1.3407529592514038,0.6943184733390808,-3.5458126068115234
1776037947220546000,-1522126.6054538575,-1.8746598958969116,1.0271124839782715,-3.5218706130981445
1776037947230616800,-1522126.5953830567,-2.473210334777832,1.3718775510787964,-3.5434184074401855
1776037947240687600,-1522126.5853125,-2.674323320388794,1.3623007535934448,-3.6750996112823486
1776037947250758400,-1522126.575241699,-3.227383852005005,1.625662922859192,-3.5027170181274414
1776037947260860000,-1522126.5651401368,-3.6511576175689697,1.8124107122421265,-3.3494882583618164
1776037947270900200,-1522126.5550998535,-4.10366153717041,1.9560627937316895,-3.292027235031128
1776037947311153000,-1522126.514847168,-5.274426460266113,2.2697031497955322,-3.531447410583496
1776037947331233300,-1522126.4947666016,-5.949591159820557,2.473210334777832,-3.5673606395721436
1776037947351374800,-1522126.474625244,-6.490680694580078,2.7557260990142822,-3.3662476539611816
1776037947361445600,-1522126.4645544433,-6.730101108551025,2.9281086921691895,-3.2992098331451416
1776037947371516700,-1522126.4544833985,-6.842628479003906,3.0142998695373535,-3.2297780513763428
1776037947381618000,-1522126.44438208,-7.053318023681641,3.1292216777801514,-3.246537446975708
1776037947401667800,-1522126.4243322753,-7.089231014251709,3.445256233215332,-3.332728862762451
1776037947411647200,-1522126.4143527832,-6.92881965637207,3.550601005554199,-3.1866824626922607
1776037947421748500,-1522126.4042514649,-6.878541469573975,3.6511576175689697,-3.1004912853240967
1776037947431758300,-1522126.3942416993,-6.959944248199463,3.8139634132385254,-3.0334534645080566
1776037947441798700,-1522126.384201416,-6.861782073974609,3.7469255924224854,-3.0142998695373535
1776037947451838700,-1522126.3741613769,-6.655880928039551,3.7421371936798096,-3.1292216777801514
1776037947461940200,-1522126.3640598145,-6.323086738586426,3.7876269817352295,-3.3255462646484375
1776037947471980500,-1522126.3540195313,-5.57370138168335,3.5889084339141846,-3.600879430770874
1776037947482081800,-1522126.343918213,-4.994304656982422,3.7660791873931885,-3.909731388092041
1776037947502193000,-1522126.323807129,-4.529829502105713,4.108449935913086,-4.637568473815918
1776037947522304000,-1522126.303696045,-4.165910720825195,4.474762916564941,-5.453991413116455
1776037947542476000,-1522126.2835239258,-3.6128504276275635,4.728548526763916,-5.810727596282959
1776037947552546800,-1522126.273453125,-3.2537200450897217,4.752490520477295,-5.987898349761963
1776037947562617600,-1522126.2633823243,-2.9879636764526367,4.69024133682251,-5.954379558563232
1776037947572597000,-1522126.2534030762,-2.8179752826690674,4.7836151123046875,-6.162675380706787
1776037947582667800,-1522126.2433322754,-2.734178304672241,4.618414878845215,-6.449979305267334
1776037947602779000,-1522126.2232211914,-2.5330653190612793,4.290409564971924,-7.24485445022583
1776037947622920400,-1522126.2030795899,-1.7860745191574097,4.584896087646484,-7.797914981842041
1776037947632991200,-1522126.193008789,-0.8427590131759644,4.321534156799316,-7.845798969268799
1776037947643062000,-1522126.1829379883,-0.181959331035614,4.168305397033691,-7.649474620819092
1776037947653132800,-1522126.1728671875,0.19153612852096558,3.7205893993377686,-7.218518257141113
1776037947663203600,-1522126.1627963868,0.272938996553421,3.272873640060425,-6.598419666290283
1776037947673274400,-1522126.152725586,0.22266076505184174,2.999934673309326,-6.076483726501465
1776037947683375600,-1522126.1426242676,0.30885201692581177,2.9544448852539062,-5.729324817657471
1776037947693355000,-1522126.1326450196,0.8068459630012512,2.557007312774658,-5.604825973510742
1776037947703456300,-1522126.1225437012,2.1571757793426514,2.006340980529785,-5.8657941818237305
1776037947723597800,-1522126.1024020996,2.1092917919158936,2.2840683460235596,-5.884947776794434
1776037947733607700,-1522126.092392334,1.1228805780410767,2.650381326675415,-5.765237808227539
1776037947743678500,-1522126.0823215332,0.019153613597154617,3.339911460876465,-5.614402770996094
1776037947753749200,-1522126.0722507325,-1.05105459690094,4.199429988861084,-5.2696380615234375
1776037947763820000,-1522126.0621799317,-1.8579005002975464,4.702212333679199,-4.991910457611084
1776037947773890800,-1522126.052109131,-2.3582887649536133,4.855441093444824,-4.757278919219971
1776037947783961600,-1522126.04203833,-2.6791117191314697,4.776432514190674,-4.46518611907959
1776037947794062800,-1522126.0319372558,-2.671929121017456,4.261679172515869,-4.2329487800598145
1776037947804133600,-1522126.021866455,-2.4827871322631836,3.866635799407959,-3.9624037742614746
1776037947844386300,-1522125.9816137694,-2.4660277366638184,1.8387469053268433,-2.6408045291900635
1776037947854457300,-1522125.9715427246,-2.516305923461914,1.6041151285171509,-2.1763293743133545
1776037947864497400,-1522125.9615026854,-2.559401512145996,1.2114660739898682,-1.7812861204147339
1776037947874507300,-1522125.9514926758,-2.585737943649292,0.7924807667732239,-1.4508862495422363
1776037947884608500,-1522125.9413916015,-2.6384103298187256,0.47405192255973816,-1.113303780555725
1776037947894679300,-1522125.9313208007,-2.7317841053009033,0.24899697303771973,-0.7182605266571045
1776037947904719600,-1522125.9212802735,-2.786850690841675,0.035913024097681046,-0.5051765441894531
1776037947914760000,-1522125.9112399903,-2.7030537128448486,-0.12449848651885986,-0.31603461503982544
1776037947934932000,-1522125.8910681151,-2.537853717803955,-0.6919242739677429,-0.3902548849582672
1776037947945033500,-1522125.8809665528,-2.2840683460235596,-0.8403648138046265,-0.3711012601852417
1776037947955043000,-1522125.8709570311,-2.161964178085327,-0.7015010714530945,-0.3064578175544739
1776037947965144600,-1522125.8608554688,-1.9800047874450684,-0.5554547905921936,-0.28730419278144836
1776037947975154200,-1522125.8508457032,-1.6711528301239014,-0.3447650372982025,-0.19153612852096558
1776037947985255700,-1522125.8407443848,-1.4628572463989258,-0.1149216815829277,0.014365210197865963
1776037947995265300,-1522125.8307346192,-1.3646949529647827,-0.22744916379451752,0.05506663769483566
1776037948015406800,-1522125.8105932616,-0.9864110946655273,-0.5315127968788147,0.24181437492370605
1776037948035518000,-1522125.7904819336,0.5961562395095825,-0.7876923680305481,0.0933738648891449
1776037948045588700,-1522125.7804113769,0.9624691009521484,-0.4118026793003082,-0.05267243832349777
1776037948055629000,-1522125.7703708496,0.7422025203704834,-0.24899697303771973,-0.014365210197865963
1776037948065699800,-1522125.7603000489,0.42377370595932007,-0.20111294090747833,-0.016759412363171577
1776037948075740200,-1522125.7502597657,0.004788403399288654,-0.24420857429504395,-0.1388636976480484
1776037948085811000,-1522125.7401889649,-0.10534487664699554,-0.586579442024231,-0.4118026793003082
1776037948095881700,-1522125.730118164,0.21787235140800476,-0.9624691009521484,-0.7110779285430908
1776037948105983200,-1522125.7200168457,0.545877993106842,-1.501164436340332,-0.9097966551780701
1776037948126094000,-1522125.6999060058,1.2258312702178955,-2.477998733520508,-1.113303780555725
1776037948146236000,-1522125.6797641602,2.22660756111145,-3.2585084438323975,-1.7549498081207275
1776037948156245500,-1522125.6697543946,2.5929205417633057,-3.251325845718384,-2.032677173614502
1776037948166316300,-1522125.6596835938,2.7102363109588623,-3.2369606494903564,-2.27209734916687
1776037948176387000,-1522125.649613037,2.8658595085144043,-3.270479440689087,-2.382230758666992
1776037948196498200,-1522125.629501709,3.1316158771514893,-3.1699230670928955,-2.3367409706115723
1776037948216609300,-1522125.609390625,3.40216064453125,-3.0142998695373535,-2.518700122833252
1776037948236750800,-1522125.5892492675,3.6846764087677,-2.719813108444214,-3.485957622528076
1776037948246821600,-1522125.5791784667,3.706224203109741,-2.674323320388794,-3.9240965843200684
1776037948256892400,-1522125.569107666,3.7158010005950928,-2.655169725418091,-3.9264907836914062
1776037948266994000,-1522125.5590061035,3.4380736351013184,-2.4396915435791016,-3.4404678344726562
1776037948276973000,-1522125.5490268555,2.9664158821105957,-2.250549554824829,-2.6839001178741455
1776037948287074300,-1522125.5389257811,2.4468741416931152,-2.078166961669922,-2.0470423698425293
1776037948297145300,-1522125.5288547364,1.8531121015548706,-1.8914192914962769,-1.7741034030914307
1776037948307216100,-1522125.5187839356,1.4437036514282227,-1.7812861204147339,-1.8626888990402222
1776037948317256200,-1522125.5087438964,1.2330138683319092,-1.6735470294952393,-2.2625205516815186
1776037948337428500,-1522125.4885715332,1.1204863786697388,-1.3527239561080933,-3.0861260890960693
1776037948347529700,-1522125.4784702149,1.0342950820922852,-1.1037269830703735,-3.179499864578247
1776037948357539600,-1522125.4684604493,0.8906430602073669,-0.8164227604866028,-3.3925838470458984
1776037948367640800,-1522125.458359131,0.7230489253997803,-0.629675030708313,-3.627215623855591
1776037948377711600,-1522125.44828833,0.3734954595565796,-0.3495534360408783,-3.866635799407959
1776037948387782400,-1522125.4382175293,0.038307227194309235,-0.002394201699644327,-4.050989151000977
1776037948397853200,-1522125.4281467285,-0.4118026793003082,0.3974374830722809,-4.228160381317139
1776037948407924000,-1522125.4180759278,-0.8906430602073669,0.8212111592292786,-4.089296340942383
1776037948417994800,-1522125.408005127,-1.3335703611373901,1.3024457693099976,-3.9671921730041504
1776037948448207000,-1522125.3777929686,-2.2146365642547607,2.3367409706115723,-3.600879430770874
1776037948458278100,-1522125.3677219239,-2.4899697303771973,2.580949544906616,-3.4380736351013184
1776037948478419700,-1522125.3475803223,-2.6240451335906982,2.9951462745666504,-3.1675288677215576
1776037948488490500,-1522125.3375095215,-2.7293899059295654,3.1004912853240967,-3.004723072052002
1776037948498561300,-1522125.3274387207,-3.050212860107422,3.160346269607544,-2.918531894683838
1776037948508632000,-1522125.31736792,-3.4117374420166016,3.2130186557769775,-2.868253707885742
1776037948518702800,-1522125.3072971192,-3.8355112075805664,3.3207578659057617,-2.868253707885742
1776037948548915200,-1522125.2770847168,-4.869806289672852,3.1244332790374756,-2.7964274883270264
1776037948569026300,-1522125.2569736328,-5.128379821777344,3.4763808250427246,-2.7772738933563232
1776037948579097000,-1522125.246902832,-5.190629482269287,3.5889084339141846,-2.808398485183716
1776037948589198300,-1522125.2368017577,-5.260061264038086,3.7660791873931885,-2.892195701599121
1776037948599269000,-1522125.226730957,-5.173870086669922,3.8570590019226074,-3.004723072052002
1776037948609340200,-1522125.2166599121,-4.941632270812988,3.9815573692321777,-3.0573954582214355
1776037948649592800,-1522125.1764072266,-4.876988887786865,4.7620673179626465,-3.0885202884674072
1776037948659663600,-1522125.1663364258,-4.853046894073486,4.963180065155029,-3.19865345954895
1776037948669734400,-1522125.156265625,-4.520252704620361,5.16429328918457,-3.3877954483032227
1776037948679774700,-1522125.1462253418,-4.218583583831787,5.118803024291992,-3.847482204437256
1776037948689845500,-1522125.136154541,-4.213795185089111,5.161899089813232,-3.976768970489502
1776037948699916300,-1522125.1260837403,-3.9887399673461914,5.303156852722168,-4.4532151222229
1776037948709987000,-1522125.1160129395,-3.773261785507202,5.439626216888428,-4.869806289672852
1776037948720057900,-1522125.1059421387,-3.624821424484253,5.521028995513916,-5.264849662780762
1776037948740199400,-1522125.0858005371,-3.466804027557373,5.664681434631348,-5.74129581451416
1776037948760310500,-1522125.0656894532,-3.1076738834381104,5.473145008087158,-6.203376770019531
1776037948770381300,-1522125.0556186524,-2.87064790725708,5.396530628204346,-6.490680694580078
1776037948780421600,-1522125.0455783692,-2.808398485183716,5.154716491699219,-6.572083473205566
1776037948790462000,-1522125.035538086,-2.322375535964966,5.12119722366333,-6.7061591148376465
1776037948800532700,-1522125.0254672852,-1.8698714971542358,4.8722004890441895,-6.840234279632568
1776037948810603500,-1522125.0153964844,-1.338358759880066,4.850652694702148,-7.029376029968262
1776037948850886700,-1522124.9751132813,-0.33758243918418884,4.357447147369385,-8.31985092163086
1776037948860957400,-1522124.9650424805,-0.304063618183136,4.082113742828369,-8.418013572692871
1776037948870997800,-1522124.9550021973,-0.19632454216480255,3.9264907836914062,-8.2312650680542
1776037948881038000,-1522124.944961914,0.06224924325942993,3.579331636428833,-7.924807548522949
1776037948891108900,-1522124.9348911133,0.26815059781074524,3.1723172664642334,-7.481880187988281
1776037948901179600,-1522124.9248203125,0.29209262132644653,2.671929121017456,-6.900089263916016
1776037948911220000,-1522124.9147800293,0.14844051003456116,2.542642116546631,-6.476315498352051
1776037948921260300,-1522124.9047397461,0.043095629662275314,2.492363929748535,-6.184223175048828
1776037948961543400,-1522124.864456543,-0.0933738648891449,2.1380221843719482,-6.200982570648193
1776037948981593300,-1522124.8444067382,-0.5913678407669067,2.5067291259765625,-5.717353820800781
1776037948991694800,-1522124.8343051758,-0.9289502501487732,2.6431987285614014,-5.343858242034912
1776037949001704400,-1522124.8242956542,-1.278503656387329,2.6623523235321045,-4.948814868927002
1776037949011775200,-1522124.8142248534,-1.580173134803772,2.5474305152893066,-4.6471452713012695
1776037949021815600,-1522124.8041843262,-1.802833914756775,2.410961151123047,-4.151545524597168
1776037949041926700,-1522124.7840732422,-2.0805611610412598,2.2457611560821533,-3.313575267791748
1776037949051997400,-1522124.7740024414,-2.164358377456665,2.1811177730560303,-2.873042106628418
1776037949062037800,-1522124.7639621582,-2.27209734916687,2.099714994430542,-2.3319525718688965
1776037949082148900,-1522124.7438510743,-2.27209734916687,2.1739351749420166,-1.3335703611373901
1776037949092189200,-1522124.733810791,-2.3247697353363037,2.1068975925445557,-0.950498104095459
1776037949102229500,-1522124.7237705078,-2.279279947280884,1.9608511924743652,-0.6153098344802856
1776037949112269800,-1522124.7137302246,-2.1787235736846924,1.8483237028121948,-0.3471592366695404
1776037949122340600,-1522124.7036594239,-2.0231003761291504,1.6759412288665771,-0.08140286058187485
1776037949132381000,-1522124.6936191407,-1.9273324012756348,1.4772224426269531,0.09576806426048279
1776037949172633600,-1522124.653366455,-1.2713210582733154,1.070208191871643,0.828393816947937
1776037949182704400,-1522124.6432956543,-0.9457096457481384,0.9097966551780701,0.871489405632019
1776037949202815500,-1522124.6231845703,0.07182604819536209,0.9097966551780701,0.9193734526634216
1776037949212886300,-1522124.6131137696,0.849941611289978,0.9313444495201111,0.6560112833976746
1776037949222926600,-1522124.6030734864,1.5131354331970215,0.9433154463768005,0.4572925269603729
1776037949233027800,-1522124.592972168,1.5394717454910278,1.1109095811843872,0.3471592366695404
1776037949243037400,-1522124.5829626464,1.0845733880996704,1.3192051649093628,0.24181437492370605
1776037949273311000,-1522124.5526889649,-0.5578489899635315,1.944091796875,-0.090979665517807
1776037949283381800,-1522124.542618164,-0.5817909836769104,1.5418659448623657,-0.06224924325942993
1776037949293483000,-1522124.5325170897,-0.5027823448181152,0.9169792532920837,0.1173158809542656
1776037949303553800,-1522124.522446289,-0.5171475410461426,-0.033518824726343155,0.2561795711517334
1776037949313624800,-1522124.5123752442,-0.2801215946674347,-0.933738648891449,0.26096799969673157
1776037949333735700,-1522124.4922644042,0.6344634294509888,-2.3319525718688965,-0.3974374830722809
1776037949343806700,-1522124.4821933594,1.2306196689605713,-2.9927520751953125,-1.0079588890075684
1776037949383967700,-1522124.4420322266,3.469198226928711,-4.534617900848389,-4.197035789489746
1776037949394069000,-1522124.4319309082,3.423708438873291,-4.125209331512451,-4.376600742340088
1776037949404139800,-1522124.4218601075,3.24414324760437,-3.8762125968933105,-4.223371982574463
1776037949414241300,-1522124.411758789,2.9688100814819336,-3.428496837615967,-3.909731388092041
1776037949424312000,-1522124.4016879883,2.868253707885742,-2.985569477081299,-3.5003228187561035
1776037949434382800,-1522124.3916171875,2.695871114730835,-2.4851813316345215,-3.0382418632507324
1776037949444453600,-1522124.3815463868,2.583343744277954,-2.1811177730560303,-2.7700912952423096
1776037949474574300,-1522124.3514257811,2.3965959548950195,-1.778891921043396,-3.3638534545898438
1776037949484675800,-1522124.3413242188,2.140416383743286,-1.764526605606079,-3.002328872680664
1776037949494746600,-1522124.331253418,1.7357962131500244,-1.6950948238372803,-2.628833532333374
1776037949504756200,-1522124.3212438964,1.338358759880066,-1.7262194156646729,-2.2242133617401123
1776037949514796500,-1522124.3112033692,0.828393816947937,-1.6950948238372803,-1.843535304069519
1776037949524897800,-1522124.3011022948,0.5003881454467773,-1.7286136150360107,-1.5131354331970215
1776037949534968800,-1522124.29103125,0.272938996553421,-1.5538369417190552,-1.5538369417190552
1776037949545009000,-1522124.2809912108,0.1628057211637497,-1.3311761617660522,-1.9512743949890137
1776037949555018800,-1522124.2709812012,0.047884032130241394,-1.1061211824417114,-2.4660277366638184
1776037949585261600,-1522124.2407385253,-0.15083470940589905,-0.37828385829925537,-3.641580820083618
1776037949595332400,-1522124.2306677245,-0.3495534360408783,-0.304063618183136,-4.137180328369141
1776037949605403400,-1522124.2205966797,-0.5554547905921936,-0.1388636976480484,-4.51067590713501
1776037949615474200,-1522124.210525879,-0.8451532125473022,-0.08140286058187485,-4.790797710418701
1776037949635585300,-1522124.190414795,-1.534683346748352,0.43335050344467163,-4.98472785949707
1776037949645686500,-1522124.1803134766,-1.889025092124939,0.7326257228851318,-5.0014872550964355
1776037949655757300,-1522124.1702426758,-2.190694570541382,1.1109095811843872,-4.900930881500244
1776037949665828000,-1522124.160171875,-2.5043349266052246,1.4508862495422363,-4.639962673187256
1776037949685908700,-1522124.1400913086,-2.9065608978271484,2.2361843585968018,-4.2090067863464355
1776037949716060000,-1522124.1099401854,-3.464409828186035,3.141192674636841,-3.4380736351013184
1776037949726130700,-1522124.0998693847,-3.7277719974517822,3.227383852005005,-3.2393548488616943
1776037949736232200,-1522124.0897678223,-3.931279182434082,3.4524388313293457,-3.134010076522827
1776037949746303000,-1522124.0796970215,-4.089296340942383,3.6607344150543213,-3.2561142444610596
1776037949756343300,-1522124.0696567383,-4.280832767486572,3.8283286094665527,-3.3662476539611816
1776037949766444500,-1522124.05955542,-4.4508209228515625,3.9480385780334473,-3.4380736351013184
1776037949776515300,-1522124.0494846192,-4.575319290161133,4.0533833503723145,-3.4189200401306152
1776037949786586000,-1522124.0394138184,-4.853046894073486,4.28322696685791,-3.4835634231567383
1776037949806758100,-1522124.0192419433,-5.2911858558654785,4.714183330535889,-3.4787750244140625
1776037949816829200,-1522124.0091708985,-5.4013190269470215,4.802768707275391,-3.4356794357299805
1776037949826900000,-1522123.9991000977,-5.659893035888672,4.896142482757568,-3.3207578659057617
1776037949836940000,-1522123.9890600585,-5.743690013885498,4.946420669555664,-3.315969467163086
1776037949847010800,-1522123.9789892577,-5.635950565338135,4.786009311676025,-3.2824504375457764
1776037949857081900,-1522123.968918213,-5.5329999923706055,4.738125324249268,-3.112462282180786
1776037949867152600,-1522123.9588474121,-5.4228668212890625,4.843470096588135,-3.1699230670928955
1776037949877254000,-1522123.9487460938,-5.2265424728393555,4.989516258239746,-3.2297780513763428
1776037949907466200,-1522123.9185336914,-4.537012100219727,5.679046630859375,-3.0119056701660156
1776037949917537000,-1522123.9084628907,-4.228160381317139,5.6670756340026855,-2.9735984802246094
1776037949927607800,-1522123.8983920899,-3.5913026332855225,5.635950565338135,-2.959233283996582
1776037949937678600,-1522123.888321289,-3.1747114658355713,5.549759387969971,-3.157952070236206
1776037949947749400,-1522123.8782507323,-2.8562827110290527,5.585672378540039,-3.536235809326172
1776037949957820200,-1522123.8681799315,-2.6671407222747803,5.370194435119629,-3.9480385780334473
1776037949967891000,-1522123.8581091308,-2.6791117191314697,5.348646640777588,-4.460397720336914
1776037949977962000,-1522123.848038086,-2.82515811920166,5.262455463409424,-4.989516258239746
1776037949988032800,-1522123.8379672852,-2.741360902786255,5.114014625549316,-5.224148273468018
1776037950008144000,-1522123.8178562012,-2.0901381969451904,4.862623691558838,-5.729324817657471
1776037950018214700,-1522123.8077854004,-1.7717092037200928,4.587290287017822,-6.13633918762207
1776037950028224300,-1522123.7977756348,-1.3934253454208374,4.359841346740723,-6.672640323638916
1776037950048305000,-1522123.7776950684,-1.8483237028121948,4.153939723968506,-8.111555099487305
1776037950058406100,-1522123.76759375,-2.3247697353363037,4.443638324737549,-8.75080680847168
1776037950068477000,-1522123.7575231933,-2.497152328491211,4.091690540313721,-9.555258750915527
1776037950078517200,-1522123.747482666,-2.5498247146606445,3.751713991165161,-9.86889934539795
1776037950118770000,-1522123.7072299805,-1.1276689767837524,1.8052281141281128,-7.879317760467529
1776037950128840700,-1522123.6971591797,-1.0342950820922852,1.5729905366897583,-7.074865818023682
1776037950138911500,-1522123.687088623,-0.9169792532920837,1.6136919260025024,-6.677428722381592
1776037950148982300,-1522123.6770178222,-0.9385270476341248,1.824381709098816,-6.5912370681762695
1776037950159083800,-1522123.6669162598,-0.9624691009521484,2.1356279850006104,-6.584054470062256
1776037950169154600,-1522123.656845459,-1.0319008827209473,2.4588451385498047,-6.490680694580078
1776037950179225300,-1522123.6467746582,-1.0893617868423462,2.655169725418091,-6.497863292694092
1776037950219386400,-1522123.6066135254,-1.2545616626739502,2.1595699787139893,-4.455609321594238
1776037950229457200,-1522123.5965429686,-1.3623007535934448,1.8698714971542358,-3.801992416381836
1776037950239528000,-1522123.5864721679,-1.580173134803772,1.7956513166427612,-3.222595453262329
1776037950249598700,-1522123.576401367,-1.8579005002975464,1.6280571222305298,-2.5929205417633057
1776037950259669800,-1522123.5663303223,-1.9919757843017578,1.6065093278884888,-2.1763293743133545
1776037950269709800,-1522123.556290283,-2.1523873805999756,1.3263877630233765,-1.6974890232086182
1776037950279750100,-1522123.546249756,-2.5665841102600098,1.192312479019165,-1.338358759880066
1776037950289729500,-1522123.5362705078,-2.849100112915039,0.828393816947937,-1.072602391242981
1776037950319880700,-1522123.5061193847,-2.33913516998291,-0.36152446269989014,-0.2082955539226532
1776037950329951700,-1522123.4960483399,-2.9233202934265137,-0.42856210470199585,0.002394201699644327
1776037950340022500,-1522123.485977539,-1.8531121015548706,-0.7661445140838623,0.1149216815829277
1776037950350093300,-1522123.4759067383,-1.3096283674240112,-1.2641384601593018,0.586579442024231
1776037950360164000,-1522123.4658359375,-0.7182605266571045,-0.7254431247711182,0.9145850539207458
1776037950370235000,-1522123.4557651368,-0.1388636976480484,0.8020575642585754,1.1659762859344482
1776037950380305700,-1522123.445694336,0.2777273952960968,1.821987509727478,1.0893617868423462
1776037950390376400,-1522123.4356235352,0.5937620401382446,1.9704279899597168,0.8331822156906128
1776037950420619300,-1522123.4053806153,0.6392518281936646,-0.3064578175544739,0.7445967197418213
1776037950430690000,-1522123.3953100585,0.9576807022094727,-0.8307880163192749,0.7613561153411865
1776037950440730400,-1522123.3852695313,1.3192051649093628,-1.0031704902648926,0.5195417404174805
1776037950450801200,-1522123.3751987305,1.4915876388549805,-1.1013327836990356,0.2298433631658554
1776037950460872000,-1522123.3651281737,1.9919757843017578,-1.3910311460494995,-0.11971008777618408
1776037950470942700,-1522123.355057373,2.252943754196167,-1.522712230682373,-0.38307225704193115
1776037950481013500,-1522123.3449865722,2.0422539710998535,-1.3718775510787964,-0.3758896589279175
1776037950531367700,-1522123.2946323243,1.5538369417190552,-1.1755530834197998,-0.7422025203704834
1776037950541469000,-1522123.284531006,1.9919757843017578,-1.2090718746185303,-0.912190854549408
1776037950551539700,-1522123.274460205,2.406172752380371,-1.1444283723831177,-1.1013327836990356
1776037950561580000,-1522123.264419922,2.6599581241607666,-1.1755530834197998,-1.3479355573654175
1776037950571620400,-1522123.2543796387,2.999934673309326,-1.1085153818130493,-1.599326729774475
1776037950581721600,-1522123.2442783203,2.956839084625244,-0.9744400978088379,-1.800439715385437
1776037950591792400,-1522123.2342075196,3.0813376903533936,-0.7972691655158997,-1.9704279899597168
1776037950601893600,-1522123.2241064452,3.177105665206909,-0.7350199222564697,-2.0446481704711914
1776037950642207500,-1522123.1837924805,3.1052796840667725,-0.4572925269603729,-2.4899697303771973
1776037950652278300,-1522123.1737216797,3.117250680923462,-0.3998316824436188,-2.7078421115875244
1776037950662349000,-1522123.163650879,3.134010076522827,-0.6200982332229614,-3.1244332790374756
1776037950672419800,-1522123.1535800782,3.1507694721221924,-0.7469909191131592,-3.6343982219696045
1776037950682490600,-1522123.1435092774,3.1651346683502197,-0.9050082564353943,-4.05817174911499
1776037950692561400,-1522123.1334384766,3.222595453262329,-1.158793568611145,-4.383783340454102
1776037950722743300,-1522123.1032565918,1.3215993642807007,-2.33913516998291,-4.067748546600342
1776037950742884900,-1522123.0831152343,-0.6248866319656372,-3.383007049560547,-3.579331636428833
1776037950752894700,-1522123.0731052246,-1.2665326595306396,-3.5936968326568604,-3.706224203109741
1776037950762965500,-1522123.0630344239,-1.6639702320098877,-3.3470940589904785,-3.9217023849487305
1776037950773036300,-1522123.052963623,-1.766920804977417,-2.6431987285614014,-4.086902141571045
1776037950783137500,-1522123.0428625487,-1.6903064250946045,-2.008735179901123,-4.153939723968506
1776037950793208600,-1522123.032791504,-1.5825673341751099,-1.4077905416488647,-4.153939723968506
1776037950823421000,-1522123.0025791016,-1.9321208000183105,0.16759411990642548,-4.177882194519043
1776037950833400000,-1522122.9925998535,-2.2864625453948975,0.7924807667732239,-4.077325344085693
1776037950853450200,-1522122.9725498047,-2.7964274883270264,1.7381904125213623,-3.892971992492676
1776037950863521000,-1522122.962479004,-2.942473888397217,1.9321208000183105,-3.7397429943084717
1776037950873530600,-1522122.9524694823,-3.0406360626220703,1.9728221893310547,-3.557783842086792
1776037950883632000,-1522122.94236792,-3.2106244564056396,2.274491548538208,-3.442862033843994
1776037950893703000,-1522122.9322971192,-3.4380736351013184,2.516305923461914,-3.294421434402466
1776037950903773700,-1522122.9222263184,-3.648763418197632,2.8634653091430664,-3.141192674636841
1776037950933955600,-1522122.8920444336,-3.8762125968933105,3.380612850189209,-2.913743495941162
1776037950954127600,-1522122.8718723145,-3.8522706031799316,3.7684733867645264,-2.8658595085144043
1776037950964198400,-1522122.8618015137,-4.019864559173584,4.151545524597168,-2.896984100341797
1776037950974269200,-1522122.851730713,-4.137180328369141,4.508281707763672,-2.8778305053710938
1776037950984309500,-1522122.8416904297,-4.369418144226074,4.819528102874756,-2.9305028915405273
1776037950994349800,-1522122.8316501465,-4.359841346740723,4.955997467041016,-2.8586769104003906
1776037951004420600,-1522122.8215793457,-4.503493309020996,5.049371242523193,-2.7557260990142822
1776037951014491400,-1522122.811508545,-4.616020679473877,5.157110691070557,-2.691082715988159
1776037951044673300,-1522122.7813266602,-4.474762916564941,5.262455463409424,-2.7269957065582275
1776037951054744000,-1522122.7712558594,-4.390965938568115,5.461174011230469,-2.87064790725708
1776037951064784400,-1522122.7612155762,-4.256890773773193,5.585672378540039,-2.9233202934265137
1776037951074794200,-1522122.7512058106,-3.993528366088867,5.657498836517334,-3.045424461364746
1776037951084865000,-1522122.7411350098,-3.7205893993377686,5.722142219543457,-3.0142998695373535
1776037951094874600,-1522122.7311254882,-3.488351821899414,5.904101371765137,-3.0166940689086914
1776037951104976100,-1522122.7210239258,-3.3063924312591553,5.9304375648498535,-3.0813376903533936
1776037951145228800,-1522122.6807712403,-2.628833532333374,6.057330131530762,-4.1611223220825195
1776037951165340000,-1522122.6606601563,-2.22660756111145,5.906495571136475,-4.865017890930176
1776037951175349500,-1522122.6506503907,-2.1308395862579346,5.95677375793457,-5.171475887298584
1776037951185420300,-1522122.6405798339,-1.9512743949890137,5.884947776794434,-5.377377033233643
1776037951195430100,-1522122.6305698243,-1.8363527059555054,5.566518783569336,-5.628767967224121
1776037951205531400,-1522122.620468506,-1.6352397203445435,5.355829238891602,-5.849034786224365
1776037951215602200,-1522122.610397705,-1.4437036514282227,5.145139217376709,-6.143521785736084
1776037951225703700,-1522122.6002963868,-1.235408067703247,4.987122058868408,-6.268020153045654
1776037951255885600,-1522122.570114502,-0.5626373887062073,4.132391929626465,-7.436390399932861
1776037951265986800,-1522122.5600131836,-0.790086567401886,3.928884983062744,-7.8745293617248535
1776037951276027100,-1522122.5499729004,-1.0199298858642578,3.8283286094665527,-8.17380428314209
1776037951286128400,-1522122.539871582,-1.3311761617660522,4.0078935623168945,-8.061277389526367
1776037951296199200,-1522122.5298007813,-1.3742717504501343,3.907337188720703,-7.692570209503174
1776037951306300400,-1522122.519699463,-1.4987702369689941,2.9089550971984863,-7.429207801818848
1776037951316340700,-1522122.5096591797,-1.5873557329177856,1.2473790645599365,-7.3669586181640625
1776037951336482300,-1522122.4895175782,-1.4077905416488647,-2.1332337856292725,-7.240066051483154
1776037951346583800,-1522122.4794162598,-1.5514427423477173,-2.6360161304473877,-6.794744491577148
1776037951356563000,-1522122.4694370118,-1.460463047027588,-2.5234885215759277,-6.344634532928467
1776037951366664200,-1522122.4593356934,-1.2258312702178955,-1.8100165128707886,-6.13633918762207
1776037951376735000,-1522122.4492651366,-0.9241618514060974,-0.8978256583213806,-5.913678169250488
1776037951386805800,-1522122.4391943358,-0.4692635238170624,-0.15083470940589905,-5.765237808227539
1776037951396846000,-1522122.4291538086,0.038307227194309235,0.22026655077934265,-5.413290023803711
1776037951406916900,-1522122.4190832519,0.6129156351089478,0.5889736413955688,-5.135562419891357
1776037951416987600,-1522122.409012451,1.1755530834197998,0.9457096457481384,-4.886565685272217
1776037951427058400,-1522122.3989416503,1.5682021379470825,1.2976573705673218,-4.479551315307617
1776037951457271000,-1522122.368729004,1.0606313943862915,1.6663644313812256,-3.0142998695373535
1776037951477412600,-1522122.3485874024,0.14365209639072418,2.315192937850952,-1.9991583824157715
1776037951487483400,-1522122.3385166016,-0.2537853717803955,2.3319525718688965,-1.4963760375976562
1776037951497554200,-1522122.3284458008,-0.6703764796257019,2.1571757793426514,-0.9193734526634216
1776037951507625000,-1522122.318375,-1.1827356815338135,2.070984363555908,-0.38546648621559143
1776037951517665300,-1522122.3083347168,-1.6879122257232666,2.0159177780151367,-0.031124621629714966
1776037951527766500,-1522122.2982333985,-1.8818424940109253,2.0901381969451904,0.2346317619085312
1776037951568049700,-1522122.2579504394,-1.5753847360610962,2.3798365592956543,0.7996633648872375
1776037951578120400,-1522122.2478796386,-1.7357962131500244,2.27209734916687,0.8978256583213806
1776037951588160800,-1522122.2378391114,-1.5825673341751099,3.1483752727508545,1.2282254695892334
1776037951598231600,-1522122.2277685546,-1.556231141090393,3.028665065765381,1.338358759880066
1776037951608302300,-1522122.2176977538,-1.5753847360610962,2.7700912952423096,1.2617442607879639
1776037951618312200,-1522122.2076877442,-1.4197616577148438,2.2577321529388428,0.9816226959228516
1776037951628413400,-1522122.1975866698,-1.1755530834197998,1.455674648284912,0.7110779285430908
1776037951638453800,-1522122.1875461426,-1.0630255937576294,0.9600749015808105,0.569819986820221
1776037951668696800,-1522122.1573032227,-0.6919242739677429,0.7038952708244324,0.16998831927776337
1776037951678767600,-1522122.147232422,-0.5386953949928284,0.6392518281936646,-0.0071826050989329815
1776037951688838400,-1522122.1371616211,-0.4141969084739685,0.4692635238170624,-0.2322375625371933
1776037951698909200,-1522122.1270908203,0.016759412363171577,0.3663128614425659,-0.5841852426528931
1776037951709010400,-1522122.116989502,0.4668693244457245,0.4596867263317108,-0.9911994934082031
1776037951719081200,-1522122.1069187012,0.7661445140838623,0.4596867263317108,-1.3239935636520386
1776037951729152000,-1522122.0968479004,0.8068459630012512,0.3998316824436188,-1.6041151285171509
1776037951739222800,-1522122.0867770996,0.7757213711738586,0.3495534360408783,-1.8818424940109253
1776037951749293600,-1522122.0767065429,0.6392518281936646,0.07182604819536209,-1.968033790588379
1776037951759334000,-1522122.0666660157,1.0821791887283325,0.12449848651885986,-2.3582887649536133
1776037951769404700,-1522122.0565952149,1.0342950820922852,0.2585737705230713,-2.5977089405059814
1776037951779475500,-1522122.046524658,1.1540051698684692,0.2777273952960968,-2.7317841053009033
1776037951789577000,-1522122.0364230957,1.3263877630233765,0.0694318488240242,-3.043030261993408
1776037951799617000,-1522122.0263830565,1.5466543436050415,-0.014365210197865963,-3.2776620388031006
1776037951809688000,-1522122.0163120118,1.5394717454910278,-0.24420857429504395,-3.4093432426452637
1776037951819758800,-1522122.006241211,1.6831238269805908,-0.8307880163192749,-3.687070608139038
1776037951829829600,-1522121.9961704102,1.821987509727478,-1.1109095811843872,-3.7708675861358643
1776037951839870000,-1522121.986130127,1.9728221893310547,-1.2258312702178955,-3.845088005065918
1776037951870112800,-1522121.955887207,2.231395959854126,-1.5825673341751099,-2.9233202934265137
1776037951880153000,-1522121.9458469239,2.3726539611816406,-1.7118542194366455,-2.9903578758239746
1776037951890223900,-1522121.935776123,2.382230758666992,-2.0925323963165283,-3.224989652633667
1776037951900294700,-1522121.9257053223,2.5522189140319824,-2.2888567447662354,-3.246537446975708
1776037951910365400,-1522121.9156345215,2.7269957065582275,-2.4396915435791016,-3.1651346683502197
1776037951920436200,-1522121.9055637207,2.7246015071868896,-2.655169725418091,-2.8634653091430664
1776037951930507000,-1522121.89549292,2.913743495941162,-2.473210334777832,-2.470816135406494
1776037951940577800,-1522121.8854221192,2.4013843536376953,-1.9847931861877441,-2.161964178085327
1776037951950648600,-1522121.8753513184,1.766920804977417,-1.4915876388549805,-1.9273324012756348
1776037951960719400,-1522121.8652807616,1.1994950771331787,-1.1683704853057861,-1.9153614044189453
1776037951990901200,-1522121.8350986328,0.6607996821403503,-1.3072341680526733,-2.6216509342193604
1776037952000941600,-1522121.8250583496,0.7445967197418213,-1.4173674583435059,-2.7126305103302
1776037952011012400,-1522121.8149875489,0.7924807667732239,-1.357512354850769,-2.8155810832977295
1776037952021083100,-1522121.804916748,0.5961562395095825,-1.192312479019165,-2.9759926795959473
1776037952031154000,-1522121.7948461913,0.26096799969673157,-0.8978256583213806,-2.959233283996582
1776037952041194200,-1522121.784805664,-0.028730420395731926,-0.6177040338516235,-3.1938650608062744
1776037952051234600,-1522121.774765381,-0.49799394607543945,-0.33758243918418884,-3.2297780513763428
1776037952061305300,-1522121.76469458,-1.0319008827209473,-0.014365210197865963,-3.222595453262329
1776037952081447000,-1522121.7445529785,-1.824381709098816,0.4884171485900879,-3.2345664501190186
1776037952091517700,-1522121.7344824218,-2.2577321529388428,0.7086837291717529,-3.19865345954895
1776037952101588500,-1522121.724411621,-2.561795711517334,1.05105459690094,-3.114856481552124
1776037952121699600,-1522121.704300537,-2.937685489654541,1.4772224426269531,-2.8155810832977295
1776037952131801000,-1522121.6941989746,-3.141192674636841,1.7573440074920654,-2.5785553455352783
1776037952141871900,-1522121.6841281739,-3.318363666534424,1.9393033981323242,-2.3511061668395996
1776037952151912200,-1522121.6740878907,-3.354276657104492,2.049436569213867,-2.38462495803833
1776037952182155000,-1522121.6438449707,-3.315969467163086,2.4444799423217773,-2.5115175247192383
1776037952212397800,-1522121.6136022948,-3.869029998779297,3.936067581176758,-2.6455929279327393
1776037952222468600,-1522121.603531494,-4.185064792633057,4.5154643058776855,-2.647987127304077
1776037952232570000,-1522121.5934299317,-4.438849925994873,4.730942726135254,-2.607285737991333
1776037952242641000,-1522121.583359131,-4.60165548324585,4.855441093444824,-2.604891538619995
1776037952252711700,-1522121.57328833,-4.738125324249268,4.7836151123046875,-2.693476915359497
1776037952262752000,-1522121.563248047,-4.182670593261719,4.637568473815918,-2.6384103298187256
1776037952272822800,-1522121.5531772461,-3.97916316986084,4.630385875701904,-2.6862943172454834
1776037952292934000,-1522121.5330661621,-3.512293815612793,5.614402770996094,-2.6647465229034424
1776037952313075500,-1522121.5129245606,-3.5170822143554688,5.832275390625,-2.7916390895843506
1776037952323115800,-1522121.5028842774,-3.5482068061828613,5.710171222686768,-2.82515811920166
1776037952333186600,-1522121.4928134766,-3.4739866256713867,5.784391403198242,-2.9161376953125
1776037952343196200,-1522121.482803955,-3.3303346633911133,5.904101371765137,-3.1938650608062744
1776037952353267000,-1522121.4727331542,-3.1699230670928955,6.066906929016113,-3.4189200401306152
1776037952363307300,-1522121.462692627,-2.9472622871398926,5.940014362335205,-3.797203779220581
1776037952373408800,-1522121.4525913086,-2.6862943172454834,5.896918773651123,-4.0964789390563965
1776037952383479600,-1522121.4425205078,-2.4396915435791016,6.095637321472168,-4.4292731285095215
1776037952413722400,-1522121.412277588,-1.7573440074920654,6.366182327270508,-5.492298603057861
1776037952423793200,-1522121.4022067871,-1.5179238319396973,6.224924564361572,-5.7125654220581055
1776037952433894400,-1522121.3921057128,-1.4389152526855469,6.205770969390869,-5.803544998168945
1776037952443965200,-1522121.382034912,-1.1085153818130493,6.160281181335449,-5.916072368621826
1776037952454036000,-1522121.3719641112,-0.5195417404174805,5.954379558563232,-6.114790916442871
1776037952464107000,-1522121.3618930664,-0.10773907601833344,5.415684223175049,-6.308721542358398
1776037952474147000,-1522121.3518530272,0.026336219161748886,5.080495834350586,-6.732495307922363
1776037952484217900,-1522121.3417822265,-0.09576806426048279,4.934449672698975,-7.089231014251709
1776037952504359700,-1522121.321640381,-0.2106897532939911,4.37420654296875,-7.589619159698486
1776037952514461000,-1522121.3115390625,-0.016759412363171577,3.869029998779297,-7.5968017578125
1776037952524531700,-1522121.3014682618,0.2298433631658554,3.4620156288146973,-7.438784599304199
1776037952534602500,-1522121.291397461,0.38307225704193115,2.8131868839263916,-7.304709434509277
1776037952544673300,-1522121.2813266602,0.4908113479614258,1.9536685943603516,-6.830657482147217
1776037952554713600,-1522121.271286377,0.6320692300796509,1.1563993692398071,-6.265625953674316
1776037952564814800,-1522121.2611850586,0.8882488012313843,0.6009446382522583,-5.774814605712891
1776037952574885600,-1522121.2511142578,1.0031704902648926,0.19153612852096558,-5.446808815002441
1776037952584956400,-1522121.241043701,1.0845733880996704,-0.15801730751991272,-5.47075080871582
1776037952615169000,-1522121.2108310547,0.5506663918495178,0.33039984107017517,-5.717353820800781
1776037952625239800,-1522121.200760254,0.12928688526153564,0.7924807667732239,-5.552153587341309
1776037952635249400,-1522121.1907504883,-0.1843535304069519,1.3239935636520386,-5.30076265335083
1776037952645320200,-1522121.1806796875,-0.5746083855628967,1.8770540952682495,-4.975151062011719
1776037952655421700,-1522121.1705783692,-0.7972691655158997,2.3750481605529785,-4.486733913421631
1776037952665492500,-1522121.1605075684,-0.9217676520347595,3.045424461364746,-3.971980571746826
1776037952675502000,-1522121.1504978028,-1.070208191871643,3.44765043258667,-3.576937437057495
1776037952685603600,-1522121.1403964844,-1.2114660739898682,3.485957622528076,-3.136404275894165
1776037952695674400,-1522121.1303256836,-1.2713210582733154,3.4739866256713867,-2.7269957065582275
1776037952705714400,-1522121.1202856444,-1.338358759880066,3.227383852005005,-2.298433542251587
1776037952746028300,-1522121.0799716797,-1.8076223134994507,1.644816517829895,-0.8475474119186401
1776037952756068600,-1522121.0699313965,-1.8938134908676147,1.3910311460494995,-0.5219359993934631
1776037952766169900,-1522121.0598300782,-1.9632453918457031,1.1803414821624756,-0.12689268589019775
1776037952776210200,-1522121.049789795,-2.0877439975738525,1.0869675874710083,0.19393034279346466
1776037952786220000,-1522121.0397800293,-2.0805611610412598,0.8619126081466675,0.3495534360408783
1776037952796229600,-1522121.0297702637,-2.0039467811584473,0.689530074596405,0.545877993106842
1776037952816340700,-1522121.0096591797,-1.6208745241165161,0.44771572947502136,0.9457096457481384
1776037952836482300,-1522120.9895175782,-1.3431471586227417,0.36152446269989014,1.1827356815338135
1776037952846583800,-1522120.9794162598,-1.1635819673538208,0.37828385829925537,1.3215993642807007
1776037952856685000,-1522120.9693149414,-0.9313444495201111,0.2968810200691223,1.3215993642807007
1776037952866755800,-1522120.9592441407,-0.8427590131759644,0.31603461503982544,1.1803414821624756
1776037952876796200,-1522120.9492038575,-0.3687070608139038,0.2561795711517334,1.0342950820922852
1776037952886836500,-1522120.9391635743,-0.090979665517807,0.2346317619085312,0.8954314589500427
1776037952896937700,-1522120.929062256,0.20111294090747833,0.33997663855552673,0.8978256583213806
1776037952907008500,-1522120.918991455,0.2537853717803955,0.5506663918495178,0.9026140570640564
1776037952917079300,-1522120.9089206543,0.15562310814857483,0.6488286852836609,0.7469909191131592
1776037952957301500,-1522120.8686984864,0.8523358106613159,-0.5171475410461426,-0.35673606395721436
1776037952967372300,-1522120.8586276856,1.414973258972168,-1.1228805780410767,-0.6320692300796509
1776037952977473500,-1522120.8485263672,1.9752163887023926,-1.5298948287963867,-0.8068459630012512
1776037952987513900,-1522120.838486084,2.4133553504943848,-1.9081788063049316,-1.2521674633026123
1776037952997584600,-1522120.8284152832,3.0142998695373535,-2.3965959548950195,-1.8100165128707886
1776037953007655400,-1522120.8183444825,3.397372245788574,-2.5929205417633057,-2.540247917175293
1776037953017756700,-1522120.808243408,3.7445313930511475,-2.7676970958709717,-2.9065608978271484
1776037953047999700,-1522120.7780002442,3.976768970489502,-2.434903144836426,-3.4811692237854004
1776037953058070500,-1522120.7679294434,3.890577793121338,-2.2242133617401123,-3.3877954483032227
1776037953068110800,-1522120.7578891602,3.600879430770874,-1.9823989868164062,-3.181894063949585
1776037953088191500,-1522120.7378085938,3.4955344200134277,-1.7693150043487549,-2.978386878967285
1776037953098231600,-1522120.7277685546,3.4548330307006836,-1.7717092037200928,-2.9879636764526367
1776037953108271900,-1522120.7177280274,3.3854012489318848,-1.7190368175506592,-3.3423056602478027
1776037953118373000,-1522120.707626953,3.332728862762451,-1.7166426181793213,-3.687070608139038
1776037953128444200,-1522120.6975559082,2.9975404739379883,-1.5825673341751099,-3.971980571746826
1776037953148585700,-1522120.6774143067,2.030282974243164,-1.5418659448623657,-3.3446998596191406
1776037953168727300,-1522120.657272705,0.6368576288223267,-1.7357962131500244,-2.4875755310058594
1776037953178767600,-1522120.647232422,0.16759411990642548,-1.699883222579956,-2.051830768585205
1776037953188808000,-1522120.6371921387,-0.08379705995321274,-1.4867992401123047,-1.9512743949890137
1776037953198878700,-1522120.627121338,-0.14365209639072418,-1.1085153818130493,-2.0901381969451904
1776037953208949500,-1522120.6170505371,-0.031124621629714966,-0.7996633648872375,-2.406172752380371
1776037953219050800,-1522120.6069492188,0.28969839215278625,-0.6703764796257019,-2.801215887069702
1776037953229060600,-1522120.5969394532,0.5434837937355042,-0.7038952708244324,-3.2968156337738037
1776037953259242500,-1522120.5667575684,0.33518823981285095,-0.4165911078453064,-4.345476150512695
1776037953269313300,-1522120.5566867676,-0.17956513166427612,0,-4.711789131164551
1776037953279384000,-1522120.5466159668,-0.646434485912323,0.22505496442317963,-4.941632270812988
1776037953289454800,-1522120.536545166,-1.1420341730117798,0.5386953949928284,-4.987122058868408
1776037953299556000,-1522120.5264438477,-1.5682021379470825,0.8212111592292786,-4.9152960777282715
1776037953309566000,-1522120.516434082,-1.9800047874450684,1.0342950820922852,-4.759673118591309
1776037953319636700,-1522120.5063632813,-2.341529369354248,1.3886369466781616,-4.357447147369385
1776037953329707500,-1522120.4962924805,-2.6431987285614014,1.659181833267212,-4.151545524597168
1776037953339778300,-1522120.4862216797,-3.0382418632507324,1.900996208190918,-3.885789394378662
1776037953349757400,-1522120.4762426757,-3.406949043273926,2.231395959854126,-3.5697548389434814
1776037953379939300,-1522120.446060791,-4.273650169372559,2.7988216876983643,-2.9257144927978516
1776037953400050400,-1522120.425949463,-4.683058738708496,3.1028854846954346,-2.8826189041137695
1776037953410121200,-1522120.4158786621,-4.752490520477295,3.3494882583618164,-3.002328872680664
1776037953430232300,-1522120.3957675782,-4.862623691558838,3.823540210723877,-2.9927520751953125
1776037953440303000,-1522120.3856967774,-5.0685248374938965,4.017470359802246,-2.8850131034851074
1776037953470424000,-1522120.3555759278,-4.932055473327637,4.189853191375732,-3.0310592651367188
1776037953480494800,-1522120.345505127,-4.879383087158203,4.378994941711426,-3.155557870864868
1776037953490565600,-1522120.3354343262,-4.666299343109131,4.503493309020996,-3.294421434402466
1776037953500636400,-1522120.3253635254,-4.4939165115356445,4.714183330535889,-3.287238836288452
1776037953510707200,-1522120.3152927246,-4.4508209228515625,5.013458251953125,-3.248931646347046
1776037953520808400,-1522120.3051916503,-4.4292731285095215,5.183446884155273,-3.224989652633667
1776037953530879200,-1522120.2951208495,-4.352658748626709,5.351040840148926,-3.1483752727508545
1776037953540950300,-1522120.2850498047,-4.3406877517700195,5.736507415771484,-3.1028854846954346
1776037953551021000,-1522120.274979004,-4.05817174911499,6.117185115814209,-3.043030261993408
1776037953571101400,-1522120.2548986815,-3.773261785507202,6.3302693367004395,-3.1747114658355713
1776037953591273700,-1522120.2347263184,-3.821146011352539,6.4834980964660645,-3.464409828186035
1776037953601344500,-1522120.2246555176,-3.9432501792907715,6.720524311065674,-3.6942532062530518
1776037953611415300,-1522120.2145847168,-3.773261785507202,6.672640323638916,-3.883395195007324
1776037953621486000,-1522120.204513916,-3.687070608139038,6.718130111694336,-4.113238334655762
1776037953631556900,-1522120.1944431153,-3.7708675861358643,6.598419666290283,-4.4939165115356445
1776037953641627600,-1522120.1843723145,-3.426102638244629,6.507440090179443,-4.793191909790039
1776037953651698400,-1522120.1743015137,-3.117250680923462,6.210559368133545,-4.999093055725098
1776037953661799700,-1522120.1642004394,-2.87064790725708,5.983109951019287,-5.219359874725342
1776037953681880300,-1522120.144119629,-2.4444799423217773,5.602431774139404,-5.8442463874816895
1776037953702022000,-1522120.1239780274,-1.290474772453308,4.764461517333984,-6.581660270690918
1776037953712092700,-1522120.1139072266,-0.8188169598579407,4.3861775398254395,-6.979097843170166
1776037953722163500,-1522120.1038364258,-0.49799394607543945,4.086902141571045,-7.225700855255127
1776037953732234200,-1522120.093765869,-0.4572925269603729,3.8810009956359863,-7.642292022705078
1776037953742305000,-1522120.0836950683,-0.4357447028160095,3.646369218826294,-7.888894557952881
1776037953752345300,-1522120.073654541,-0.4357447028160095,3.3854012489318848,-7.994239330291748
1776037953762416000,-1522120.0635839843,-0.26815059781074524,3.0789434909820557,-7.9631147384643555
1776037953802730000,-1522120.0232700196,1.1971008777618408,-0.033518824726343155,-6.687005519866943
1776037953812770300,-1522120.0132297364,1.3431471586227417,0.1173158809542656,-6.287173748016357
1776037953822841000,-1522120.0031589356,1.1420341730117798,0.667982280254364,-6.184223175048828
1776037953832942300,-1522119.9930576172,0.7541735172271729,1.1540051698684692,-6.155492782592773
1776037953843013000,-1522119.9829868164,0.1412578970193863,1.644816517829895,-6.114790916442871
1776037953853084000,-1522119.9729160157,-0.5793967843055725,1.946485996246338,-5.983109951019287
1776037953863185200,-1522119.9628149413,-1.213860273361206,2.054224967956543,-5.729324817657471
1776037953873256000,-1522119.9527441405,-1.7142484188079834,2.1930887699127197,-5.303156852722168
1776037953903468500,-1522119.9225314942,-2.2433669567108154,2.5043349266052246,-4.611232280731201
1776037953923640600,-1522119.902359375,-1.9321208000183105,2.3056161403656006,-3.9264907836914062
1776037953933711400,-1522119.8922885743,-1.845929503440857,2.1308395862579346,-3.471592426300049
1776037953943782100,-1522119.8822177735,-1.7334020137786865,2.006340980529785,-2.918531894683838
1776037953953822500,-1522119.8721774903,-1.8291701078414917,1.9057846069335938,-2.346317768096924
1776037953963862800,-1522119.862137207,-1.9297266006469727,1.8148049116134644,-1.7046716213226318
1776037953973933600,-1522119.8520664063,-2.1380221843719482,1.5897499322891235,-1.2952631711959839
1776037954014155800,-1522119.8118442383,-2.2146365642547607,0.49799394607543945,-0.14365209639072418
1776037954024196000,-1522119.801803955,-2.051830768585205,0.31364041566848755,0.21547815203666687
1776037954034236200,-1522119.791763916,-1.941697597503662,0.09576806426048279,0.6703764796257019
1776037954044307200,-1522119.7816928711,-1.6519991159439087,-0.1388636976480484,0.9864110946655273
1776037954054378000,-1522119.7716220703,-1.4915876388549805,-0.36152446269989014,1.3263877630233765
1776037954064448800,-1522119.7615512696,-1.3694833517074585,-0.5171475410461426,1.5131354331970215
1776037954104732000,-1522119.7212680664,-0.3471592366695404,-1.2282254695892334,1.6855180263519287
1776037954114772200,-1522119.7112277832,-0.05267243832349777,-1.3910311460494995,1.6352397203445435
1776037954124873500,-1522119.7011264649,0.304063618183136,-1.4437036514282227,1.6352397203445435
1776037954134944300,-1522119.691055664,0.7182605266571045,-1.522712230682373,1.7310078144073486
1776037954145015000,-1522119.6809848633,1.7334020137786865,-1.577778935432434,1.5466543436050415
1776037954155055400,-1522119.67094458,2.406172752380371,-1.5849615335464478,1.256955862045288
1776037954165156600,-1522119.6608435058,2.248155355453491,-1.6089035272598267,0.9193734526634216
1776037954175227400,-1522119.650772705,1.9345149993896484,-1.766920804977417,0.7948749661445618
1776037954205409300,-1522119.6205908202,3.4141316413879395,-3.7828385829925537,0.7589619159698486
1776037954215480000,-1522119.6105200194,4.23773717880249,-4.266467571258545,0.5363011956214905
1776037954225581600,-1522119.600418457,4.661510944366455,-4.474762916564941,0.1173158809542656
1776037954235622000,-1522119.5903781739,5.020640850067139,-4.434061527252197,-0.2753331959247589
1776037954245692700,-1522119.580307373,5.082890033721924,-4.2090067863464355,-0.8020575642585754
1776037954255763500,-1522119.5702365723,5.0876784324646,-3.912125587463379,-1.3287819623947144
1776037954265834200,-1522119.5601657715,5.063736438751221,-3.665522813796997,-1.9536685943603516
1776037954275843800,-1522119.55015625,4.989516258239746,-3.509899616241455,-2.492363929748535
1776037954285945300,-1522119.5400546875,4.853046894073486,-3.399766445159912,-2.8874073028564453
1776037954326198000,-1522119.499802002,3.00711727142334,-3.5242648124694824,-3.804386615753174
1776037954336268800,-1522119.4897312012,2.741360902786255,-3.4955344200134277,-4.393360137939453
1776037954346339600,-1522119.4796604004,2.4636335372924805,-3.378218650817871,-5.207388877868652
1776037954356380000,-1522119.4696201172,2.1954829692840576,-3.246537446975708,-5.674258232116699
1776037954366481200,-1522119.4595187989,1.9369091987609863,-3.043030261993408,-5.892130374908447
1776037954376552000,-1522119.449447998,1.5514427423477173,-2.6647465229034424,-5.614402770996094
1776037954386561800,-1522119.4394382325,1.0414776802062988,-2.2194249629974365,-5.011064052581787
1776037954396571400,-1522119.4294287108,0.304063618183136,-1.7357962131500244,-4.223371982574463
1776037954406673000,-1522119.4193271485,-0.3423708379268646,-1.278503656387329,-3.5434184074401855
1776037954426875400,-1522119.3991245118,-1.403002142906189,-0.14604631066322327,-3.117250680923462
1776037954447017000,-1522119.3789831542,-1.944091796875,0.790086567401886,-3.8738183975219727
1776037954457087700,-1522119.3689123534,-2.0901381969451904,1.1635819673538208,-4.228160381317139
1776037954467158500,-1522119.3588415526,-2.0853497982025146,1.4197616577148438,-4.316745758056641
1776037954477229600,-1522119.3487705078,-2.205059766769409,1.7764976024627686,-4.393360137939453
1776037954487300400,-1522119.338699707,-2.4396915435791016,2.0422539710998535,-4.572925090789795
1776037954497371100,-1522119.3286289063,-2.4899697303771973,2.343923568725586,-4.711789131164551
1776037954507442000,-1522119.3185581055,-2.7317841053009033,2.494758129119873,-4.807557106018066
1776037954517482200,-1522119.3085178223,-2.6791117191314697,2.7293899059295654,-4.8051629066467285
1776037954547694600,-1522119.27830542,-2.8419175148010254,3.043030261993408,-4.003105163574219
1776037954557735000,-1522119.2682651368,-2.9544448852539062,3.2345664501190186,-3.6391866207122803
1776037954567805700,-1522119.258194336,-3.179499864578247,3.512293815612793,-3.5194764137268066
1776037954577846000,-1522119.2481540528,-3.2848446369171143,3.7469255924224854,-3.380612850189209
1776037954587916800,-1522119.238083252,-3.3446998596191406,3.845088005065918,-3.555389642715454
1776037954597987600,-1522119.2280124512,-3.428496837615967,4.086902141571045,-3.488351821899414
1776037954608058400,-1522119.2179416504,-3.5673606395721436,4.381389141082764,-3.428496837615967
1776037954628230400,-1522119.1977695313,-3.663128614425659,4.766855716705322,-3.251325845718384
1776037954648372000,-1522119.1776279297,-3.88818359375,4.888959884643555,-3.2561142444610596
1776037954658442800,-1522119.167557129,-4.082113742828369,4.881777286529541,-3.270479440689087
1776037954668513500,-1522119.1574865722,-4.034229755401611,4.8267107009887695,-3.2297780513763428
1776037954678553900,-1522119.147446045,-4.072536945343018,4.9799394607543945,-3.3016040325164795
1776037954688655000,-1522119.1373449706,-4.1156325340271,4.788403511047363,-3.3446998596191406
1776037954698726100,-1522119.1272739258,-4.2329487800598145,4.402936935424805,-3.4739866256713867
1776037954708797000,-1522119.117203125,-4.371812343597412,4.4077253341674805,-3.6511576175689697
1776037954718867700,-1522119.1071323243,-4.491522312164307,4.58968448638916,-3.711012601852417
1776037954759181300,-1522119.0668186035,-4.663905143737793,5.1810526847839355,-3.7493197917938232
1776037954779292400,-1522119.0467075196,-4.6040496826171875,5.370194435119629,-3.648763418197632
1776037954789332700,-1522119.0366672364,-4.759673118591309,5.485116004943848,-3.529053211212158
