time,seconds_elapsed,z,y,x
1776037938434526500,-1522135.3914736328,-7.679999828338623,-4.980000019073486,-6.539999961853027
1776037938444197000,-1522135.3818029785,-7.079999923706055,-4.559999942779541,-2.3399999141693115
1776037938453868000,-1522135.3721320801,-6.420000076293945,-4.319999694824219,2.0399999618530273
1776037938483280400,-1522135.3427197265,-7.679999828338623,-3.7200000286102295,3.419999837875366
1776037938493251000,-1522135.3327490233,-8.399999618530273,-3.6599998474121094,3.419999837875366
1776037938513331700,-1522135.312668213,-8.699999809265137,-4.739999771118164,3.359999895095825
1776037938543574800,-1522135.282425293,-8.639999389648438,-3.7200000286102295,3.119999885559082
1776037938553554000,-1522135.272446045,-8.579999923706055,-3.9599997997283936,2.819999933242798
1776037938563655200,-1522135.2623447266,-8.34000015258789,-4.079999923706055,2.879999876022339
1776037938573665000,-1522135.252334961,-7.37999963760376,-3.419999837875366,2.819999933242798
1776037938583735800,-1522135.2422641602,-6.359999656677246,-3.5399999618530273,2.700000047683716
1776037938593745700,-1522135.2322543946,-5.519999980926514,-3.419999837875366,2.4600000381469727
1776037938603847000,-1522135.2221530762,-4.679999828338623,-3.5999999046325684,2.3399999141693115
1776037938613917700,-1522135.2120822754,-4.440000057220459,-4.440000057220459,2.0399999618530273
1776037938654170400,-1522135.1718295899,-4.739999771118164,-4.199999809265137,3.119999885559082
1776037938664241200,-1522135.161758789,-4.920000076293945,-4.319999694824219,2.5799999237060547
1776037938674281500,-1522135.151718506,-5.87999963760376,-4.980000019073486,2.3399999141693115
1776037938684382700,-1522135.1416171875,-6.539999961853027,-5.21999979019165,2.879999876022339
1776037938694423000,-1522135.1315769043,-6.839999675750732,-5.759999752044678,1.9199999570846558
1776037938704493800,-1522135.1215061035,-7.37999963760376,-5.940000057220459,1.9799998998641968
1776037938714534100,-1522135.1114658203,-8.220000267028809,-5.639999866485596,2.2200000286102295
1776037938724635400,-1522135.101364502,-8.639999389648438,-5.21999979019165,2.2200000286102295
1776037938754817300,-1522135.0711826172,-9.359999656677246,-4.739999771118164,3.299999952316284
1776037938764918800,-1522135.0610812989,-9.239999771118164,-4.679999828338623,2.819999933242798
1776037938774958800,-1522135.0510412597,-8.279999732971191,-3.7200000286102295,2.879999876022339
1776037938785029600,-1522135.0409704589,-7.739999771118164,-3.7799999713897705,2.2799999713897705
1776037938795070000,-1522135.0309299317,-7.5,-3.7200000286102295,1.7999999523162842
1776037938805140700,-1522135.020859375,-8.039999961853027,-4.079999923706055,1.2599999904632568
1776037938815181000,-1522135.0108188477,-8.399999618530273,-4.019999980926514,0.7799999713897705
1776037938855433700,-1522134.9705661621,-8.819999694824219,-0.5999999642372131,1.8600000143051147
1776037938875544800,-1522134.9504550782,-8.15999984741211,0.5399999618530273,1.2599999904632568
1776037938885646000,-1522134.9403540038,-8.09999942779541,1.0799999237060547,1.7999999523162842
1776037938895686400,-1522134.9303137206,-6.960000038146973,1.3199999332427979,1.9799998998641968
1776037938905757200,-1522134.9202429198,-6.480000019073486,1.559999942779541,1.7999999523162842
1776037938915797500,-1522134.9102023926,-6.71999979019165,1.7400000095367432,2.5199999809265137
1776037938925899000,-1522134.9001010743,-7.139999866485596,2.1599998474121094,2.819999933242798
1776037938935969800,-1522134.8900302735,-7.739999771118164,1.6200000047683716,2.5799999237060547
1776037938946071000,-1522134.879928955,-8.34000015258789,2.1599998474121094,3.7200000286102295
1776037938966212600,-1522134.8597873535,-6.839999675750732,2.700000047683716,3.359999895095825
1776037938986384600,-1522134.8396154784,-5.699999809265137,3.5399999618530273,2.819999933242798
1776037938996425000,-1522134.8295749512,-5.400000095367432,3.7799999713897705,2.93999981880188
1776037939006495700,-1522134.8195041504,-4.980000019073486,3.8399999141693115,2.879999876022339
1776037939016536000,-1522134.8094638672,-5.460000038146973,3.7200000286102295,3.5399999618530273
1776037939026606800,-1522134.7993930664,-5.519999980926514,3.419999837875366,3.4800000190734863
1776037939036677600,-1522134.7893222657,-5.639999866485596,2.819999933242798,2.5799999237060547
1776037939046779000,-1522134.7792211913,-5.699999809265137,2.93999981880188,3.179999828338623
1776037939077022000,-1522134.7489780274,-5.87999963760376,3.419999837875366,5.339999675750732
1776037939087123200,-1522134.738876709,-5.039999961853027,2.819999933242798,6.179999828338623
1776037939097194000,-1522134.7288059082,-4.559999942779541,2.3999998569488525,7.139999866485596
1776037939117366300,-1522134.708633789,-2.93999981880188,0.41999998688697815,7.559999942779541
1776037939127437000,-1522134.6985629883,-2.3999998569488525,-0.11999999731779099,7.37999963760376
1776037939137477400,-1522134.688522705,-1.5,-1.3199999332427979,6.359999656677246
1776037939147548200,-1522134.6784519043,-1.0799999237060547,-1.7999999523162842,6.239999771118164
1776037939218043600,-1522134.6079562989,0.5999999642372131,-2.3999998569488525,4.859999656677246
1776037939268428300,-1522134.5575717774,1.1999999284744263,-3.299999952316284,4.859999656677246
1776037939338954200,-1522134.4870456543,1.1399999856948853,-2.2799999713897705,5.039999961853027
1776037939379207000,-1522134.4467929688,-0.11999999731779099,-1.0799999237060547,6.059999942779541
1776037939389277700,-1522134.436722412,-0.41999998688697815,-1.3799999952316284,5.940000057220459
1776037939399318000,-1522134.4266818848,-0.6599999666213989,-2.2200000286102295,5.099999904632568
1776037939409388800,-1522134.416611084,-1.1999999284744263,-2.6399998664855957,4.920000076293945
1776037939419459600,-1522134.4065405272,-0.47999998927116394,-2.5799999237060547,4.019999980926514
1776037939439601200,-1522134.3863989257,0.8999999761581421,-0.5399999618530273,5.099999904632568
1776037939449672200,-1522134.376327881,1.3799999952316284,0.17999999225139618,5.159999847412109
1776037939459712300,-1522134.3662878417,1.1399999856948853,-0.47999998927116394,5.400000095367432
1776037939479854000,-1522134.3461459961,1.0799999237060547,-0.6599999666213989,5.579999923706055
1776037939530177500,-1522134.2958225098,0.41999998688697815,2.2799999713897705,6.059999942779541
1776037939540248300,-1522134.285751709,0.5999999642372131,1.9799998998641968,5.519999980926514
1776037939550319000,-1522134.2756809082,0.41999998688697815,2.4600000381469727,5.579999923706055
1776037939560390000,-1522134.2656101075,2.3999998569488525,2.5199999809265137,5.819999694824219
1776037939590541300,-1522134.2354587403,2.2200000286102295,2.879999876022339,6.599999904632568
1776037939620753700,-1522134.205246338,0.7199999690055847,3.7200000286102295,7.079999923706055
1776037939640895200,-1522134.1851047364,0.17999999225139618,4.319999694824219,7.37999963760376
1776037939650966000,-1522134.1750339356,0.29999998211860657,4.739999771118164,6.71999979019165
1776037939661036800,-1522134.1649631348,0.11999999731779099,4.799999713897705,6.239999771118164
1776037939671107600,-1522134.154892334,0.35999998450279236,5.460000038146973,6.420000076293945
1776037939691218700,-1522134.13478125,0.8399999737739563,6.71999979019165,5.159999847412109
1776037939701289500,-1522134.1247104493,0.8399999737739563,6.899999618530273,4.799999713897705
1776037939711360300,-1522134.1146396485,0.8999999761581421,6.539999961853027,4.139999866485596
1776037939721431000,-1522134.1045688477,0.5999999642372131,6.119999885559082,3.7200000286102295
1776037939731501800,-1522134.094498291,0.35999998450279236,6.659999847412109,3.5999999046325684
1776037939741572600,-1522134.0844274901,0.11999999731779099,7.139999866485596,3.419999837875366
1776037939751643400,-1522134.0743566894,-0.35999998450279236,7.199999809265137,3.419999837875366
1776037939761714400,-1522134.0642856446,-1.0799999237060547,7.139999866485596,3.5399999618530273
1776037939801997600,-1522134.0240024414,0.23999999463558197,9.059999465942383,3.359999895095825
1776037939812068400,-1522134.0139316407,0.47999998927116394,9.420000076293945,3.299999952316284
1776037939822139100,-1522134.0038608399,0.8399999737739563,9.59999942779541,3
1776037939832240400,-1522133.9937595215,0.7199999690055847,9.65999984741211,3.119999885559082
1776037939842280700,-1522133.9837192383,0.47999998927116394,10.079999923706055,3.7799999713897705
1776037939852351500,-1522133.9736484375,0.35999998450279236,9.899999618530273,3.419999837875366
1776037939862422300,-1522133.9635776368,-0.11999999731779099,9.479999542236328,2.1599998474121094
1776037939872493000,-1522133.953506836,-0.35999998450279236,9.359999656677246,2.3399999141693115
1776037939912776400,-1522133.9132236328,1.7999999523162842,10.559999465942383,1.7400000095367432
1776037939922877700,-1522133.9031223145,1.7400000095367432,10.199999809265137,1.2599999904632568
1776037939932948500,-1522133.8930515137,1.1399999856948853,10.380000114440918,1.559999942779541
1776037939942988800,-1522133.8830112305,0.7199999690055847,10.739999771118164,1.7400000095367432
1776037939953059600,-1522133.8729404297,0.47999998927116394,10.5,1.8600000143051147
1776037939963160800,-1522133.8628391114,0.8399999737739563,11.039999961853027,1.9799998998641968
1776037939973231600,-1522133.8527683106,1.5,11.039999961853027,1.5
1776037939983302400,-1522133.8426975098,1.6799999475479126,11.399999618530273,1.6200000047683716
1776037940003474700,-1522133.8225253907,2.0999999046325684,10.979999542236328,1.2599999904632568
1776037940013514800,-1522133.8124853515,1.8600000143051147,11.219999313354492,1.1999999284744263
1776037940023585500,-1522133.8024145507,1.6799999475479126,11.279999732971191,0.8399999737739563
1776037940033625900,-1522133.7923740235,1.1999999284744263,11.460000038146973,0.23999999463558197
1776037940043727400,-1522133.782272705,1.2599999904632568,11.75999927520752,-0.23999999463558197
1776037940053767400,-1522133.772232666,1.9199999570846558,11.399999618530273,-0.9599999785423279
1776037940063838200,-1522133.7621618651,1.9799998998641968,11.15999984741211,-0.6599999666213989
1776037940073848000,-1522133.7521518555,1.8600000143051147,11.519999504089355,0.29999998211860657
1776037940083980000,-1522133.7420200196,1.7400000095367432,11.219999313354492,0.5999999642372131
1776037940134334000,-1522133.6916660157,1.1399999856948853,11.699999809265137,-0.29999998211860657
1776037940144404700,-1522133.6815952149,1.6200000047683716,12.179999351501465,0.29999998211860657
1776037940154475500,-1522133.671524414,1.6799999475479126,12.539999961853027,0.9599999785423279
1776037940164576800,-1522133.6614233397,2.759999990463257,13.199999809265137,1.3199999332427979
1776037940174678300,-1522133.6513217774,2.759999990463257,12.179999351501465,1.1399999856948853
1776037940184718300,-1522133.6412817382,2.6399998664855957,11.75999927520752,0.8399999737739563
1776037940214900200,-1522133.6110998534,1.8600000143051147,11.219999313354492,1.1999999284744263
1776037940224971300,-1522133.6010288086,2.819999933242798,10.920000076293945,1.0799999237060547
1776037940235011300,-1522133.5909887694,3.119999885559082,10.559999465942383,1.6799999475479126
1776037940245112800,-1522133.580887207,3.240000009536743,10.380000114440918,1.559999942779541
1776037940255214000,-1522133.5707858887,2.819999933242798,10.079999923706055,1.7999999523162842
1776037940265284900,-1522133.560715088,2.2200000286102295,10.319999694824219,2.700000047683716
1776037940285426400,-1522133.5405734864,1.9799998998641968,9.960000038146973,3.240000009536743
1776037940295497200,-1522133.5305026856,2.0999999046325684,9.84000015258789,3.4800000190734863
1776037940335689000,-1522133.4903110352,2.819999933242798,10.380000114440918,2.3999998569488525
1776037940345759700,-1522133.4802402344,2.6399998664855957,10.380000114440918,3
1776037940355830500,-1522133.4701694336,1.7999999523162842,10.319999694824219,3.419999837875366
1776037940365901300,-1522133.4600986328,2.3999998569488525,10.260000228881836,3.8399999141693115
1776037940376002600,-1522133.4499975585,1.6200000047683716,9.899999618530273,4.5
1776037940386073300,-1522133.4399267577,1.3199999332427979,9.779999732971191,5.159999847412109
1776037940396113700,-1522133.4298862305,1.2599999904632568,9.65999984741211,5.940000057220459
1776037940426295600,-1522133.3997043457,1.1399999856948853,9.239999771118164,6.239999771118164
1776037940436366300,-1522133.389633545,1.7999999523162842,9.239999771118164,6.539999961853027
1776037940446437000,-1522133.3795629882,0.9599999785423279,8.639999389648438,7.079999923706055
1776037940456477400,-1522133.369522461,1.3199999332427979,8.09999942779541,6.71999979019165
1776037940466487300,-1522133.3595126953,1.6799999475479126,8.399999618530273,7.259999752044678
1776037940476588500,-1522133.349411377,1.6799999475479126,8.279999732971191,6.960000038146973
1776037940486659300,-1522133.3393405762,2.5199999809265137,8.519999504089355,7.319999694824219
1776037940496760600,-1522133.3292395019,2.759999990463257,8.819999694824219,7.619999885559082
1776037940547023000,-1522133.2789768067,3.8399999141693115,8.09999942779541,7.559999942779541
1776037940567164700,-1522133.258835449,5.159999847412109,8.460000038146973,7.319999694824219
1776037940577266200,-1522133.2487338868,5.279999732971191,8.15999984741211,6.839999675750732
1776037940587337000,-1522133.238663086,4.799999713897705,7.919999599456787,7.440000057220459
1776037940597438200,-1522133.2285617676,4.5,7.5,8.15999984741211
1776037940607509000,-1522133.2184909668,4.019999980926514,7.199999809265137,7.980000019073486
1776037940637721300,-1522133.1882785645,6.119999885559082,7.619999885559082,7.199999809265137
1776037940647792000,-1522133.1782077637,6.839999675750732,8.15999984741211,7.440000057220459
1776037940657893600,-1522133.1681064453,6.059999942779541,7.319999694824219,6.899999618530273
1776037940667933700,-1522133.1580664061,5.699999809265137,7.559999942779541,7.619999885559082
1776037940688106000,-1522133.137894043,6.119999885559082,7.259999752044678,7.139999866485596
1776037940698207200,-1522133.1277927246,6.599999904632568,7.980000019073486,7.5
1776037940708278000,-1522133.1177219239,6.480000019073486,7.440000057220459,6.839999675750732
1776037940748622300,-1522133.0773776856,7.319999694824219,9.539999961853027,8.09999942779541
1776037940758693000,-1522133.0673068848,7.5,9.479999542236328,8.819999694824219
1776037940768764000,-1522133.057236084,7.739999771118164,9.539999961853027,8.279999732971191
1776037940778865200,-1522133.0471347657,7.199999809265137,9.300000190734863,8.519999504089355
1776037940788875000,-1522133.037125,6.839999675750732,9.59999942779541,8.460000038146973
1776037940798976300,-1522133.0270236817,7.319999694824219,10.079999923706055,7.619999885559082
1776037940809047000,-1522133.016952881,7.019999980926514,10.079999923706055,8.039999961853027
1776037940849361000,-1522132.9766391602,7.619999885559082,9.539999961853027,6.71999979019165
1776037940859431700,-1522132.9665683594,7.37999963760376,9.719999313354492,6.839999675750732
1776037940869502500,-1522132.9564975586,7.440000057220459,9.65999984741211,6.299999713897705
1776037940889674500,-1522132.9363254395,5.699999809265137,9.479999542236328,6.359999656677246
1776037940899775700,-1522132.9262243651,5.159999847412109,9.779999732971191,6.480000019073486
1776037940909785600,-1522132.9162143555,4.319999694824219,10.380000114440918,7.139999866485596
1776037940919856400,-1522132.9061435547,4.199999809265137,10.559999465942383,6.71999979019165
1776037940950068700,-1522132.8759311524,2.93999981880188,10.5,6.299999713897705
1776037940970241000,-1522132.8557590332,1.6799999475479126,11.519999504089355,6.359999656677246
1776037940980342300,-1522132.8456577149,0.6599999666213989,10.979999542236328,6.179999828338623
1776037940990413000,-1522132.835586914,-1.0199999809265137,11.399999618530273,5.339999675750732
1776037941000453400,-1522132.825546631,-3.119999885559082,13.139999389648438,6
1776037941010524200,-1522132.81547583,-5.099999904632568,13.619999885559082,4.5
1776037941020595000,-1522132.8054050293,-5.400000095367432,15.239999771118164,4.139999866485596
1776037941050807300,-1522132.775192627,-2.3399999141693115,15.719999313354492,4.5
1776037941060908500,-1522132.7650915526,-1.4399999380111694,15.719999313354492,4.980000019073486
1776037941070918400,-1522132.755081543,-1.3199999332427979,16.020000457763672,4.679999828338623
1776037941080989200,-1522132.7450107422,-2.0399999618530273,15.239999771118164,4.559999942779541
1776037941091060000,-1522132.7349399414,-2.5199999809265137,14.819999694824219,4.5
1776037941101161200,-1522132.724838867,-2.5799999237060547,14.699999809265137,4.319999694824219
1776037941111232300,-1522132.7147678223,-3.359999895095825,14.579999923706055,4.440000057220459
1776037941161494500,-1522132.6645053711,-1.8600000143051147,16.85999870300293,2.879999876022339
1776037941171565300,-1522132.6544345703,-1.3799999952316284,16.559999465942383,2.3399999141693115
1776037941181636000,-1522132.6443640136,-0.47999998927116394,16.559999465942383,2.0999999046325684
1776037941191707000,-1522132.6342932128,-1.0799999237060547,16.139999389648438,1.9799998998641968
1776037941201777700,-1522132.624222412,-1.3199999332427979,16.3799991607666,1.7999999523162842
1776037941211848700,-1522132.6141513672,-1.6799999475479126,17.279998779296875,1.9799998998641968
1776037941221919500,-1522132.6040805664,-2.3399999141693115,17.459999084472656,1.8600000143051147
1776037941231990300,-1522132.5940097657,-2.879999876022339,17.399999618530273,1.1399999856948853
1776037941242091500,-1522132.5839084473,-3.299999952316284,17.279998779296875,1.0799999237060547
1776037941282344200,-1522132.5436557618,-3.7799999713897705,17.03999900817871,0.9599999785423279
1776037941292415000,-1522132.533584961,-4.079999923706055,16.979999542236328,0.47999998927116394
1776037941302485800,-1522132.5235141602,-4.319999694824219,17.219999313354492,-0.29999998211860657
1776037941312465200,-1522132.5135349121,-4.139999866485596,17.100000381469727,-0.8399999737739563
1776037941322566400,-1522132.5034335938,-4.559999942779541,16.68000030517578,-1.0199999809265137
1776037941332637200,-1522132.493362793,-4.440000057220459,17.219999313354492,-0.41999998688697815
1776037941352809200,-1522132.4731906739,-4.920000076293945,16.979999542236328,-0.7199999690055847
1776037941362880000,-1522132.463120117,-5.579999923706055,17.100000381469727,-1.0199999809265137
1776037941372950800,-1522132.4530493163,-5.759999752044678,18.059999465942383,-0.5399999618530273
1776037941383021600,-1522132.4429785155,-5.400000095367432,18.719999313354492,0.35999998450279236
1776037941393092600,-1522132.4329074707,-4.619999885559082,18.53999900817871,0.9599999785423279
1776037941403193900,-1522132.4228061524,-3.419999837875366,18.059999465942383,1.0199999809265137
1776037941413264600,-1522132.4127353516,-2.6399998664855957,17.219999313354492,0.7799999713897705
1776037941423335400,-1522132.4026645508,-2.2200000286102295,16.739999771118164,0.17999999225139618
1776037941433375700,-1522132.3926242676,-2.759999990463257,16.920000076293945,0.35999998450279236
1776037941463588000,-1522132.3624118653,-5.279999732971191,17.399999618530273,0.9599999785423279
1776037941473598000,-1522132.3524020996,-4.859999656677246,17.579999923706055,0.6599999666213989
1776037941483668700,-1522132.3423312989,-3.7799999713897705,17.579999923706055,2.3999998569488525
1776037941493739500,-1522132.332260498,-2.1599998474121094,17.279998779296875,2.759999990463257
1776037941503840800,-1522132.3221591797,-0.47999998927116394,16.799999237060547,3.240000009536743
1776037941513850600,-1522132.312149414,-0.11999999731779099,16.799999237060547,4.920000076293945
1776037941523951900,-1522132.3020480957,0.41999998688697815,16.619998931884766,4.199999809265137
1776037941534022700,-1522132.291977295,-0.7199999690055847,16.020000457763672,4.559999942779541
1776037941564174000,-1522132.2618259278,-2.3399999141693115,16.020000457763672,5.639999866485596
1776037941574244900,-1522132.251755127,-1.9799998998641968,16.68000030517578,5.940000057220459
1776037941584315600,-1522132.2416843262,-1.2599999904632568,17.15999984741211,6.779999732971191
1776037941594325500,-1522132.2316745606,0,17.15999984741211,6.779999732971191
1776037941604426800,-1522132.2215732422,0.35999998450279236,16.619998931884766,6.659999847412109
1776037941614467000,-1522132.211532959,0.23999999463558197,16.559999465942383,7.139999866485596
1776037941624568300,-1522132.2014316407,-0.17999999225139618,16.68000030517578,7.559999942779541
1776037941634578200,-1522132.191421875,-1.1999999284744263,16.5,9.059999465942383
1776037941684901600,-1522132.1410983887,-2.0399999618530273,14.699999809265137,11.039999961853027
1776037941694880800,-1522132.1311191407,-0.23999999463558197,14.699999809265137,11.880000114440918
1776037941704921000,-1522132.1210788575,1.3799999952316284,14.519999504089355,11.75999927520752
1776037941714931000,-1522132.1110690918,2.2799999713897705,13.859999656677246,11.519999504089355
1776037941725032200,-1522132.1009677735,1.7999999523162842,13.4399995803833,11.279999732971191
1776037941735103000,-1522132.0908969727,1.559999942779541,13.5,10.920000076293945
1776037941745204200,-1522132.0807956543,1.0799999237060547,13.319999694824219,11.09999942779541
1776037941775264000,-1522132.0507360839,0.29999998211860657,13.559999465942383,11.039999961853027
1776037941785365500,-1522132.0406345215,0.41999998688697815,13.679999351501465,11.34000015258789
1776037941795375000,-1522132.030625,0.8999999761581421,12.960000038146973,10.739999771118164
1776037941805446000,-1522132.020554199,2.4600000381469727,13.199999809265137,10.800000190734863
1776037941815455700,-1522132.0105441895,3.8999998569488525,13.25999927520752,11.699999809265137
1776037941825557000,-1522132.0004431151,4.5,12.719999313354492,11.34000015258789
1776037941835597300,-1522131.990402588,4.559999942779541,13.139999389648438,12
1776037941845668000,-1522131.9803317871,3.8999998569488525,12.960000038146973,11.639999389648438
1776037941865779200,-1522131.9602207032,2.2200000286102295,13.739999771118164,10.979999542236328
1776037941885920800,-1522131.9400793456,3.359999895095825,13.559999465942383,11.639999389648438
1776037941895961000,-1522131.9300388184,4.619999885559082,12.84000015258789,12.059999465942383
1776037941906031900,-1522131.9199680176,5.099999904632568,12.539999961853027,11.75999927520752
1776037941916102700,-1522131.9098974608,6.420000076293945,12.300000190734863,11.460000038146973
1776037941926173400,-1522131.89982666,6.359999656677246,12.59999942779541,11.399999618530273
1776037941936244200,-1522131.8897558593,5.87999963760376,12.65999984741211,11.460000038146973
1776037941946315300,-1522131.8796848145,5.699999809265137,13.019999504089355,11.75999927520752
1776037941976466400,-1522131.8495334473,1.9199999570846558,14.279999732971191,12.420000076293945
1776037941986537200,-1522131.8394628905,2.1599998474121094,14.039999961853027,11.9399995803833
1776037941996577500,-1522131.8294223633,3.5399999618530273,14.279999732971191,12.359999656677246
1776037942006678800,-1522131.819321289,5.099999904632568,13.739999771118164,12.119999885559082
1776037942016719000,-1522131.8092810058,5.819999694824219,14.09999942779541,12.300000190734863
1776037942026790000,-1522131.799210205,6.359999656677246,14.09999942779541,12.65999984741211
1776037942036830200,-1522131.7891696778,6.779999732971191,14.460000038146973,12.239999771118164
1776037942046901000,-1522131.779099121,6.480000019073486,13.679999351501465,11.699999809265137
1776037942077022000,-1522131.7489780274,4.5,13.019999504089355,10.859999656677246
1776037942087092700,-1522131.7389072266,4.380000114440918,14.639999389648438,11.819999694824219
1776037942097133000,-1522131.7288669434,3.9599997997283936,14.34000015258789,12.179999351501465
1776037942107173400,-1522131.7188266602,4.259999752044678,13.380000114440918,12.059999465942383
1776037942117213700,-1522131.708786377,5.400000095367432,13.4399995803833,12.59999942779541
1776037942127253800,-1522131.6987463378,5.759999752044678,12.359999656677246,12.479999542236328
1776037942137294000,-1522131.6887058106,5.460000038146973,12.65999984741211,12.539999961853027
1776037942147364900,-1522131.6786352538,5.400000095367432,13.559999465942383,12.59999942779541
1776037942157435600,-1522131.668564453,5.099999904632568,13.019999504089355,12.59999942779541
1776037942197749500,-1522131.6282504883,1.7400000095367432,14.460000038146973,13.739999771118164
1776037942207820300,-1522131.6181796875,2.0999999046325684,14.279999732971191,13.25999927520752
1776037942217860600,-1522131.6081394043,2.700000047683716,14.279999732971191,14.039999961853027
1776037942227931400,-1522131.5980686035,3.059999942779541,14.039999961853027,13.979999542236328
1776037942237971700,-1522131.5880283203,2.700000047683716,13.079999923706055,14.039999961853027
1776037942248042500,-1522131.5779575196,1.9199999570846558,12.960000038146973,13.979999542236328
1776037942258113300,-1522131.5678867188,0.8399999737739563,13.139999389648438,13.619999885559082
1776037942278254800,-1522131.5477451172,-2.2200000286102295,14.880000114440918,13.559999465942383
1776037942288325600,-1522131.5376743164,-3.8999998569488525,15.299999237060547,13.380000114440918
1776037942308436700,-1522131.5175632325,-3.240000009536743,16.19999885559082,12.179999351501465
1776037942318477000,-1522131.5075229493,-2.6399998664855957,16.3799991607666,11.819999694824219
1776037942328517400,-1522131.497482666,-2.2200000286102295,16.5,12.300000190734863
1776037942338588200,-1522131.4874118653,-1.9799998998641968,16.19999885559082,12.539999961853027
1776037942348659000,-1522131.4773410645,-2.3399999141693115,16.440000534057617,12.539999961853027
1776037942358729700,-1522131.4672702637,-2.879999876022339,16.079999923706055,12.65999984741211
1776037942368831000,-1522131.4571689453,-3.7799999713897705,16.260000228881836,12.119999885559082
1776037942399012900,-1522131.4269870606,-4.799999713897705,17.579999923706055,10.4399995803833
1776037942409114000,-1522131.4168859862,-3.6599998474121094,18,10.4399995803833
1776037942419185000,-1522131.4068151854,-2.819999933242798,18.059999465942383,10.979999542236328
1776037942429256000,-1522131.3967441407,-2.2799999713897705,18.059999465942383,10.979999542236328
1776037942439296000,-1522131.3867041015,-2.879999876022339,18.119998931884766,10.739999771118164
1776037942449397500,-1522131.376602539,-3.179999828338623,17.760000228881836,10.920000076293945
1776037942459437800,-1522131.366562256,-4.799999713897705,17.760000228881836,10.4399995803833
1776037942469508600,-1522131.356491455,-6.119999885559082,17.459999084472656,10.319999694824219
1776037942489619500,-1522131.3363806151,-7.559999942779541,18.959999084472656,9.84000015258789
1776037942499598800,-1522131.326401123,-7.199999809265137,19.31999969482422,9.300000190734863
1776037942509700000,-1522131.3162998047,-6.420000076293945,19.619998931884766,9.359999656677246
1776037942519740400,-1522131.3062595215,-6.779999732971191,19.31999969482422,9.059999465942383
1776037942529811200,-1522131.2961887207,-6.960000038146973,19.19999885559082,9.779999732971191
1776037942539882000,-1522131.28611792,-6.839999675750732,19.139999389648438,10.079999923706055
1776037942549983200,-1522131.2760168456,-6.839999675750732,19.260000228881836,9.479999542236328
1776037942560023600,-1522131.2659765624,-6.299999713897705,19.85999870300293,10.019999504089355
1776037942570125000,-1522131.255875,-5.940000057220459,20.15999984741211,9.779999732971191
1776037942600307000,-1522131.2256931153,-3.9599997997283936,20.81999969482422,9.179999351501465
1776037942620418000,-1522131.2055820313,-3.359999895095825,21.600000381469727,9.719999313354492
1776037942630488800,-1522131.1955112305,-3.7799999713897705,21.84000015258789,9
1776037942640559600,-1522131.1854404297,-3.9599997997283936,21.420000076293945,8.9399995803833
1776037942650660900,-1522131.1753391114,-4.559999942779541,20.8799991607666,8.460000038146973
1776037942660731600,-1522131.1652683106,-5.039999961853027,20.100000381469727,7.859999656677246
1776037942670772000,-1522131.1552280274,-5.159999847412109,19.739999771118164,8.819999694824219
1776037942680812300,-1522131.1451877442,-5.400000095367432,19.619998931884766,8.519999504089355
1776037942721034500,-1522131.1049655762,-4.619999885559082,19.31999969482422,7.619999885559082
1776037942731135700,-1522131.0948642578,-5.339999675750732,19.439998626708984,8.579999923706055
1776037942741206500,-1522131.084793457,-5.339999675750732,20.03999900817871,9.65999984741211
1776037942751307800,-1522131.0746921387,-4.980000019073486,20.03999900817871,10.380000114440918
1776037942761378600,-1522131.064621338,-5.339999675750732,19.85999870300293,11.09999942779541
1776037942771480000,-1522131.0545200196,-5.159999847412109,18.779998779296875,10.199999809265137
1776037942781520100,-1522131.0444799804,-5.099999904632568,18.35999870300293,9.59999942779541
1776037942811732700,-1522131.014267334,-4.859999656677246,17.520000457763672,11.34000015258789
1776037942821803500,-1522131.0041965332,-4.679999828338623,16.920000076293945,11.819999694824219
1776037942831874300,-1522130.9941257325,-4.440000057220459,16.619998931884766,12.420000076293945
1776037942841914600,-1522130.9840854493,-4.440000057220459,16.079999923706055,11.9399995803833
1776037942851924200,-1522130.9740756836,-4.019999980926514,15.839999198913574,12.179999351501465
1776037942861995000,-1522130.9640048828,-4.259999752044678,15.839999198913574,12.779999732971191
1776037942872065800,-1522130.953934326,-4.259999752044678,15.839999198913574,13.559999465942383
1776037942882136600,-1522130.9438635253,-4.859999656677246,15.899999618530273,14.34000015258789
1776037942912349200,-1522130.913650879,-4.859999656677246,15.479999542236328,15.119999885559082
1776037942922420000,-1522130.9035800782,-4.799999713897705,15.299999237060547,15.239999771118164
1776037942932490800,-1522130.8935092774,-4.679999828338623,15.539999961853027,14.519999504089355
1776037942942561500,-1522130.8834384766,-5.159999847412109,15.839999198913574,13.979999542236328
1776037942952662800,-1522130.8733371582,-5.579999923706055,16.85999870300293,13.979999542236328
1776037942962733600,-1522130.8632663575,-5.279999732971191,16.739999771118164,13.139999389648438
1776037942972804400,-1522130.8531955567,-5.699999809265137,16.5,13.619999885559082
1776037942982875100,-1522130.843124756,-5.400000095367432,16.3799991607666,13.979999542236328
1776037942992915500,-1522130.8330844727,-5.039999961853027,15.719999313354492,14.639999389648438
1776037943023005700,-1522130.8029943847,-5.21999979019165,13.859999656677246,17.219999313354492
1776037943043116800,-1522130.7828833007,-4.319999694824219,12.779999732971191,17.219999313354492
1776037943053187600,-1522130.7728125,-3.8999998569488525,12.719999313354492,17.639999389648438
1776037943063258600,-1522130.762741455,-3.7200000286102295,12.59999942779541,18.600000381469727
1776037943073329400,-1522130.7526706543,-4.619999885559082,11.699999809265137,18.719999313354492
1776037943083430700,-1522130.742569336,-4.019999980926514,11.279999732971191,18.600000381469727
1776037943093532000,-1522130.7324680176,-3.6599998474121094,10.979999542236328,19.5
1776037943133845800,-1522130.692154297,-0.11999999731779099,11.399999618530273,18.779998779296875
1776037943143916500,-1522130.6820834961,0.11999999731779099,11.399999618530273,18.479999542236328
1776037943153926100,-1522130.6720739745,0.6599999666213989,11.880000114440918,18.600000381469727
1776037943164027600,-1522130.6619724121,0,11.639999389648438,18.899999618530273
1776037943174098400,-1522130.6519016114,-0.29999998211860657,11.819999694824219,19.920000076293945
1776037943184108000,-1522130.6418920897,-0.11999999731779099,11.579999923706055,20.579999923706055
1776037943194148400,-1522130.6318515625,0.23999999463558197,11.34000015258789,20.459999084472656
1776037943204249600,-1522130.6217504882,0.6599999666213989,10.619999885559082,20.279998779296875
1776037943214320600,-1522130.6116794434,0.23999999463558197,9.899999618530273,20.100000381469727
1776037943244471800,-1522130.5815280762,-2.759999990463257,10.380000114440918,19.85999870300293
1776037943254542600,-1522130.5714575194,-1.9199999570846558,10.800000190734863,20.219999313354492
1776037943264613400,-1522130.5613867186,-1.4399999380111694,9.59999942779541,19.619998931884766
1776037943274653700,-1522130.5513461914,-0.7799999713897705,9.719999313354492,19.85999870300293
1776037943284755200,-1522130.541244873,0.05999999865889549,8.819999694824219,19.979999542236328
1776037943294826000,-1522130.5311740723,-0.47999998927116394,8.15999984741211,20.100000381469727
1776037943304896800,-1522130.5211032715,0,8.579999923706055,20.279998779296875
1776037943345149400,-1522130.480850586,-4.739999771118164,9.300000190734863,19.619998931884766
1776037943365291000,-1522130.4607089844,-3.179999828338623,10.619999885559082,20.399999618530273
1776037943375361800,-1522130.4506381836,-1.9199999570846558,10.5,20.69999885559082
1776037943385432600,-1522130.4405673828,-0.9599999785423279,9.899999618530273,20.939998626708984
1776037943395473000,-1522130.4305270996,-0.7799999713897705,9.179999351501465,21.059999465942383
1776037943405543700,-1522130.4204562989,-1.0199999809265137,8.15999984741211,21
1776037943415584000,-1522130.4104160157,-2.5199999809265137,8.039999961853027,21.600000381469727
1776037943445674200,-1522130.3803256836,-7.5,10.139999389648438,21.18000030517578
1776037943455745000,-1522130.3702548828,-7.019999980926514,10.800000190734863,20.81999969482422
1776037943465815800,-1522130.360184082,-5.940000057220459,10.559999465942383,21.119998931884766
1776037943475886600,-1522130.3501135253,-4.619999885559082,10.559999465942383,21.719999313354492
1776037943485896400,-1522130.3401035157,-5.460000038146973,9.479999542236328,21.420000076293945
1776037943495997700,-1522130.3300021973,-6.359999656677246,8.699999809265137,20.760000228881836
1776037943506068500,-1522130.3199316405,-8.460000038146973,9,20.459999084472656
1776037943516170000,-1522130.3098300782,-11.219999313354492,9.59999942779541,20.219999313354492
1776037943546321200,-1522130.279678955,-15.479999542236328,12.899999618530273,18.65999984741211
1776037943556361500,-1522130.2696384278,-14.639999389648438,13.799999237060547,18.059999465942383
1776037943566371300,-1522130.2596286621,-13.5,13.920000076293945,17.8799991607666
1776037943576442000,-1522130.2495578614,-12.179999351501465,13.380000114440918,16.920000076293945
1776037943586452000,-1522130.2395480957,-11.460000038146973,12.84000015258789,16.5
1776037943596492000,-1522130.2295080565,-10.859999656677246,12.479999542236328,16.139999389648438
1776037943606562800,-1522130.2194372558,-10.979999542236328,12.420000076293945,15.239999771118164
1776037943616664300,-1522130.2093356934,-11.639999389648438,12.779999732971191,15.479999542236328
1776037943656947500,-1522130.1690524903,-16.68000030517578,14.819999694824219,14.34000015258789
1776037943667018200,-1522130.1589816895,-16.31999969482422,15.719999313354492,14.039999961853027
1776037943677119500,-1522130.1488806151,-16.020000457763672,15.59999942779541,13.5
1776037943687190300,-1522130.1388098144,-14.880000114440918,15.65999984741211,13.380000114440918
1776037943697230600,-1522130.1287692871,-14.460000038146973,16.079999923706055,13.920000076293945
1776037943707271000,-1522130.118729004,-14.279999732971191,15.59999942779541,13.25999927520752
1776037943717341700,-1522130.1086582032,-14.460000038146973,16.85999870300293,13.199999809265137
1776037943727412500,-1522130.0985874024,-16.079999923706055,17.279998779296875,13.079999923706055
1776037943757655600,-1522130.0683444825,-19.3799991607666,18.779998779296875,11.15999984741211
1776037943767726300,-1522130.0582736817,-18.959999084472656,19.5,10.4399995803833
1776037943777797000,-1522130.048202881,-17.579999923706055,20.03999900817871,10.260000228881836
1776037943787868000,-1522130.03813208,-15.899999618530273,20.100000381469727,9.179999351501465
1776037943807979000,-1522130.0180209961,-13.25999927520752,19.979999542236328,8.279999732971191
1776037943818080300,-1522130.0079196778,-13.619999885559082,19.739999771118164,7.319999694824219
1776037943828151000,-1522129.997848877,-14.34000015258789,19.3799991607666,7.139999866485596
1776037943868434200,-1522129.9575659179,-18.479999542236328,22.139999389648438,7.139999866485596
1776037943878505000,-1522129.947495117,-17.399999618530273,23.15999984741211,7.799999713897705
1776037943888545300,-1522129.9374548339,-15.899999618530273,23.03999900817871,7.799999713897705
1776037943898616000,-1522129.927384033,-15.059999465942383,22.85999870300293,7.139999866485596
1776037943908686800,-1522129.9173132323,-13.739999771118164,22.31999969482422,6.779999732971191
1776037943918758000,-1522129.9072421875,-13.859999656677246,21.65999984741211,7.5
1776037943928798000,-1522129.8972021483,-14.15999984741211,21.420000076293945,8.039999961853027
1776037943938868700,-1522129.8871313476,-14.15999984741211,21.35999870300293,9.059999465942383
1776037943979182600,-1522129.8468173828,-15.960000038146973,21.600000381469727,9
1776037943989253400,-1522129.836746582,-16.19999885559082,22.799999237060547,9.960000038146973
1776037943999324200,-1522129.8266757813,-14.699999809265137,21.959999084472656,9.899999618530273
1776037944009364500,-1522129.816635498,-14.34000015258789,21.35999870300293,10.619999885559082
1776037944019435300,-1522129.8065646973,-14.039999961853027,20.8799991607666,10.920000076293945
1776037944029506000,-1522129.7964938965,-13.619999885559082,19.799999237060547,11.880000114440918
1776037944039607300,-1522129.7863928222,-14.09999942779541,20.34000015258789,13.139999389648438
1776037944069820000,-1522129.7561801758,-14.15999984741211,18.84000015258789,14.279999732971191
1776037944079921200,-1522129.7460788575,-15.359999656677246,18.18000030517578,14.399999618530273
1776037944089992000,-1522129.7360080567,-16.739999771118164,18.239999771118164,14.75999927520752
1776037944100062700,-1522129.725937256,-15.839999198913574,17.399999618530273,15.059999465942383
1776037944110133500,-1522129.715866455,-14.819999694824219,17.100000381469727,14.699999809265137
1776037944120234800,-1522129.7057651368,-13.319999694824219,16.739999771118164,15.119999885559082
1776037944130244600,-1522129.6957553711,-12.65999984741211,16.85999870300293,16.139999389648438
1776037944140315400,-1522129.6856845703,-13.5,17.579999923706055,16.3799991607666
1776037944150386200,-1522129.6756137696,-15.059999465942383,18.299999237060547,17.69999885559082
1776037944200709600,-1522129.6252902832,-18.779998779296875,16.3799991607666,20.03999900817871
1776037944220820700,-1522129.6051791993,-15.779999732971191,15.420000076293945,20.69999885559082
1776037944240871000,-1522129.5851291504,-11.460000038146973,15.479999542236328,20.939998626708984
1776037944250880500,-1522129.5751193848,-10.5,15.65999984741211,21.65999984741211
1776037944260982000,-1522129.5650180664,-9.84000015258789,15.779999732971191,21.420000076293945
1776037944291194400,-1522129.534805664,-11.09999942779541,14.819999694824219,20.459999084472656
1776037944301265200,-1522129.5247348633,-11.519999504089355,15.119999885559082,20.579999923706055
1776037944311336000,-1522129.5146640625,-10.5,14.819999694824219,20.81999969482422
1776037944321406700,-1522129.5045932618,-9.779999732971191,14.699999809265137,21.479999542236328
1776037944331477500,-1522129.494522461,-8.220000267028809,14.460000038146973,21.059999465942383
1776037944341548300,-1522129.4844516602,-7.679999828338623,14.039999961853027,21.600000381469727
1776037944351619000,-1522129.4743808594,-8.220000267028809,14.279999732971191,22.68000030517578
1776037944361659400,-1522129.4643405762,-8.579999923706055,14.279999732971191,22.68000030517578
1776037944391749600,-1522129.4342504882,-12.179999351501465,14.09999942779541,22.139999389648438
1776037944411891200,-1522129.4141088866,-10.5,14.09999942779541,22.260000228881836
1776037944432063500,-1522129.3939365235,-7.37999963760376,13.739999771118164,23.579999923706055
1776037944442134300,-1522129.3838657227,-6.119999885559082,13.739999771118164,23.34000015258789
1776037944452113400,-1522129.3738864746,-6.779999732971191,13.4399995803833,23.219999313354492
1776037944462215000,-1522129.3637851563,-7.440000057220459,12.719999313354492,22.31999969482422
1776037944492335600,-1522129.3336643067,-10.019999504089355,13.799999237060547,22.139999389648438
1776037944502406400,-1522129.323593506,-9.059999465942383,15.479999542236328,23.15999984741211
1776037944512477200,-1522129.313522705,-8.09999942779541,15.839999198913574,23.15999984741211
1776037944522517500,-1522129.303482422,-6.539999961853027,14.9399995803833,21.84000015258789
1776037944532557800,-1522129.2934421387,-5.819999694824219,14.699999809265137,21.059999465942383
1776037944542659000,-1522129.2833408203,-5.339999675750732,14.279999732971191,20.760000228881836
1776037944552669000,-1522129.2733310547,-4.319999694824219,15.299999237060547,21.119998931884766
1776037944562770200,-1522129.2632297364,-6,16.139999389648438,21.959999084472656
1776037944592982500,-1522129.233017578,-8.09999942779541,17.520000457763672,22.079999923706055
1776037944613002200,-1522129.2129978028,-4.619999885559082,19.19999885559082,23.15999984741211
1776037944623103500,-1522129.2028964844,-3.7799999713897705,18.779998779296875,22.799999237060547
1776037944633143800,-1522129.1928562012,-2.700000047683716,18.65999984741211,22.920000076293945
1776037944643184000,-1522129.182815918,-2.3399999141693115,18.84000015258789,23.459999084472656
1776037944653193700,-1522129.1728061524,-1.8600000143051147,18.84000015258789,22.5
1776037944663295200,-1522129.162704834,-1.6200000047683716,19.439998626708984,22.920000076293945
1776037944673366000,-1522129.1526340332,-2.0399999618530273,19.739999771118164,22.739999771118164
1776037944713679600,-1522129.1123203125,-6.839999675750732,19.079999923706055,23.69999885559082
1776037944723750400,-1522129.1022495118,-8.399999618530273,18.119998931884766,23.219999313354492
1776037944733821200,-1522129.092178711,-9.65999984741211,17.8799991607666,22.85999870300293
1776037944743892000,-1522129.0821079102,-11.279999732971191,17.760000228881836,22.85999870300293
1776037944753962800,-1522129.0720373534,-13.199999809265137,18.18000030517578,21.899999618530273
1776037944764064300,-1522129.061935791,-14.279999732971191,19.31999969482422,21.53999900817871
1776037944774104600,-1522129.0518955078,-15.779999732971191,20.219999313354492,19.739999771118164
1776037944794215400,-1522129.0317846679,-14.819999694824219,21.420000076293945,16.920000076293945
1776037944814387700,-1522129.0116123047,-13.380000114440918,20.939998626708984,16.260000228881836
1776037944824458500,-1522129.001541504,-13.859999656677246,20.520000457763672,16.260000228881836
1776037944834468000,-1522128.9915319823,-14.819999694824219,20.8799991607666,16.619998931884766
1776037944854640400,-1522128.9713596192,-15.960000038146973,21.299999237060547,16.799999237060547
1776037944864741600,-1522128.9612583008,-16.739999771118164,21.18000030517578,16.31999969482422
1776037944874782000,-1522128.9512180176,-17.399999618530273,21.600000381469727,17.34000015258789
1776037944905024800,-1522128.9209753417,-17.81999969482422,23.279998779296875,15.899999618530273
1776037944925136000,-1522128.9008640137,-16.619998931884766,24.600000381469727,13.4399995803833
1776037944935206700,-1522128.890793457,-16.920000076293945,24.299999237060547,12.179999351501465
1776037944945308200,-1522128.8806918946,-17.81999969482422,24,11.880000114440918
1776037944955287300,-1522128.8707126465,-17.940000534057617,24.779998779296875,12.119999885559082
1776037944965388500,-1522128.8606115722,-17.15999984741211,24.899999618530273,10.619999885559082
1776037944975459300,-1522128.8505407714,-17.459999084472656,25.31999969482422,10.920000076293945
1776037944985560800,-1522128.840439209,-16.739999771118164,26.03999900817871,10.139999389648438
1776037945005702400,-1522128.8202976075,-18.239999771118164,26.219999313354492,10.559999465942383
1776037945015712000,-1522128.8102880858,-18.53999900817871,26.639999389648438,10.199999809265137
1776037945025783000,-1522128.800217041,-19.31999969482422,27,10.920000076293945
1776037945035792600,-1522128.7902072754,-19.260000228881836,27.599998474121094,10.920000076293945
1776037945045894000,-1522128.780106201,-19.020000457763672,27.719999313354492,10.319999694824219
1776037945055964700,-1522128.7700354003,-19.439998626708984,27.35999870300293,10.079999923706055
1776037945066035700,-1522128.7599643555,-19.139999389648438,27.65999984741211,9.899999618530273
1776037945076106500,-1522128.7498935547,-19.260000228881836,27.18000030517578,9.119999885559082
1776037945086207700,-1522128.7397922364,-19.619998931884766,27.299999237060547,9
1776037945116450600,-1522128.7095495604,-19.439998626708984,28.619998931884766,9.539999961853027
1776037945126521300,-1522128.6994787597,-18.779998779296875,29.760000228881836,11.15999984741211
1776037945136592100,-1522128.6894079589,-18.119998931884766,29.399999618530273,11.09999942779541
1776037945146663200,-1522128.679336914,-16.979999542236328,29.579999923706055,10.859999656677246
1776037945156703200,-1522128.669296875,-16.139999389648438,29.15999984741211,10.380000114440918
1776037945166804700,-1522128.6591953125,-15.299999237060547,28.439998626708984,9.300000190734863
1776037945176844800,-1522128.6491552733,-15.179999351501465,28.979999542236328,10.380000114440918
1776037945186915800,-1522128.6390842285,-15.899999618530273,27.84000015258789,10.739999771118164
1776037945217097700,-1522128.6089023438,-15.899999618530273,27.599998474121094,13.559999465942383
1776037945227199000,-1522128.5988010254,-16.079999923706055,28.260000228881836,14.880000114440918
1776037945237239300,-1522128.5887607422,-16.440000534057617,27.84000015258789,16.020000457763672
1776037945247340500,-1522128.5786594239,-16.020000457763672,27.479999542236328,17.69999885559082
1776037945257411300,-1522128.568588623,-15.779999732971191,27.18000030517578,18.959999084472656
1776037945267512600,-1522128.5584873047,-14.460000038146973,26.219999313354492,19.439998626708984
1776037945277583400,-1522128.548416748,-13.979999542236328,25.920000076293945,20.34000015258789
1776037945287684900,-1522128.5383151856,-14.639999389648438,25.139999389648438,20.34000015258789
1776037945317897200,-1522128.5081027832,-16.85999870300293,24,20.579999923706055
1776037945327998500,-1522128.4980014649,-16.68000030517578,23.760000228881836,20.219999313354492
1776037945338069200,-1522128.487930664,-17.279998779296875,23.760000228881836,20.34000015258789
1776037945348170500,-1522128.4778295897,-17.459999084472656,23.69999885559082,20.520000457763672
1776037945358210800,-1522128.4677890625,-18.420000076293945,23.219999313354492,20.279998779296875
1776037945368312300,-1522128.4576877442,-20.279998779296875,23.279998779296875,21.059999465942383
1776037945378383000,-1522128.4476169434,-21.18000030517578,22.979999542236328,21.84000015258789
1776037945388484400,-1522128.437515625,-22.020000457763672,22.739999771118164,22.68000030517578
1776037945398555100,-1522128.4274448243,-22.260000228881836,22.799999237060547,24.059999465942383
1776037945438868700,-1522128.3871313476,-18.18000030517578,20.34000015258789,27.35999870300293
1776037945448939800,-1522128.3770603028,-16.619998931884766,20.459999084472656,27.65999984741211
1776037945458949400,-1522128.3670505371,-15.359999656677246,20.579999923706055,27.779998779296875
1776037945469020200,-1522128.3569797364,-14.819999694824219,20.459999084472656,27.479999542236328
1776037945479091000,-1522128.3469089356,-15.179999351501465,20.15999984741211,27.779998779296875
1776037945489161700,-1522128.3368383788,-15.059999465942383,19.979999542236328,28.01999855041504
1776037945499232500,-1522128.326767578,-14.039999961853027,19.979999542236328,29.03999900817871
1776037945539485200,-1522128.2865148925,-12.84000015258789,19.739999771118164,28.260000228881836
1776037945549586700,-1522128.27641333,-12.779999732971191,20.15999984741211,29.03999900817871
1776037945559627000,-1522128.266373047,-12.960000038146973,19.799999237060547,28.85999870300293
1776037945569728300,-1522128.2562717285,-12.899999618530273,19.799999237060547,29.279998779296875
1776037945579799000,-1522128.2462009278,-13.4399995803833,19.139999389648438,29.219999313354492
1776037945589900300,-1522128.2360996094,-12.779999732971191,19.260000228881836,29.399999618530273
1776037945599940600,-1522128.2260593262,-12.179999351501465,19.020000457763672,29.81999969482422
1776037945610041900,-1522128.2159582519,-11.880000114440918,19.079999923706055,30.119998931884766
1776037945660334800,-1522128.165665039,-9.960000038146973,18.899999618530273,30.84000015258789
1776037945680507100,-1522128.14549292,-10.260000228881836,19.079999923706055,31.139999389648438
1776037945690608400,-1522128.1353916016,-9.960000038146973,19.079999923706055,30.779998779296875
1776037945700679200,-1522128.1253208008,-9.84000015258789,19.139999389648438,30.779998779296875
1776037945710780400,-1522128.1152194825,-9.779999732971191,19.619998931884766,31.31999969482422
1776037945740962300,-1522128.0850375977,-8.9399995803833,19.3799991607666,30.899999618530273
1776037945751033000,-1522128.074966797,-9.059999465942383,19.020000457763672,30.65999984741211
1776037945761104000,-1522128.0648962401,-9.239999771118164,18.600000381469727,30.35999870300293
1776037945771174700,-1522128.0548254394,-9.359999656677246,18.959999084472656,30.65999984741211
1776037945781276200,-1522128.044723877,-9.899999618530273,18.899999618530273,30.35999870300293
1776037945791316500,-1522128.0346835938,-10.139999389648438,18.899999618530273,29.939998626708984
1776037945801387300,-1522128.024612793,-10.5,19.19999885559082,30.17999839782715
1776037945811458000,-1522128.0145419922,-10.739999771118164,19.260000228881836,30.35999870300293
1776037945821528800,-1522128.0044711914,-10.679999351501465,19.559999465942383,30.35999870300293
1776037945861751000,-1522127.9642490235,-10.4399995803833,20.81999969482422,29.81999969482422
1776037945871852300,-1522127.954147705,-10.739999771118164,21.18000030517578,30
1776037945881923000,-1522127.9440769043,-10.800000190734863,21.420000076293945,29.760000228881836
1776037945891963400,-1522127.9340366211,-11.399999618530273,21.65999984741211,29.8799991607666
1776037945902034200,-1522127.9239658203,-12.059999465942383,21.959999084472656,30.65999984741211
1776037945912105000,-1522127.9138950196,-13.199999809265137,22.079999923706055,30.779998779296875
1776037945922175700,-1522127.9038242188,-13.859999656677246,22.020000457763672,30.719999313354492
1776037945962336800,-1522127.86366333,-17.8799991607666,21.600000381469727,30.420000076293945
1776037945972377000,-1522127.8536228028,-19.31999969482422,21.53999900817871,29.760000228881836
1776037945982447900,-1522127.843552246,-19.739999771118164,22.139999389648438,29.939998626708984
1776037945992518700,-1522127.8334814452,-19.559999465942383,23.279998779296875,28.799999237060547
1776037946022700500,-1522127.8032995604,-17.639999389648438,25.19999885559082,26.279998779296875
1776037946032771300,-1522127.7932287597,-17.279998779296875,24.84000015258789,25.68000030517578
1776037946062922800,-1522127.7630771485,-17.760000228881836,24.84000015258789,22.979999542236328
1776037946072993500,-1522127.7530063477,-18,25.079999923706055,23.34000015258789
1776037946083064300,-1522127.742935791,-18.299999237060547,26.099998474121094,23.760000228881836
1776037946093165800,-1522127.7328342285,-18.779998779296875,27,23.69999885559082
1776037946113337900,-1522127.7126621094,-19.68000030517578,28.19999885559082,22.5
1776037946123408600,-1522127.7025913086,-19.979999542236328,27.959999084472656,21.65999984741211
1776037946133510000,-1522127.6924899903,-19.5,28.260000228881836,20.34000015258789
1776037946153621000,-1522127.6723789063,-20.34000015258789,29.459999084472656,19.020000457763672
1776037946204005600,-1522127.6219943848,-17.459999084472656,32.880001068115234,15.239999771118164
1776037946214046000,-1522127.6119541016,-17.279998779296875,33.119998931884766,13.799999237060547
1776037946224086000,-1522127.6019140624,-17.579999923706055,33.05999755859375,12.84000015258789
1776037946234157000,-1522127.5918430176,-18.059999465942383,32.880001068115234,12.420000076293945
1776037946264308200,-1522127.5616918944,-17.34000015258789,35.52000045776367,12.359999656677246
1776037946274287600,-1522127.5517124024,-17.760000228881836,36.18000030517578,12.300000190734863
1776037946284358400,-1522127.5416416016,-17.639999389648438,36.18000030517578,11.460000038146973
1776037946294398700,-1522127.5316013184,-18.059999465942383,36.18000030517578,11.219999313354492
1776037946304408300,-1522127.5215917968,-17.760000228881836,36.540000915527344,10.920000076293945
1776037946314448600,-1522127.5115512696,-17.100000381469727,36.84000015258789,11.039999961853027
1776037946324550000,-1522127.5014501952,-17.15999984741211,36.599998474121094,10.800000190734863
1776037946334621000,-1522127.4913791504,-16.31999969482422,36.959999084472656,10.679999351501465
1776037946364802800,-1522127.4611972657,-16.020000457763672,36.84000015258789,10.800000190734863
1776037946374904000,-1522127.4510959473,-16.260000228881836,36.959999084472656,11.639999389648438
1776037946384974800,-1522127.4410251465,-16.19999885559082,37.13999938964844,12.119999885559082
1776037946395015200,-1522127.4309848633,-16.260000228881836,37.02000045776367,13.139999389648438
1776037946405116400,-1522127.420883545,-15.899999618530273,37.02000045776367,13.920000076293945
1776037946415187200,-1522127.4108127442,-16.020000457763672,36.540000915527344,14.460000038146973
1776037946425258000,-1522127.4007419434,-17.03999900817871,35.81999969482422,15.839999198913574
1776037946435267800,-1522127.3907321778,-17.459999084472656,35.21999740600586,15.899999618530273
1776037946455409400,-1522127.3705905762,-16.979999542236328,35.099998474121094,17.459999084472656
1776037946475490000,-1522127.3505100098,-15.59999942779541,34.79999923706055,18.719999313354492
1776037946485591300,-1522127.3404086914,-15.479999542236328,34.68000030517578,20.03999900817871
1776037946495662000,-1522127.3303378907,-15.420000076293945,33.540000915527344,20.03999900817871
1776037946505732900,-1522127.3202670899,-15.65999984741211,32.63999938964844,20.100000381469727
1776037946515803600,-1522127.310196289,-15.719999313354492,32.040000915527344,21.35999870300293
1776037946525905000,-1522127.3000952147,-16.079999923706055,31.19999885559082,21.119998931884766
1776037946535975700,-1522127.290024414,-16.3799991607666,30.599998474121094,21.84000015258789
1776037946545985500,-1522127.2800144043,-16.619998931884766,30.239999771118164,22.739999771118164
1776037946556056300,-1522127.2699436035,-16.020000457763672,30.17999839782715,22.31999969482422
1776037946576198000,-1522127.249802002,-15,29.69999885559082,22.439998626708984
1776037946606349300,-1522127.2196506348,-15,29.51999855041504,24.299999237060547
1776037946616420000,-1522127.209579834,-15.420000076293945,29.579999923706055,24.779998779296875
1776037946626491000,-1522127.1995090332,-15.839999198913574,29.639999389648438,25.619998931884766
1776037946636561700,-1522127.1894382325,-16.440000534057617,29.939998626708984,27.18000030517578
1776037946646632400,-1522127.1793674317,-16.85999870300293,28.619998931884766,28.31999969482422
1776037946656703200,-1522127.169296875,-16.68000030517578,27.53999900817871,28.85999870300293
1776037946696986600,-1522127.1290134278,-14.880000114440918,26.760000228881836,31.260000228881836
1776037946707057400,-1522127.118942627,-14.219999313354492,26.279998779296875,32.040000915527344
1776037946717128200,-1522127.1088718262,-14.639999389648438,25.739999771118164,33.119998931884766
1776037946727199000,-1522127.0988010254,-14.579999923706055,25.31999969482422,33.89999771118164
1776037946737269800,-1522127.0887302246,-14.880000114440918,25.079999923706055,34.439998626708984
1776037946757441800,-1522127.0685581055,-13.559999465942383,25.31999969482422,33.959999084472656
1776037946777553000,-1522127.0484470215,-11.699999809265137,24.18000030517578,33.47999954223633
1776037946787654100,-1522127.0383459472,-11.219999313354492,23.459999084472656,34.13999938964844
1776037946797725000,-1522127.0282751464,-10.619999885559082,23.03999900817871,34.79999923706055
1776037946807765200,-1522127.0182348632,-10.260000228881836,22.19999885559082,35.39999771118164
1776037946817836000,-1522127.0081640624,-10.260000228881836,21.84000015258789,35.880001068115234
1776037946827876400,-1522126.9981235352,-9.960000038146973,21.420000076293945,35.52000045776367
1776037946837916700,-1522126.988083252,-9.359999656677246,21.299999237060547,35.57999801635742
1776037946847957000,-1522126.9780429688,-9.420000076293945,21.600000381469727,36.36000061035156
1776037946858058200,-1522126.9679416504,-8.220000267028809,22.260000228881836,37.20000076293945
1776037946868098600,-1522126.9579013672,-7.919999599456787,22.31999969482422,37.86000061035156
1776037946888179200,-1522126.9378208008,-7.079999923706055,21.600000381469727,38.21999740600586
1776037946908290300,-1522126.9177097168,-7.739999771118164,20.399999618530273,38.34000015258789
1776037946918391600,-1522126.9076083985,-7.980000019073486,19.979999542236328,38.57999801635742
1776037946928401400,-1522126.8975986328,-8.34000015258789,20.100000381469727,38.939998626708984
1776037946938502700,-1522126.8874973145,-8.15999984741211,19.739999771118164,38.39999771118164
1776037946948573400,-1522126.8774265137,-8.039999961853027,20.279998779296875,39.23999786376953
1776037946958613800,-1522126.8673862305,-8.279999732971191,20.399999618530273,39.119998931884766
1776037946968684500,-1522126.8573154297,-7.559999942779541,20.579999923706055,38.34000015258789
1776037947008998100,-1522126.817001953,-6.960000038146973,21.18000030517578,37.13999938964844
1776037947019099600,-1522126.8069003907,-8.279999732971191,21.779998779296875,37.55999755859375
1776037947029170400,-1522126.7968295899,-8.399999618530273,22.079999923706055,36.65999984741211
1776037947039241200,-1522126.786758789,-9.119999885559082,22.260000228881836,36.84000015258789
1776037947049312000,-1522126.7766879883,-8.460000038146973,23.219999313354492,37.5
1776037947059413200,-1522126.76658667,-7.259999752044678,23.459999084472656,37.07999801635742
1776037947069484000,-1522126.7565158692,-7.859999656677246,23.579999923706055,36.47999954223633
1776037947099696400,-1522126.7263037108,-8.039999961853027,24.65999984741211,35.459999084472656
1776037947109767200,-1522126.71623291,-8.34000015258789,25.439998626708984,36.36000061035156
1776037947119868700,-1522126.7061313477,-9.59999942779541,25.920000076293945,36.05999755859375
1776037947129939500,-1522126.696060547,-11.460000038146973,25.5,36.119998931884766
1776037947140040700,-1522126.6859592285,-12.300000190734863,25.920000076293945,35.81999969482422
1776037947150111500,-1522126.6758884278,-13.139999389648438,25.559999465942383,34.439998626708984
1776037947160212700,-1522126.6657873534,-14.880000114440918,25.439998626708984,34.2599983215332
1776037947170222600,-1522126.6557773438,-15.59999942779541,26.34000015258789,34.13999938964844
1776037947190364200,-1522126.6356357422,-18.779998779296875,27,33.540000915527344
1776037947210475300,-1522126.6155246582,-20.760000228881836,28.19999885559082,29.760000228881836
1776037947220546000,-1522126.6054538575,-21.719999313354492,28.799999237060547,28.31999969482422
1776037947230616800,-1522126.5953830567,-22.079999923706055,28.739999771118164,26.760000228881836
1776037947240687600,-1522126.5853125,-22.920000076293945,27.779998779296875,25.619998931884766
1776037947250758400,-1522126.575241699,-23.639999389648438,27.35999870300293,25.01999855041504
1776037947260860000,-1522126.5651401368,-24.35999870300293,26.51999855041504,24.299999237060547
1776037947270900200,-1522126.5550998535,-24.719999313354492,26.579999923706055,23.8799991607666
1776037947301082000,-1522126.5249179688,-26.639999389648438,26.8799991607666,21.65999984741211
1776037947331233300,-1522126.4947666016,-27.420000076293945,26.219999313354492,18.239999771118164
1776037947351374800,-1522126.474625244,-27.779998779296875,27,16.19999885559082
1776037947361445600,-1522126.4645544433,-27.65999984741211,27.65999984741211,15.719999313354492
1776037947371516700,-1522126.4544833985,-27.53999900817871,28.19999885559082,14.460000038146973
1776037947381618000,-1522126.44438208,-27.18000030517578,28.920000076293945,13.979999542236328
1776037947401667800,-1522126.4243322753,-27.18000030517578,31.139999389648438,13.25999927520752
1776037947411647200,-1522126.4143527832,-26.69999885559082,31.260000228881836,12.119999885559082
1776037947421748500,-1522126.4042514649,-26.760000228881836,31.619998931884766,11.460000038146973
1776037947431758300,-1522126.3942416993,-26.279998779296875,31.439998626708984,9.65999984741211
1776037947441798700,-1522126.384201416,-26.099998474121094,31.979999542236328,9.059999465942383
1776037947451838700,-1522126.3741613769,-25.559999465942383,32.7599983215332,8.880000114440918
1776037947461940200,-1522126.3640598145,-26.51999855041504,33.41999816894531,8.399999618530273
1776037947471980500,-1522126.3540195313,-27.059999465942383,33.84000015258789,8.039999961853027
1776037947482081800,-1522126.343918213,-27.719999313354492,34.07999801635742,7.139999866485596
1776037947502193000,-1522126.323807129,-27.899999618530273,35.040000915527344,6
1776037947522304000,-1522126.303696045,-25.979999542236328,35.70000076293945,5.819999694824219
1776037947542476000,-1522126.2835239258,-23.100000381469727,35.39999771118164,5.639999866485596
1776037947552546800,-1522126.273453125,-22.559999465942383,34.68000030517578,5.639999866485596
1776037947562617600,-1522126.2633823243,-22.260000228881836,34.380001068115234,4.739999771118164
1776037947572597000,-1522126.2534030762,-22.020000457763672,33.779998779296875,4.079999923706055
1776037947582667800,-1522126.2433322754,-23.399999618530273,33.47999954223633,4.319999694824219
1776037947602779000,-1522126.2232211914,-25.3799991607666,34.13999938964844,5.400000095367432
1776037947622920400,-1522126.2030795899,-24.959999084472656,36.05999755859375,7.5
1776037947632991200,-1522126.193008789,-23.34000015258789,35.63999938964844,8.15999984741211
1776037947643062000,-1522126.1829379883,-22.5,35.21999740600586,9.119999885559082
1776037947653132800,-1522126.1728671875,-22.19999885559082,33.599998474121094,9.239999771118164
1776037947663203600,-1522126.1627963868,-22.559999465942383,32.279998779296875,10.380000114440918
1776037947673274400,-1522126.152725586,-24.239999771118164,31.67999839782715,11.399999618530273
1776037947683375600,-1522126.1426242676,-25.260000228881836,31.01999855041504,12.179999351501465
1776037947703456300,-1522126.1225437012,-27.420000076293945,30.420000076293945,13.199999809265137
1776037947723597800,-1522126.1024020996,-26.03999900817871,29.760000228881836,14.699999809265137
1776037947733607700,-1522126.092392334,-25.439998626708984,28.85999870300293,15.479999542236328
1776037947743678500,-1522126.0823215332,-24.420000076293945,28.559999465942383,16.619998931884766
1776037947753749200,-1522126.0722507325,-24,27.959999084472656,17.459999084472656
1776037947763820000,-1522126.0621799317,-23.939998626708984,28.01999855041504,18.299999237060547
1776037947773890800,-1522126.052109131,-23.399999618530273,27.779998779296875,19.260000228881836
1776037947783961600,-1522126.04203833,-22.739999771118164,27.719999313354492,18.600000381469727
1776037947794062800,-1522126.0319372558,-21.84000015258789,27.479999542236328,18.35999870300293
1776037947804133600,-1522126.021866455,-22.020000457763672,26.939998626708984,17.639999389648438
1776037947844386300,-1522125.9816137694,-23.81999969482422,30.959999084472656,20.03999900817871
1776037947864497400,-1522125.9615026854,-22.979999542236328,31.079999923706055,22.799999237060547
1776037947874507300,-1522125.9514926758,-21.479999542236328,30.959999084472656,23.760000228881836
1776037947884608500,-1522125.9413916015,-19.020000457763672,30.119998931884766,24
1776037947894679300,-1522125.9313208007,-16.799999237060547,29.579999923706055,24.420000076293945
1776037947914760000,-1522125.9112399903,-14.34000015258789,29.81999969482422,25.68000030517578
1776037947934932000,-1522125.8910681151,-13.139999389648438,30.059999465942383,27.35999870300293
1776037947945033500,-1522125.8809665528,-12.719999313354492,29.579999923706055,26.81999969482422
1776037947955043000,-1522125.8709570311,-13.380000114440918,28.799999237060547,26.34000015258789
1776037947965144600,-1522125.8608554688,-13.4399995803833,28.139999389648438,26.639999389648438
1776037947975154200,-1522125.8508457032,-13.920000076293945,27.959999084472656,27.119998931884766
1776037947985255700,-1522125.8407443848,-14.819999694824219,27.479999542236328,28.01999855041504
1776037947995265300,-1522125.8307346192,-14.639999389648438,26.939998626708984,29.459999084472656
1776037948015406800,-1522125.8105932616,-16.3799991607666,25.979999542236328,28.85999870300293
1776037948035518000,-1522125.7904819336,-17.399999618530273,25.799999237060547,28.799999237060547
1776037948045588700,-1522125.7804113769,-16.68000030517578,25.979999542236328,30.599998474121094
1776037948055629000,-1522125.7703708496,-15.899999618530273,24.65999984741211,30.779998779296875
1776037948065699800,-1522125.7603000489,-15.179999351501465,24.239999771118164,32.099998474121094
1776037948075740200,-1522125.7502597657,-14.09999942779541,24.059999465942383,32.70000076293945
1776037948085811000,-1522125.7401889649,-13.139999389648438,23.639999389648438,31.439998626708984
1776037948095881700,-1522125.730118164,-13.4399995803833,23.459999084472656,31.5
1776037948105983200,-1522125.7200168457,-14.399999618530273,23.15999984741211,30.65999984741211
1776037948126094000,-1522125.6999060058,-15.239999771118164,23.579999923706055,31.19999885559082
1776037948146236000,-1522125.6797641602,-13.4399995803833,23.939998626708984,31.139999389648438
1776037948156245500,-1522125.6697543946,-12.479999542236328,23.279998779296875,31.739999771118164
1776037948166316300,-1522125.6596835938,-11.699999809265137,22.799999237060547,32.39999771118164
1776037948176387000,-1522125.649613037,-10.619999885559082,22.079999923706055,33
1776037948196498200,-1522125.629501709,-11.399999618530273,21.959999084472656,32.81999969482422
1776037948206569000,-1522125.6194311522,-11.579999923706055,21.119998931884766,31.979999542236328
1776037948236750800,-1522125.5892492675,-10.199999809265137,21.600000381469727,31.979999542236328
1776037948246821600,-1522125.5791784667,-10.4399995803833,21.899999618530273,32.39999771118164
1776037948256892400,-1522125.569107666,-10.139999389648438,21.959999084472656,32.15999984741211
1776037948266994000,-1522125.5590061035,-10.859999656677246,21.420000076293945,31.559999465942383
1776037948276973000,-1522125.5490268555,-11.279999732971191,21.18000030517578,30.719999313354492
1776037948287074300,-1522125.5389257811,-11.519999504089355,20.760000228881836,29.69999885559082
1776037948297145300,-1522125.5288547364,-12.65999984741211,21,29.399999618530273
1776037948307216100,-1522125.5187839356,-12.119999885559082,21.84000015258789,29.03999900817871
1776037948337428500,-1522125.4885715332,-14.639999389648438,22.439998626708984,27.84000015258789
1776037948347529700,-1522125.4784702149,-16.440000534057617,22.739999771118164,27.479999542236328
1776037948357539600,-1522125.4684604493,-17.69999885559082,22.920000076293945,27.420000076293945
1776037948367640800,-1522125.458359131,-17.459999084472656,22.799999237060547,26.69999885559082
1776037948377711600,-1522125.44828833,-17.520000457763672,23.279998779296875,27.299999237060547
1776037948387782400,-1522125.4382175293,-18.479999542236328,23.279998779296875,26.760000228881836
1776037948397853200,-1522125.4281467285,-19.799999237060547,24.059999465942383,25.85999870300293
1776037948407924000,-1522125.4180759278,-20.939998626708984,25.5,25.85999870300293
1776037948448207000,-1522125.3777929686,-20.459999084472656,26.279998779296875,20.69999885559082
1776037948458278100,-1522125.3677219239,-20.520000457763672,26.399999618530273,19.68000030517578
1776037948478419700,-1522125.3475803223,-21.18000030517578,25.68000030517578,18.65999984741211
1776037948488490500,-1522125.3375095215,-22.19999885559082,24.84000015258789,17.760000228881836
1776037948498561300,-1522125.3274387207,-22.979999542236328,24.119998931884766,16.920000076293945
1776037948508632000,-1522125.31736792,-23.579999923706055,23.8799991607666,15.960000038146973
1776037948528773600,-1522125.2972263184,-25.920000076293945,25.31999969482422,15.65999984741211
1776037948548915200,-1522125.2770847168,-26.399999618530273,25.799999237060547,13.619999885559082
1776037948569026300,-1522125.2569736328,-24,26.099998474121094,11.15999984741211
1776037948579097000,-1522125.246902832,-23.69999885559082,26.579999923706055,10.739999771118164
1776037948589198300,-1522125.2368017577,-23.51999855041504,27,11.039999961853027
1776037948599269000,-1522125.226730957,-24.059999465942383,27.35999870300293,11.34000015258789
1776037948609340200,-1522125.2166599121,-24.420000076293945,28.079999923706055,11.34000015258789
1776037948649592800,-1522125.1764072266,-24.119998931884766,28.85999870300293,7.919999599456787
1776037948659663600,-1522125.1663364258,-24.65999984741211,30.17999839782715,7.799999713897705
1776037948669734400,-1522125.156265625,-25.260000228881836,29.939998626708984,7.440000057220459
1776037948679774700,-1522125.1462253418,-24.959999084472656,30.299999237060547,6.420000076293945
1776037948689845500,-1522125.136154541,-23.939998626708984,30.239999771118164,6.539999961853027
1776037948699916300,-1522125.1260837403,-23.81999969482422,29.15999984741211,5.819999694824219
1776037948709987000,-1522125.1160129395,-24.779998779296875,29.15999984741211,4.980000019073486
1776037948720057900,-1522125.1059421387,-26.69999885559082,28.920000076293945,4.920000076293945
1776037948740199400,-1522125.0858005371,-29.459999084472656,28.799999237060547,3.359999895095825
1776037948760310500,-1522125.0656894532,-28.139999389648438,28.139999389648438,2.5799999237060547
1776037948770381300,-1522125.0556186524,-27.059999465942383,28.260000228881836,3.359999895095825
1776037948780421600,-1522125.0455783692,-26.279998779296875,27.959999084472656,3.7200000286102295
1776037948790462000,-1522125.035538086,-25.559999465942383,27.84000015258789,4.799999713897705
1776037948800532700,-1522125.0254672852,-26.279998779296875,27.479999542236328,4.559999942779541
1776037948810603500,-1522125.0153964844,-26.579999923706055,26.279998779296875,4.319999694824219
1776037948850886700,-1522124.9751132813,-31.31999969482422,25.799999237060547,6.779999732971191
1776037948860957400,-1522124.9650424805,-30.899999618530273,26.03999900817871,7.619999885559082
1776037948870997800,-1522124.9550021973,-29.279998779296875,25.739999771118164,8.579999923706055
1776037948881038000,-1522124.944961914,-28.260000228881836,25.3799991607666,9.719999313354492
1776037948891108900,-1522124.9348911133,-27.119998931884766,24.239999771118164,9.960000038146973
1776037948901179600,-1522124.9248203125,-26.939998626708984,23.03999900817871,10.079999923706055
1776037948911220000,-1522124.9147800293,-27.119998931884766,22.799999237060547,10.679999351501465
1776037948921260300,-1522124.9047397461,-27.779998779296875,22.260000228881836,10.5
1776037948951503000,-1522124.8744968262,-30.719999313354492,22.020000457763672,11.880000114440918
1776037948961543400,-1522124.864456543,-30.239999771118164,22.139999389648438,12.899999618530273
1776037948971583700,-1522124.8544162598,-29.219999313354492,22.19999885559082,13.199999809265137
1776037948981593300,-1522124.8444067382,-27.53999900817871,21.899999618530273,13.859999656677246
1776037948991694800,-1522124.8343051758,-26.34000015258789,21.420000076293945,14.75999927520752
1776037949001704400,-1522124.8242956542,-25.85999870300293,21.35999870300293,15.239999771118164
1776037949011775200,-1522124.8142248534,-25.619998931884766,21.35999870300293,16.619998931884766
1776037949021815600,-1522124.8041843262,-25.979999542236328,21.35999870300293,16.19999885559082
1776037949041926700,-1522124.7840732422,-27.420000076293945,21.719999313354492,16.139999389648438
1776037949051997400,-1522124.7740024414,-28.979999542236328,21.719999313354492,16.260000228881836
1776037949062037800,-1522124.7639621582,-29.639999389648438,22.31999969482422,16.979999542236328
1776037949082148900,-1522124.7438510743,-28.799999237060547,21.84000015258789,18.35999870300293
1776037949092189200,-1522124.733810791,-27.239999771118164,21.059999465942383,19.439998626708984
1776037949102229500,-1522124.7237705078,-26.8799991607666,20.100000381469727,20.03999900817871
1776037949112269800,-1522124.7137302246,-26.81999969482422,19.559999465942383,20.939998626708984
1776037949122340600,-1522124.7036594239,-26.219999313354492,19.079999923706055,21.35999870300293
1776037949172633600,-1522124.653366455,-25.559999465942383,19.5,22.559999465942383
1776037949182704400,-1522124.6432956543,-24.959999084472656,18.899999618530273,22.979999542236328
1776037949202815500,-1522124.6231845703,-22.260000228881836,19.079999923706055,23.760000228881836
1776037949212886300,-1522124.6131137696,-20.939998626708984,18.18000030517578,23.51999855041504
1776037949222926600,-1522124.6030734864,-21.420000076293945,18.53999900817871,24.239999771118164
1776037949233027800,-1522124.592972168,-21.899999618530273,18.299999237060547,24.35999870300293
1776037949273311000,-1522124.5526889649,-20.03999900817871,18.119998931884766,24.18000030517578
1776037949283381800,-1522124.542618164,-19.260000228881836,18.299999237060547,24.239999771118164
1776037949293483000,-1522124.5325170897,-18.35999870300293,18.479999542236328,24.059999465942383
1776037949303553800,-1522124.522446289,-17.579999923706055,18.18000030517578,23.639999389648438
1776037949313624800,-1522124.5123752442,-17.81999969482422,18.479999542236328,24.18000030517578
1776037949323634400,-1522124.5023654785,-17.81999969482422,18.779998779296875,24.600000381469727
1776037949333735700,-1522124.4922644042,-17.8799991607666,18.65999984741211,24.899999618530273
1776037949343806700,-1522124.4821933594,-17.81999969482422,19.260000228881836,25.799999237060547
1776037949383967700,-1522124.4420322266,-15.299999237060547,19.19999885559082,26.03999900817871
1776037949394069000,-1522124.4319309082,-15.239999771118164,18.959999084472656,26.399999618530273
1776037949404139800,-1522124.4218601075,-15.479999542236328,19.3799991607666,26.760000228881836
1776037949414241300,-1522124.411758789,-15.960000038146973,18.959999084472656,26.34000015258789
1776037949424312000,-1522124.4016879883,-16.739999771118164,18.959999084472656,25.920000076293945
1776037949434382800,-1522124.3916171875,-16.85999870300293,19.3799991607666,26.03999900817871
1776037949444453600,-1522124.3815463868,-16.5,18.53999900817871,25.68000030517578
1776037949474574300,-1522124.3514257811,-15.359999656677246,16.920000076293945,25.85999870300293
1776037949484675800,-1522124.3413242188,-15.359999656677246,17.34000015258789,26.099998474121094
1776037949494746600,-1522124.331253418,-15.179999351501465,18.65999984741211,26.099998474121094
1776037949504756200,-1522124.3212438964,-14.9399995803833,19.139999389648438,26.099998474121094
1776037949514796500,-1522124.3112033692,-15.239999771118164,19.559999465942383,25.68000030517578
1776037949524897800,-1522124.3011022948,-15.719999313354492,19.979999542236328,25.920000076293945
1776037949534968800,-1522124.29103125,-15.420000076293945,19.979999542236328,25.979999542236328
1776037949545009000,-1522124.2809912108,-15.539999961853027,20.03999900817871,25.5
1776037949555018800,-1522124.2709812012,-14.9399995803833,20.15999984741211,25.260000228881836
1776037949585261600,-1522124.2407385253,-15.59999942779541,20.279998779296875,23.279998779296875
1776037949595332400,-1522124.2306677245,-16.85999870300293,19.619998931884766,22.920000076293945
1776037949605403400,-1522124.2205966797,-17.8799991607666,20.03999900817871,22.079999923706055
1776037949615474200,-1522124.210525879,-19.559999465942383,19.619998931884766,21.779998779296875
1776037949635585300,-1522124.190414795,-21.059999465942383,21.479999542236328,21.479999542236328
1776037949645686500,-1522124.1803134766,-21.65999984741211,21.65999984741211,21.420000076293945
1776037949655757300,-1522124.1702426758,-21.18000030517578,22.139999389648438,20.69999885559082
1776037949665828000,-1522124.160171875,-22.439998626708984,21.420000076293945,19.799999237060547
1776037949675868400,-1522124.1501315918,-21.600000381469727,21.35999870300293,18.299999237060547
1776037949716060000,-1522124.1099401854,-22.979999542236328,20.69999885559082,17.81999969482422
1776037949726130700,-1522124.0998693847,-24.059999465942383,20.760000228881836,17.459999084472656
1776037949736232200,-1522124.0897678223,-24.119998931884766,20.69999885559082,16.739999771118164
1776037949746303000,-1522124.0796970215,-25.139999389648438,19.559999465942383,15.059999465942383
1776037949756343300,-1522124.0696567383,-24.899999618530273,19.68000030517578,14.399999618530273
1776037949766444500,-1522124.05955542,-25.01999855041504,19.920000076293945,14.75999927520752
1776037949786586000,-1522124.0394138184,-24.719999313354492,20.15999984741211,13.679999351501465
1776037949806758100,-1522124.0192419433,-24.719999313354492,20.939998626708984,11.279999732971191
1776037949816829200,-1522124.0091708985,-25.68000030517578,20.81999969482422,11.039999961853027
1776037949826900000,-1522123.9991000977,-26.81999969482422,21.420000076293945,10.679999351501465
1776037949836940000,-1522123.9890600585,-27.18000030517578,21.779998779296875,10.800000190734863
1776037949847010800,-1522123.9789892577,-27.599998474121094,21.899999618530273,10.619999885559082
1776037949857081900,-1522123.968918213,-27.479999542236328,21.84000015258789,10.139999389648438
1776037949867152600,-1522123.9588474121,-26.34000015258789,22.5,9.539999961853027
1776037949897395500,-1522123.9286044922,-25.5,22.68000030517578,7.37999963760376
1776037949917537000,-1522123.9084628907,-25.920000076293945,22.68000030517578,7.139999866485596
1776037949927607800,-1522123.8983920899,-26.81999969482422,22.5,7.259999752044678
1776037949937678600,-1522123.888321289,-26.219999313354492,22.619998931884766,7.319999694824219
1776037949947749400,-1522123.8782507323,-26.03999900817871,22.979999542236328,7.259999752044678
1776037949957820200,-1522123.8681799315,-27,22.19999885559082,7.139999866485596
1776037949967891000,-1522123.8581091308,-26.279998779296875,22.85999870300293,7.259999752044678
1776037949977962000,-1522123.848038086,-27.53999900817871,22.5,7.619999885559082
1776037950008144000,-1522123.8178562012,-28.01999855041504,21.35999870300293,6.839999675750732
1776037950018214700,-1522123.8077854004,-28.68000030517578,21.600000381469727,6.71999979019165
1776037950028224300,-1522123.7977756348,-27.959999084472656,22.139999389648438,7.739999771118164
1776037950048305000,-1522123.7776950684,-27.779998779296875,22.559999465942383,9.119999885559082
1776037950058406100,-1522123.76759375,-26.8799991607666,21.959999084472656,9.59999942779541
1776037950068477000,-1522123.7575231933,-27.239999771118164,21.600000381469727,9.779999732971191
1776037950078517200,-1522123.747482666,-27.479999542236328,21.059999465942383,10.679999351501465
1776037950118770000,-1522123.7072299805,-26.34000015258789,21.059999465942383,13.559999465942383
1776037950128840700,-1522123.6971591797,-25.739999771118164,21.65999984741211,13.799999237060547
1776037950138911500,-1522123.687088623,-25.079999923706055,21.35999870300293,14.15999984741211
1776037950148982300,-1522123.6770178222,-23.69999885559082,21.35999870300293,14.34000015258789
1776037950159083800,-1522123.6669162598,-23.69999885559082,21.059999465942383,15.420000076293945
1776037950169154600,-1522123.656845459,-23.639999389648438,20.639999389648438,15.420000076293945
1776037950179225300,-1522123.6467746582,-23.939998626708984,20.03999900817871,15
1776037950219386400,-1522123.6066135254,-24.53999900817871,20.69999885559082,15.119999885559082
1776037950229457200,-1522123.5965429686,-24.299999237060547,21.18000030517578,16.139999389648438
1776037950239528000,-1522123.5864721679,-23.81999969482422,21.18000030517578,16.260000228881836
1776037950249598700,-1522123.576401367,-23.279998779296875,21.059999465942383,16.85999870300293
1776037950259669800,-1522123.5663303223,-24.420000076293945,20.219999313354492,16.979999542236328
1776037950269709800,-1522123.556290283,-25.739999771118164,19.559999465942383,18.479999542236328
1776037950279750100,-1522123.546249756,-26.81999969482422,19.079999923706055,20.459999084472656
1776037950319880700,-1522123.5061193847,-25.3799991607666,17.579999923706055,22.739999771118164
1776037950329951700,-1522123.4960483399,-24.84000015258789,17.279998779296875,23.100000381469727
1776037950340022500,-1522123.485977539,-23.03999900817871,16.260000228881836,22.85999870300293
1776037950350093300,-1522123.4759067383,-22.260000228881836,15.119999885559082,22.85999870300293
1776037950360164000,-1522123.4658359375,-21.18000030517578,14.34000015258789,23.15999984741211
1776037950370235000,-1522123.4557651368,-20.100000381469727,12.899999618530273,23.03999900817871
1776037950380305700,-1522123.445694336,-20.760000228881836,12.960000038146973,24.18000030517578
1776037950400477700,-1522123.4255222168,-19.739999771118164,13.199999809265137,25.19999885559082
1776037950430690000,-1522123.3953100585,-20.459999084472656,13.859999656677246,26.399999618530273
1776037950440730400,-1522123.3852695313,-19.739999771118164,13.859999656677246,26.579999923706055
1776037950450801200,-1522123.3751987305,-19.85999870300293,13.380000114440918,26.579999923706055
1776037950460872000,-1522123.3651281737,-19.439998626708984,12.899999618530273,26.279998779296875
1776037950470942700,-1522123.355057373,-18.719999313354492,12.300000190734863,25.799999237060547
1776037950481013500,-1522123.3449865722,-18.420000076293945,12.300000190734863,25.079999923706055
1776037950531367700,-1522123.2946323243,-16.260000228881836,14.15999984741211,26.459999084472656
1776037950541469000,-1522123.284531006,-16.440000534057617,14.519999504089355,26.69999885559082
1776037950551539700,-1522123.274460205,-15.59999942779541,14.880000114440918,26.639999389648438
1776037950561580000,-1522123.264419922,-15.719999313354492,15.359999656677246,27.059999465942383
1776037950571620400,-1522123.2543796387,-16.31999969482422,14.519999504089355,26.69999885559082
1776037950581721600,-1522123.2442783203,-16.3799991607666,14.519999504089355,26.099998474121094
1776037950591792400,-1522123.2342075196,-17.03999900817871,14.09999942779541,26.34000015258789
1776037950601893600,-1522123.2241064452,-17.34000015258789,14.34000015258789,26.639999389648438
1776037950652278300,-1522123.1737216797,-16.3799991607666,15.719999313354492,25.5
1776037950672419800,-1522123.1535800782,-17.15999984741211,15.299999237060547,24.899999618530273
1776037950682490600,-1522123.1435092774,-16.799999237060547,14.819999694824219,24.119998931884766
1776037950692561400,-1522123.1334384766,-16.799999237060547,14.639999389648438,24.059999465942383
1776037950722743300,-1522123.1032565918,-17.520000457763672,14.9399995803833,23.8799991607666
1776037950742884900,-1522123.0831152343,-18.119998931884766,15.65999984741211,23.51999855041504
1776037950752894700,-1522123.0731052246,-18.779998779296875,15.359999656677246,23.34000015258789
1776037950762965500,-1522123.0630344239,-18.719999313354492,14.880000114440918,23.34000015258789
1776037950773036300,-1522123.052963623,-19.19999885559082,14.219999313354492,24.119998931884766
1776037950783137500,-1522123.0428625487,-20.15999984741211,14.279999732971191,23.939998626708984
1776037950793208600,-1522123.032791504,-22.5,14.639999389648438,23.760000228881836
1776037950833400000,-1522122.9925998535,-29.459999084472656,18.239999771118164,19.139999389648438
1776037950853450200,-1522122.9725498047,-26.579999923706055,18.479999542236328,17.100000381469727
1776037950873530600,-1522122.9524694823,-24,16.559999465942383,15.179999351501465
1776037950883632000,-1522122.94236792,-23.81999969482422,15.239999771118164,14.039999961853027
1776037950893703000,-1522122.9322971192,-24.719999313354492,15.420000076293945,14.75999927520752
1776037950903773700,-1522122.9222263184,-27.059999465942383,15.420000076293945,15.479999542236328
1776037950933955600,-1522122.8920444336,-30.53999900817871,16.139999389648438,14.09999942779541
1776037950954127600,-1522122.8718723145,-28.5,18.53999900817871,12.84000015258789
1776037950964198400,-1522122.8618015137,-26.939998626708984,19.68000030517578,13.199999809265137
1776037950974269200,-1522122.851730713,-26.399999618530273,20.279998779296875,13.139999389648438
1776037950984309500,-1522122.8416904297,-25.68000030517578,19.85999870300293,12.479999542236328
1776037950994349800,-1522122.8316501465,-26.760000228881836,20.34000015258789,12.179999351501465
1776037951004420600,-1522122.8215793457,-28.139999389648438,21.059999465942383,11.519999504089355
1776037951044673300,-1522122.7813266602,-30.65999984741211,22.799999237060547,7.859999656677246
1776037951054744000,-1522122.7712558594,-29.51999855041504,24.059999465942383,7.559999942779541
1776037951064784400,-1522122.7612155762,-27.719999313354492,24.35999870300293,8.09999942779541
1776037951074794200,-1522122.7512058106,-26.459999084472656,24.53999900817871,8.15999984741211
1776037951084865000,-1522122.7411350098,-24.84000015258789,24.600000381469727,8.279999732971191
1776037951094874600,-1522122.7311254882,-24.779998779296875,23.939998626708984,8.279999732971191
1776037951104976100,-1522122.7210239258,-25.559999465942383,24.600000381469727,8.039999961853027
1776037951145228800,-1522122.6807712403,-26.639999389648438,24.719999313354492,6.239999771118164
1776037951165340000,-1522122.6606601563,-25.920000076293945,26.099998474121094,6.539999961853027
1776037951175349500,-1522122.6506503907,-25.079999923706055,25.979999542236328,6.899999618530273
1776037951185420300,-1522122.6405798339,-24.119998931884766,25.799999237060547,7.37999963760376
1776037951195430100,-1522122.6305698243,-22.439998626708984,25.3799991607666,7.319999694824219
1776037951205531400,-1522122.620468506,-23.459999084472656,24.719999313354492,7.079999923706055
1776037951215602200,-1522122.610397705,-24.299999237060547,24.959999084472656,6.71999979019165
1776037951255885600,-1522122.570114502,-25.079999923706055,25.139999389648438,6.71999979019165
1776037951265986800,-1522122.5600131836,-23.760000228881836,24.899999618530273,6.539999961853027
1776037951276027100,-1522122.5499729004,-22.5,25.260000228881836,7.319999694824219
1776037951286128400,-1522122.539871582,-21.600000381469727,25.01999855041504,8.639999389648438
1776037951296199200,-1522122.5298007813,-22.079999923706055,25.619998931884766,9.420000076293945
1776037951306300400,-1522122.519699463,-22.3799991607666,25.979999542236328,9.960000038146973
1776037951316340700,-1522122.5096591797,-23.459999084472656,25.920000076293945,9.899999618530273
1776037951336482300,-1522122.4895175782,-21.779998779296875,27.959999084472656,10.559999465942383
1776037951346583800,-1522122.4794162598,-20.639999389648438,28.5,10.619999885559082
1776037951356563000,-1522122.4694370118,-18.239999771118164,29.579999923706055,10.859999656677246
1776037951366664200,-1522122.4593356934,-16.19999885559082,29.8799991607666,11.34000015258789
1776037951376735000,-1522122.4492651366,-14.279999732971191,30.239999771118164,11.639999389648438
1776037951386805800,-1522122.4391943358,-13.4399995803833,29.639999389648438,12.059999465942383
1776037951396846000,-1522122.4291538086,-12.300000190734863,29.399999618530273,12.479999542236328
1776037951406916900,-1522122.4190832519,-13.019999504089355,29.099998474121094,12.059999465942383
1776037951416987600,-1522122.409012451,-14.34000015258789,28.739999771118164,12.059999465942383
1776037951427058400,-1522122.3989416503,-14.399999618530273,29.219999313354492,11.819999694824219
1776037951457271000,-1522122.368729004,-15.839999198913574,28.260000228881836,10.859999656677246
1776037951477412600,-1522122.3485874024,-14.219999313354492,28.920000076293945,10.5
1776037951487483400,-1522122.3385166016,-12.479999542236328,30.119998931884766,10.559999465942383
1776037951497554200,-1522122.3284458008,-12.359999656677246,30.899999618530273,11.519999504089355
1776037951507625000,-1522122.318375,-14.039999961853027,30.299999237060547,12.899999618530273
1776037951517665300,-1522122.3083347168,-16.920000076293945,29.399999618530273,14.039999961853027
1776037951527766500,-1522122.2982333985,-18.65999984741211,27.53999900817871,14.579999923706055
1776037951557979000,-1522122.2680212401,-17.03999900817871,25.85999870300293,17.760000228881836
1776037951568049700,-1522122.2579504394,-17.579999923706055,25.19999885559082,19.19999885559082
1776037951578120400,-1522122.2478796386,-17.8799991607666,25.079999923706055,19.3799991607666
1776037951588160800,-1522122.2378391114,-18.600000381469727,23.219999313354492,18.959999084472656
1776037951598231600,-1522122.2277685546,-19.5,21.719999313354492,19.3799991607666
1776037951608302300,-1522122.2176977538,-19.439998626708984,21.119998931884766,19.68000030517578
1776037951618312200,-1522122.2076877442,-19.5,19.739999771118164,19.920000076293945
1776037951628413400,-1522122.1975866698,-19.439998626708984,19.19999885559082,19.979999542236328
1776037951638453800,-1522122.1875461426,-19.020000457763672,18.65999984741211,19.439998626708984
1776037951668696800,-1522122.1573032227,-19.920000076293945,16.440000534057617,19.3799991607666
1776037951678767600,-1522122.147232422,-20.100000381469727,16.440000534057617,20.579999923706055
1776037951688838400,-1522122.1371616211,-20.939998626708984,15.839999198913574,20.8799991607666
1776037951698909200,-1522122.1270908203,-20.69999885559082,16.19999885559082,21.420000076293945
1776037951709010400,-1522122.116989502,-19.85999870300293,15.960000038146973,22.139999389648438
1776037951719081200,-1522122.1069187012,-19.559999465942383,15.420000076293945,21.479999542236328
1776037951729152000,-1522122.0968479004,-19.439998626708984,15.119999885559082,21.53999900817871
1776037951739222800,-1522122.0867770996,-21.18000030517578,14.399999618530273,21.35999870300293
1776037951759334000,-1522122.0666660157,-23.459999084472656,13.799999237060547,21.119998931884766
1776037951779475500,-1522122.046524658,-23.03999900817871,14.279999732971191,21.420000076293945
1776037951789577000,-1522122.0364230957,-21.899999618530273,14.460000038146973,22.31999969482422
1776037951799617000,-1522122.0263830565,-20.15999984741211,14.519999504089355,22.559999465942383
1776037951809688000,-1522122.0163120118,-18.299999237060547,14.460000038146973,22.079999923706055
1776037951819758800,-1522122.006241211,-18.239999771118164,13.380000114440918,21.84000015258789
1776037951829829600,-1522121.9961704102,-18.18000030517578,13.079999923706055,21.779998779296875
1776037951839870000,-1522121.986130127,-18.299999237060547,13.5,22.079999923706055
1776037951870112800,-1522121.955887207,-18.059999465942383,13.920000076293945,22.260000228881836
1776037951880153000,-1522121.9458469239,-17.8799991607666,13.619999885559082,21.719999313354492
1776037951890223900,-1522121.935776123,-18.420000076293945,13.380000114440918,22.19999885559082
1776037951900294700,-1522121.9257053223,-18.600000381469727,14.279999732971191,22.85999870300293
1776037951910365400,-1522121.9156345215,-18.059999465942383,14.15999984741211,22.31999969482422
1776037951920436200,-1522121.9055637207,-17.940000534057617,14.279999732971191,22.799999237060547
1776037951930507000,-1522121.89549292,-18.119998931884766,14.399999618530273,22.19999885559082
1776037951940577800,-1522121.8854221192,-18.600000381469727,13.979999542236328,22.31999969482422
1776037951950648600,-1522121.8753513184,-19.139999389648438,14.460000038146973,23.279998779296875
1776037951990901200,-1522121.8350986328,-19.439998626708984,14.219999313354492,22.799999237060547
1776037952000941600,-1522121.8250583496,-19.85999870300293,13.380000114440918,22.439998626708984
1776037952011012400,-1522121.8149875489,-20.34000015258789,13.619999885559082,22.559999465942383
1776037952021083100,-1522121.804916748,-21.119998931884766,13.319999694824219,22.85999870300293
1776037952031154000,-1522121.7948461913,-21.899999618530273,12.479999542236328,23.15999984741211
1776037952041194200,-1522121.784805664,-22.739999771118164,12.239999771118164,22.85999870300293
1776037952051234600,-1522121.774765381,-23.34000015258789,12.59999942779541,23.15999984741211
1776037952081447000,-1522121.7445529785,-23.69999885559082,14.699999809265137,21.53999900817871
1776037952091517700,-1522121.7344824218,-23.639999389648438,14.039999961853027,19.85999870300293
1776037952101588500,-1522121.724411621,-23.34000015258789,14.579999923706055,19.19999885559082
1776037952121699600,-1522121.704300537,-23.51999855041504,15.179999351501465,17.760000228881836
1776037952131801000,-1522121.6941989746,-23.760000228881836,16.020000457763672,18.18000030517578
1776037952141871900,-1522121.6841281739,-23.939998626708984,16.260000228881836,17.940000534057617
1776037952151912200,-1522121.6740878907,-24.18000030517578,16.31999969482422,18.299999237060547
1776037952172084200,-1522121.6539157715,-24.479999542236328,16.68000030517578,17.520000457763672
1776037952212397800,-1522121.6136022948,-22.5,18.899999618530273,15.299999237060547
1776037952222468600,-1522121.603531494,-22.799999237060547,19.260000228881836,13.920000076293945
1776037952232570000,-1522121.5934299317,-23.579999923706055,19.5,12.779999732971191
1776037952242641000,-1522121.583359131,-24.420000076293945,20.639999389648438,12.899999618530273
1776037952252711700,-1522121.57328833,-24.059999465942383,21.719999313354492,13.139999389648438
1776037952262752000,-1522121.563248047,-24.35999870300293,22.139999389648438,13.139999389648438
1776037952272822800,-1522121.5531772461,-23.760000228881836,23.279998779296875,13.019999504089355
1776037952292934000,-1522121.5330661621,-23.100000381469727,24.059999465942383,10.800000190734863
1776037952313075500,-1522121.5129245606,-21.18000030517578,26.099998474121094,9.84000015258789
1776037952323115800,-1522121.5028842774,-20.399999618530273,26.69999885559082,9.300000190734863
1776037952333186600,-1522121.4928134766,-19.85999870300293,26.51999855041504,8.519999504089355
1776037952343196200,-1522121.482803955,-19.799999237060547,26.399999618530273,7.559999942779541
1776037952353267000,-1522121.4727331542,-20.100000381469727,26.459999084472656,6.839999675750732
1776037952363307300,-1522121.462692627,-20.03999900817871,27,6.659999847412109
1776037952373408800,-1522121.4525913086,-20.219999313354492,27.479999542236328,7.019999980926514
1776037952383479600,-1522121.4425205078,-19.799999237060547,28.079999923706055,7.079999923706055
1776037952413722400,-1522121.412277588,-17.520000457763672,29.34000015258789,7.679999828338623
1776037952423793200,-1522121.4022067871,-17.03999900817871,28.85999870300293,6.659999847412109
1776037952433894400,-1522121.3921057128,-16.68000030517578,28.619998931884766,6.239999771118164
1776037952443965200,-1522121.382034912,-17.520000457763672,27.899999618530273,6.119999885559082
1776037952454036000,-1522121.3719641112,-16.3799991607666,27.65999984741211,5.819999694824219
1776037952464107000,-1522121.3618930664,-15.539999961853027,28.139999389648438,6.539999961853027
1776037952474147000,-1522121.3518530272,-15.059999465942383,27.779998779296875,6.659999847412109
1776037952484217900,-1522121.3417822265,-14.639999389648438,28.260000228881836,7.079999923706055
1776037952514461000,-1522121.3115390625,-14.460000038146973,27.959999084472656,10.739999771118164
1776037952524531700,-1522121.3014682618,-14.279999732971191,27.420000076293945,10.619999885559082
1776037952534602500,-1522121.291397461,-15.420000076293945,27.119998931884766,11.15999984741211
1776037952544673300,-1522121.2813266602,-15.899999618530273,26.459999084472656,11.34000015258789
1776037952554713600,-1522121.271286377,-16.85999870300293,25.920000076293945,11.9399995803833
1776037952564814800,-1522121.2611850586,-17.219999313354492,25.920000076293945,13.559999465942383
1776037952574885600,-1522121.2511142578,-17.100000381469727,24.84000015258789,14.09999942779541
1776037952584956400,-1522121.241043701,-17.8799991607666,24.059999465942383,15.420000076293945
1776037952615169000,-1522121.2108310547,-18.65999984741211,22.619998931884766,17.34000015258789
1776037952625239800,-1522121.200760254,-18.35999870300293,22.079999923706055,17.219999313354492
1776037952635249400,-1522121.1907504883,-19.85999870300293,20.34000015258789,17.03999900817871
1776037952645320200,-1522121.1806796875,-20.03999900817871,19.619998931884766,16.739999771118164
1776037952655421700,-1522121.1705783692,-19.920000076293945,18.479999542236328,16.68000030517578
1776037952665492500,-1522121.1605075684,-20.520000457763672,18.119998931884766,16.559999465942383
1776037952675502000,-1522121.1504978028,-19.85999870300293,18.899999618530273,17.459999084472656
1776037952685603600,-1522121.1403964844,-21.18000030517578,18.239999771118164,17.100000381469727
1776037952695674400,-1522121.1303256836,-21.479999542236328,18.600000381469727,17.639999389648438
1776037952705714400,-1522121.1202856444,-21.959999084472656,17.81999969482422,17.399999618530273
1776037952746028300,-1522121.0799716797,-23.51999855041504,14.9399995803833,20.81999969482422
1776037952756068600,-1522121.0699313965,-23.15999984741211,15.359999656677246,21.84000015258789
1776037952766169900,-1522121.0598300782,-23.15999984741211,14.519999504089355,22.260000228881836
1776037952776210200,-1522121.049789795,-22.739999771118164,14.15999984741211,23.03999900817871
1776037952786220000,-1522121.0397800293,-22.139999389648438,13.920000076293945,22.739999771118164
1776037952796229600,-1522121.0297702637,-21.84000015258789,12.359999656677246,22.19999885559082
1776037952816340700,-1522121.0096591797,-21.899999618530273,12.59999942779541,21.479999542236328
1776037952836482300,-1522120.9895175782,-21.84000015258789,12.779999732971191,21.65999984741211
1776037952846583800,-1522120.9794162598,-21.35999870300293,13.139999389648438,22.979999542236328
1776037952856685000,-1522120.9693149414,-20.03999900817871,12.359999656677246,23.100000381469727
1776037952866755800,-1522120.9592441407,-19.3799991607666,11.9399995803833,23.639999389648438
1776037952876796200,-1522120.9492038575,-18.719999313354492,12.119999885559082,24.35999870300293
1776037952886836500,-1522120.9391635743,-18.65999984741211,11.819999694824219,24.420000076293945
1776037952896937700,-1522120.929062256,-18.600000381469727,11.819999694824219,24.719999313354492
1776037952907008500,-1522120.918991455,-19.31999969482422,11.34000015258789,25.19999885559082
1776037952917079300,-1522120.9089206543,-19.139999389648438,10.979999542236328,24.719999313354492
1776037952957301500,-1522120.8686984864,-16.139999389648438,11.639999389648438,24.420000076293945
1776037952967372300,-1522120.8586276856,-16.559999465942383,11.519999504089355,24.719999313354492
1776037952977473500,-1522120.8485263672,-16.920000076293945,10.619999885559082,23.760000228881836
1776037952987513900,-1522120.838486084,-16.3799991607666,10.019999504089355,24
1776037952997584600,-1522120.8284152832,-16.440000534057617,9.539999961853027,23.579999923706055
1776037953007655400,-1522120.8183444825,-15.779999732971191,9.539999961853027,23.51999855041504
1776037953017756700,-1522120.808243408,-16.739999771118164,9.59999942779541,23.69999885559082
1776037953047999700,-1522120.7780002442,-16.619998931884766,10.199999809265137,25.3799991607666
1776037953058070500,-1522120.7679294434,-15.119999885559082,10.139999389648438,26.579999923706055
1776037953068110800,-1522120.7578891602,-15.359999656677246,9,25.739999771118164
1776037953078151200,-1522120.747848877,-15.239999771118164,9.779999732971191,26.8799991607666
1776037953088191500,-1522120.7378085938,-15.420000076293945,9.65999984741211,26.639999389648438
1776037953098231600,-1522120.7277685546,-15.299999237060547,9.84000015258789,26.459999084472656
1776037953108271900,-1522120.7177280274,-15.539999961853027,9.84000015258789,26.51999855041504
1776037953118373000,-1522120.707626953,-15.59999942779541,9.119999885559082,25.920000076293945
1776037953128444200,-1522120.6975559082,-15.59999942779541,8.819999694824219,26.15999984741211
1776037953138515000,-1522120.6874851075,-16.139999389648438,8.760000228881836,26.219999313354492
1776037953168727300,-1522120.657272705,-17.100000381469727,11.039999961853027,26.399999618530273
1776037953178767600,-1522120.647232422,-17.03999900817871,11.519999504089355,26.15999984741211
1776037953188808000,-1522120.6371921387,-16.079999923706055,11.399999618530273,26.34000015258789
1776037953198878700,-1522120.627121338,-14.9399995803833,11.34000015258789,26.279998779296875
1776037953208949500,-1522120.6170505371,-15.899999618530273,11.219999313354492,25.619998931884766
1776037953219050800,-1522120.6069492188,-16.079999923706055,10.800000190734863,25.19999885559082
1776037953229060600,-1522120.5969394532,-17.459999084472656,10.679999351501465,24.779998779296875
1776037953259242500,-1522120.5667575684,-22.3799991607666,12.059999465942383,24.959999084472656
1776037953269313300,-1522120.5566867676,-22.920000076293945,13.199999809265137,25.31999969482422
1776037953279384000,-1522120.5466159668,-23.279998779296875,13.920000076293945,24.84000015258789
1776037953289454800,-1522120.536545166,-22.920000076293945,14.699999809265137,23.81999969482422
1776037953299556000,-1522120.5264438477,-22.439998626708984,15.239999771118164,23.219999313354492
1776037953309566000,-1522120.516434082,-22.5,16.139999389648438,22.19999885559082
1776037953319636700,-1522120.5063632813,-22.19999885559082,16.739999771118164,21.84000015258789
1776037953329707500,-1522120.4962924805,-23.279998779296875,16.739999771118164,21.479999542236328
1776037953339778300,-1522120.4862216797,-25.079999923706055,16.799999237060547,20.459999084472656
1776037953379939300,-1522120.446060791,-28.260000228881836,17.34000015258789,17.940000534057617
1776037953400050400,-1522120.425949463,-27.35999870300293,18.600000381469727,16.85999870300293
1776037953410121200,-1522120.4158786621,-25.619998931884766,19.3799991607666,15.960000038146973
1776037953430232300,-1522120.3957675782,-24.299999237060547,19.799999237060547,15.539999961853027
1776037953440303000,-1522120.3856967774,-24.119998931884766,20.15999984741211,14.519999504089355
1776037953460414200,-1522120.3655856934,-25.139999389648438,22.3799991607666,13.559999465942383
1776037953480494800,-1522120.345505127,-26.760000228881836,24.53999900817871,12.119999885559082
1776037953490565600,-1522120.3354343262,-26.81999969482422,24.779998779296875,11.819999694824219
1776037953500636400,-1522120.3253635254,-25.799999237060547,24.84000015258789,11.880000114440918
1776037953510707200,-1522120.3152927246,-25.01999855041504,25.85999870300293,11.699999809265137
1776037953520808400,-1522120.3051916503,-23.579999923706055,25.739999771118164,11.15999984741211
1776037953530879200,-1522120.2951208495,-24.84000015258789,26.15999984741211,9.84000015258789
1776037953540950300,-1522120.2850498047,-25.85999870300293,26.51999855041504,8.399999618530273
1776037953571101400,-1522120.2548986815,-28.5,27.599998474121094,6.299999713897705
1776037953591273700,-1522120.2347263184,-25.799999237060547,28.01999855041504,5.279999732971191
1776037953611415300,-1522120.2145847168,-22.020000457763672,27.599998474121094,5.099999904632568
1776037953621486000,-1522120.204513916,-21.299999237060547,27,4.799999713897705
1776037953631556900,-1522120.1944431153,-21.65999984741211,27.779998779296875,5.699999809265137
1776037953641627600,-1522120.1843723145,-23.459999084472656,28.31999969482422,6.059999942779541
1776037953651698400,-1522120.1743015137,-24.35999870300293,28.5,6.179999828338623
1776037953681880300,-1522120.144119629,-25.01999855041504,29.51999855041504,6.659999847412109
1776037953702022000,-1522120.1239780274,-23.81999969482422,30.059999465942383,7.859999656677246
1776037953712092700,-1522120.1139072266,-22.559999465942383,29.51999855041504,8.639999389648438
1776037953722163500,-1522120.1038364258,-21.479999542236328,29.399999618530273,9.779999732971191
1776037953732234200,-1522120.093765869,-20.34000015258789,29.279998779296875,10.619999885559082
1776037953742305000,-1522120.0836950683,-20.760000228881836,28.260000228881836,11.219999313354492
1776037953752345300,-1522120.073654541,-21.65999984741211,27.84000015258789,10.979999542236328
1776037953802730000,-1522120.0232700196,-21.779998779296875,23.81999969482422,14.880000114440918
1776037953812770300,-1522120.0132297364,-21.239999771118164,23.579999923706055,15.899999618530273
1776037953822841000,-1522120.0031589356,-21.779998779296875,22.920000076293945,16.739999771118164
1776037953832942300,-1522119.9930576172,-21.420000076293945,22.68000030517578,17.69999885559082
1776037953843013000,-1522119.9829868164,-21.059999465942383,22.139999389648438,18.600000381469727
1776037953853084000,-1522119.9729160157,-22.020000457763672,20.579999923706055,19.079999923706055
1776037953863185200,-1522119.9628149413,-22.19999885559082,19.739999771118164,18.600000381469727
1776037953893397800,-1522119.932602295,-23.760000228881836,20.03999900817871,20.8799991607666
1776037953903468500,-1522119.9225314942,-24.420000076293945,19.68000030517578,21.719999313354492
1776037953923640600,-1522119.902359375,-25.739999771118164,18.779998779296875,22.739999771118164
1776037953933711400,-1522119.8922885743,-25.920000076293945,17.760000228881836,23.51999855041504
1776037953943782100,-1522119.8822177735,-25.139999389648438,17.8799991607666,24.84000015258789
1776037953953822500,-1522119.8721774903,-23.760000228881836,16.920000076293945,25.31999969482422
1776037953963862800,-1522119.862137207,-23.15999984741211,16.739999771118164,26.15999984741211
1776037954004115500,-1522119.8218845215,-20.639999389648438,16.139999389648438,26.15999984741211
1776037954014155800,-1522119.8118442383,-20.34000015258789,16.19999885559082,26.459999084472656
1776037954024196000,-1522119.801803955,-19.260000228881836,15.779999732971191,25.85999870300293
1776037954034236200,-1522119.791763916,-19.020000457763672,16.079999923706055,25.3799991607666
1776037954044307200,-1522119.7816928711,-18.119998931884766,17.219999313354492,26.279998779296875
1776037954054378000,-1522119.7716220703,-17.520000457763672,17.100000381469727,26.81999969482422
1776037954064448800,-1522119.7615512696,-18.059999465942383,17.69999885559082,27.479999542236328
1776037954104732000,-1522119.7212680664,-16.19999885559082,16.979999542236328,27.959999084472656
1776037954114772200,-1522119.7112277832,-15.960000038146973,16.31999969482422,28.5
1776037954124873500,-1522119.7011264649,-16.079999923706055,16.440000534057617,29.15999984741211
1776037954134944300,-1522119.691055664,-15.299999237060547,16.19999885559082,28.979999542236328
1776037954145015000,-1522119.6809848633,-15.299999237060547,15.420000076293945,28.5
1776037954155055400,-1522119.67094458,-15.119999885559082,15.539999961853027,28.5
1776037954165156600,-1522119.6608435058,-14.639999389648438,15.179999351501465,28.260000228881836
1776037954175227400,-1522119.650772705,-14.519999504089355,14.880000114440918,28.619998931884766
1776037954205409300,-1522119.6205908202,-13.559999465942383,13.859999656677246,28.559999465942383
1776037954215480000,-1522119.6105200194,-12.960000038146973,15.119999885559082,29.219999313354492
1776037954225581600,-1522119.600418457,-12.779999732971191,15.839999198913574,30.959999084472656
1776037954235622000,-1522119.5903781739,-12.84000015258789,16.260000228881836,31.920000076293945
1776037954245692700,-1522119.580307373,-12.539999961853027,17.15999984741211,32.939998626708984
1776037954255763500,-1522119.5702365723,-12.779999732971191,15.899999618530273,32.70000076293945
1776037954265834200,-1522119.5601657715,-12.719999313354492,15.479999542236328,31.799999237060547
1776037954275843800,-1522119.55015625,-13.019999504089355,15.59999942779541,31.619998931884766
1776037954285945300,-1522119.5400546875,-13.679999351501465,15.359999656677246,30.899999618530273
1776037954326198000,-1522119.499802002,-17.69999885559082,16.739999771118164,29.639999389648438
1776037954336268800,-1522119.4897312012,-17.760000228881836,17.579999923706055,29.34000015258789
1776037954346339600,-1522119.4796604004,-16.68000030517578,18.299999237060547,29.399999618530273
1776037954356380000,-1522119.4696201172,-15.179999351501465,18.53999900817871,29.03999900817871
1776037954366481200,-1522119.4595187989,-14.75999927520752,18.53999900817871,28.619998931884766
1776037954376552000,-1522119.449447998,-14.460000038146973,19.19999885559082,28.68000030517578
1776037954386561800,-1522119.4394382325,-14.880000114440918,19.559999465942383,28.260000228881836
1776037954396571400,-1522119.4294287108,-15.839999198913574,19.559999465942383,27.119998931884766
1776037954426875400,-1522119.3991245118,-17.8799991607666,22.5,26.69999885559082
1776037954447017000,-1522119.3789831542,-18.35999870300293,24.18000030517578,25.920000076293945
1776037954457087700,-1522119.3689123534,-18.35999870300293,23.8799991607666,25.139999389648438
1776037954467158500,-1522119.3588415526,-17.81999969482422,23.8799991607666,24.35999870300293
1776037954477229600,-1522119.3487705078,-17.579999923706055,24.059999465942383,23.8799991607666
1776037954487300400,-1522119.338699707,-18.299999237060547,24.65999984741211,23.15999984741211
1776037954497371100,-1522119.3286289063,-18.35999870300293,26.099998474121094,22.5
1776037954507442000,-1522119.3185581055,-18.35999870300293,26.81999969482422,21
1776037954517482200,-1522119.3085178223,-19.079999923706055,27.959999084472656,19.799999237060547
1776037954547694600,-1522119.27830542,-20.459999084472656,30.299999237060547,16.440000534057617
1776037954557735000,-1522119.2682651368,-20.100000381469727,29.81999969482422,15.299999237060547
1776037954567805700,-1522119.258194336,-19.559999465942383,29.760000228881836,15.420000076293945
1776037954577846000,-1522119.2481540528,-18.53999900817871,30.059999465942383,15
1776037954587916800,-1522119.238083252,-19.020000457763672,30,14.460000038146973
1776037954597987600,-1522119.2280124512,-18.959999084472656,30.719999313354492,14.399999618530273
1776037954608058400,-1522119.2179416504,-19.68000030517578,30.959999084472656,13.5
1776037954618129200,-1522119.2078708496,-21.119998931884766,30.899999618530273,12.719999313354492
1776037954648372000,-1522119.1776279297,-22.559999465942383,32.52000045776367,11.75999927520752
1776037954658442800,-1522119.167557129,-21.479999542236328,32.57999801635742,11.460000038146973
1776037954668513500,-1522119.1574865722,-20.279998779296875,33.18000030517578,11.460000038146973
1776037954678553900,-1522119.147446045,-19.68000030517578,32.040000915527344,10.559999465942383
1776037954688655000,-1522119.1373449706,-19.85999870300293,31.920000076293945,9.300000190734863
1776037954698726100,-1522119.1272739258,-20.399999618530273,31.619998931884766,8.399999618530273
1776037954708797000,-1522119.117203125,-22.079999923706055,31.260000228881836,7.319999694824219
1776037954718867700,-1522119.1071323243,-23.15999984741211,32.21999740600586,6.71999979019165
1776037954759181300,-1522119.0668186035,-26.399999618530273,33.18000030517578,6.179999828338623
1776037954779292400,-1522119.0467075196,-25.260000228881836,33.89999771118164,5.639999866485596
1776037954789332700,-1522119.0366672364,-23.8799991607666,33.959999084472656,5.940000057220459
1776037954799342600,-1522119.0266574707,-22.799999237060547,34.20000076293945,5.819999694824219
1776037954809443800,-1522119.0165561524,-22.68000030517578,33.119998931884766,5.279999732971191
1776037954819453700,-1522119.0065463868,-21.899999618530273,32.34000015258789,5.099999904632568
1776037954829555000,-1522118.9964450684,-21.479999542236328,32.459999084472656,4.559999942779541
1776037954849666000,-1522118.9763339844,-21.53999900817871,31.67999839782715,4.619999885559082
1776037954859736800,-1522118.9662631836,-22.020000457763672,32.34000015258789,4.079999923706055
1776037954869807600,-1522118.9561923828,-22.559999465942383,31.67999839782715,4.319999694824219
1776037954879848000,-1522118.9461520996,-23.03999900817871,32.099998474121094,4.319999694824219
1776037954889918700,-1522118.9360812989,-23.459999084472656,31.920000076293945,4.799999713897705
1776037954899959000,-1522118.9260410157,-23.15999984741211,31.979999542236328,5.639999866485596
1776037954910029800,-1522118.9159702149,-23.279998779296875,32.099998474121094,6.179999828338623
1776037954920070100,-1522118.9059299317,-23.639999389648438,31.619998931884766,6.179999828338623
1776037954930171400,-1522118.8958286133,-23.100000381469727,31.439998626708984,6.420000076293945
1776037954970454500,-1522118.8555454102,-26.81999969482422,30.84000015258789,8.09999942779541
1776037954980525300,-1522118.8454746094,-26.219999313354492,31.799999237060547,9.179999351501465
1776037954990626600,-1522118.835373535,-25.31999969482422,31.3799991607666,10.4399995803833
1776037955010768400,-1522118.8152316895,-22.739999771118164,29.8799991607666,12.719999313354492
1776037955020839200,-1522118.8051608887,-21.959999084472656,28.139999389648438,12.719999313354492
1776037955030940400,-1522118.7950595703,-21.84000015258789,27.599998474121094,13.739999771118164
1776037955061183200,-1522118.7648166504,-24.600000381469727,28.619998931884766,14.819999694824219
1776037955091395600,-1522118.734604492,-22.559999465942383,28.68000030517578,16.440000534057617
1776037955101436000,-1522118.7245642089,-21.18000030517578,29.219999313354492,17.34000015258789
1776037955111506700,-1522118.714493408,-19.920000076293945,29.03999900817871,18.420000076293945
1776037955121547000,-1522118.704452881,-19.3799991607666,28.5,18.959999084472656
1776037955131587300,-1522118.6944125977,-20.8799991607666,29.099998474121094,19.5
1776037955151698400,-1522118.6743015137,-22.739999771118164,29.459999084472656,21.53999900817871
1776037955161738800,-1522118.6642612305,-23.399999618530273,30.17999839782715,22.85999870300293
1776037955181849900,-1522118.6441501465,-19.739999771118164,29.399999618530273,24.719999313354492
1776037955191920600,-1522118.6340793457,-17.639999389648438,28.68000030517578,24.84000015258789
1776037955201961000,-1522118.6240390625,-15.899999618530273,27.35999870300293,25.559999465942383
1776037955212062200,-1522118.6139377442,-14.639999389648438,26.81999969482422,26.15999984741211
1776037955222133000,-1522118.6038669434,-14.819999694824219,25.3799991607666,25.85999870300293
1776037955232234200,-1522118.593765869,-15.65999984741211,25.260000228881836,26.15999984741211
1776037955262416100,-1522118.5635839843,-16.5,26.34000015258789,26.579999923706055
1776037955272456400,-1522118.553543457,-15.539999961853027,26.51999855041504,26.81999969482422
1776037955282527200,-1522118.5434726563,-13.979999542236328,26.34000015258789,27.65999984741211
1776037955292598000,-1522118.5334020995,-11.519999504089355,25.85999870300293,28.01999855041504
1776037955302668800,-1522118.5233312987,-9.420000076293945,25.19999885559082,29.15999984741211
1776037955312739600,-1522118.513260498,-8.639999389648438,23.579999923706055,29.399999618530273
1776037955322780000,-1522118.5032202147,-8.399999618530273,23.100000381469727,29.51999855041504
1776037955332850700,-1522118.493149414,-9.059999465942383,22.3799991607666,29.81999969482422
1776037955373134000,-1522118.4528659668,-12.84000015258789,22.31999969482422,30.84000015258789
1776037955393306000,-1522118.4326938477,-9.84000015258789,21.53999900817871,31.139999389648438
1776037955403377000,-1522118.422623047,-8.279999732971191,20.520000457763672,31.85999870300293
1776037955413447700,-1522118.4125522461,-7.199999809265137,20.15999984741211,32.34000015258789
1776037955423518500,-1522118.4024814453,-7.019999980926514,20.219999313354492,32.880001068115234
1776037955433589200,-1522118.3924106446,-7.5,19.619998931884766,33.05999755859375
1776037955443660000,-1522118.3823400878,-7.619999885559082,20.03999900817871,32.939998626708984
1776037955483974000,-1522118.342026123,-6.359999656677246,20.939998626708984,33.23999786376953
1776037955504023800,-1522118.3219760743,-6.659999847412109,21.53999900817871,32.70000076293945
1776037955514125300,-1522118.311874756,-6.599999904632568,22.19999885559082,32.70000076293945
1776037955524196000,-1522118.301803955,-6.839999675750732,22.439998626708984,32.57999801635742
1776037955534267000,-1522118.2917331543,-7.199999809265137,22.68000030517578,32.939998626708984
1776037955544276500,-1522118.2817236327,-6.779999732971191,22.979999542236328,31.739999771118164
1776037955554316800,-1522118.2716831055,-7.319999694824219,21.899999618530273,31.139999389648438
1776037955594539000,-1522118.2314609375,-10.380000114440918,25.19999885559082,31.439998626708984
1776037955604609800,-1522118.2213901368,-10.5,26.03999900817871,31.439998626708984
1776037955614680600,-1522118.211319336,-9.300000190734863,26.219999313354492,30.779998779296875
1776037955624721000,-1522118.2012790528,-8.460000038146973,26.279998779296875,30.239999771118164
1776037955634761200,-1522118.1912387696,-8.15999984741211,26.399999618530273,30.53999900817871
1776037955644862500,-1522118.1811374512,-8.519999504089355,25.439998626708984,29.639999389648438
1776037955654933200,-1522118.1710666504,-9.479999542236328,25.439998626708984,29.81999969482422
1776037955705256700,-1522118.120743408,-13.679999351501465,28.19999885559082,27.239999771118164
1776037955725367800,-1522118.10063208,-12.359999656677246,32.15999984741211,25.799999237060547
1776037955735469300,-1522118.0905307618,-12.119999885559082,33,24.65999984741211
1776037955745509400,-1522118.0804907226,-12.300000190734863,33.29999923706055,23.34000015258789
1776037955755580200,-1522118.0704199218,-13.079999923706055,32.70000076293945,22.3799991607666
1776037955765681700,-1522118.0603183594,-14.279999732971191,31.920000076293945,21.479999542236328
1776037955795802400,-1522118.0301977538,-14.9399995803833,32.040000915527344,20.579999923706055
1776037955805904000,-1522118.0200961914,-15.479999542236328,32.21999740600586,20.520000457763672
1776037955826045400,-1522117.9999545899,-15.899999618530273,33.599998474121094,19.31999969482422
1776037955836116200,-1522117.989883789,-16.079999923706055,33.779998779296875,19.079999923706055
1776037955846187000,-1522117.9798129883,-16.3799991607666,34.02000045776367,18.35999870300293
1776037955856227300,-1522117.969772705,-17.03999900817871,33.71999740600586,17.639999389648438
1776037955886409200,-1522117.9395908203,-21.479999542236328,33.47999954223633,14.9399995803833
1776037955906581200,-1522117.9194187012,-24.53999900817871,34.07999801635742,14.279999732971191
1776037955916621600,-1522117.909378418,-23.69999885559082,34.5,13.979999542236328
1776037955926722800,-1522117.8992770996,-23.34000015258789,34.31999969482422,13.5
1776037955936824000,-1522117.8891760253,-22.619998931884766,33.540000915527344,12.479999542236328
1776037955946894800,-1522117.8791052245,-22.19999885559082,33.119998931884766,12.119999885559082
1776037955956996400,-1522117.8690036621,-24.059999465942383,32.52000045776367,12.300000190734863
1776037955997249000,-1522117.8287509766,-24.84000015258789,33.599998474121094,10.739999771118164
1776037956007289300,-1522117.8187106934,-25.139999389648438,33.23999786376953,10.679999351501465
1776037956017360100,-1522117.8086398926,-25.01999855041504,32.939998626708984,11.219999313354492
1776037956027400400,-1522117.7985996094,-24.959999084472656,32.81999969482422,10.260000228881836
1776037956037501700,-1522117.788498291,-24.959999084472656,33.41999816894531,10.139999389648438
