time,seconds_elapsed,z,y,x
1776037938434526500,-1522135.3914736328,0.09040805697441101,0.3677408695220947,0.4715879559516907
1776037938444197000,-1522135.3818029785,-0.18936823308467865,0.37262779474258423,0.24556782841682434
1776037938453868000,-1522135.3721320801,-0.38728857040405273,0.6646214127540588,0.6976081132888794
1776037938483280400,-1522135.3427197265,-0.05742133408784866,0.06841690838336945,0.12095131725072861
1776037938493251000,-1522135.3327490233,-0.05009094998240471,0.07696902006864548,0.15515977144241333
1776037938523433000,-1522135.3025671386,0.010995574295520782,0.059864792972803116,0.09040805697441101
1776037938543574800,-1522135.282425293,0.07330382615327835,0.042760565876960754,0.03420845419168472
1776037938553554000,-1522135.272446045,0.1062905490398407,0.04764748737215996,0.028099801391363144
1776037938563655200,-1522135.2623447266,0.1417207419872284,0.051312681287527084,0.04153883829712868
1776037938573665000,-1522135.252334961,0.18325957655906677,0.0708603709936142,0.08307767659425735
1776037938583735800,-1522135.2422641602,0.22846360504627228,0.10262536257505417,0.12217304855585098
1776037938593745700,-1522135.2322543946,0.27977627515792847,0.13439035415649414,0.13561208546161652
1776037938603847000,-1522135.2221530762,0.3323107063770294,0.15515977144241333,0.10262536257505417
1776037938613917700,-1522135.2120822754,0.384845107793808,0.16004669666290283,0.042760565876960754
1776037938624019000,-1522135.201980957,0.43737950921058655,0.14905111491680145,-0.01710422709584236
1776037938654170400,-1522135.1718295899,0.5571091175079346,0.20891591906547546,-0.17104226350784302
1776037938664241200,-1522135.161758789,0.6023131608963013,0.23090706765651703,-0.28099802136421204
1776037938674281500,-1522135.151718506,0.6499606370925903,0.2528982162475586,-0.485027015209198
1776037938684382700,-1522135.1416171875,0.7073819637298584,0.2565633952617645,-0.7721336483955383
1776037938694423000,-1522135.1315769043,0.7672467231750488,0.2382374405860901,-1.1007791757583618
1776037938704493800,-1522135.1215061035,0.8258898258209229,0.21502456068992615,-1.4110987186431885
1776037938714534100,-1522135.1114658203,0.9053022861480713,0.1918116807937622,-1.6713273525238037
1776037938724635400,-1522135.101364502,1.009149432182312,0.17837265133857727,-1.892460584640503
1776037938754817300,-1522135.0711826172,1.359786033630371,0.24190263450145721,-2.582738161087036
1776037938764918800,-1522135.0610812989,1.5076154470443726,0.28099802136421204,-2.8038713932037354
1776037938774958800,-1522135.0510412597,1.6627751588821411,0.32009339332580566,-3.0298917293548584
1776037938785029600,-1522135.0409704589,1.8301522731781006,0.35063666105270386,-3.2571334838867188
1776037938795070000,-1522135.0309299317,2.009746551513672,0.3799581825733185,-3.4794883728027344
1776037938805140700,-1522135.020859375,2.1868975162506104,0.38606682419776917,-3.7055084705352783
1776037938815181000,-1522135.0108188477,2.364048480987549,0.39217549562454224,-3.9486329555511475
1776037938855433700,-1522134.9705661621,3.0714304447174072,0.2993239760398865,-4.8282790184021
1776037938875544800,-1522134.9504550782,3.3145549297332764,0.24556782841682434,-5.138598442077637
1776037938885646000,-1522134.9403540038,3.422067165374756,0.26633724570274353,-5.240002155303955
1776037938895686400,-1522134.9303137206,3.519805431365967,0.2871066629886627,-5.32063627243042
1776037938905757200,-1522134.9202429198,3.587000608444214,0.2919935882091522,-5.369505405426025
1776037938915797500,-1522134.9102023926,3.640756845474243,0.29565876722335815,-5.374392509460449
1776037938925899000,-1522134.9001010743,3.693291187286377,0.3225368559360504,-5.323079586029053
1776037938935969800,-1522134.8900302735,3.7421605587005615,0.3628539443016052,-5.218010902404785
1776037938946071000,-1522134.879928955,3.7946949005126953,0.40194934606552124,-5.075068473815918
1776037938976283400,-1522134.8497165528,4.098905563354492,0.4764748811721802,-4.459316253662109
1776037938996425000,-1522134.8295749512,4.365242958068848,0.5314527750015259,-3.8570032119750977
1776037939006495700,-1522134.8195041504,4.532619953155518,0.5632177591323853,-3.4623842239379883
1776037939016536000,-1522134.8094638672,4.706105709075928,0.608421802520752,-3.034778594970703
1776037939026606800,-1522134.7993930664,4.864930629730225,0.6633996367454529,-2.6010642051696777
1776037939036677600,-1522134.7893222657,5.007873058319092,0.7183775305747986,-2.155132532119751
1776037939046779000,-1522134.7792211913,5.139820098876953,0.788016140460968,-1.6713273525238037
1776037939077022000,-1522134.7489780274,5.365840435028076,0.901637077331543,0.7012733221054077
1776037939087123200,-1522134.738876709,5.29253625869751,0.998153805732727,1.3267992734909058
1776037939097194000,-1522134.7288059082,5.1324896812438965,1.1215485334396362,1.6872098445892334
1776037939117366300,-1522134.708633789,4.651127815246582,1.3255776166915894,1.9559905529022217
1776037939127437000,-1522134.6985629883,4.350582122802734,1.389107584953308,1.9755382537841797
1776037939137477400,-1522134.688522705,4.034153938293457,1.4233160018920898,1.9511035680770874
1776037939147548200,-1522134.6784519043,3.6749653816223145,1.4355332851409912,1.852143406867981
1776037939207972900,-1522134.6180270996,1.2705997228622437,1.1728612184524536,-0.0403171069920063
1776037939258357500,-1522134.5676425782,-0.06108652427792549,0.911410927772522,-0.7415903806686401
1776037939328883500,-1522134.497116455,-0.7440338730812073,0.28955012559890747,-1.4672982692718506
1776037939379207000,-1522134.4467929688,-0.9615018963813782,-0.10995574295520782,-0.7721336483955383
1776037939389277700,-1522134.436722412,-0.988379955291748,-0.17104226350784302,-0.6133087277412415
1776037939399318000,-1522134.4266818848,-1.0115928649902344,-0.21380282938480377,-0.4300491213798523
1776037939409388800,-1522134.416611084,-1.0348057746887207,-0.2321287989616394,-0.2480112910270691
1776037939419459600,-1522134.4065405272,-1.056796908378601,-0.24190263450145721,-0.10384709388017654
1776037939439601200,-1522134.3863989257,-1.1056660413742065,-0.32009339332580566,0.03787364438176155
1776037939449672200,-1522134.376327881,-1.1337659358978271,-0.3738495409488678,0.05619960278272629
1776037939459712300,-1522134.3662878417,-1.1484266519546509,-0.3982841372489929,0.04153883829712868
1776037939489924900,-1522134.3360751953,-1.1447614431381226,-0.4080579876899719,-0.2015855312347412
1776037939530177500,-1522134.2958225098,-1.2046263217926025,-0.475253164768219,0.35063666105270386
1776037939540248300,-1522134.285751709,-1.263269305229187,-0.5412266254425049,0.598647952079773
1776037939550319000,-1522134.2756809082,-1.3292428255081177,-0.607200026512146,0.8063421249389648
1776037939560390000,-1522134.2656101075,-1.4110987186431885,-0.6829473376274109,0.9639453291893005
1776037939590541300,-1522134.2354587403,-1.7507398128509521,-0.7782423496246338,1.313360333442688
1776037939620753700,-1522134.205246338,-2.0280725955963135,-0.8307767510414124,1.4428637027740479
1776037939640895200,-1522134.1851047364,-2.124589204788208,-0.8038986921310425,1.5332717895507812
1776037939650966000,-1522134.1750339356,-2.1282544136047363,-0.8014551997184753,1.6273449659347534
1776037939661036800,-1522134.1649631348,-2.1111502647399902,-0.817337691783905,1.7311921119689941
1776037939671107600,-1522134.154892334,-2.076941728591919,-0.8442157506942749,1.8154915571212769
1776037939691218700,-1522134.13478125,-1.9718730449676514,-0.8967501521110535,1.8179349899291992
1776037939701289500,-1522134.1247104493,-1.910786509513855,-0.9162978529930115,1.7238616943359375
1776037939711360300,-1522134.1146396485,-1.8362609148025513,-0.9566149711608887,1.539380431175232
1776037939721431000,-1522134.1045688477,-1.7385225296020508,-1.0005972385406494,1.273043155670166
1776037939731501800,-1522134.094498291,-1.654223084449768,-1.009149432182312,0.988379955291748
1776037939741572600,-1522134.0844274901,-1.654223084449768,-1.009149432182312,0.988379955291748
1776037939751643400,-1522134.0743566894,-1.6139060258865356,-1.0067058801651,0.6939429044723511
1776037939761714400,-1522134.0642856446,-1.587027907371521,-1.0140362977981567,0.4043927788734436
1776037939771785200,-1522134.0542148438,-1.5442672967910767,-1.0250319242477417,0.1514945775270462
1776037939801997600,-1522134.0240024414,-1.4587461948394775,-1.0348057746887207,-0.5363397002220154
1776037939812068400,-1522134.0139316407,-1.4489723443984985,-1.018923282623291,-0.7953465580940247
1776037939822139100,-1522134.0038608399,-1.3915510177612305,-0.9492846131324768,-1.274264931678772
1776037939832240400,-1522133.9937595215,-1.3915510177612305,-0.9492846131324768,-1.274264931678772
1776037939842280700,-1522133.9837192383,-1.359786033630371,-0.9101892113685608,-1.4428637027740479
1776037939852351500,-1522133.9736484375,-1.3194689750671387,-0.8503243923187256,-1.540602207183838
1776037939862422300,-1522133.9635776368,-1.2608258724212646,-0.7733554244041443,-1.5992451906204224
1776037939872493000,-1522133.953506836,-1.1985175609588623,-0.6951646208763123,-1.6603317260742188
1776037939912776400,-1522133.9132236328,-1.017701506614685,-0.36529740691185,-2.1844542026519775
1776037939922877700,-1522133.9031223145,-1.0030407905578613,-0.29077184200286865,-2.2736403942108154
1776037939932948500,-1522133.8930515137,-0.979827880859375,-0.2125810980796814,-2.2736403942108154
1776037939942988800,-1522133.8830112305,-0.960280179977417,-0.13561208546161652,-2.211332082748413
1776037939953059600,-1522133.8729404297,-0.950506329536438,-0.06352998316287994,-2.1062633991241455
1776037939963160800,-1522133.8628391114,-0.9334021210670471,-0.004886921960860491,-1.9523253440856934
1776037939973231600,-1522133.8527683106,-0.9065240025520325,0.042760565876960754,-1.7568484544754028
1776037939983302400,-1522133.8426975098,-0.8637634515762329,0.0757472887635231,-1.5222761631011963
1776037939993403600,-1522133.8325964354,-0.797789990901947,0.10262536257505417,-1.2877039909362793
1776037940003474700,-1522133.8225253907,-0.7110471725463867,0.12339477986097336,-1.0885618925094604
1776037940013514800,-1522133.8124853515,-0.6035348773002625,0.14538592100143433,-0.9358455538749695
1776037940023585500,-1522133.8024145507,-0.48869219422340393,0.15760323405265808,-0.807563841342926
1776037940033625900,-1522133.7923740235,-0.36651915311813354,0.16859880089759827,-0.6719517707824707
1776037940043727400,-1522133.782272705,-0.2321287989616394,0.19914206862449646,-0.5290092825889587
1776037940053767400,-1522133.772232666,-0.0806342139840126,0.23945917189121246,-0.40194934606552124
1776037940063838200,-1522133.7621618651,0.0806342139840126,0.294437050819397,-0.3188716471195221
1776037940073848000,-1522133.7521518555,0.2431243658065796,0.35674530267715454,-0.30543261766433716
1776037940083980000,-1522133.7420200196,0.40683624148368835,0.4129449129104614,-0.33108896017074585
1776037940114131200,-1522133.7118688964,0.9150761365890503,0.49357911944389343,-0.2076941877603531
1776037940134334000,-1522133.6916660157,1.2315043210983276,0.4398229718208313,0.024434609338641167
1776037940144404700,-1522133.6815952149,1.389107584953308,0.394618958234787,0.1820378452539444
1776037940154475500,-1522133.671524414,1.5332717895507812,0.34208452701568604,0.32498031854629517
1776037940164576800,-1522133.6614233397,1.683544635772705,0.2919935882091522,0.45204028487205505
1776037940174678300,-1522133.6513217774,1.860695481300354,0.2528982162475586,0.5363397002220154
1776037940184718300,-1522133.6412817382,2.076941728591919,0.24434609711170197,0.5448917746543884
1776037940194758700,-1522133.631241455,2.320066213607788,0.20525072515010834,0.5070181488990784
1776037940214900200,-1522133.6110998534,2.7647759914398193,0.04886921867728233,0.2565633952617645
1776037940224971300,-1522133.6010288086,2.9443705081939697,-0.03787364438176155,0.08674286305904388
1776037940235011300,-1522133.5909887694,3.070208787918091,-0.12339477986097336,-0.02687807008624077
1776037940245112800,-1522133.580887207,3.1300735473632812,-0.18814650177955627,-0.06108652427792549
1776037940255214000,-1522133.5707858887,3.123964786529541,-0.23335053026676178,-0.03787364438176155
1776037940265284900,-1522133.560715088,3.048217535018921,-0.2638937830924988,0.012217304669320583
1776037940285426400,-1522133.5405734864,2.735454559326172,-0.32620203495025635,0.1417207419872284
1776037940295497200,-1522133.5305026856,2.5338690280914307,-0.3384193480014801,0.22602014243602753
1776037940335689000,-1522133.4903110352,1.6982053518295288,-0.2736676335334778,0.5302310585975647
1776037940345759700,-1522133.4802402344,1.5357152223587036,-0.2638937830924988,0.6157521605491638
1776037940355830500,-1522133.4701694336,1.3915510177612305,-0.2638937830924988,0.6939429044723511
1776037940365901300,-1522133.4600986328,1.2596040964126587,-0.2638937830924988,0.7024950385093689
1776037940376002600,-1522133.4499975585,1.156978726387024,-0.24923302233219147,0.6157521605491638
1776037940386073300,-1522133.4399267577,1.0897835493087769,-0.2174680233001709,0.44226643443107605
1776037940396113700,-1522133.4298862305,1.0421360731124878,-0.18814650177955627,0.2028072625398636
1776037940406154000,-1522133.4198459473,1.0042624473571777,-0.16737708449363708,-0.0659734457731247
1776037940436366300,-1522133.389633545,0.9566149711608887,-0.1270599663257599,-0.8148942589759827
1776037940446437000,-1522133.3795629882,0.9615018963813782,-0.11484266817569733,-0.9920451641082764
1776037940456477400,-1522133.369522461,0.9737191796302795,-0.10262536257505417,-1.1154398918151855
1776037940466487300,-1522133.3595126953,0.988379955291748,-0.07819075137376785,-1.1936306953430176
1776037940476588500,-1522133.349411377,1.0054842233657837,-0.0354301854968071,-1.236391305923462
1776037940486659300,-1522133.3393405762,1.0225883722305298,0.00733038317412138,-1.2486085891723633
1776037940496760600,-1522133.3292395019,1.026253581047058,0.03787364438176155,-1.2217304706573486
1776037940547023000,-1522133.2789768067,1.0458012819290161,0.2321287989616394,-0.6524040699005127
1776037940567164700,-1522133.258835449,1.0018190145492554,0.35552358627319336,-0.47280970215797424
1776037940577266200,-1522133.2487338868,0.9737191796302795,0.3982841372489929,-0.41661009192466736
1776037940587337000,-1522133.238663086,0.9382890462875366,0.4129449129104614,-0.3933972120285034
1776037940597438200,-1522133.2285617676,0.8857545852661133,0.43249258399009705,-0.39706242084503174
1776037940607509000,-1522133.2184909668,0.8258898258209229,0.46303585171699524,-0.41661009192466736
1776037940637721300,-1522133.1882785645,0.5852088928222656,0.4996877610683441,-0.4740314185619354
1776037940647792000,-1522133.1782077637,0.49724429845809937,0.4996877610683441,-0.46181413531303406
1776037940657893600,-1522133.1681064453,0.3933972120285034,0.4813618063926697,-0.43615779280662537
1776037940667933700,-1522133.1580664061,0.2968805134296417,0.47769662737846375,-0.3933972120285034
1776037940688106000,-1522133.137894043,0.11850785464048386,0.4862487316131592,-0.3323107063770294
1776037940698207200,-1522133.1277927246,0.015882495790719986,0.4960225820541382,-0.2785545587539673
1776037940708278000,-1522133.1177219239,-0.08185594528913498,0.504574716091156,-0.17959438264369965
1776037940718348800,-1522133.107651123,-0.17837265133857727,0.4960225820541382,-0.02687807008624077
1776037940748622300,-1522133.0773776856,-0.42271876335144043,0.43249258399009705,0.4642575979232788
1776037940758693000,-1522133.0673068848,-0.4862487316131592,0.3995058834552765,0.5363397002220154
1776037940768764000,-1522133.057236084,-0.5473352670669556,0.3591887652873993,0.5558874011039734
1776037940778865200,-1522133.0471347657,-0.5974262356758118,0.31520646810531616,0.5363397002220154
1776037940788875000,-1522133.037125,-0.6316346526145935,0.2724458873271942,0.48258355259895325
1776037940798976300,-1522133.0270236817,-0.6707300543785095,0.22479841113090515,0.39706242084503174
1776037940809047000,-1522133.016952881,-0.7147123217582703,0.14538592100143433,0.29565876722335815
1776037940849361000,-1522132.9766391602,-0.8723155856132507,-0.1466076523065567,0.3885102868080139
1776037940859431700,-1522132.9665683594,-0.9260717034339905,-0.14049901068210602,0.7269296646118164
1776037940869502500,-1522132.9564975586,-1.0103710889816284,-0.22479841113090515,1.3072515726089478
1776037940889674500,-1522132.9363254395,-1.1227703094482422,-0.455705463886261,2.967583417892456
1776037940899775700,-1522132.9262243651,-1.1753047704696655,-0.5338962078094482,3.7140607833862305
1776037940909785600,-1522132.9162143555,-1.2388347387313843,-0.5852088928222656,4.039041042327881
1776037940919856400,-1522132.9061435547,-1.320690631866455,-0.6316346526145935,3.8899898529052734
1776037940950068700,-1522132.8759311524,-1.528384804725647,-0.740368664264679,2.6364943981170654
1776037940970241000,-1522132.8557590332,-1.5564846992492676,-0.7745771408081055,2.615725040435791
1776037940980342300,-1522132.8456577149,-1.5503759384155273,-0.817337691783905,2.669481039047241
1776037940990413000,-1522132.835586914,-1.5320500135421753,-0.8723155856132507,2.6364943981170654
1776037941000453400,-1522132.825546631,-1.4941763877868652,-0.9395107626914978,2.5118777751922607
1776037941010524200,-1522132.81547583,-1.451415777206421,-1.017701506614685,2.3078489303588867
1776037941020595000,-1522132.8054050293,-1.4135421514511108,-1.0934487581253052,2.026850938796997
1776037941050807300,-1522132.775192627,-1.3255776166915894,-1.2986994981765747,0.8894197940826416
1776037941060908500,-1522132.7650915526,-1.3145819902420044,-1.361007809638977,0.5338962078094482
1776037941070918400,-1522132.755081543,-1.3194689750671387,-1.4037683010101318,0.1966986060142517
1776037941080989200,-1522132.7450107422,-1.3426817655563354,-1.4306464195251465,-0.13439035415649414
1776037941091060000,-1522132.7349399414,-1.3878858089447021,-1.441641926765442,-0.4178318381309509
1776037941101161200,-1522132.724838867,-1.4391984939575195,-1.4355332851409912,-0.6206390857696533
1776037941111232300,-1522132.7147678223,-1.4917329549789429,-1.4147639274597168,-0.7293730974197388
1776037941121303000,-1522132.7046970215,-1.5467108488082886,-1.3781119585037231,-0.7476990818977356
1776037941161494500,-1522132.6645053711,-1.6884315013885498,-1.156978726387024,-0.5253441333770752
1776037941171565300,-1522132.6544345703,-1.6945401430130005,-1.0922271013259888,-0.43737950921058655
1776037941181636000,-1522132.6443640136,-1.6908750534057617,-1.0323622226715088,-0.27122417092323303
1776037941191707000,-1522132.6342932128,-1.673770785331726,-0.96883225440979,-0.025656340643763542
1776037941201777700,-1522132.624222412,-1.635897159576416,-0.9040805697441101,0.251676470041275
1776037941211848700,-1522132.6141513672,-1.5821410417556763,-0.836885392665863,0.4899139404296875
1776037941221919500,-1522132.6040805664,-1.5234979391098022,-0.7745771408081055,0.6377432942390442
1776037941231990300,-1522132.5940097657,-1.4611896276474,-0.7061602473258972,0.7098253965377808
1776037941252101400,-1522132.5738986817,-1.2986994981765747,-0.5448917746543884,0.7929030656814575
1776037941282344200,-1522132.5436557618,-0.9908234477043152,-0.26511552929878235,0.626747727394104
1776037941292415000,-1522132.533584961,-0.8735373020172119,-0.15882496535778046,0.44837507605552673
1776037941302485800,-1522132.5235141602,-0.7428121566772461,-0.0403171069920063,0.2590068578720093
1776037941312465200,-1522132.5135349121,-0.598647952079773,0.08552113175392151,0.08674286305904388
1776037941322566400,-1522132.5034335938,-0.44593164324760437,0.21380282938480377,-0.07819075137376785
1776037941332637200,-1522132.493362793,-0.28588494658470154,0.32620203495025635,-0.2577851414680481
1776037941362880000,-1522132.463120117,0.0659734457731247,0.5180137157440186,-0.6792821288108826
1776037941372950800,-1522132.4530493163,0.2638937830924988,0.6096435189247131,-0.8833111524581909
1776037941383021600,-1522132.4429785155,0.47769662737846375,0.7000515460968018,-1.0458012819290161
1776037941393092600,-1522132.4329074707,0.6902777552604675,0.7929030656814575,-1.1643091440200806
1776037941403193900,-1522132.4228061524,0.8906415104866028,0.8820894360542297,-1.226617455482483
1776037941413264600,-1522132.4127353516,1.0922271013259888,0.96883225440979,-1.2388347387313843
1776037941423335400,-1522132.4026645508,1.3096951246261597,1.0396926403045654,-1.2205088138580322
1776037941433375700,-1522132.3926242676,1.7299703359603882,1.0946705341339111,-1.1533136367797852
1776037941443446500,-1522132.3825534668,1.7299703359603882,1.0946705341339111,-1.1533136367797852
1776037941463588000,-1522132.3624118653,2.1368067264556885,1.1826350688934326,-0.9712757468223572
1776037941473598000,-1522132.3524020996,2.372600555419922,1.2791517972946167,-0.9077457785606384
1776037941483668700,-1522132.3423312989,2.5754079818725586,1.2962560653686523,-0.8552113175392151
1776037941493739500,-1522132.332260498,2.702467918395996,1.2583824396133423,-0.8112290501594543
1776037941503840800,-1522132.3221591797,2.7953193187713623,1.2082914113998413,-0.7672467231750488
1776037941513850600,-1522132.312149414,2.8881709575653076,1.1496484279632568,-0.7257078886032104
1776037941523951900,-1522132.3020480957,2.926044464111328,1.0958921909332275,-0.6670648455619812
1776037941534022700,-1522132.291977295,2.8735101222991943,1.0543533563613892,-0.5705481171607971
1776037941544093400,-1522132.2819064942,2.763554334640503,1.0225883722305298,-0.42149701714515686
1776037941564174000,-1522132.2618259278,2.3994786739349365,0.978606104850769,-0.05864306539297104
1776037941574244900,-1522132.251755127,2.1539108753204346,0.9737191796302795,0.10506882518529892
1776037941584315600,-1522132.2416843262,1.920560359954834,0.9834930300712585,0.2431243658065796
1776037941594325500,-1522132.2316745606,1.7201964855194092,0.9944885969161987,0.34086281061172485
1776037941604426800,-1522132.2215732422,1.5515977144241333,0.978606104850769,0.4092797040939331
1776037941614467000,-1522132.211532959,1.4306464195251465,0.9468411207199097,0.48869219422340393
1776037941624568300,-1522132.2014316407,1.3439035415649414,0.9150761365890503,0.5803219676017761
1776037941644679400,-1522132.1813205567,1.1850786209106445,0.7269296646118164,0.7367035150527954
1776037941684901600,-1522132.1410983887,1.0873401165008545,0.6194173693656921,-0.7379252314567566
1776037941694880800,-1522132.1311191407,1.037249207496643,0.46547931432724,-1.009149432182312
1776037941704921000,-1522132.1210788575,1.0054842233657837,0.3274237811565399,-0.6255260109901428
1776037941714931000,-1522132.1110690918,1.0067058801651,0.3017674386501312,0.08674286305904388
1776037941725032200,-1522132.1009677735,0.960280179977417,0.3017674386501312,0.5900958180427551
1776037941735103000,-1522132.0908969727,0.8686503767967224,0.33719760179519653,0.6035348773002625
1776037941745204200,-1522132.0807956543,0.807563841342926,0.3628539443016052,0.14294247329235077
1776037941775264000,-1522132.0507360839,0.6438519954681396,0.2919935882091522,-1.3487904071807861
1776037941785365500,-1522132.0406345215,0.5937610268592834,0.3139847218990326,-1.470963478088379
1776037941795375000,-1522132.030625,0.5412266254425049,0.35552358627319336,-1.5467108488082886
1776037941805446000,-1522132.020554199,0.4801400899887085,0.39584067463874817,-1.6273449659347534
1776037941815455700,-1522132.0105441895,0.4141666293144226,0.43249258399009705,-1.6896532773971558
1776037941825557000,-1522132.0004431151,0.3579670190811157,0.45814892649650574,-1.6786576509475708
1776037941835597300,-1522131.990402588,0.3139847218990326,0.4642575979232788,-1.578475832939148
1776037941845668000,-1522131.9803317871,0.27000242471694946,0.46303585171699524,-1.4172073602676392
1776037941865779200,-1522131.9602207032,0.17837265133857727,0.4447098970413208,-1.0482447147369385
1776037941885920800,-1522131.9400793456,0.1014036312699318,0.4129449129104614,-0.6023131608963013
1776037941895961000,-1522131.9300388184,0.06230825558304787,0.37751471996307373,-0.3933972120285034
1776037941906031900,-1522131.9199680176,0.009773843921720982,0.35674530267715454,-0.2382374405860901
1776037941916102700,-1522131.9098974608,-0.05375614017248154,0.3384193480014801,-0.16493362188339233
1776037941926173400,-1522131.89982666,-0.12461651116609573,0.29565876722335815,-0.1514945775270462
1776037941936244200,-1522131.8897558593,-0.17959438264369965,0.2223549485206604,-0.16859880089759827
1776037941946315300,-1522131.8796848145,-0.21380282938480377,0.14049901068210602,-0.21624629199504852
1776037941956324900,-1522131.8696750489,-0.24190263450145721,0.07696902006864548,-0.27977627515792847
1776037941976466400,-1522131.8495334473,-0.3188716471195221,0.01466076634824276,-0.3640756905078888
1776037941986537200,-1522131.8394628905,-0.35552358627319336,0.018325956538319588,-0.3335324227809906
1776037941996577500,-1522131.8294223633,-0.3982841372489929,0.02321287989616394,-0.21135938167572021
1776037942006678800,-1522131.819321289,-0.44837507605552673,0.01466076634824276,-0.024434609338641167
1776037942016719000,-1522131.8092810058,-0.4960225820541382,-0.012217304669320583,0.17592918872833252
1776037942026790000,-1522131.799210205,-0.5290092825889587,-0.051312681287527084,0.33475416898727417
1776037942036830200,-1522131.7891696778,-0.5571091175079346,-0.10995574295520782,0.4056145250797272
1776037942046901000,-1522131.779099121,-0.5791002511978149,-0.17104226350784302,0.3897320330142975
1776037942077022000,-1522131.7489780274,-0.5461135506629944,-0.3579670190811157,0.1062905490398407
1776037942087092700,-1522131.7389072266,-0.5290092825889587,-0.4190535545349121,0.02687807008624077
1776037942097133000,-1522131.7288669434,-0.5057964324951172,-0.43615779280662537,0.03176499158143997
1776037942107173400,-1522131.7188266602,-0.4764748811721802,-0.4251621961593628,0.10506882518529892
1776037942117213700,-1522131.708786377,-0.45326200127601624,-0.42638394236564636,0.21502456068992615
1776037942127253800,-1522131.6987463378,-0.4434881806373596,-0.45326200127601624,0.3396410644054413
1776037942137294000,-1522131.6887058106,-0.4447098970413208,-0.5180137157440186,0.46547931432724
1776037942147364900,-1522131.6786352538,-0.4544837474822998,-0.6243042945861816,0.5632177591323853
1776037942157435600,-1522131.668564453,-0.475253164768219,-0.7318165898323059,0.6133087277412415
1776037942167506400,-1522131.6584936522,-0.5094616413116455,-0.7929030656814575,0.6218608021736145
1776037942197749500,-1522131.6282504883,-0.646295428276062,-0.7244861721992493,0.8723155856132507
1776037942207820300,-1522131.6181796875,-0.6963863968849182,-0.6976081132888794,1.0152580738067627
1776037942217860600,-1522131.6081394043,-0.7391469478607178,-0.6976081132888794,1.1154398918151855
1776037942227931400,-1522131.5980686035,-0.7782423496246338,-0.7476990818977356,1.1520918607711792
1776037942237971700,-1522131.5880283203,-0.8197811841964722,-0.8295549750328064,1.1398745775222778
1776037942248042500,-1522131.5779575196,-0.8625417351722717,-0.9162978529930115,1.1020009517669678
1776037942258113300,-1522131.5678867188,-0.9028588533401489,-0.9969320893287659,1.0543533563613892
1776037942278254800,-1522131.5477451172,-0.9920451641082764,-1.1191051006317139,0.9040805697441101
1776037942288325600,-1522131.5376743164,-1.0445796251296997,-1.1655309200286865,0.8002334833145142
1776037942298396400,-1522131.5276035157,-1.1093312501907349,-1.1985175609588623,0.685390830039978
1776037942308436700,-1522131.5175632325,-1.1716395616531372,-1.224173903465271,0.5461135506629944
1776037942318477000,-1522131.5075229493,-1.225395679473877,-1.243721604347229,0.3591887652873993
1776037942328517400,-1522131.497482666,-1.281595230102539,-1.2522737979888916,0.12095131725072861
1776037942338588200,-1522131.4874118653,-1.3329079151153564,-1.2412781715393066,-0.1514945775270462
1776037942348659000,-1522131.4773410645,-1.3781119585037231,-1.2205088138580322,-0.4202753007411957
1776037942358729700,-1522131.4672702637,-1.4245377779006958,-1.1948524713516235,-0.646295428276062
1776037942378901800,-1522131.4470981446,-1.5039502382278442,-1.1191051006317139,-0.9517280459403992
1776037942399012900,-1522131.4269870606,-1.4917329549789429,-0.9859365224838257,-1.1239920854568481
1776037942409114000,-1522131.4168859862,-1.4269812107086182,-0.9162978529930115,-1.1301007270812988
1776037942419185000,-1522131.4068151854,-1.359786033630371,-0.8662069439888,-1.0519099235534668
1776037942429256000,-1522131.3967441407,-1.3145819902420044,-0.8307767510414124,-0.8772025108337402
1776037942439296000,-1522131.3867041015,-1.284038782119751,-0.8002334833145142,-0.6377432942390442
1776037942449397500,-1522131.376602539,-1.2510520219802856,-0.7806857824325562,-0.40194934606552124
1776037942459437800,-1522131.366562256,-1.214400053024292,-0.7574729323387146,-0.2272418737411499
1776037942469508600,-1522131.356491455,-1.1814134120941162,-0.7354817390441895,-0.11484266817569733
1776037942489619500,-1522131.3363806151,-1.1618657112121582,-0.6450737118721008,0.08674286305904388
1776037942499598800,-1522131.326401123,-1.187522053718567,-0.5729916095733643,0.2028072625398636
1776037942509700000,-1522131.3162998047,-1.2278391122817993,-0.4960225820541382,0.2638937830924988
1776037942519740400,-1522131.3062595215,-1.2583824396133423,-0.4202753007411957,0.24434609711170197
1776037942529811200,-1522131.2961887207,-1.264491081237793,-0.3604104816913605,0.15393804013729095
1776037942539882000,-1522131.28611792,-1.2596040964126587,-0.3286454975605011,0.019547687843441963
1776037942549983200,-1522131.2760168456,-1.236391305923462,-0.3017674386501312,-0.10262536257505417
1776037942560023600,-1522131.2659765624,-1.1924089193344116,-0.27122417092323303,-0.2015855312347412
1776037942570125000,-1522131.255875,-1.1374311447143555,-0.2382374405860901,-0.28466320037841797
1776037942600307000,-1522131.2256931153,-0.9272934198379517,-0.01466076634824276,-0.4141666293144226
1776037942620418000,-1522131.2055820313,-0.7183775305747986,0.13805554807186127,-0.3640756905078888
1776037942630488800,-1522131.1955112305,-0.598647952079773,0.20525072515010834,-0.2919935882091522
1776037942640559600,-1522131.1854404297,-0.46303585171699524,0.27488934993743896,-0.19914206862449646
1776037942650660900,-1522131.1753391114,-0.3225368559360504,0.34697145223617554,-0.09773843735456467
1776037942660731600,-1522131.1652683106,-0.17592918872833252,0.42149701714515686,0.013439035043120384
1776037942670772000,-1522131.1552280274,-0.02687807008624077,0.4899139404296875,0.1270599663257599
1776037942680812300,-1522131.1451877442,0.14905111491680145,0.5644394755363464,0.24556782841682434
1776037942690883000,-1522131.1351169434,0.33108896017074585,0.5998696684837341,0.34086281061172485
1776037942721034500,-1522131.1049655762,0.8503243923187256,0.6426302194595337,0.45814892649650574
1776037942731135700,-1522131.0948642578,1.0348057746887207,0.6597344875335693,0.38606682419776917
1776037942741206500,-1522131.084793457,1.225395679473877,0.6450737118721008,0.24923302233219147
1776037942751307800,-1522131.0746921387,1.225395679473877,0.6450737118721008,0.24923302233219147
1776037942761378600,-1522131.064621338,1.4269812107086182,0.5766568183898926,0.1062905490398407
1776037942771480000,-1522131.0545200196,1.6102408170700073,0.4862487316131592,-0.01710422709584236
1776037942781520100,-1522131.0444799804,1.7617353200912476,0.39584067463874817,-0.10384709388017654
1776037942811732700,-1522131.014267334,1.9840903282165527,0.294437050819397,-0.1661553531885147
1776037942821803500,-1522131.0041965332,1.9718730449676514,0.294437050819397,-0.15393804013729095
1776037942831874300,-1522130.9941257325,1.9230037927627563,0.2993239760398865,-0.13927727937698364
1776037942841914600,-1522130.9840854493,1.7666223049163818,0.2822197377681732,-0.07452555745840073
1776037942851924200,-1522130.9740756836,1.7666223049163818,0.2822197377681732,-0.07452555745840073
1776037942861995000,-1522130.9640048828,1.6713273525238037,0.2687807083129883,-0.019547687843441963
1776037942872065800,-1522130.953934326,1.5821410417556763,0.2528982162475586,0.02932153269648552
1776037942882136600,-1522130.9438635253,1.5027284622192383,0.24190263450145721,0.04764748737215996
1776037942912349200,-1522130.913650879,1.3329079151153564,0.2590068578720093,-0.1966986060142517
1776037942922420000,-1522130.9035800782,1.301142930984497,0.27000242471694946,-0.3543018400669098
1776037942932490800,-1522130.8935092774,1.274264931678772,0.27611109614372253,-0.5277875661849976
1776037942942561500,-1522130.8834384766,1.243721604347229,0.2724458873271942,-0.7049384713172913
1776037942952662800,-1522130.8733371582,1.2082914113998413,0.26633724570274353,-0.8796459436416626
1776037942962733600,-1522130.8632663575,1.1740829944610596,0.26633724570274353,-1.036027431488037
1776037942972804400,-1522130.8531955567,1.1349875926971436,0.2736676335334778,-1.156978726387024
1776037942982875100,-1522130.843124756,1.0946705341339111,0.28955012559890747,-1.2400563955307007
1776037942992915500,-1522130.8330844727,1.0543533563613892,0.3139847218990326,-1.2803735733032227
1776037943023005700,-1522130.8029943847,0.970054030418396,0.42638394236564636,-1.214400053024292
1776037943043116800,-1522130.7828833007,0.9541715383529663,0.5009095072746277,-1.0739010572433472
1776037943053187600,-1522130.7728125,0.960280179977417,0.5363397002220154,-0.9920451641082764
1776037943063258600,-1522130.762741455,0.9737191796302795,0.5791002511978149,-0.8979719281196594
1776037943073329400,-1522130.7526706543,0.9932668805122375,0.6304129362106323,-0.7806857824325562
1776037943083430700,-1522130.742569336,1.018923282623291,0.6743952035903931,-0.6414085030555725
1776037943093532000,-1522130.7324680176,1.0482447147369385,0.7037167549133301,-0.4813618063926697
1776037943103602700,-1522130.7223972168,1.076344609260559,0.7073819637298584,-0.3225368559360504
1776037943133845800,-1522130.692154297,1.1252137422561646,0.6621779203414917,-0.00855211354792118
1776037943143916500,-1522130.6820834961,1.0873401165008545,0.6524040699005127,0.01466076634824276
1776037943153926100,-1522130.6720739745,1.037249207496643,0.6389650702476501,0.010995574295520782
1776037943164027600,-1522130.6619724121,0.9773843884468079,0.6194173693656921,-0.019547687843441963
1776037943174098400,-1522130.6519016114,0.93095862865448,0.6108652353286743,-0.05742133408784866
1776037943184108000,-1522130.6418920897,0.8955284357070923,0.6035348773002625,-0.10995574295520782
1776037943194148400,-1522130.6318515625,0.8576548099517822,0.588874101638794,-0.1661553531885147
1776037943204249600,-1522130.6217504882,0.8136724829673767,0.5803219676017761,-0.2015855312347412
1776037943224330200,-1522130.6016696778,0.7195992469787598,0.5974262356758118,-0.14905111491680145
1776037943244471800,-1522130.5815280762,0.5937610268592834,0.5852088928222656,0.07330382615327835
1776037943254542600,-1522130.5714575194,0.5155702829360962,0.5534439086914062,0.24068090319633484
1776037943264613400,-1522130.5613867186,0.4544837474822998,0.5204572081565857,0.40683624148368835
1776037943274653700,-1522130.5513461914,0.3933972120285034,0.46792277693748474,0.5155702829360962
1776037943284755200,-1522130.541244873,0.32009339332580566,0.39706242084503174,0.5412266254425049
1776037943294826000,-1522130.5311740723,0.24678955972194672,0.32986724376678467,0.4813618063926697
1776037943304896800,-1522130.5211032715,0.17959438264369965,0.27122417092323303,0.3078760802745819
1776037943345149400,-1522130.480850586,-0.07819075137376785,-0.05253441259264946,-0.5277875661849976
1776037943365291000,-1522130.4607089844,-0.22968533635139465,-0.12217304855585098,-0.47769662737846375
1776037943375361800,-1522130.4506381836,-0.3237585723400116,-0.2076941877603531,-0.50335294008255
1776037943385432600,-1522130.4405673828,-0.43615779280662537,-0.2993239760398865,-0.5791002511978149
1776037943395473000,-1522130.4305270996,-0.5558874011039734,-0.3787364661693573,-0.6548475623130798
1776037943405543700,-1522130.4204562989,-0.6841690540313721,-0.43737950921058655,-0.6646214127540588
1776037943415584000,-1522130.4104160157,-0.8234463334083557,-0.4593706727027893,-0.5864306092262268
1776037943445674200,-1522130.3803256836,-1.2486085891723633,-0.34086281061172485,0.12095131725072861
1776037943455745000,-1522130.3702548828,-1.3561208248138428,-0.32498031854629517,0.4996877610683441
1776037943465815800,-1522130.360184082,-1.441641926765442,-0.3384193480014801,0.8552113175392151
1776037943475886600,-1522130.3501135253,-1.5137240886688232,-0.37140607833862305,1.1313223838806152
1776037943485896400,-1522130.3401035157,-1.5723671913146973,-0.40072759985923767,1.3390166759490967
1776037943495997700,-1522130.3300021973,-1.626123309135437,-0.43127086758613586,1.5051720142364502
1776037943506068500,-1522130.3199316405,-1.6713273525238037,-0.4715879559516907,1.6395623683929443
1776037943516170000,-1522130.3098300782,-1.712866187095642,-0.5192354321479797,1.7482963800430298
1776037943546321200,-1522130.279678955,-1.7983872890472412,-0.7122688889503479,1.665218710899353
1776037943556361500,-1522130.2696384278,-1.8106045722961426,-0.7929030656814575,1.519832730293274
1776037943566371300,-1522130.2596286621,-1.8252654075622559,-0.8637634515762329,1.351233959197998
1776037943576442000,-1522130.2495578614,-1.843591332435608,-0.9272934198379517,1.1643091440200806
1776037943586452000,-1522130.2395480957,-1.8545868396759033,-0.9908234477043152,0.9566149711608887
1776037943596492000,-1522130.2295080565,-1.863139033317566,-1.0506882667541504,0.7305948138237
1776037943606562800,-1522130.2194372558,-1.8790215253829956,-1.0958921909332275,0.5082398653030396
1776037943616664300,-1522130.2093356934,-1.901012659072876,-1.1301007270812988,0.3127630054950714
1776037943646876700,-1522130.179123291,-1.9425514936447144,-1.1520918607711792,-0.11972958594560623
1776037943656947500,-1522130.1690524903,-1.948660135269165,-1.1337659358978271,-0.2370157092809677
1776037943667018200,-1522130.1589816895,-1.947438359260559,-1.1093312501907349,-0.3274237811565399
1776037943677119500,-1522130.1488806151,-1.9449949264526367,-1.0714576244354248,-0.394618958234787
1776037943687190300,-1522130.1388098144,-1.938886284828186,-1.0201449394226074,-0.4495968222618103
1776037943697230600,-1522130.1287692871,-1.9266690015792847,-0.9627236127853394,-0.5094616413116455
1776037943707271000,-1522130.118729004,-1.909564733505249,-0.901637077331543,-0.5827654600143433
1776037943717341700,-1522130.1086582032,-1.8839083909988403,-0.8393288254737854,-0.6633996367454529
1776037943727412500,-1522130.0985874024,-1.8460347652435303,-0.7757988572120667,-0.7354817390441895
1776037943757655600,-1522130.0683444825,-1.6969836950302124,-0.5619960427284241,-0.8210029006004333
1776037943767726300,-1522130.0582736817,-1.6371188163757324,-0.4740314185619354,-0.8063421249389648
1776037943777797000,-1522130.048202881,-1.5650367736816406,-0.375071257352829,-0.7721336483955383
1776037943787868000,-1522130.03813208,-1.470963478088379,-0.2687807083129883,-0.7232644557952881
1776037943807979000,-1522130.0180209961,-1.214400053024292,-0.051312681287527084,-0.618195652961731
1776037943818080300,-1522130.0079196778,-1.056796908378601,0.039095375686883926,-0.5534439086914062
1776037943828151000,-1522129.997848877,-0.8784242272377014,0.11484266817569733,-0.475253164768219
1776037943868434200,-1522129.9575659179,-0.08552113175392151,0.21991148591041565,-0.3604104816913605
1776037943878505000,-1522129.947495117,0.10751228034496307,0.19792033731937408,-0.3677408695220947
1776037943888545300,-1522129.9374548339,0.28955012559890747,0.18081611394882202,-0.35185837745666504
1776037943898616000,-1522129.927384033,0.4789183437824249,0.19425514340400696,-0.3274237811565399
1776037943908686800,-1522129.9173132323,0.66584312915802,0.2321287989616394,-0.31520646810531616
1776037943918758000,-1522129.9072421875,0.8429940342903137,0.26633724570274353,-0.32009339332580566
1776037943928798000,-1522129.8972021483,1.0384708642959595,0.2822197377681732,-0.3384193480014801
1776037943938868700,-1522129.8871313476,1.2657127380371094,0.27611109614372253,-0.3530801236629486
1776037943979182600,-1522129.8468173828,2.2540926933288574,0.24923302233219147,-0.28466320037841797
1776037943999324200,-1522129.8266757813,2.6707029342651367,0.23579397797584534,-0.1563815027475357
1776037944009364500,-1522129.816635498,2.8075366020202637,0.2480112910270691,-0.06352998316287994
1776037944019435300,-1522129.8065646973,2.883283853530884,0.27122417092323303,0.08796459436416626
1776037944029506000,-1522129.7964938965,2.8991663455963135,0.3029891550540924,0.29077184200286865
1776037944039607300,-1522129.7863928222,2.8454103469848633,0.3530801236629486,0.5143485069274902
1776037944059748900,-1522129.7662512206,2.5949554443359375,0.42271876335144043,0.8979719281196594
1776037944079921200,-1522129.7460788575,2.2492058277130127,0.3933972120285034,1.1814134120941162
1776037944089992000,-1522129.7360080567,2.0586159229278564,0.3640756905078888,1.1887437105178833
1776037944100062700,-1522129.725937256,1.8790215253829956,0.32498031854629517,1.0433578491210938
1776037944110133500,-1522129.715866455,1.712866187095642,0.29077184200286865,0.7721336483955383
1776037944120234800,-1522129.7057651368,1.5650367736816406,0.26511552929878235,0.4105014503002167
1776037944130244600,-1522129.6957553711,1.4257594347000122,0.2382374405860901,-0.028099801391363144
1776037944140315400,-1522129.6856845703,1.3145819902420044,0.18936823308467865,-0.4605923891067505
1776037944150386200,-1522129.6756137696,1.2388347387313843,0.13439035415649414,-0.8295549750328064
1776037944200709600,-1522129.6252902832,1.0030407905578613,0.004886921960860491,-1.55892813205719
1776037944210719500,-1522129.6152805176,0.9773843884468079,0.021991148591041565,-1.5112806558609009
1776037944220820700,-1522129.6051791993,0.9773843884468079,0.021991148591041565,-1.5112806558609009
1776037944240871000,-1522129.5851291504,0.9321803450584412,0.09773843735456467,-1.2681562900543213
1776037944250880500,-1522129.5751193848,0.9175195693969727,0.17837265133857727,-0.8869763612747192
1776037944260982000,-1522129.5650180664,0.9175195693969727,0.17837265133857727,-0.8869763612747192
1776037944291194400,-1522129.534805664,0.9260717034339905,0.2724458873271942,-0.33108896017074585
1776037944301265200,-1522129.5247348633,0.9321803450584412,0.2981022298336029,-0.16737708449363708
1776037944311336000,-1522129.5146640625,0.9334021210670471,0.3237585723400116,-0.019547687843441963
1776037944321406700,-1522129.5045932618,0.9236282706260681,0.3494149148464203,0.09529497474431992
1776037944331477500,-1522129.494522461,0.901637077331543,0.3738495409488678,0.18081611394882202
1776037944341548300,-1522129.4844516602,0.8784242272377014,0.39706242084503174,0.24556782841682434
1776037944351619000,-1522129.4743808594,0.8478809595108032,0.41661009192466736,0.2919935882091522
1776037944361659400,-1522129.4643405762,0.8087855577468872,0.43615779280662537,0.32009339332580566
1776037944391749600,-1522129.4342504882,0.5937610268592834,0.46547931432724,0.3029891550540924
1776037944411891200,-1522129.4141088866,0.4141666293144226,0.455705463886261,0.2321287989616394
1776037944432063500,-1522129.3939365235,0.2064724564552307,0.39095374941825867,0.09773843735456467
1776037944442134300,-1522129.3838657227,0.09407325088977814,0.3591887652873993,-0.019547687843441963
1776037944452113400,-1522129.3738864746,0.010995574295520782,0.3677408695220947,-0.1514945775270462
1776037944462215000,-1522129.3637851563,-0.045204028487205505,0.3799581825733185,-0.304210901260376
1776037944492335600,-1522129.3336643067,-0.22602014243602753,0.3787364661693573,-0.46792277693748474
1776037944502406400,-1522129.323593506,-0.2871066629886627,0.37629300355911255,-0.3640756905078888
1776037944512477200,-1522129.313522705,-0.3274237811565399,0.3738495409488678,-0.24434609711170197
1776037944522517500,-1522129.303482422,-0.3628539443016052,0.3543018400669098,-0.16859880089759827
1776037944532557800,-1522129.2934421387,-0.4031710624694824,0.31520646810531616,-0.15515977144241333
1776037944542659000,-1522129.2833408203,-0.4447098970413208,0.26633724570274353,-0.19425514340400696
1776037944552669000,-1522129.2733310547,-0.46670106053352356,0.22602014243602753,-0.2431243658065796
1776037944562770200,-1522129.2632297364,-0.4801400899887085,0.18936823308467865,-0.2871066629886627
1776037944592982500,-1522129.233017578,-0.5705481171607971,0.16249015927314758,-0.24190263450145721
1776037944613002200,-1522129.2129978028,-0.6389650702476501,0.06963863968849182,0.11850785464048386
1776037944623103500,-1522129.2028964844,-0.6866125464439392,0.0403171069920063,0.3885102868080139
1776037944633143800,-1522129.1928562012,-0.7464773058891296,-0.009773843921720982,0.6633996367454529
1776037944643184000,-1522129.182815918,-0.8210029006004333,-0.08307767659425735,0.9175195693969727
1776037944653193700,-1522129.1728061524,-0.901637077331543,-0.14049901068210602,1.1838568449020386
1776037944663295200,-1522129.162704834,-0.9920451641082764,-0.17837265133857727,1.518610954284668
1776037944673366000,-1522129.1526340332,-1.0958921909332275,-0.20402899384498596,2.0060815811157227
1776037944683467300,-1522129.1425327149,-1.1728612184524536,-0.22113321721553802,2.6193902492523193
1776037944713679600,-1522129.1123203125,-1.253495454788208,-0.2590068578720093,4.13067102432251
1776037944723750400,-1522129.1022495118,-1.2705997228622437,-0.3090978264808655,4.206418037414551
1776037944733821200,-1522129.092178711,-1.2803735733032227,-0.3836233615875244,4.118453502655029
1776037944743892000,-1522129.0821079102,-1.2705997228622437,-0.46792277693748474,3.9657371044158936
1776037944753962800,-1522129.0720373534,-1.2583824396133423,-0.5583308339118958,3.784921169281006
1776037944764064300,-1522129.061935791,-1.2681562900543213,-0.6511823534965515,3.55645751953125
1776037944774104600,-1522129.0518955078,-1.281595230102539,-0.7428121566772461,3.271794319152832
1776037944794215400,-1522129.0317846679,-1.284038782119751,-0.9150761365890503,2.585181713104248
1776037944814387700,-1522129.0116123047,-1.2986994981765747,-1.0812314748764038,1.7531832456588745
1776037944824458500,-1522129.001541504,-1.3158037662506104,-1.156978726387024,1.3463469743728638
1776037944834468000,-1522128.9915319823,-1.3426817655563354,-1.2131783962249756,0.9639453291893005
1776037944844569600,-1522128.98143042,-1.3756685256958008,-1.253495454788208,0.588874101638794
1776037944854640400,-1522128.9713596192,-1.4025466442108154,-1.2852604389190674,0.20402899384498596
1776037944864741600,-1522128.9612583008,-1.4282029867172241,-1.310916781425476,-0.1869247704744339
1776037944874782000,-1522128.9512180176,-1.451415777206421,-1.3255776166915894,-0.5534439086914062
1776037944905024800,-1522128.9209753417,-1.500285029411316,-1.292590856552124,-1.207069754600525
1776037944925136000,-1522128.9008640137,-1.49906325340271,-1.2131783962249756,-1.1814134120941162
1776037944935206700,-1522128.890793457,-1.470963478088379,-1.1679743528366089,-1.0128145217895508
1776037944945308200,-1522128.8806918946,-1.4257594347000122,-1.1239920854568481,-0.7684684991836548
1776037944955287300,-1522128.8707126465,-1.3768903017044067,-1.0910053253173828,-0.5082398653030396
1776037944965388500,-1522128.8606115722,-1.3194689750671387,-1.0494664907455444,-0.2871066629886627
1776037944975459300,-1522128.8505407714,-1.2559388875961304,-1.0005972385406494,-0.1417207419872284
1776037944985560800,-1522128.840439209,-1.186300277709961,-0.9517280459403992,-0.0806342139840126
1776037945005702400,-1522128.8202976075,-1.0323622226715088,-0.8197811841964722,-0.11972958594560623
1776037945015712000,-1522128.8102880858,-0.9431759119033813,-0.7293730974197388,-0.18936823308467865
1776037945025783000,-1522128.800217041,-0.8429940342903137,-0.6230825781822205,-0.2785545587539673
1776037945035792600,-1522128.7902072754,-0.7281513810157776,-0.504574716091156,-0.37629300355911255
1776037945045894000,-1522128.780106201,-0.6010913848876953,-0.38117989897727966,-0.47769662737846375
1776037945055964700,-1522128.7700354003,-0.46792277693748474,-0.2687807083129883,-0.5791002511978149
1776037945066035700,-1522128.7599643555,-0.3237585723400116,-0.16737708449363708,-0.6719517707824707
1776037945076106500,-1522128.7498935547,-0.16737708449363708,-0.07208210229873657,-0.7672467231750488
1776037945086207700,-1522128.7397922364,-0.009773843921720982,0.018325956538319588,-0.8674286603927612
1776037945116450600,-1522128.7095495604,0.49724429845809937,0.30543261766433716,-1.0897835493087769
1776037945126521300,-1522128.6994787597,0.6609562039375305,0.37629300355911255,-1.0946705341339111
1776037945136592100,-1522128.6894079589,0.8356636762619019,0.4288274049758911,-1.0629055500030518
1776037945146663200,-1522128.679336914,1.0531316995620728,0.49235737323760986,-0.9993755221366882
1776037945156703200,-1522128.669296875,1.2608258724212646,0.5632177591323853,-0.9285151958465576
1776037945166804700,-1522128.6591953125,1.4672982692718506,0.6597344875335693,-0.8515461683273315
1776037945176844800,-1522128.6491552733,1.6847662925720215,0.8026769161224365,-0.7660250067710876
1776037945186915800,-1522128.6390842285,1.910786509513855,0.9456194043159485,-0.6328563690185547
1776037945217097700,-1522128.6089023438,2.448347806930542,1.0030407905578613,0.08552113175392151
1776037945227199000,-1522128.5988010254,2.6193902492523193,1.0238101482391357,0.2724458873271942
1776037945237239300,-1522128.5887607422,2.6975808143615723,1.0739010572433472,0.3384193480014801
1776037945247340500,-1522128.5786594239,2.687807083129883,1.1520918607711792,0.3640756905078888
1776037945257411300,-1522128.568588623,2.632829189300537,1.2327260971069336,0.45204028487205505
1776037945267512600,-1522128.5584873047,2.5143213272094727,1.291369080543518,0.6340781450271606
1776037945277583400,-1522128.548416748,2.3273966312408447,1.312138557434082,0.8820894360542297
1776037945287684900,-1522128.5383151856,2.090380907058716,1.2864822149276733,1.1301007270812988
1776037945317897200,-1522128.5081027832,1.4123204946517944,1.007927656173706,1.5076154470443726
1776037945327998500,-1522128.4980014649,1.2192870378494263,0.8991936445236206,1.3915510177612305
1776037945338069200,-1522128.487930664,1.076344609260559,0.8026769161224365,1.1606439352035522
1776037945348170500,-1522128.4778295897,0.9847147464752197,0.7195992469787598,0.8356636762619019
1776037945358210800,-1522128.4677890625,0.9297369122505188,0.6499606370925903,0.4337143301963806
1776037945368312300,-1522128.4576877442,0.9126327037811279,0.5913175344467163,-0.013439035043120384
1776037945378383000,-1522128.4476169434,0.9236282706260681,0.5473352670669556,-0.4801400899887085
1776037945388484400,-1522128.437515625,0.9248499870300293,0.4605923891067505,-0.9749409556388855
1776037945398555100,-1522128.4274448243,0.9517280459403992,0.42638394236564636,-1.2681562900543213
1776037945438868700,-1522128.3871313476,0.740368664264679,0.04886921867728233,-3.006678819656372
1776037945448939800,-1522128.3770603028,0.7232644557952881,0.013439035043120384,-1.7556266784667969
1776037945458949400,-1522128.3670505371,0.8356636762619019,0.14294247329235077,-0.39095374941825867
1776037945469020200,-1522128.3569797364,0.8332201838493347,0.3384193480014801,0.43249258399009705
1776037945479091000,-1522128.3469089356,0.7476990818977356,0.513126790523529,0.5693264007568359
1776037945489161700,-1522128.3368383788,0.7061602473258972,0.6438519954681396,0.2675589919090271
1776037945499232500,-1522128.326767578,0.6890559792518616,0.7147123217582703,-0.1258382350206375
1776037945539485200,-1522128.2865148925,0.6597344875335693,0.978606104850769,-0.1612684279680252
1776037945549586700,-1522128.27641333,0.6414085030555725,1.0225883722305298,-0.18081611394882202
1776037945559627000,-1522128.266373047,0.608421802520752,1.0323622226715088,-0.23457226157188416
1776037945569728300,-1522128.2562717285,0.5803219676017761,1.018923282623291,-0.27611109614372253
1776037945579799000,-1522128.2462009278,0.5510004758834839,1.0018190145492554,-0.28588494658470154
1776037945589900300,-1522128.2360996094,0.5082398653030396,0.978606104850769,-0.26145032048225403
1776037945599940600,-1522128.2260593262,0.4495968222618103,0.9443976879119873,-0.1966986060142517
1776037945610041900,-1522128.2159582519,0.39095374941825867,0.9065240025520325,-0.09651670604944229
1776037945640193300,-1522128.1858066407,0.2431243658065796,0.7855727076530457,0.25534167885780334
1776037945670436400,-1522128.1555637207,0.051312681287527084,0.6499606370925903,0.5302310585975647
1776037945680507100,-1522128.14549292,-0.0012217304902151227,0.6108652353286743,0.607200026512146
1776037945690608400,-1522128.1353916016,-0.04153883829712868,0.5412266254425049,0.6377432942390442
1776037945700679200,-1522128.1253208008,-0.0806342139840126,0.4141666293144226,0.6133087277412415
1776037945710780400,-1522128.1152194825,-0.12828169763088226,0.27977627515792847,0.5461135506629944
1776037945720820700,-1522128.1051791993,-0.19792033731937408,0.14782938361167908,0.4642575979232788
1776037945740962300,-1522128.0850375977,-0.32986724376678467,-0.06841690838336945,0.2577851414680481
1776037945751033000,-1522128.074966797,-0.38240164518356323,-0.18936823308467865,0.0708603709936142
1776037945761104000,-1522128.0648962401,-0.4386012554168701,-0.3127630054950714,-0.1722639948129654
1776037945771174700,-1522128.0548254394,-0.4386012554168701,-0.3127630054950714,-0.1722639948129654
1776037945781276200,-1522128.044723877,-0.49724429845809937,-0.42149701714515686,-0.4251621961593628
1776037945791316500,-1522128.0346835938,-0.5473352670669556,-0.5167919993400574,-0.6316346526145935
1776037945801387300,-1522128.024612793,-0.5962044596672058,-0.5729916095733643,-0.7513642311096191
1776037945811458000,-1522128.0145419922,-0.6524040699005127,-0.6010913848876953,-0.7733554244041443
1776037945821528800,-1522128.0044711914,-0.7061602473258972,-0.6108652353286743,-0.7171558141708374
1776037945871852300,-1522127.954147705,-0.9627236127853394,-0.7562511563301086,0.0806342139840126
1776037945881923000,-1522127.9440769043,-0.9993755221366882,-0.7574729323387146,0.2981022298336029
1776037945891963400,-1522127.9340366211,-1.027475357055664,-0.7305948138237,0.5510004758834839
1776037945902034200,-1522127.9239658203,-1.0433578491210938,-0.6914994716644287,0.8429940342903137
1776037945912105000,-1522127.9138950196,-1.047023057937622,-0.6695083379745483,1.1520918607711792
1776037945922175700,-1522127.9038242188,-1.0396926403045654,-0.6682865619659424,1.4269812107086182
1776037945962336800,-1522127.86366333,-1.0067058801651,-0.9004153609275818,1.8057177066802979
1776037945972377000,-1522127.8536228028,-1.0054842233657837,-1.009149432182312,1.8106045722961426
1776037945982447900,-1522127.843552246,-1.0238101482391357,-1.1056660413742065,1.742187738418579
1776037945992518700,-1522127.8334814452,-1.0677924156188965,-1.187522053718567,1.5796974897384644
1776037946002559000,-1522127.823440918,-1.1264355182647705,-1.2583824396133423,1.33168625831604
1776037946022700500,-1522127.8032995604,-1.2852604389190674,-1.4001030921936035,0.6719517707824707
1776037946042781200,-1522127.78321875,-1.4856243133544922,-1.4379768371582031,0.02932153269648552
1776037946062922800,-1522127.7630771485,-1.7043139934539795,-1.3744467496871948,-0.4996877610683441
1776037946072993500,-1522127.7530063477,-1.793500304222107,-1.33168625831604,-0.6927211880683899
1776037946083064300,-1522127.742935791,-1.860695481300354,-1.2889256477355957,-0.8234463334083557
1776037946093165800,-1522127.7328342285,-1.9168951511383057,-1.246165156364441,-0.9004153609275818
1776037946103236600,-1522127.7227634278,-1.9608774185180664,-1.1948524713516235,-0.9260717034339905
1776037946113337900,-1522127.7126621094,-1.9804251194000244,-1.1459832191467285,-0.9162978529930115
1776037946123408600,-1522127.7025913086,-1.9828685522079468,-1.1093312501907349,-0.8833111524581909
1776037946133510000,-1522127.6924899903,-1.976759910583496,-1.0739010572433472,-0.827111542224884
1776037946153621000,-1522127.6723789063,-1.930334210395813,-1.0018190145492554,-0.7367035150527954
1776037946204005600,-1522127.6219943848,-1.6688838005065918,-0.7244861721992493,-0.8356636762619019
1776037946214046000,-1522127.6119541016,-1.6016886234283447,-0.6511823534965515,-0.9321803450584412
1776037946224086000,-1522127.6019140624,-1.528384804725647,-0.5815436840057373,-1.0421360731124878
1776037946234157000,-1522127.5918430176,-1.4379768371582031,-0.5155702829360962,-1.1337659358978271
1776037946264308200,-1522127.5616918944,-1.1203268766403198,-0.2919935882091522,-1.0800096988677979
1776037946274287600,-1522127.5517124024,-0.9822713136672974,-0.20036379992961884,-0.978606104850769
1776037946284358400,-1522127.5416416016,-0.8319984674453735,-0.12217304855585098,-0.8637634515762329
1776037946294398700,-1522127.5316013184,-0.656069278717041,-0.06475171446800232,-0.7415903806686401
1776037946304408300,-1522127.5215917968,-0.46792277693748474,-0.025656340643763542,-0.6389650702476501
1776037946314448600,-1522127.5115512696,-0.2638937830924988,0.028099801391363144,-0.5473352670669556
1776037946324550000,-1522127.5014501952,-0.042760565876960754,0.10018189996480942,-0.48747047781944275
1776037946334621000,-1522127.4913791504,0.18570303916931152,0.17837265133857727,-0.475253164768219
1776037946364802800,-1522127.4611972657,0.9040805697441101,0.45326200127601624,-0.294437050819397
1776037946374904000,-1522127.4510959473,1.1056660413742065,0.475253164768219,-0.12095131725072861
1776037946384974800,-1522127.4410251465,1.3060299158096313,0.485027015209198,0.05619960278272629
1776037946395015200,-1522127.4309848633,1.5222761631011963,0.5009095072746277,0.19547687470912933
1776037946405116400,-1522127.420883545,1.7360789775848389,0.485027015209198,0.2981022298336029
1776037946415187200,-1522127.4108127442,1.9327776432037354,0.4349360466003418,0.3885102868080139
1776037946425258000,-1522127.4007419434,2.1233675479888916,0.39584067463874817,0.4337143301963806
1776037946435267800,-1522127.3907321778,2.280970811843872,0.35063666105270386,0.39706242084503174
1776037946445369000,-1522127.3806308594,2.403143882751465,0.2822197377681732,0.2871066629886627
1776037946455409400,-1522127.3705905762,2.495995283126831,0.20525072515010834,0.09407325088977814
1776037946475490000,-1522127.3505100098,2.5118777751922607,0.15760323405265808,-0.28588494658470154
1776037946485591300,-1522127.3404086914,2.461786985397339,0.19425514340400696,-0.3176499307155609
1776037946495662000,-1522127.3303378907,2.3738224506378174,0.2541199326515198,-0.21013765037059784
1776037946505732900,-1522127.3202670899,2.2406537532806396,0.2871066629886627,-0.00366519158706069
1776037946515803600,-1522127.310196289,2.0818288326263428,0.2638937830924988,0.22479841113090515
1776037946525905000,-1522127.3000952147,1.9413297176361084,0.2431243658065796,0.41661009192466736
1776037946535975700,-1522127.290024414,1.8264870643615723,0.24923302233219147,0.5265658497810364
1776037946545985500,-1522127.2800144043,1.7018705606460571,0.251676470041275,0.5571091175079346
1776037946556056300,-1522127.2699436035,1.5528194904327393,0.2431243658065796,0.5534439086914062
1776037946586177300,-1522127.239822754,1.1899654865264893,0.2687807083129883,0.37140607833862305
1776037946606349300,-1522127.2196506348,1.0458012819290161,0.31154128909111023,0.009773843921720982
1776037946616420000,-1522127.209579834,1.0250319242477417,0.3176499307155609,-0.16493362188339233
1776037946626491000,-1522127.1995090332,1.0067058801651,0.3017674386501312,-0.3139847218990326
1776037946636561700,-1522127.1894382325,0.9993755221366882,0.29565876722335815,-0.43615779280662537
1776037946646632400,-1522127.1793674317,1.0054842233657837,0.32009339332580566,-0.5497786998748779
1776037946656703200,-1522127.169296875,1.0225883722305298,0.3701843321323395,-0.6328563690185547
1776037946696986600,-1522127.1290134278,1.2412781715393066,0.5106833577156067,-0.6291912198066711
1776037946707057400,-1522127.118942627,1.301142930984497,0.5448917746543884,-0.5461135506629944
1776037946717128200,-1522127.1088718262,1.361007809638977,0.5705481171607971,-0.4251621961593628
1776037946727199000,-1522127.0988010254,1.4062118530273438,0.6023131608963013,-0.2822197377681732
1776037946737269800,-1522127.0887302246,1.4379768371582031,0.6291912198066711,-0.14049901068210602
1776037946747340500,-1522127.0786594239,1.4538593292236328,0.6450737118721008,-0.02932153269648552
1776037946757441800,-1522127.0685581055,1.4453071355819702,0.6487388610839844,0.03787364438176155
1776037946777553000,-1522127.0484470215,1.3915510177612305,0.5803219676017761,0.0708603709936142
1776037946787654100,-1522127.0383459472,1.3451253175735474,0.5314527750015259,0.021991148591041565
1776037946797725000,-1522127.0282751464,1.291369080543518,0.48869219422340393,-0.06475171446800232
1776037946807765200,-1522127.0182348632,1.235169529914856,0.46792277693748474,-0.19547687470912933
1776037946817836000,-1522127.0081640624,1.1753047704696655,0.46670106053352356,-0.3591887652873993
1776037946827876400,-1522126.9981235352,1.1081095933914185,0.48258355259895325,-0.5229006409645081
1776037946837916700,-1522126.988083252,1.036027431488037,0.513126790523529,-0.6499606370925903
1776037946847957000,-1522126.9780429688,0.960280179977417,0.5461135506629944,-0.7073819637298584
1776037946858058200,-1522126.9679416504,0.8723155856132507,0.5705481171607971,-0.6927211880683899
1776037946868098600,-1522126.9579013672,0.7770205736160278,0.5742133259773254,-0.6035348773002625
1776037946888179200,-1522126.9378208008,0.5766568183898926,0.5204572081565857,-0.28466320037841797
1776037946908290300,-1522126.9177097168,0.30054569244384766,0.45692721009254456,0.019547687843441963
1776037946918391600,-1522126.9076083985,0.1918116807937622,0.43615779280662537,0.12339477986097336
1776037946928401400,-1522126.8975986328,0.09285151958465576,0.3982841372489929,0.1661553531885147
1776037946938502700,-1522126.8874973145,-0.01710422709584236,0.35185837745666504,0.13439035415649414
1776037946948573400,-1522126.8774265137,-0.1258382350206375,0.3029891550540924,0.07330382615327835
1776037946958613800,-1522126.8673862305,-0.22479841113090515,0.2431243658065796,0.030543262138962746
1776037946968684500,-1522126.8573154297,-0.32131510972976685,0.16249015927314758,0.015882495790719986
1776037947008998100,-1522126.817001953,-0.6768386960029602,-0.1014036312699318,-0.06963863968849182
1776037947019099600,-1522126.8069003907,-0.7354817390441895,-0.18448130786418915,-0.14905111491680145
1776037947029170400,-1522126.7968295899,-0.797789990901947,-0.27611109614372253,-0.21380282938480377
1776037947039241200,-1522126.786758789,-0.8637634515762329,-0.3604104816913605,-0.22602014243602753
1776037947049312000,-1522126.7766879883,-0.9321803450584412,-0.4434881806373596,-0.1514945775270462
1776037947059413200,-1522126.76658667,-1.017701506614685,-0.504574716091156,0.015882495790719986
1776037947069484000,-1522126.7565158692,-1.1227703094482422,-0.5216789245605469,0.26022860407829285
1776037947079554800,-1522126.7464450684,-1.244943380355835,-0.5021312236785889,0.5473352670669556
1776037947109767200,-1522126.71623291,-1.5540411472320557,-0.3982841372489929,1.567480206489563
1776037947119868700,-1522126.7061313477,-1.6090190410614014,-0.4092797040939331,1.948660135269165
1776037947129939500,-1522126.696060547,-1.655444860458374,-0.455705463886261,2.30051851272583
1776037947140040700,-1522126.6859592285,-1.6823228597640991,-0.49846604466438293,2.598620653152466
1776037947150111500,-1522126.6758884278,-1.6920967102050781,-0.5558874011039734,2.8380799293518066
1776037947160212700,-1522126.6657873534,-1.6957619190216064,-0.6304129362106323,3.0225613117218018
1776037947170222600,-1522126.6557773438,-1.6920967102050781,-0.7183775305747986,3.152064561843872
1776037947200435000,-1522126.6255649414,-1.6920967102050781,-1.017701506614685,3.132516860961914
1776037947210475300,-1522126.6155246582,-1.6859880685806274,-1.1166616678237915,2.9517009258270264
1776037947220546000,-1522126.6054538575,-1.6798794269561768,-1.2131783962249756,2.6902506351470947
1776037947230616800,-1522126.5953830567,-1.6798794269561768,-1.2131783962249756,2.6902506351470947
1776037947240687600,-1522126.5853125,-1.6847662925720215,-1.3768903017044067,2.009746551513672
1776037947250758400,-1522126.575241699,-1.6847662925720215,-1.3768903017044067,2.009746551513672
1776037947260860000,-1522126.5651401368,-1.6945401430130005,-1.4367550611495972,1.6371188163757324
1776037947270900200,-1522126.5550998535,-1.7336355447769165,-1.5125023126602173,0.93095862865448
1776037947280940300,-1522126.5450598144,-1.7336355447769165,-1.5125023126602173,0.93095862865448
1776037947311153000,-1522126.514847168,-1.7849482297897339,-1.5650367736816406,0.15393804013729095
1776037947331233300,-1522126.4947666016,-1.7983872890472412,-1.5540411472320557,-0.21624629199504852
1776037947341304000,-1522126.4846960448,-1.8020524978637695,-1.5418238639831543,-0.39095374941825867
1776037947351374800,-1522126.474625244,-1.8020524978637695,-1.5161675214767456,-0.5619960427284241
1776037947361445600,-1522126.4645544433,-1.7959438562393188,-1.4782938957214355,-0.7257078886032104
1776037947371516700,-1522126.4544833985,-1.7861700057983398,-1.4245377779006958,-0.8772025108337402
1776037947381618000,-1522126.44438208,-1.7690657377243042,-1.359786033630371,-1.018923282623291
1776037947401667800,-1522126.4243322753,-1.7043139934539795,-1.2327260971069336,-1.2901474237442017
1776037947411647200,-1522126.4143527832,-1.663996934890747,-1.1679743528366089,-1.4159855842590332
1776037947421748500,-1522126.4042514649,-1.6090190410614014,-1.0812314748764038,-1.5161675214767456
1776037947431758300,-1522126.3942416993,-1.5320500135421753,-0.970054030418396,-1.5943583250045776
1776037947441798700,-1522126.384201416,-1.4453071355819702,-0.8503243923187256,-1.645671010017395
1776037947451838700,-1522126.3741613769,-1.3524556159973145,-0.7293730974197388,-1.6566665172576904
1776037947461940200,-1522126.3640598145,-1.2486085891723633,-0.6133087277412415,-1.607797384262085
1776037947471980500,-1522126.3540195313,-1.1423180103302002,-0.5204572081565857,-1.4978415966033936
1776037947482081800,-1522126.343918213,-1.036027431488037,-0.44593164324760437,-1.3475687503814697
1776037947502193000,-1522126.323807129,-0.7770205736160278,-0.28588494658470154,-1.0311405658721924
1776037947522304000,-1522126.303696045,-0.46670106053352356,-0.14782938361167908,-0.8148942589759827
1776037947542476000,-1522126.2835239258,-0.15882496535778046,-0.0354301854968071,-0.5815436840057373
1776037947552546800,-1522126.273453125,0.0012217304902151227,0.0354301854968071,-0.42760565876960754
1776037947562617600,-1522126.2633823243,0.16249015927314758,0.11850785464048386,-0.2773328125476837
1776037947572597000,-1522126.2534030762,0.35552358627319336,0.22968533635139465,-0.13805554807186127
1776037947582667800,-1522126.2433322754,0.5668829679489136,0.34574973583221436,0
1776037947602779000,-1522126.2232211914,0.9993755221366882,0.5876523852348328,0.27611109614372253
1776037947622920400,-1522126.2030795899,1.4941763877868652,0.7855727076530457,0.47280970215797424
1776037947632991200,-1522126.193008789,1.7238616943359375,0.8356636762619019,0.5216789245605469
1776037947643062000,-1522126.1829379883,1.9339994192123413,0.8454375267028809,0.5876523852348328
1776037947653132800,-1522126.1728671875,2.1148154735565186,0.8515461683273315,0.6805039048194885
1776037947663203600,-1522126.1627963868,2.252871036529541,0.8820894360542297,0.7660250067710876
1776037947673274400,-1522126.152725586,2.3457224369049072,0.9236282706260681,0.8148942589759827
1776037947683375600,-1522126.1426242676,2.3860397338867188,0.9724974632263184,0.8185594081878662
1776037947693355000,-1522126.1326450196,2.370157241821289,0.9834930300712585,0.8014551997184753
1776037947703456300,-1522126.1225437012,2.2870795726776123,0.8894197940826416,0.8161159753799438
1776037947723597800,-1522126.1024020996,2.0561723709106445,0.608421802520752,0.9773843884468079
1776037947733607700,-1522126.092392334,1.95965576171875,0.46303585171699524,0.9566149711608887
1776037947743678500,-1522126.0823215332,1.8692476749420166,0.33108896017074585,0.8026769161224365
1776037947753749200,-1522126.0722507325,1.7910568714141846,0.24923302233219147,0.4960225820541382
1776037947763820000,-1522126.0621799317,1.7263051271438599,0.19425514340400696,0.05375614017248154
1776037947773890800,-1522126.052109131,1.6688838005065918,0.1563815027475357,-0.46181413531303406
1776037947783961600,-1522126.04203833,1.6212363243103027,0.12950342893600464,-0.970054030418396
1776037947794062800,-1522126.0319372558,1.5723671913146973,0.12217304855585098,-1.4135421514511108
1776037947804133600,-1522126.021866455,1.518610954284668,0.11972958594560623,-1.7983872890472412
1776037947844386300,-1522125.9816137694,1.3622294664382935,0.09773843735456467,-2.730567693710327
1776037947854457300,-1522125.9715427246,1.3658946752548218,0.07330382615327835,-2.774549961090088
1776037947864497400,-1522125.9615026854,1.379333734512329,0.06352998316287994,-2.7452285289764404
1776037947874507300,-1522125.9514926758,1.3671164512634277,0.06108652427792549,-2.669481039047241
1776037947884608500,-1522125.9413916015,1.3451253175735474,0.06841690838336945,-2.548529863357544
1776037947894679300,-1522125.9313208007,1.3341296911239624,0.09040805697441101,-2.3774874210357666
1776037947904719600,-1522125.9212802735,1.3353514671325684,0.13072516024112701,-2.1478021144866943
1776037947914760000,-1522125.9112399903,1.3426817655563354,0.19058994948863983,-1.8277088403701782
1776037947934932000,-1522125.8910681151,1.3939944505691528,0.2883284091949463,-0.8906415104866028
1776037947945033500,-1522125.8809665528,1.4294246435165405,0.32986724376678467,-0.3335324227809906
1776037947955043000,-1522125.8709570311,1.4672982692718506,0.3787364661693573,0.18448130786418915
1776037947965144600,-1522125.8608554688,1.500285029411316,0.4251621961593628,0.5998696684837341
1776037947975154200,-1522125.8508457032,1.5112806558609009,0.4740314185619354,0.8662069439888
1776037947985255700,-1522125.8407443848,1.49906325340271,0.5290092825889587,0.9896016716957092
1776037947995265300,-1522125.8307346192,1.4685200452804565,0.5852088928222656,1.0213667154312134
1776037948025508400,-1522125.8004916993,1.254717230796814,0.7000515460968018,0.9431759119033813
1776037948035518000,-1522125.7904819336,1.1386528015136719,0.6609562039375305,0.8344419002532959
1776037948045588700,-1522125.7804113769,1.0140362977981567,0.5913175344467163,0.656069278717041
1776037948055629000,-1522125.7703708496,0.9224064946174622,0.5461135506629944,0.41172316670417786
1776037948065699800,-1522125.7603000489,0.8539896011352539,0.5241223573684692,0.11362093687057495
1776037948075740200,-1522125.7502597657,0.7965682744979858,0.5192354321479797,-0.20036379992961884
1776037948085811000,-1522125.7401889649,0.7611380815505981,0.5167919993400574,-0.475253164768219
1776037948095881700,-1522125.730118164,0.7428121566772461,0.4960225820541382,-0.6768386960029602
1776037948105983200,-1522125.7200168457,0.7293730974197388,0.46547931432724,-0.7770205736160278
1776037948126094000,-1522125.6999060058,0.6817256212234497,0.43249258399009705,-0.7098253965377808
1776037948146236000,-1522125.6797641602,0.5644394755363464,0.42638394236564636,-0.3384193480014801
1776037948156245500,-1522125.6697543946,0.4899139404296875,0.40194934606552124,-0.14416420459747314
1776037948166316300,-1522125.6596835938,0.4153883755207062,0.33719760179519653,0.03420845419168472
1776037948176387000,-1522125.649613037,0.32131510972976685,0.28955012559890747,0.17104226350784302
1776037948196498200,-1522125.629501709,0.07452555745840073,0.19914206862449646,0.35185837745666504
1776037948216609300,-1522125.609390625,-0.2223549485206604,0.15271630883216858,0.45814892649650574
1776037948236750800,-1522125.5892492675,-0.5155702829360962,0.1111774742603302,0.44593164324760437
1776037948246821600,-1522125.5791784667,-0.6487388610839844,0.0354301854968071,0.3885102868080139
1776037948256892400,-1522125.569107666,-0.7843509912490845,-0.07330382615327835,0.32620203495025635
1776037948266994000,-1522125.5590061035,-0.9260717034339905,-0.18814650177955627,0.2785545587539673
1776037948276973000,-1522125.5490268555,-1.0739010572433472,-0.27611109614372253,0.2565633952617645
1776037948287074300,-1522125.5389257811,-1.235169529914856,-0.31520646810531616,0.26022860407829285
1776037948297145300,-1522125.5288547364,-1.4135421514511108,-0.31031954288482666,0.2871066629886627
1776037948307216100,-1522125.5187839356,-1.5906931161880493,-0.2785545587539673,0.35185837745666504
1776037948337428500,-1522125.4885715332,-1.9694294929504395,-0.28099802136421204,0.8784242272377014
1776037948347529700,-1522125.4784702149,-2.0586159229278564,-0.3029891550540924,1.1215485334396362
1776037948357539600,-1522125.4684604493,-2.1368067264556885,-0.3274237811565399,1.3573426008224487
1776037948367640800,-1522125.458359131,-2.1954495906829834,-0.3628539443016052,1.566258430480957
1776037948377711600,-1522125.44828833,-2.2345449924468994,-0.4153883755207062,1.7434093952178955
1776037948387782400,-1522125.4382175293,-2.2565362453460693,-0.4801400899887085,1.8875735998153687
1776037948397853200,-1522125.4281467285,-2.2602014541625977,-0.5510004758834839,1.9914207458496094
1776037948407924000,-1522125.4180759278,-2.250427484512329,-0.6230825781822205,2.0366246700286865
1776037948448207000,-1522125.3777929686,-2.1649065017700195,-0.8185594081878662,1.577254056930542
1776037948458278100,-1522125.3677219239,-2.1429152488708496,-0.8454375267028809,1.3829989433288574
1776037948478419700,-1522125.3475803223,-2.101376533508301,-0.9053022861480713,0.9517280459403992
1776037948488490500,-1522125.3375095215,-2.087937355041504,-0.9272934198379517,0.7086036801338196
1776037948498561300,-1522125.3274387207,-2.0671679973602295,-0.9334021210670471,0.43249258399009705
1776037948508632000,-1522125.31736792,-2.0500638484954834,-0.9358455538749695,0.11239920556545258
1776037948538844400,-1522125.2871555176,-1.9633208513259888,-0.9236282706260681,-0.740368664264679
1776037948548915200,-1522125.2770847168,-1.9364428520202637,-0.8906415104866028,-0.901637077331543
1776037948569026300,-1522125.2569736328,-1.86191725730896,-0.7965682744979858,-1.0005972385406494
1776037948579097000,-1522125.246902832,-1.8387043476104736,-0.740368664264679,-0.9871582388877869
1776037948589198300,-1522125.2368017577,-1.8106045722961426,-0.6817256212234497,-0.9395107626914978
1776037948599269000,-1522125.226730957,-1.7776178121566772,-0.6328563690185547,-0.8613200187683105
1776037948609340200,-1522125.2166599121,-1.7495180368423462,-0.5937610268592834,-0.7562511563301086
1776037948649592800,-1522125.1764072266,-1.5601497888565063,-0.4141666293144226,-0.2724458873271942
1776037948659663600,-1522125.1663364258,-1.480737328529358,-0.3481931984424591,-0.20036379992961884
1776037948669734400,-1522125.156265625,-1.3866641521453857,-0.2822197377681732,-0.15393804013729095
1776037948679774700,-1522125.1462253418,-1.281595230102539,-0.22602014243602753,-0.10384709388017654
1776037948689845500,-1522125.136154541,-1.281595230102539,-0.22602014243602753,-0.10384709388017654
1776037948699916300,-1522125.1260837403,-1.1520918607711792,-0.17592918872833252,-0.024434609338641167
1776037948709987000,-1522125.1160129395,-0.9859365224838257,-0.13439035415649414,0.0806342139840126
1776037948720057900,-1522125.1059421387,-0.7916813492774963,-0.10018189996480942,0.18081611394882202
1776037948740199400,-1522125.0858005371,-0.37262779474258423,-0.02321287989616394,0.2919935882091522
1776037948750270200,-1522125.0757297364,-0.16249015927314758,0.030543262138962746,0.3176499307155609
1776037948760310500,-1522125.0656894532,0.05375614017248154,0.08307767659425735,0.35063666105270386
1776037948770381300,-1522125.0556186524,0.2687807083129883,0.1258382350206375,0.38728857040405273
1776037948780421600,-1522125.0455783692,0.7147123217582703,0.24434609711170197,0.5070181488990784
1776037948790462000,-1522125.035538086,0.7147123217582703,0.24434609711170197,0.5070181488990784
1776037948800532700,-1522125.0254672852,0.9224064946174622,0.2773328125476837,0.618195652961731
1776037948810603500,-1522125.0153964844,1.1093312501907349,0.3188716471195221,0.7415903806686401
1776037948850886700,-1522124.9751132813,1.957212209701538,0.48258355259895325,1.1325441598892212
1776037948860957400,-1522124.9650424805,2.1587977409362793,0.513126790523529,1.1093312501907349
1776037948870997800,-1522124.9550021973,2.337170362472534,0.5375614166259766,0.998153805732727
1776037948881038000,-1522124.944961914,2.487443208694458,0.5485569834709167,0.8063421249389648
1776037948891108900,-1522124.9348911133,2.5973989963531494,0.5510004758834839,0.5778785347938538
1776037948901179600,-1522124.9248203125,2.6511552333831787,0.5522221922874451,0.3701843321323395
1776037948911220000,-1522124.9147800293,2.652376890182495,0.5729916095733643,0.2125810980796814
1776037948921260300,-1522124.9047397461,2.6035077571868896,0.608421802520752,0.08674286305904388
1776037948941401900,-1522124.8845981446,2.3383922576904297,0.6023131608963013,-0.08674286305904388
1776037948961543400,-1522124.864456543,1.9462167024612427,0.5632177591323853,0.03298672288656235
1776037948981593300,-1522124.8444067382,1.5259413719177246,0.5546656250953674,0.2015855312347412
1776037948991694800,-1522124.8343051758,1.3280210494995117,0.5705481171607971,0.2125810980796814
1776037949001704400,-1522124.8242956542,1.1520918607711792,0.5962044596672058,0.1869247704744339
1776037949011775200,-1522124.8142248534,1.0030407905578613,0.6316346526145935,0.14538592100143433
1776037949021815600,-1522124.8041843262,0.8796459436416626,0.6682865619659424,0.08307767659425735
1776037949031886300,-1522124.7941137694,0.7843509912490845,0.6988298296928406,0.00733038317412138
1776037949051997400,-1522124.7740024414,0.6768386960029602,0.7452555894851685,-0.1258382350206375
1776037949072108500,-1522124.7538913575,0.6218608021736145,0.7843509912490845,-0.24678955972194672
1776037949082148900,-1522124.7438510743,0.6120869517326355,0.8100073337554932,-0.3176499307155609
1776037949092189200,-1522124.733810791,0.6157521605491638,0.8332201838493347,-0.3885102868080139
1776037949102229500,-1522124.7237705078,0.6230825781822205,0.8552113175392151,-0.45326200127601624
1776037949112269800,-1522124.7137302246,0.6414085030555725,0.8723155856132507,-0.49235737323760986
1776037949122340600,-1522124.7036594239,0.6707300543785095,0.8833111524581909,-0.4960225820541382
1776037949162562800,-1522124.663437256,0.8576548099517822,0.846659243106842,-0.3433062732219696
1776037949172633600,-1522124.653366455,0.9053022861480713,0.8161159753799438,-0.28955012559890747
1776037949182704400,-1522124.6432956543,0.9456194043159485,0.7721336483955383,-0.22846360504627228
1776037949202815500,-1522124.6231845703,1.0005972385406494,0.6352998614311218,-0.16859880089759827
1776037949212886300,-1522124.6131137696,0.9993755221366882,0.4960225820541382,-0.21624629199504852
1776037949222926600,-1522124.6030734864,0.9944885969161987,0.32009339332580566,-0.30543261766433716
1776037949233027800,-1522124.592972168,1.009149432182312,0.1514945775270462,-0.4386012554168701
1776037949273311000,-1522124.5526889649,1.303586483001709,-0.20402899384498596,-1.9120081663131714
1776037949283381800,-1522124.542618164,1.370781660079956,-0.2626720666885376,-2.3909265995025635
1776037949293483000,-1522124.5325170897,1.4098769426345825,-0.30054569244384766,-2.726902484893799
1776037949303553800,-1522124.522446289,1.4257594347000122,-0.27488934993743896,-2.847853660583496
1776037949313624800,-1522124.5123752442,1.4086552858352661,-0.19914206862449646,-2.757445812225342
1776037949333735700,-1522124.4922644042,1.2596040964126587,0.009773843921720982,-2.2186625003814697
1776037949343806700,-1522124.4821933594,1.1313223838806152,0.1111774742603302,-1.842369556427002
1776037949383967700,-1522124.4420322266,0.5595525503158569,0.24068090319633484,0.1771509200334549
1776037949394069000,-1522124.4319309082,0.4288274049758911,0.20525072515010834,0.49846604466438293
1776037949404139800,-1522124.4218601075,0.2675589919090271,0.18081611394882202,0.6780604124069214
1776037949414241300,-1522124.411758789,0.08307767659425735,0.16737708449363708,0.7367035150527954
1776037949424312000,-1522124.4016879883,-0.09529497474431992,0.1514945775270462,0.7159340381622314
1776037949434382800,-1522124.3916171875,-0.2773328125476837,0.14538592100143433,0.6487388610839844
1776037949444453600,-1522124.3815463868,-0.4642575979232788,0.16371189057826996,0.5791002511978149
1776037949474574300,-1522124.3514257811,-0.8796459436416626,0.05253441259264946,0.4288274049758911
1776037949484675800,-1522124.3413242188,-0.979827880859375,-0.045204028487205505,0.32498031854629517
1776037949494746600,-1522124.331253418,-1.0751228332519531,-0.13316862285137177,0.2076941877603531
1776037949504756200,-1522124.3212438964,-1.1691961288452148,-0.2064724564552307,0.12339477986097336
1776037949514796500,-1522124.3112033692,-1.264491081237793,-0.2565633952617645,0.10018189996480942
1776037949524897800,-1522124.3011022948,-1.3744467496871948,-0.27122417092323303,0.15760323405265808
1776037949534968800,-1522124.29103125,-1.4929546117782593,-0.25045475363731384,0.2919935882091522
1776037949545009000,-1522124.2809912108,-1.6004669666290283,-0.2272418737411499,0.49235737323760986
1776037949555018800,-1522124.2709812012,-1.6786576509475708,-0.21624629199504852,0.7281513810157776
1776037949585261600,-1522124.2407385253,-1.8313740491867065,-0.26022860407829285,1.3390166759490967
1776037949595332400,-1522124.2306677245,-1.8594738245010376,-0.2773328125476837,1.4856243133544922
1776037949605403400,-1522124.2205966797,-1.8777997493743896,-0.3066543638706207,1.606575608253479
1776037949615474200,-1522124.210525879,-1.8949040174484253,-0.35063666105270386,1.7092009782791138
1776037949625545000,-1522124.2004550782,-1.9132299423217773,-0.394618958234787,1.7837265729904175
1776037949635585300,-1522124.190414795,-1.9364428520202637,-0.4337143301963806,1.8264870643615723
1776037949645686500,-1522124.1803134766,-1.9608774185180664,-0.475253164768219,1.8496999740600586
1776037949655757300,-1522124.1702426758,-1.986533761024475,-0.5143485069274902,1.8655824661254883
1776037949665828000,-1522124.160171875,-2.015855312347412,-0.5485569834709167,1.8741345405578613
1776037949685908700,-1522124.1400913086,-2.0891592502593994,-0.6047565937042236,1.8203784227371216
1776037949716060000,-1522124.1099401854,-2.183232307434082,-0.6780604124069214,1.4367550611495972
1776037949726130700,-1522124.0998693847,-2.2174408435821533,-0.6841690540313721,1.2596040964126587
1776037949736232200,-1522124.0897678223,-2.246762275695801,-0.6805039048194885,1.0629055500030518
1776037949746303000,-1522124.0796970215,-2.266309976577759,-0.6829473376274109,0.8552113175392151
1776037949756343300,-1522124.0696567383,-2.2736403942108154,-0.6866125464439392,0.6450737118721008
1776037949766444500,-1522124.05955542,-2.2650883197784424,-0.6914994716644287,0.455705463886261
1776037949776515300,-1522124.0494846192,-2.235766887664795,-0.6988298296928406,0.2981022298336029
1776037949786586000,-1522124.0394138184,-2.1954495906829834,-0.7061602473258972,0.16737708449363708
1776037949806758100,-1522124.0192419433,-2.083050489425659,-0.6817256212234497,-0.07941248267889023
1776037949816829200,-1522124.0091708985,-2.004859685897827,-0.66584312915802,-0.2125810980796814
1776037949826900000,-1522123.9991000977,-1.9181169271469116,-0.636521577835083,-0.33719760179519653
1776037949836940000,-1522123.9890600585,-1.8313740491867065,-0.5949827432632446,-0.42149701714515686
1776037949847010800,-1522123.9789892577,-1.7519614696502686,-0.5473352670669556,-0.4642575979232788
1776037949857081900,-1522123.968918213,-1.6627751588821411,-0.4862487316131592,-0.48380526900291443
1776037949867152600,-1522123.9588474121,-1.5442672967910767,-0.4300491213798523,-0.4691445231437683
1776037949887324700,-1522123.938675293,-1.2669345140457153,-0.3323107063770294,-0.4153883755207062
1776037949917537000,-1522123.9084628907,-0.7171558141708374,-0.16859880089759827,-0.28099802136421204
1776037949927607800,-1522123.8983920899,-0.5082398653030396,-0.10506882518529892,-0.20402899384498596
1776037949937678600,-1522123.888321289,-0.2932153046131134,-0.05375614017248154,-0.1270599663257599
1776037949947749400,-1522123.8782507323,-0.06719517707824707,-0.00366519158706069,-0.0806342139840126
1776037949957820200,-1522123.8681799315,0.15882496535778046,0.051312681287527084,-0.08796459436416626
1776037949967891000,-1522123.8581091308,0.3897320330142975,0.11239920556545258,-0.1466076523065567
1776037949977962000,-1522123.848038086,0.6340781450271606,0.15760323405265808,-0.23090706765651703
1776037950008144000,-1522123.8178562012,1.2864822149276733,0.294437050819397,-0.5497786998748779
1776037950018214700,-1522123.8077854004,1.4501941204071045,0.35063666105270386,-0.6035348773002625
1776037950028224300,-1522123.7977756348,1.5931365489959717,0.39706242084503174,-0.598647952079773
1776037950048305000,-1522123.7776950684,1.8692476749420166,0.5424483418464661,-0.6133087277412415
1776037950058406100,-1522123.76759375,1.9938641786575317,0.5876523852348328,-0.7342600226402283
1776037950068477000,-1522123.7575231933,2.1258111000061035,0.5742133259773254,-0.9138544201850891
1776037950078517200,-1522123.747482666,2.2406537532806396,0.5119050741195679,-1.0629055500030518
1776037950118770000,-1522123.7072299805,2.409252643585205,0.28955012559890747,-0.7586946487426758
1776037950128840700,-1522123.6971591797,2.3432791233062744,0.32009339332580566,-0.5387831330299377
1776037950138911500,-1522123.687088623,2.2296581268310547,0.37262779474258423,-0.3481931984424591
1776037950148982300,-1522123.6770178222,2.076941728591919,0.39706242084503174,-0.2125810980796814
1776037950159083800,-1522123.6669162598,1.9144517183303833,0.4056145250797272,-0.11850785464048386
1776037950169154600,-1522123.656845459,1.7617353200912476,0.42638394236564636,-0.04764748737215996
1776037950179225300,-1522123.6467746582,1.6297885179519653,0.44715335965156555,0.006108652334660292
1776037950219386400,-1522123.6066135254,1.3573426008224487,0.4911356568336487,-0.0757472887635231
1776037950229457200,-1522123.5965429686,1.350012183189392,0.5082398653030396,-0.1466076523065567
1776037950239528000,-1522123.5864721679,1.3548991680145264,0.5277875661849976,-0.21380282938480377
1776037950249598700,-1522123.576401367,1.3732250928878784,0.5583308339118958,-0.26633724570274353
1776037950259669800,-1522123.5663303223,1.4001030921936035,0.5974262356758118,-0.30543261766433716
1776037950269709800,-1522123.556290283,1.4367550611495972,0.646295428276062,-0.32498031854629517
1776037950279750100,-1522123.546249756,1.4892895221710205,0.720820963382721,-0.3176499307155609
1776037950289729500,-1522123.5362705078,1.539380431175232,0.7929030656814575,-0.3176499307155609
1776037950319880700,-1522123.5061193847,1.5210545063018799,0.9847147464752197,-0.50335294008255
1776037950329951700,-1522123.4960483399,1.4929546117782593,1.0140362977981567,-0.5766568183898926
1776037950340022500,-1522123.485977539,1.549154281616211,1.0054842233657837,-0.38728857040405273
1776037950350093300,-1522123.4759067383,1.6004669666290283,0.9651671051979065,0.3237585723400116
1776037950360164000,-1522123.4658359375,1.5638149976730347,1.0005972385406494,1.1239920854568481
1776037950370235000,-1522123.4557651368,1.4624114036560059,1.0445796251296997,1.549154281616211
1776037950380305700,-1522123.445694336,1.3280210494995117,1.0714576244354248,1.4758504629135132
1776037950390376400,-1522123.4356235352,1.1789699792861938,1.0812314748764038,1.0751228332519531
1776037950410548500,-1522123.415451416,0.8991936445236206,1.0201449394226074,0.2834414839744568
1776037950430690000,-1522123.3953100585,0.6646214127540588,0.9456194043159485,0.024434609338641167
1776037950440730400,-1522123.3852695313,0.5607742667198181,0.9040805697441101,-0.045204028487205505
1776037950450801200,-1522123.3751987305,0.46303585171699524,0.8637634515762329,-0.15027284622192383
1776037950460872000,-1522123.3651281737,0.33597588539123535,0.7916813492774963,-0.36163222789764404
1776037950470942700,-1522123.355057373,0.18936823308467865,0.6707300543785095,-0.6487388610839844
1776037950481013500,-1522123.3449865722,0.08307767659425735,0.5522221922874451,-0.8979719281196594
1776037950531367700,-1522123.2946323243,-0.14294247329235077,0.3127630054950714,-0.7464773058891296
1776037950541469000,-1522123.284531006,-0.1722639948129654,0.2871066629886627,-0.5448917746543884
1776037950551539700,-1522123.274460205,-0.21380282938480377,0.24190263450145721,-0.3604104816913605
1776037950561580000,-1522123.264419922,-0.26511552929878235,0.18325957655906677,-0.1869247704744339
1776037950571620400,-1522123.2543796387,-0.31154128909111023,0.12461651116609573,-0.02932153269648552
1776037950581721600,-1522123.2442783203,-0.3445279896259308,0.06475171446800232,0.10873401165008545
1776037950591792400,-1522123.2342075196,-0.37751471996307373,0.0012217304902151227,0.20402899384498596
1776037950601893600,-1522123.2241064452,-0.4178318381309509,-0.0659734457731247,0.2528982162475586
1776037950642207500,-1522123.1837924805,-0.49724429845809937,-0.28588494658470154,0.22602014243602753
1776037950652278300,-1522123.1737216797,-0.50335294008255,-0.3090978264808655,0.18325957655906677
1776037950662349000,-1522123.163650879,-0.5082398653030396,-0.33475416898727417,0.16737708449363708
1776037950672419800,-1522123.1535800782,-0.5070181488990784,-0.37629300355911255,0.18448130786418915
1776037950682490600,-1522123.1435092774,-0.5021312236785889,-0.4300491213798523,0.19303341209888458
1776037950692561400,-1522123.1334384766,-0.5094616413116455,-0.5057964324951172,0.1417207419872284
1776037950722743300,-1522123.1032565918,-0.7134906053543091,-0.7648032903671265,-0.50335294008255
1776037950742884900,-1522123.0831152343,-0.9615018963813782,-0.789237916469574,-0.7464773058891296
1776037950752894700,-1522123.0731052246,-1.0873401165008545,-0.7611380815505981,-0.5143485069274902
1776037950762965500,-1522123.0630344239,-1.2131783962249756,-0.7428121566772461,-0.0757472887635231
1776037950773036300,-1522123.052963623,-1.340238332748413,-0.7318165898323059,0.44593164324760437
1776037950783137500,-1522123.0428625487,-1.4526375532150269,-0.7257078886032104,0.9443976879119873
1776037950793208600,-1522123.032791504,-1.5564846992492676,-0.7269296646118164,1.3781119585037231
1776037950803279400,-1522123.0227207032,-1.6468926668167114,-0.7318165898323059,1.7446311712265015
1776037950833400000,-1522122.9925998535,-1.7996090650558472,-0.8148942589759827,2.1429152488708496
1776037950853450200,-1522122.9725498047,-1.890017032623291,-0.8723155856132507,1.6664403676986694
1776037950863521000,-1522122.962479004,-1.930334210395813,-0.8955284357070923,1.3292428255081177
1776037950873530600,-1522122.9524694823,-1.9706512689590454,-0.9150761365890503,0.9859365224838257
1776037950883632000,-1522122.94236792,-2.0146336555480957,-0.93095862865448,0.636521577835083
1776037950893703000,-1522122.9322971192,-2.059837579727173,-0.9334021210670471,0.27488934993743896
1776037950903773700,-1522122.9222263184,-2.1123719215393066,-0.9224064946174622,-0.1111774742603302
1776037950933955600,-1522122.8920444336,-2.2479841709136963,-0.8185594081878662,-1.0152580738067627
1776037950954127600,-1522122.8718723145,-2.27852725982666,-0.7611380815505981,-1.1655309200286865
1776037950964198400,-1522122.8618015137,-2.2736403942108154,-0.7305948138237,-1.1801916360855103
1776037950974269200,-1522122.851730713,-2.2492058277130127,-0.6939429044723511,-1.1899654865264893
1776037950984309500,-1522122.8416904297,-2.20278000831604,-0.6585127115249634,-1.187522053718567
1776037950994349800,-1522122.8316501465,-2.1306979656219482,-0.6304129362106323,-1.1410962343215942
1776037951004420600,-1522122.8215793457,-2.0390682220458984,-0.607200026512146,-1.0629055500030518
1776037951014491400,-1522122.811508545,-1.9462167024612427,-0.5742133259773254,-0.9749409556388855
1776037951044673300,-1522122.7813266602,-1.653001308441162,-0.4190535545349121,-0.7440338730812073
1776037951054744000,-1522122.7712558594,-1.5467108488082886,-0.37629300355911255,-0.7024950385093689
1776037951064784400,-1522122.7612155762,-1.4233160018920898,-0.3286454975605011,-0.6621779203414917
1776037951074794200,-1522122.7512058106,-1.2901474237442017,-0.28466320037841797,-0.6255260109901428
1776037951084865000,-1522122.7411350098,-1.1643091440200806,-0.2431243658065796,-0.5925393104553223
1776037951094874600,-1522122.7311254882,-1.0409144163131714,-0.19303341209888458,-0.5473352670669556
1776037951104976100,-1522122.7210239258,-0.9162978529930115,-0.1368338167667389,-0.4813618063926697
1776037951145228800,-1522122.6807712403,-0.35063666105270386,0.09040805697441101,-0.1820378452539444
1776037951165340000,-1522122.6606601563,-0.01466076634824276,0.14782938361167908,-0.15760323405265808
1776037951175349500,-1522122.6506503907,0.17592918872833252,0.15393804013729095,-0.17837265133857727
1776037951185420300,-1522122.6405798339,0.3701843321323395,0.15882496535778046,-0.2174680233001709
1776037951195430100,-1522122.6305698243,0.5619960427284241,0.16371189057826996,-0.2785545587539673
1776037951205531400,-1522122.620468506,0.7550294399261475,0.15271630883216858,-0.33597588539123535
1776037951215602200,-1522122.610397705,0.9761626720428467,0.12828169763088226,-0.3677408695220947
1776037951225703700,-1522122.6002963868,1.187522053718567,0.09285151958465576,-0.38240164518356323
1776037951255885600,-1522122.570114502,1.6994271278381348,-0.08429940044879913,-0.8417723178863525
1776037951265986800,-1522122.5600131836,1.8570303916931152,-0.18814650177955627,-1.2424999475479126
1776037951276027100,-1522122.5499729004,2.0085248947143555,-0.32131510972976685,-1.7959438562393188
1776037951286128400,-1522122.539871582,2.1514673233032227,-0.4740314185619354,-2.456900119781494
1776037951296199200,-1522122.5298007813,2.285857677459717,-0.6145304441452026,-3.2229249477386475
1776037951306300400,-1522122.519699463,2.375044107437134,-0.7367035150527954,-4.013384819030762
1776037951316340700,-1522122.5096591797,2.383596181869507,-0.8747590184211731,-4.576602458953857
1776037951336482300,-1522122.4895175782,2.2455406188964844,-1.1838568449020386,-4.316373825073242
1776037951346583800,-1522122.4794162598,2.1062633991241455,-1.2705997228622437,-3.673743486404419
1776037951356563000,-1522122.4694370118,1.9315558671951294,-1.2473868131637573,-2.995683193206787
1776037951366664200,-1522122.4593356934,1.7201964855194092,-1.1740829944610596,-2.4165828227996826
1776037951376735000,-1522122.4492651366,1.529606580734253,-1.0836749076843262,-1.9425514936447144
1776037951386805800,-1522122.4391943358,1.3915510177612305,-0.9590584635734558,-1.4868459701538086
1776037951396846000,-1522122.4291538086,1.292590856552124,-0.8051204085350037,-1.009149432182312
1776037951406916900,-1522122.4190832519,1.2119566202163696,-0.6475171446800232,-0.5522221922874451
1776037951416987600,-1522122.409012451,1.1386528015136719,-0.5021312236785889,-0.16371189057826996
1776037951427058400,-1522122.3989416503,1.0726794004440308,-0.39217549562454224,0.1612684279680252
1776037951457271000,-1522122.368729004,0.9810495972633362,-0.2174680233001709,0.950506329536438
1776037951477412600,-1522122.3485874024,0.9749409556388855,-0.1820378452539444,1.0910053253173828
1776037951487483400,-1522122.3385166016,1.0115928649902344,-0.20402899384498596,1.0995573997497559
1776037951497554200,-1522122.3284458008,1.0580185651779175,-0.22479841113090515,1.1447614431381226
1776037951507625000,-1522122.318375,1.0946705341339111,-0.23335053026676178,1.243721604347229
1776037951517665300,-1522122.3083347168,1.1386528015136719,-0.21868975460529327,1.3854423761367798
1776037951527766500,-1522122.2982333985,1.19607412815094,-0.19914206862449646,1.5515977144241333
1776037951568049700,-1522122.2579504394,1.3964380025863647,-0.06963863968849182,2.285857677459717
1776037951578120400,-1522122.2478796386,1.3964380025863647,-0.06963863968849182,2.285857677459717
1776037951588160800,-1522122.2378391114,1.389107584953308,-0.006108652334660292,2.3017401695251465
1776037951598231600,-1522122.2277685546,1.310916781425476,0.1722639948129654,1.8643606901168823
1776037951608302300,-1522122.2176977538,1.310916781425476,0.1722639948129654,1.8643606901168823
1776037951618312200,-1522122.2076877442,1.2705997228622437,0.25534167885780334,1.6310101747512817
1776037951628413400,-1522122.1975866698,1.225395679473877,0.3127630054950714,1.5271631479263306
1776037951638453800,-1522122.1875461426,1.166752576828003,0.36163222789764404,1.5528194904327393
1776037951668696800,-1522122.1573032227,0.9285151958465576,0.5412266254425049,1.55892813205719
1776037951678767600,-1522122.147232422,0.8185594081878662,0.5949827432632446,1.4367550611495972
1776037951688838400,-1522122.1371616211,0.7061602473258972,0.6475171446800232,1.313360333442688
1776037951698909200,-1522122.1270908203,0.5937610268592834,0.6829473376274109,1.1936306953430176
1776037951709010400,-1522122.116989502,0.4911356568336487,0.6890559792518616,1.0885618925094604
1776037951719081200,-1522122.1069187012,0.41661009192466736,0.685390830039978,0.9749409556388855
1776037951729152000,-1522122.0968479004,0.35552358627319336,0.6719517707824707,0.8210029006004333
1776037951739222800,-1522122.0867770996,0.3090978264808655,0.6414085030555725,0.7379252314567566
1776037951749293600,-1522122.0767065429,0.2919935882091522,0.6316346526145935,0.6878342628479004
1776037951759334000,-1522122.0666660157,0.2993239760398865,0.6194173693656921,0.5974262356758118
1776037951769404700,-1522122.0565952149,0.2932153046131134,0.5815436840057373,0.455705463886261
1776037951779475500,-1522122.046524658,0.28588494658470154,0.5485569834709167,0.2528982162475586
1776037951789577000,-1522122.0364230957,0.2871066629886627,0.5094616413116455,0.03298672288656235
1776037951799617000,-1522122.0263830565,0.2883284091949463,0.45692721009254456,-0.1771509200334549
1776037951809688000,-1522122.0163120118,0.27611109614372253,0.40194934606552124,-0.34208452701568604
1776037951819758800,-1522122.006241211,0.2541199326515198,0.3433062732219696,-0.43615779280662537
1776037951829829600,-1522121.9961704102,0.23945917189121246,0.27488934993743896,-0.4544837474822998
1776037951839870000,-1522121.986130127,0.22479841113090515,0.20036379992961884,-0.4178318381309509
1776037951860042000,-1522121.9659580078,0.1612684279680252,0.05375614017248154,-0.3433062732219696
1776037951870112800,-1522121.955887207,0.11239920556545258,0.025656340643763542,-0.31642818450927734
1776037951880153000,-1522121.9458469239,0.05253441259264946,0.02321287989616394,-0.2687807083129883
1776037951890223900,-1522121.935776123,-0.00733038317412138,-0.0024434609804302454,-0.18081611394882202
1776037951900294700,-1522121.9257053223,-0.06352998316287994,-0.06230825558304787,-0.06841690838336945
1776037951910365400,-1522121.9156345215,-0.12828169763088226,-0.12461651116609573,0.07208210229873657
1776037951920436200,-1522121.9055637207,-0.21013765037059784,-0.18570303916931152,0.23090706765651703
1776037951930507000,-1522121.89549292,-0.32009339332580566,-0.25534167885780334,0.3604104816913605
1776037951940577800,-1522121.8854221192,-0.4447098970413208,-0.31154128909111023,0.44226643443107605
1776037951950648600,-1522121.8753513184,-0.5766568183898926,-0.33719760179519653,0.4813618063926697
1776037951960719400,-1522121.8652807616,-0.7061602473258972,-0.3530801236629486,0.5094616413116455
1776037951990901200,-1522121.8350986328,-0.9737191796302795,-0.4129449129104614,0.8967501521110535
1776037952000941600,-1522121.8250583496,-1.0152580738067627,-0.46792277693748474,1.1264355182647705
1776037952011012400,-1522121.8149875489,-1.0506882667541504,-0.5326744914054871,1.3573426008224487
1776037952021083100,-1522121.804916748,-1.0787880420684814,-0.5998696684837341,1.5515977144241333
1776037952031154000,-1522121.7948461913,-1.1007791757583618,-0.6695083379745483,1.663996934890747
1776037952041194200,-1522121.784805664,-1.1191051006317139,-0.7464773058891296,1.6823228597640991
1776037952051234600,-1522121.774765381,-1.1435397863388062,-0.836885392665863,1.6212363243103027
1776037952061305300,-1522121.76469458,-1.1789699792861938,-0.9138544201850891,1.4819591045379639
1776037952081447000,-1522121.7445529785,-1.2498302459716797,-1.027475357055664,1.018923282623291
1776037952091517700,-1522121.7344824218,-1.2791517972946167,-1.0641272068023682,0.7550294399261475
1776037952101588500,-1522121.724411621,-1.3145819902420044,-1.0958921909332275,0.5192354321479797
1776037952121699600,-1522121.704300537,-1.4428637027740479,-1.1264355182647705,0.09651670604944229
1776037952131801000,-1522121.6941989746,-1.5723671913146973,-1.1447614431381226,-0.12828169763088226
1776037952141871900,-1522121.6841281739,-1.7079792022705078,-1.1264355182647705,-0.34697145223617554
1776037952151912200,-1522121.6740878907,-1.7996090650558472,-1.076344609260559,-0.5558874011039734
1776037952182155000,-1522121.6438449707,-2.0622811317443848,-0.998153805732727,-0.8772025108337402
1776037952212397800,-1522121.6136022948,-2.2736403942108154,-0.8491026759147644,-1.1985175609588623
1776037952222468600,-1522121.603531494,-2.311514139175415,-0.7941248416900635,-1.291369080543518
1776037952232570000,-1522121.5934299317,-2.322509765625,-0.7257078886032104,-1.370781660079956
1776037952242641000,-1522121.583359131,-2.3164010047912598,-0.6352998614311218,-1.4282029867172241
1776037952252711700,-1522121.57328833,-2.313957452774048,-0.5681046843528748,-1.4196507930755615
1776037952262752000,-1522121.563248047,-2.27852725982666,-0.5265658497810364,-1.3524556159973145
1776037952272822800,-1522121.5531772461,-2.2272145748138428,-0.4801400899887085,-1.2559388875961304
1776037952292934000,-1522121.5330661621,-2.1197023391723633,-0.37140607833862305,-1.3048081398010254
1776037952313075500,-1522121.5129245606,-1.9657644033432007,-0.25534167885780334,-1.4001030921936035
1776037952323115800,-1522121.5028842774,-1.870469331741333,-0.17470745742321014,-1.3072515726089478
1776037952333186600,-1522121.4928134766,-1.7470746040344238,-0.09162978827953339,-1.186300277709961
1776037952343196200,-1522121.482803955,-1.605353832244873,-0.01710422709584236,-1.0946705341339111
1776037952353267000,-1522121.4727331542,-1.4367550611495972,0.051312681287527084,-1.0506882667541504
1776037952363307300,-1522121.462692627,-1.2522737979888916,0.1160643994808197,-1.007927656173706
1776037952373408800,-1522121.4525913086,-1.0739010572433472,0.14782938361167908,-0.9199630618095398
1776037952383479600,-1522121.4425205078,-0.8491026759147644,0.17348572611808777,-0.759916365146637
1776037952413722400,-1522121.412277588,-0.05619960278272629,0.19914206862449646,-0.4337143301963806
1776037952423793200,-1522121.4022067871,0.1918116807937622,0.18448130786418915,-0.41172316670417786
1776037952433894400,-1522121.3921057128,0.4349360466003418,0.16737708449363708,-0.4202753007411957
1776037952443965200,-1522121.382034912,0.7024950385093689,0.13561208546161652,-0.4043927788734436
1776037952454036000,-1522121.3719641112,0.9859365224838257,0.09162978827953339,-0.3335324227809906
1776037952464107000,-1522121.3618930664,1.2217304706573486,0.04764748737215996,-0.251676470041275
1776037952474147000,-1522121.3518530272,1.4453071355819702,-0.00855211354792118,-0.24068090319633484
1776037952484217900,-1522121.3417822265,1.7018705606460571,-0.07941248267889023,-0.28099802136421204
1776037952504359700,-1522121.321640381,2.2565362453460693,-0.2223549485206604,-0.294437050819397
1776037952514461000,-1522121.3115390625,2.506990909576416,-0.28099802136421204,-0.2064724564552307
1776037952524531700,-1522121.3014682618,2.7293457984924316,-0.32131510972976685,-0.07696902006864548
1776037952534602500,-1522121.291397461,2.911383867263794,-0.35552358627319336,0.08918632566928864
1776037952544673300,-1522121.2813266602,3.031113386154175,-0.37262779474258423,0.31031954288482666
1776037952554713600,-1522121.271286377,3.070208787918091,-0.35185837745666504,0.5558874011039734
1776037952564814800,-1522121.2611850586,3.028669834136963,-0.28955012559890747,0.7709119319915771
1776037952574885600,-1522121.2511142578,2.9272663593292236,-0.2015855312347412,0.9431759119033813
1776037952584956400,-1522121.241043701,2.780658483505249,-0.11484266817569733,1.1044443845748901
1776037952595027200,-1522121.2309729003,2.6059510707855225,-0.0354301854968071,1.3084733486175537
1776037952615169000,-1522121.2108310547,2.174680233001709,0.0757472887635231,1.8252654075622559
1776037952625239800,-1522121.200760254,1.9437731504440308,0.1160643994808197,2.113593816757202
1776037952635249400,-1522121.1907504883,1.7177530527114868,0.15882496535778046,2.39825701713562
1776037952645320200,-1522121.1806796875,1.5039502382278442,0.20891591906547546,2.652376890182495
1776037952655421700,-1522121.1705783692,1.2962560653686523,0.2528982162475586,2.822197437286377
1776037952665492500,-1522121.1605075684,1.0958921909332275,0.30543261766433716,2.8356363773345947
1776037952675502000,-1522121.1504978028,0.9101892113685608,0.36529740691185,2.689028739929199
1776037952685603600,-1522121.1403964844,0.7476990818977356,0.4190535545349121,2.406809091567993
1776037952695674400,-1522121.1303256836,0.6316346526145935,0.46670106053352356,2.0390682220458984
1776037952705714400,-1522121.1202856444,0.5497786998748779,0.5082398653030396,1.6114624738693237
1776037952746028300,-1522121.0799716797,0.4398229718208313,0.6585127115249634,0.07696902006864548
1776037952756068600,-1522121.0699313965,0.4544837474822998,0.685390830039978,-0.1466076523065567
1776037952766169900,-1522121.0598300782,0.5082398653030396,0.7244861721992493,-0.3176499307155609
1776037952776210200,-1522121.049789795,0.5754350423812866,0.7721336483955383,-0.42638394236564636
1776037952786220000,-1522121.0397800293,0.646295428276062,0.8112290501594543,-0.44226643443107605
1776037952796229600,-1522121.0297702637,0.720820963382721,0.8161159753799438,-0.3787364661693573
1776037952816340700,-1522121.0096591797,0.8539896011352539,0.8112290501594543,-0.10873401165008545
1776037952836482300,-1522120.9895175782,0.9370672702789307,0.8136724829673767,0.23335053026676178
1776037952846583800,-1522120.9794162598,0.960280179977417,0.8087855577468872,0.37751471996307373
1776037952856685000,-1522120.9693149414,0.9651671051979065,0.8026769161224365,0.475253164768219
1776037952866755800,-1522120.9592441407,0.9517280459403992,0.789237916469574,0.5277875661849976
1776037952876796200,-1522120.9492038575,0.9346238374710083,0.7415903806686401,0.5400048494338989
1776037952886836500,-1522120.9391635743,0.9089674949645996,0.6707300543785095,0.50335294008255
1776037952896937700,-1522120.929062256,0.8747590184211731,0.618195652961731,0.3982841372489929
1776037952907008500,-1522120.918991455,0.8417723178863525,0.5766568183898926,0.21624629199504852
1776037952917079300,-1522120.9089206543,0.8210029006004333,0.5473352670669556,-0.024434609338641167
1776037952947230700,-1522120.8787692871,0.7660250067710876,0.50335294008255,-0.6878342628479004
1776037952957301500,-1522120.8686984864,0.7367035150527954,0.4948008358478546,-0.7489207983016968
1776037952967372300,-1522120.8586276856,0.6963863968849182,0.47280970215797424,-0.7000515460968018
1776037952977473500,-1522120.8485263672,0.6426302194595337,0.475253164768219,-0.5473352670669556
1776037952987513900,-1522120.838486084,0.6023131608963013,0.5314527750015259,-0.3604104816913605
1776037952997584600,-1522120.8284152832,0.5424483418464661,0.5522221922874451,-0.16371189057826996
1776037953007655400,-1522120.8183444825,0.44837507605552673,0.5216789245605469,0.0757472887635231
1776037953017756700,-1522120.808243408,0.3689626157283783,0.46792277693748474,0.3090978264808655
1776037953047999700,-1522120.7780002442,0.09529497474431992,0.21868975460529327,0.7843509912490845
1776037953058070500,-1522120.7679294434,0.015882495790719986,0.1111774742603302,0.8148942589759827
1776037953068110800,-1522120.7578891602,-0.06719517707824707,-0.006108652334660292,0.7965682744979858
1776037953078151200,-1522120.747848877,-0.14905111491680145,-0.1014036312699318,0.7342600226402283
1776037953088191500,-1522120.7378085938,-0.21991148591041565,-0.16249015927314758,0.656069278717041
1776037953098231600,-1522120.7277685546,-0.21991148591041565,-0.16249015927314758,0.656069278717041
1776037953108271900,-1522120.7177280274,-0.38728857040405273,-0.32986724376678467,0.4911356568336487
1776037953118373000,-1522120.707626953,-0.38728857040405273,-0.32986724376678467,0.4911356568336487
1776037953128444200,-1522120.6975559082,-0.4740314185619354,-0.4703662395477295,0.38117989897727966
1776037953148585700,-1522120.6774143067,-0.656069278717041,-0.720820963382721,0.11239920556545258
1776037953168727300,-1522120.657272705,-0.911410927772522,-0.8356636762619019,-0.13561208546161652
1776037953178767600,-1522120.647232422,-1.0384708642959595,-0.8356636762619019,-0.13072516024112701
1776037953188808000,-1522120.6371921387,-1.1679743528366089,-0.7965682744979858,-0.010995574295520782
1776037953198878700,-1522120.627121338,-1.292590856552124,-0.7391469478607178,0.16004669666290283
1776037953208949500,-1522120.6170505371,-1.398881435394287,-0.6902777552604675,0.3396410644054413
1776037953219050800,-1522120.6069492188,-1.4819591045379639,-0.6780604124069214,0.5167919993400574
1776037953229060600,-1522120.5969394532,-1.5442672967910767,-0.6976081132888794,0.7061602473258972
1776037953259242500,-1522120.5667575684,-1.5723671913146973,-0.8552113175392151,1.1826350688934326
1776037953269313300,-1522120.5566867676,-1.5564846992492676,-0.9395107626914978,1.1948524713516235
1776037953279384000,-1522120.5466159668,-1.529606580734253,-1.0335839986801147,1.1386528015136719
1776037953289454800,-1522120.536545166,-1.5051720142364502,-1.1142182350158691,1.047023057937622
1776037953299556000,-1522120.5264438477,-1.4941763877868652,-1.187522053718567,0.9236282706260681
1776037953309566000,-1522120.516434082,-1.5015068054199219,-1.246165156364441,0.7623597979545593
1776037953319636700,-1522120.5063632813,-1.519832730293274,-1.2877039909362793,0.5729916095733643
1776037953329707500,-1522120.4962924805,-1.5503759384155273,-1.3096951246261597,0.3677408695220947
1776037953339778300,-1522120.4862216797,-1.6016886234283447,-1.3231340646743774,0.14049901068210602
1776037953379939300,-1522120.446060791,-1.8851301670074463,-1.246165156364441,-0.7623597979545593
1776037953400050400,-1522120.425949463,-2.004859685897827,-1.1239920854568481,-0.9639453291893005
1776037953410121200,-1522120.4158786621,-2.046398639678955,-1.0629055500030518,-1.0140362977981567
1776037953420192000,-1522120.4058081054,-2.0818288326263428,-1.0140362977981567,-1.0616837739944458
1776037953430232300,-1522120.3957675782,-2.1123719215393066,-0.9566149711608887,-1.1178834438323975
1776037953440303000,-1522120.3856967774,-2.138028383255005,-0.8881980776786804,-1.177748203277588
1776037953470424000,-1522120.3555759278,-2.096489429473877,-0.626747727394104,-1.0592403411865234
1776037953480494800,-1522120.345505127,-2.0476202964782715,-0.5522221922874451,-0.93095862865448
1776037953490565600,-1522120.3354343262,-1.9853121042251587,-0.4911356568336487,-0.7904596328735352
1776037953500636400,-1522120.3253635254,-1.9168951511383057,-0.4434881806373596,-0.646295428276062
1776037953510707200,-1522120.3152927246,-1.8399261236190796,-0.4056145250797272,-0.5204572081565857
1776037953520808400,-1522120.3051916503,-1.7507398128509521,-0.3604104816913605,-0.42149701714515686
1776037953530879200,-1522120.2951208495,-1.6468926668167114,-0.31154128909111023,-0.3591887652873993
1776037953540950300,-1522120.2850498047,-1.5344934463500977,-0.2773328125476837,-0.34574973583221436
1776037953571101400,-1522120.2548986815,-1.1520918607711792,-0.2028072625398636,-0.5522221922874451
1776037953591273700,-1522120.2347263184,-0.807563841342926,-0.15515977144241333,-0.5815436840057373
1776037953601344500,-1522120.2246555176,-0.607200026512146,-0.14905111491680145,-0.588874101638794
1776037953611415300,-1522120.2145847168,-0.39706242084503174,-0.13927727937698364,-0.6218608021736145
1776037953621486000,-1522120.204513916,-0.17104226350784302,-0.12828169763088226,-0.6780604124069214
1776037953631556900,-1522120.1944431153,0.08307767659425735,-0.1062905490398407,-0.7073819637298584
1776037953641627600,-1522120.1843723145,0.3530801236629486,-0.09162978827953339,-0.7122688889503479
1776037953651698400,-1522120.1743015137,0.6218608021736145,-0.09040805697441101,-0.7049384713172913
1776037953681880300,-1522120.144119629,1.4734070301055908,0.0403171069920063,-0.5839871764183044
1776037953702022000,-1522120.1239780274,2.040289878845215,0.12095131725072861,-0.34697145223617554
1776037953712092700,-1522120.1139072266,2.326174736022949,0.15882496535778046,-0.1820378452539444
1776037953722163500,-1522120.1038364258,2.5925121307373047,0.21380282938480377,-0.02076941914856434
1776037953732234200,-1522120.093765869,2.8356363773345947,0.27122417092323303,0.14416420459747314
1776037953742305000,-1522120.0836950683,3.0579915046691895,0.3225368559360504,0.2822197377681732
1776037953752345300,-1522120.073654541,3.2400293350219727,0.3738495409488678,0.35552358627319336
1776037953762416000,-1522120.0635839843,3.38297176361084,0.42149701714515686,0.4288274049758911
1776037953802730000,-1522120.0232700196,3.352428436279297,0.43737950921058655,0.9896016716957092
1776037953812770300,-1522120.0132297364,3.202155590057373,0.44104471802711487,1.2608258724212646
1776037953822841000,-1522120.0031589356,3.006678819656372,0.4434881806373596,1.4660766124725342
1776037953832942300,-1522119.9930576172,2.7757716178894043,0.4447098970413208,1.5503759384155273
1776037953843013000,-1522119.9829868164,2.5302038192749023,0.4398229718208313,1.5063936710357666
1776037953853084000,-1522119.9729160157,2.285857677459717,0.4251621961593628,1.3781119585037231
1776037953863185200,-1522119.9628149413,2.0512855052948,0.4141666293144226,1.2229522466659546
1776037953883327000,-1522119.9426730957,1.63467538356781,0.45204028487205505,0.9089674949645996
1776037953903468500,-1522119.9225314942,1.303586483001709,0.5082398653030396,0.4447098970413208
1776037953923640600,-1522119.902359375,1.0775662660598755,0.5057964324951172,-0.2015855312347412
1776037953933711400,-1522119.8922885743,1.0299187898635864,0.4899139404296875,-0.5009095072746277
1776037953943782100,-1522119.8822177735,1.009149432182312,0.455705463886261,-0.7574729323387146
1776037953953822500,-1522119.8721774903,1.009149432182312,0.4300491213798523,-0.9517280459403992
1776037953963862800,-1522119.862137207,1.009149432182312,0.43737950921058655,-1.1252137422561646
1776037954004115500,-1522119.8218845215,1.0128145217895508,0.4605923891067505,-1.6029103994369507
1776037954014155800,-1522119.8118442383,1.0580185651779175,0.45814892649650574,-1.6004669666290283
1776037954024196000,-1522119.801803955,1.0995573997497559,0.46547931432724,-1.538158655166626
1776037954034236200,-1522119.791763916,1.1496484279632568,0.46303585171699524,-1.3781119585037231
1776037954044307200,-1522119.7816928711,1.1997393369674683,0.46670106053352356,-1.1520918607711792
1776037954054378000,-1522119.7716220703,1.2278391122817993,0.48869219422340393,-0.9224064946174622
1776037954064448800,-1522119.7615512696,1.246165156364441,0.513126790523529,-0.7159340381622314
1776037954104732000,-1522119.7212680664,1.2009611129760742,0.5998696684837341,-0.2015855312347412
1776037954114772200,-1522119.7112277832,1.147204875946045,0.5998696684837341,-0.11850785464048386
1776037954124873500,-1522119.7011264649,1.0787880420684814,0.6059783101081848,-0.07819075137376785
1776037954134944300,-1522119.691055664,1.0018190145492554,0.6108652353286743,-0.09040805697441101
1776037954145015000,-1522119.6809848633,0.9040805697441101,0.588874101638794,-0.1661553531885147
1776037954155055400,-1522119.67094458,0.7916813492774963,0.5400048494338989,-0.2834414839744568
1776037954165156600,-1522119.6608435058,0.7147123217582703,0.5021312236785889,-0.38117989897727966
1776037954175227400,-1522119.650772705,0.6817256212234497,0.4911356568336487,-0.4239404797554016
1776037954195308000,-1522119.6306918946,0.588874101638794,0.44837507605552673,-0.29077184200286865
1776037954205409300,-1522119.6205908202,0.5021312236785889,0.40072759985923767,-0.11362093687057495
1776037954215480000,-1522119.6105200194,0.3885102868080139,0.35185837745666504,0.10995574295520782
1776037954225581600,-1522119.600418457,0.2565633952617645,0.304210901260376,0.3335324227809906
1776037954235622000,-1522119.5903781739,0.13072516024112701,0.23579397797584534,0.46181413531303406
1776037954245692700,-1522119.580307373,0.0012217304902151227,0.13805554807186127,0.5192354321479797
1776037954255763500,-1522119.5702365723,-0.14782938361167908,0.03787364438176155,0.5253441333770752
1776037954265834200,-1522119.5601657715,-0.30054569244384766,-0.06108652427792549,0.4789183437824249
1776037954275843800,-1522119.55015625,-0.4434881806373596,-0.1869247704744339,0.3799581825733185
1776037954285945300,-1522119.5400546875,-0.5864306092262268,-0.3176499307155609,0.2431243658065796
1776037954326198000,-1522119.499802002,-1.1630873680114746,-0.6291912198066711,-0.1466076523065567
1776037954336268800,-1522119.4897312012,-1.2999212741851807,-0.6218608021736145,-0.14416420459747314
1776037954346339600,-1522119.4796604004,-1.4135421514511108,-0.6279694437980652,-0.11362093687057495
1776037954356380000,-1522119.4696201172,-1.5051720142364502,-0.6695083379745483,-0.06963863968849182
1776037954366481200,-1522119.4595187989,-1.587027907371521,-0.7354817390441895,-0.024434609338641167
1776037954376552000,-1522119.449447998,-1.6762142181396484,-0.8136724829673767,0.013439035043120384
1776037954386561800,-1522119.4394382325,-1.7788395881652832,-0.8686503767967224,0.0403171069920063
1776037954396571400,-1522119.4294287108,-1.9022343158721924,-0.8808676600456238,0.06108652427792549
1776037954426875400,-1522119.3991245118,-2.361604928970337,-0.6780604124069214,0.13561208546161652
1776037954447017000,-1522119.3789831542,-2.5912904739379883,-0.4960225820541382,0.2370157092809677
1776037954457087700,-1522119.3689123534,-2.652376890182495,-0.4544837474822998,0.3237585723400116
1776037954467158500,-1522119.3588415526,-2.6841418743133545,-0.4300491213798523,0.43127086758613586
1776037954477229600,-1522119.3487705078,-2.696359157562256,-0.40072759985923767,0.5375614166259766
1776037954487300400,-1522119.338699707,-2.6731462478637695,-0.3689626157283783,0.6304129362106323
1776037954497371100,-1522119.3286289063,-2.624277114868164,-0.35674530267715454,0.6951646208763123
1776037954507442000,-1522119.3185581055,-2.563190460205078,-0.37140607833862305,0.7293730974197388
1776037954527583500,-1522119.298416504,-2.417804718017578,-0.46303585171699524,0.7012733221054077
1776037954547694600,-1522119.27830542,-2.261423110961914,-0.5167919993400574,0.5681046843528748
1776037954557735000,-1522119.2682651368,-2.1820106506347656,-0.5277875661849976,0.4813618063926697
1776037954567805700,-1522119.258194336,-2.1087067127227783,-0.5180137157440186,0.41172316670417786
1776037954577846000,-1522119.2481540528,-2.1087067127227783,-0.5180137157440186,0.41172316670417786
1776037954587916800,-1522119.238083252,-2.0415115356445312,-0.5009095072746277,0.37140607833862305
1776037954597987600,-1522119.2280124512,-1.9755382537841797,-0.4948008358478546,0.3640756905078888
1776037954608058400,-1522119.2179416504,-1.920560359954834,-0.48869219422340393,0.37140607833862305
1776037954628230400,-1522119.1977695313,-1.8191566467285156,-0.45814892649650574,0.3640756905078888
1776037954648372000,-1522119.1776279297,-1.7018705606460571,-0.4288274049758911,0.29565876722335815
1776037954658442800,-1522119.167557129,-1.6371188163757324,-0.4092797040939331,0.2638937830924988
1776037954668513500,-1522119.1574865722,-1.5723671913146973,-0.3885102868080139,0.23945917189121246
1776037954678553900,-1522119.147446045,-1.508837103843689,-0.3604104816913605,0.22479841113090515
1776037954688655000,-1522119.1373449706,-1.451415777206421,-0.33597588539123535,0.22479841113090515
