time,seconds_elapsed,z,y,x
1776037938444197000,-1522135.3818029785,9.726892471313477,0.7075505256652832,-1.0282648801803589
1776037938453868000,-1522135.3721320801,9.721433639526367,0.728678286075592,-1.0644876956939697
1776037938483280400,-1522135.3427197265,9.719482421875,0.7099770307540894,-1.0945274829864502
1776037938493251000,-1522135.3327490233,9.717697143554688,0.7231503129005432,-1.10172700881958
1776037938523433000,-1522135.3025671386,9.71220874786377,0.7653922438621521,-1.1214137077331543
1776037938543574800,-1522135.282425293,9.710251808166504,0.7788228988647461,-1.1290916204452515
1776037938553554000,-1522135.272446045,9.709903717041016,0.7817922234535217,-1.1300196647644043
1776037938563655200,-1522135.2623447266,9.70920467376709,0.7865447402000427,-1.13273024559021
1776037938573665000,-1522135.252334961,9.708353042602539,0.7937199473381042,-1.1350233554840088
1776037938583735800,-1522135.2422641602,9.706892967224121,0.8067148923873901,-1.1383460760116577
1776037938593745700,-1522135.2322543946,9.704660415649414,0.8238534927368164,-1.1450860500335693
1776037938603847000,-1522135.2221530762,9.700552940368652,0.849793553352356,-1.1608195304870605
1776037938613917700,-1522135.2120822754,9.697949409484863,0.8635939359664917,-1.1723369359970093
1776037938624019000,-1522135.201980957,9.695801734924316,0.8729854822158813,-1.1830980777740479
1776037938654170400,-1522135.1718295899,9.691920280456543,0.8754201531410217,-1.212730884552002
1776037938664241200,-1522135.161758789,9.690574645996094,0.8677291870117188,-1.2289007902145386
1776037938674281500,-1522135.151718506,9.690069198608398,0.8324288129806519,-1.2569859027862549
1776037938684382700,-1522135.1416171875,9.69166374206543,0.7817865014076233,-1.2770403623580933
1776037938694423000,-1522135.1315769043,9.69522476196289,0.7025107741355896,-1.2959473133087158
1776037938704493800,-1522135.1215061035,9.70026969909668,0.5927238464355469,-1.312943458557129
1776037938714534100,-1522135.1114658203,9.702751159667969,0.5310559868812561,-1.320983648300171
1776037938724635400,-1522135.101364502,9.7098388671875,0.2953411042690277,-1.3424599170684814
1776037938754817300,-1522135.0711826172,9.705574989318848,-0.1936360001564026,-1.3909353017807007
1776037938764918800,-1522135.0610812989,9.694071769714355,-0.4264547824859619,-1.4189764261245728
1776037938774958800,-1522135.0510412597,9.67439079284668,-0.6779472231864929,-1.4549744129180908
1776037938785029600,-1522135.0409704589,9.64488697052002,-0.9470440149307251,-1.499881625175476
1776037938795070000,-1522135.0309299317,9.577840805053711,-1.3857617378234863,-1.5858790874481201
1776037938805140700,-1522135.020859375,9.548880577087402,-1.537951111793518,-1.6198692321777344
1776037938815181000,-1522135.0108188477,9.479342460632324,-1.854581356048584,-1.6949876546859741
1776037938845393400,-1522134.9806066894,9.33853530883789,-2.3642444610595703,-1.8364343643188477
1776037938875544800,-1522134.9504550782,8.627006530761719,-3.990912437438965,-2.412003755569458
1776037938885646000,-1522134.9403540038,8.280374526977539,-4.525887966156006,-2.6687302589416504
1776037938895686400,-1522134.9303137206,8.018070220947266,-4.864785671234131,-2.8661489486694336
1776037938905757200,-1522134.9202429198,7.875429630279541,-5.0288615226745605,-2.9763312339782715
1776037938915797500,-1522134.9102023926,7.577956199645996,-5.338557720184326,-3.200745105743408
1776037938925899000,-1522134.9001010743,7.101786136627197,-5.749233245849609,-3.5610857009887695
1776037938935969800,-1522134.8900302735,6.918826580047607,-5.872566223144531,-3.716610908508301
1776037938946071000,-1522134.879928955,6.558993816375732,-6.082881450653076,-4.018524646759033
1776037938976283400,-1522134.8497165528,5.5393900871276855,-6.448668956756592,-4.888784885406494
1776037938996425000,-1522134.8295749512,4.776169776916504,-6.436893463134766,-5.65022087097168
1776037939006495700,-1522134.8195041504,4.63356876373291,-6.400658130645752,-5.80792760848999
1776037939016536000,-1522134.8094638672,4.377222537994385,-6.284239768981934,-6.125246524810791
1776037939026606800,-1522134.7993930664,4.046409606933594,-6.009016990661621,-6.609742641448975
1776037939036677600,-1522134.7893222657,3.94500470161438,-5.896471977233887,-6.770447254180908
1776037939046779000,-1522134.7792211913,3.6932032108306885,-5.474995136260986,-7.249487400054932
1776037939077022000,-1522134.7489780274,3.3952980041503906,-4.302070140838623,-8.13231372833252
1776037939087123200,-1522134.738876709,3.3567655086517334,-3.823251724243164,-8.38363265991211
1776037939097194000,-1522134.7288059082,3.338698387145996,-3.5763888359069824,-8.498994827270508
1776037939117366300,-1522134.708633789,3.2062149047851562,-2.3373613357543945,-8.968128204345703
1776037939127437000,-1522134.6985629883,3.16789174079895,-2.0961391925811768,-9.041075706481934
1776037939137477400,-1522134.688522705,3.077702522277832,-1.636350393295288,-9.166269302368164
1776037939147548200,-1522134.6784519043,2.917174816131592,-1.005845308303833,-9.308530807495117
1776037939218043600,-1522134.6079562989,2.1535227298736572,0.5475745797157288,-9.551591873168945
1776037939278468400,-1522134.5475317382,1.6048173904418945,0.536210298538208,-9.659577369689941
1776037939338954200,-1522134.4870456543,1.4428057670593262,-0.10453736037015915,-9.699369430541992
1776037939379207000,-1522134.4467929688,1.4728060960769653,-0.6622180342674255,-9.672781944274902
1776037939389277700,-1522134.436722412,1.504550576210022,-0.8118407130241394,-9.656482696533203
1776037939399318000,-1522134.4266818848,1.5438662767410278,-0.9608253836631775,-9.636581420898438
1776037939409388800,-1522134.416611084,1.5834972858428955,-1.1000936031341553,-9.615234375
1776037939419459600,-1522134.4065405272,1.6188255548477173,-1.2249526977539062,-9.594231605529785
1776037939439601200,-1522134.3863989257,1.7026166915893555,-1.5080621242523193,-9.539246559143066
1776037939449672200,-1522134.376327881,1.7257205247879028,-1.5681474208831787,-9.525397300720215
1776037939459712300,-1522134.3662878417,1.768194556236267,-1.6808820962905884,-9.498344421386719
1776037939479854000,-1522134.3461459961,1.8533668518066406,-1.9073376655578613,-9.439146995544434
1776037939530177500,-1522134.2958225098,2.0669991970062256,-2.5205042362213135,-9.249052047729492
1776037939540248300,-1522134.285751709,2.1277730464935303,-2.6263201236724854,-9.205728530883789
1776037939550319000,-1522134.2756809082,2.2010374069213867,-2.7321338653564453,-9.157580375671387
1776037939560390000,-1522134.2656101075,2.2864444255828857,-2.839534282684326,-9.1038236618042
1776037939590541300,-1522134.2354587403,2.5953240394592285,-3.1871907711029053,-8.903736114501953
1776037939620753700,-1522134.205246338,2.9489779472351074,-3.5737862586975098,-8.643030166625977
1776037939640895200,-1522134.1851047364,3.196732997894287,-3.8391969203948975,-8.438711166381836
1776037939650966000,-1522134.1750339356,3.258151054382324,-3.902965784072876,-8.38580322265625
1776037939661036800,-1522134.1649631348,3.456627607345581,-4.083155632019043,-8.218877792358398
1776037939671107600,-1522134.154892334,3.594888925552368,-4.189933776855469,-8.105035781860352
1776037939691218700,-1522134.13478125,3.8811957836151123,-4.37128210067749,-7.873920440673828
1776037939701289500,-1522134.1247104493,3.9495344161987305,-4.408569812774658,-7.818957805633545
1776037939711360300,-1522134.1146396485,4.088965892791748,-4.4815545082092285,-7.704960823059082
1776037939721431000,-1522134.1045688477,4.290282726287842,-4.590700149536133,-7.529232501983643
1776037939731501800,-1522134.094498291,4.344947814941406,-4.6219868659973145,-7.478571891784668
1776037939741572600,-1522134.0844274901,4.450912952423096,-4.693728446960449,-7.3707990646362305
1776037939751643400,-1522134.0743566894,4.553195476531982,-4.762503147125244,-7.263426780700684
1776037939761714400,-1522134.0642856446,4.63620138168335,-4.838603973388672,-7.159884929656982
1776037939771785200,-1522134.0542148438,4.692966938018799,-4.9210944175720215,-7.066065311431885
1776037939801997600,-1522134.0240024414,4.747860908508301,-5.1875200271606445,-6.835044860839844
1776037939812068400,-1522134.0139316407,4.784236907958984,-5.372921943664551,-6.664321422576904
1776037939822139100,-1522134.0038608399,4.780653953552246,-5.435362815856934,-6.61608362197876
1776037939832240400,-1522133.9937595215,4.759029388427734,-5.5862555503845215,-6.505058765411377
1776037939842280700,-1522133.9837192383,4.737764358520508,-5.734984397888184,-6.390142440795898
1776037939852351500,-1522133.9736484375,4.683365345001221,-5.967514991760254,-6.214921474456787
1776037939862422300,-1522133.9635776368,4.655829906463623,-6.044639587402344,-6.160841464996338
1776037939872493000,-1522133.953506836,4.59833288192749,-6.196702003479004,-6.051991939544678
1776037939912776400,-1522133.9132236328,4.231868267059326,-6.78781270980835,-5.673383712768555
1776037939922877700,-1522133.9031223145,4.096023082733154,-6.938051700592041,-5.5907440185546875
1776037939932948500,-1522133.8930515137,3.8727030754089355,-7.157550811767578,-5.471932411193848
1776037939942988800,-1522133.8830112305,3.7933363914489746,-7.227687358856201,-5.435212135314941
1776037939953059600,-1522133.8729404297,3.6354339122772217,-7.362255573272705,-5.362016201019287
1776037939963160800,-1522133.8628391114,3.478182554244995,-7.488541126251221,-5.2909722328186035
1776037939973231600,-1522133.8527683106,3.327518939971924,-7.60422420501709,-5.222431182861328
1776037939983302400,-1522133.8426975098,3.187330961227417,-7.708447456359863,-5.156661510467529
1776037939993403600,-1522133.8325964354,3.061941385269165,-7.8004150390625,-5.093960285186768
1776037940003474700,-1522133.8225253907,2.9065749645233154,-7.913355827331543,-5.01008939743042
1776037940013514800,-1522133.8124853515,2.8579747676849365,-7.946161270141602,-4.9860687255859375
1776037940023585500,-1522133.8024145507,2.7741029262542725,-8.001816749572754,-4.944256782531738
1776037940033625900,-1522133.7923740235,2.668264150619507,-8.065531730651855,-4.898769855499268
1776037940043727400,-1522133.782272705,2.6089508533477783,-8.095492362976074,-4.88126802444458
1776037940053767400,-1522133.772232666,2.5816657543182373,-8.107139587402344,-4.876440525054932
1776037940063838200,-1522133.7621618651,2.5162978172302246,-8.122215270996094,-4.88551664352417
1776037940083980000,-1522133.7420200196,2.4529337882995605,-8.114042282104492,-4.931107997894287
1776037940114131200,-1522133.7118688964,2.3450846672058105,-7.94956636428833,-5.241695880889893
1776037940134334000,-1522133.6916660157,2.2981669902801514,-7.790186405181885,-5.4956183433532715
1776037940144404700,-1522133.6815952149,2.2828190326690674,-7.707812786102295,-5.616827487945557
1776037940154475500,-1522133.671524414,2.2791242599487305,-7.613410949707031,-5.745603561401367
1776037940164576800,-1522133.6614233397,2.2954444885253906,-7.45127534866333,-5.948094844818115
1776037940174678300,-1522133.6513217774,2.305182695388794,-7.386503219604492,-6.024623394012451
1776037940184718300,-1522133.6412817382,2.3292627334594727,-7.252788543701172,-6.175920486450195
1776037940194758700,-1522133.631241455,2.3640613555908203,-7.022919178009033,-6.42341423034668
1776037940214900200,-1522133.6110998534,2.40100359916687,-6.654417514801025,-6.791487693786621
1776037940224971300,-1522133.6010288086,2.407604217529297,-6.552110195159912,-6.887937545776367
1776037940235011300,-1522133.5909887694,2.415956735610962,-6.339788436889648,-7.081004619598389
1776037940245112800,-1522133.580887207,2.4284818172454834,-6.0017242431640625,-7.365607738494873
1776037940255214000,-1522133.5707858887,2.4346091747283936,-5.883431911468506,-7.458438873291016
1776037940265284900,-1522133.560715088,2.4615416526794434,-5.528097629547119,-7.716951847076416
1776037940285426400,-1522133.5405734864,2.5001747608184814,-5.175960063934326,-7.94537353515625
1776037940295497200,-1522133.5305026856,2.5520401000976562,-4.845643997192383,-8.13493824005127
1776037940335689000,-1522133.4903110352,2.7078781127929688,-4.098647594451904,-8.48757266998291
1776037940345759700,-1522133.4802402344,2.7474522590637207,-3.9437694549560547,-8.548016548156738
1776037940355830500,-1522133.4701694336,2.7881226539611816,-3.799558162689209,-8.600005149841309
1776037940365901300,-1522133.4600986328,2.802213430404663,-3.730137586593628,-8.625779151916504
1776037940376002600,-1522133.4499975585,2.837722063064575,-3.602283477783203,-8.668408393859863
1776037940386073300,-1522133.4399267577,2.864553213119507,-3.4891812801361084,-8.705764770507812
1776037940396113700,-1522133.4298862305,2.888247489929199,-3.3423173427581787,-8.755417823791504
1776037940426295600,-1522133.3997043457,2.802351236343384,-3.233858823776245,-8.823795318603516
1776037940436366300,-1522133.389633545,2.7660443782806396,-3.1649835109710693,-8.860150337219238
1776037940446437000,-1522133.3795629882,2.7318081855773926,-3.13329815864563,-8.88200855255127
1776037940456477400,-1522133.369522461,2.698641777038574,-3.0963573455810547,-8.905072212219238
1776037940466487300,-1522133.3595126953,2.677624464035034,-3.0864601135253906,-8.914846420288086
1776037940476588500,-1522133.349411377,2.6415929794311523,-3.0467798709869385,-8.939212799072266
1776037940486659300,-1522133.3393405762,2.601358652114868,-3.0074970722198486,-8.964279174804688
1776037940496760600,-1522133.3292395019,2.558271646499634,-2.965607166290283,-8.990595817565918
1776037940547023000,-1522133.2789768067,2.3245837688446045,-2.6626734733581543,-9.147505760192871
1776037940567164700,-1522133.258835449,2.2529327869415283,-2.596421480178833,-9.184404373168945
1776037940577266200,-1522133.2487338868,2.202505350112915,-2.5650625228881836,-9.205423355102539
1776037940587337000,-1522133.238663086,2.1522061824798584,-2.5470190048217773,-9.22231388092041
1776037940597438200,-1522133.2285617676,2.102522373199463,-2.542030096054077,-9.235143661499023
1776037940607509000,-1522133.2184909668,2.062725067138672,-2.581289052963257,-9.233227729797363
1776037940637721300,-1522133.1882785645,1.8970941305160522,-2.5170199871063232,-9.286335945129395
1776037940647792000,-1522133.1782077637,1.849812626838684,-2.50126314163208,-9.300121307373047
1776037940657893600,-1522133.1681064453,1.8034040927886963,-2.491482734680176,-9.311854362487793
1776037940667933700,-1522133.1580664061,1.7874503135681152,-2.5020930767059326,-9.31208610534668
1776037940688106000,-1522133.137894043,1.702419400215149,-2.515770673751831,-9.324326515197754
1776037940698207200,-1522133.1277927246,1.6595009565353394,-2.5285043716430664,-9.328618049621582
1776037940708278000,-1522133.1177219239,1.5895870923995972,-2.5500166416168213,-9.334935188293457
1776037940748622300,-1522133.0773776856,1.4577938318252563,-2.6722359657287598,-9.322253227233887
1776037940758693000,-1522133.0673068848,1.4390459060668945,-2.7121384143829346,-9.313638687133789
1776037940768764000,-1522133.057236084,1.4240434169769287,-2.756542682647705,-9.302900314331055
1776037940778865200,-1522133.0471347657,1.4193233251571655,-2.7815725803375244,-9.29616928100586
1776037940788875000,-1522133.037125,1.4096033573150635,-2.8324015140533447,-9.282291412353516
1776037940798976300,-1522133.0270236817,1.4021899700164795,-2.8867990970611572,-9.266640663146973
1776037940809047000,-1522133.016952881,1.3953297138214111,-2.9773290157318115,-9.238990783691406
1776037940849361000,-1522132.9766391602,1.4567055702209473,-3.2618415355682373,-9.132841110229492
1776037940859431700,-1522132.9665683594,1.4913080930709839,-3.338982343673706,-9.09931755065918
1776037940869502500,-1522132.9564975586,1.5127087831497192,-3.3785486221313477,-9.081162452697754
1776037940889674500,-1522132.9363254395,1.6885902881622314,-3.519678831100464,-8.996161460876465
1776037940899775700,-1522132.9262243651,1.9309096336364746,-3.5890862941741943,-8.91966724395752
1776037940909785600,-1522132.9162143555,2.1265110969543457,-3.6182525157928467,-8.863216400146484
1776037940919856400,-1522132.9061435547,2.2330033779144287,-3.6253769397735596,-8.834066390991211
1776037940950068700,-1522132.8759311524,2.8001346588134766,-3.724228858947754,-8.629007339477539
1776037940970241000,-1522132.8557590332,3.1263344287872314,-3.829864978790283,-8.469270706176758
1776037940980342300,-1522132.8456577149,3.380551338195801,-3.894604206085205,-8.341121673583984
1776037940990413000,-1522132.835586914,3.5542211532592773,-3.9277727603912354,-8.252907752990723
1776037941000453400,-1522132.825546631,3.6396162509918213,-3.940737247467041,-8.209396362304688
1776037941010524200,-1522132.81547583,3.813673734664917,-3.966439962387085,-8.1174898147583
1776037941020595000,-1522132.8054050293,3.9844250679016113,-3.9905104637145996,-8.023127555847168
1776037941050807300,-1522132.775192627,4.44049072265625,-4.096549987792969,-7.724681854248047
1776037941060908500,-1522132.7650915526,4.62729549407959,-4.1913018226623535,-7.5625081062316895
1776037941070918400,-1522132.755081543,4.668886184692383,-4.22099494934082,-7.52031135559082
1776037941080989200,-1522132.7450107422,4.800776481628418,-4.355284214019775,-7.358968734741211
1776037941091060000,-1522132.7349399414,4.845946311950684,-4.460295677185059,-7.265876770019531
1776037941101161200,-1522132.724838867,4.802438735961914,-4.508744716644287,-7.264861583709717
1776037941111232300,-1522132.7147678223,4.813473701477051,-4.703552722930908,-7.132842540740967
1776037941121303000,-1522132.7046970215,4.819870948791504,-4.842016696929932,-7.035205841064453
1776037941161494500,-1522132.6645053711,4.927701473236084,-5.334448337554932,-6.5902814865112305
1776037941171565300,-1522132.6544345703,4.962337017059326,-5.47097635269165,-6.450892448425293
1776037941181636000,-1522132.6443640136,4.99582052230835,-5.602172374725342,-6.310931205749512
1776037941191707000,-1522132.6342932128,5.03399133682251,-5.722575664520264,-6.171018123626709
1776037941201777700,-1522132.624222412,5.084564685821533,-5.827028274536133,-6.0302019119262695
1776037941211848700,-1522132.6141513672,5.187138080596924,-5.945764541625977,-5.823390007019043
1776037941221919500,-1522132.6040805664,5.221894264221191,-5.978827953338623,-5.7581095695495605
1776037941231990300,-1522132.5940097657,5.342994213104248,-6.05434513092041,-5.564863204956055
1776037941252101400,-1522132.5738986817,5.498785018920898,-6.123701572418213,-5.3323564529418945
1776037941282344200,-1522132.5436557618,5.673123836517334,-6.167482376098633,-5.0939412117004395
1776037941292415000,-1522132.533584961,5.72460412979126,-6.181797981262207,-5.018433094024658
1776037941302485800,-1522132.5235141602,5.768740177154541,-6.210561752319336,-4.931628704071045
1776037941312465200,-1522132.5135349121,5.7767229080200195,-6.221073150634766,-4.9089813232421875
1776037941322566400,-1522132.5034335938,5.7769856452941895,-6.245063304901123,-4.878115177154541
1776037941332637200,-1522132.493362793,5.760601043701172,-6.270991802215576,-4.864208221435547
1776037941352809200,-1522132.4731906739,5.693493843078613,-6.326698303222656,-4.871078014373779
1776037941362880000,-1522132.463120117,5.641401290893555,-6.357672691345215,-4.891317844390869
1776037941372950800,-1522132.4530493163,5.570037364959717,-6.391068935394287,-4.929434299468994
1776037941383021600,-1522132.4429785155,5.479864120483398,-6.424186706542969,-4.987114429473877
1776037941393092600,-1522132.4329074707,5.3727803230285645,-6.452194690704346,-5.066834449768066
1776037941403193900,-1522132.4228061524,5.248964786529541,-6.467043876647949,-5.176494598388672
1776037941413264600,-1522132.4127353516,5.107380390167236,-6.443702220916748,-5.344507217407227
1776037941423335400,-1522132.4026645508,4.963445663452148,-6.395887851715088,-5.534187316894531
1776037941433375700,-1522132.3926242676,4.755311965942383,-6.337044715881348,-5.779211044311523
1776037941443446500,-1522132.3825534668,4.6156463623046875,-6.275927543640137,-5.956418991088867
1776037941463588000,-1522132.3624118653,4.405416011810303,-6.163012981414795,-6.22735595703125
1776037941473598000,-1522132.3524020996,4.268003463745117,-6.065348148345947,-6.416079521179199
1776037941483668700,-1522132.3423312989,4.127472400665283,-5.94560432434082,-6.6169586181640625
1776037941493739500,-1522132.332260498,3.920497417449951,-5.726749420166016,-6.92852258682251
1776037941503840800,-1522132.3221591797,3.8509600162506104,-5.644703388214111,-7.034047603607178
1776037941513850600,-1522132.312149414,3.719761848449707,-5.470733165740967,-7.239119052886963
1776037941523951900,-1522132.3020480957,3.594801425933838,-5.282357692718506,-7.439387798309326
1776037941534022700,-1522132.291977295,3.4763283729553223,-5.0820136070251465,-7.632737159729004
1776037941544093400,-1522132.2819064942,3.3657071590423584,-4.8756608963012695,-7.814751625061035
1776037941564174000,-1522132.2618259278,3.1761019229888916,-4.4635844230651855,-8.133829116821289
1776037941574244900,-1522132.251755127,3.0942957401275635,-4.264796733856201,-8.270866394042969
1776037941584315600,-1522132.2416843262,3.017416000366211,-4.078531742095947,-8.392328262329102
1776037941594325500,-1522132.2316745606,2.9423351287841797,-3.906491756439209,-8.500139236450195
1776037941604426800,-1522132.2215732422,2.8671936988830566,-3.7480578422546387,-8.59660816192627
1776037941614467000,-1522132.211532959,2.793134927749634,-3.60146164894104,-8.683218002319336
1776037941624568300,-1522132.2014316407,2.691227674484253,-3.3951075077056885,-8.79778003692627
1776037941644679400,-1522132.1813205567,2.563176155090332,-3.1394991874694824,-8.929953575134277
1776037941684901600,-1522132.1410983887,2.4286468029022217,-2.734090566635132,-9.099276542663574
1776037941694880800,-1522132.1311191407,2.355999708175659,-2.66831374168396,-9.13782024383545
1776037941704921000,-1522132.1210788575,2.2911884784698486,-2.621213436126709,-9.167882919311523
1776037941714931000,-1522132.1110690918,2.2484848499298096,-2.5491957664489746,-9.198713302612305
1776037941725032200,-1522132.1009677735,2.249809503555298,-2.534795045852661,-9.202366828918457
1776037941735103000,-1522132.0908969727,2.244734525680542,-2.4446535110473633,-9.227959632873535
1776037941745204200,-1522132.0807956543,2.2176406383514404,-2.319333791732788,-9.266776084899902
1776037941775264000,-1522132.0507360839,2.1166059970855713,-2.2018840312957764,-9.318909645080566
1776037941785365500,-1522132.0406345215,2.0609848499298096,-2.175621747970581,-9.33752727508545
1776037941795375000,-1522132.030625,2.0014402866363525,-2.155310869216919,-9.355172157287598
1776037941805446000,-1522132.020554199,1.9012253284454346,-2.1347198486328125,-9.38076400756836
1776037941815455700,-1522132.0105441895,1.8695658445358276,-2.138134002685547,-9.386346817016602
1776037941825557000,-1522132.0004431151,1.7586121559143066,-2.142563819885254,-9.406757354736328
1776037941835597300,-1522131.990402588,1.6891008615493774,-2.1600968837738037,-9.415482521057129
1776037941845668000,-1522131.9803317871,1.6638357639312744,-2.1853249073028564,-9.414159774780273
1776037941865779200,-1522131.9602207032,1.5754259824752808,-2.2797205448150635,-9.406982421875
1776037941885920800,-1522131.9400793456,1.5627371072769165,-2.4829399585723877,-9.357523918151855
1776037941895961000,-1522131.9300388184,1.6151543855667114,-2.638467788696289,-9.305920600891113
1776037941906031900,-1522131.9199680176,1.6131956577301025,-2.678164005279541,-9.294913291931152
1776037941916102700,-1522131.9098974608,1.605421781539917,-2.7015438079833984,-9.289493560791016
1776037941926173400,-1522131.89982666,1.5932492017745972,-2.722055673599243,-9.285600662231445
1776037941936244200,-1522131.8897558593,1.5846076011657715,-2.7479453086853027,-9.279451370239258
1776037941946315300,-1522131.8796848145,1.5819295644760132,-2.777952194213867,-9.270968437194824
1776037941956324900,-1522131.8696750489,1.5857462882995605,-2.8133068084716797,-9.259650230407715
1776037941976466400,-1522131.8495334473,1.5997788906097412,-2.8944997787475586,-9.232171058654785
1776037941986537200,-1522131.8394628905,1.602837324142456,-2.9373934268951416,-9.218082427978516
1776037941996577500,-1522131.8294223633,1.6028447151184082,-2.9809067249298096,-9.204100608825684
1776037942006678800,-1522131.819321289,1.604316234588623,-3.0243306159973145,-9.189667701721191
1776037942016719000,-1522131.8092810058,1.6107299327850342,-3.0676820278167725,-9.174162864685059
1776037942026790000,-1522131.799210205,1.6247905492782593,-3.1106650829315186,-9.157195091247559
1776037942036830200,-1522131.7891696778,1.6581369638442993,-3.1750504970550537,-9.129077911376953
1776037942046901000,-1522131.779099121,1.689998984336853,-3.2188398838043213,-9.107874870300293
1776037942077022000,-1522131.7489780274,1.7856699228286743,-3.331691265106201,-9.048847198486328
1776037942087092700,-1522131.7389072266,1.826911211013794,-3.3777260780334473,-9.02351188659668
1776037942097133000,-1522131.7288669434,1.8707482814788818,-3.4237232208251953,-8.997154235839844
1776037942107173400,-1522131.7188266602,1.9160046577453613,-3.4675309658050537,-8.970817565917969
1776037942117213700,-1522131.708786377,1.9622560739517212,-3.5071799755096436,-8.945369720458984
1776037942127253800,-1522131.6987463378,2.012096405029297,-3.5423543453216553,-8.920402526855469
1776037942137294000,-1522131.6887058106,2.099921464920044,-3.5888707637786865,-8.881482124328613
1776037942147364900,-1522131.6786352538,2.1357004642486572,-3.6024348735809326,-8.867447853088379
1776037942157435600,-1522131.668564453,2.2157504558563232,-3.6289126873016357,-8.836958885192871
1776037942167506400,-1522131.6584936522,2.3062119483947754,-3.6557633876800537,-8.802680969238281
1776037942197749500,-1522131.6282504883,2.5918667316436768,-3.7477288246154785,-8.68372917175293
1776037942207820300,-1522131.6181796875,2.689390182495117,-3.778048515319824,-8.640829086303711
1776037942217860600,-1522131.6081394043,2.7897114753723145,-3.807983636856079,-8.59576416015625
1776037942227931400,-1522131.5980686035,2.893852710723877,-3.838088035583496,-8.547812461853027
1776037942237971700,-1522131.5880283203,3.060608386993408,-3.8867719173431396,-8.467353820800781
1776037942248042500,-1522131.5779575196,3.1179370880126953,-3.9026739597320557,-8.439075469970703
1776037942258113300,-1522131.5678867188,3.237473249435425,-3.9391252994537354,-8.376898765563965
1776037942278254800,-1522131.5477451172,3.48305082321167,-4.021562576293945,-8.238068580627441
1776037942288325600,-1522131.5376743164,3.6037938594818115,-4.069386959075928,-8.162301063537598
1776037942298396400,-1522131.5276035157,3.7196030616760254,-4.122596263885498,-8.083263397216797
1776037942308436700,-1522131.5175632325,3.8268392086029053,-4.1809234619140625,-8.002846717834473
1776037942318477000,-1522131.5075229493,3.9178524017333984,-4.244595050811768,-7.9249114990234375
1776037942328517400,-1522131.497482666,3.981882333755493,-4.315395355224609,-7.8544487953186035
1776037942338588200,-1522131.4874118653,4.009446144104004,-4.399240493774414,-7.793678283691406
1776037942348659000,-1522131.4773410645,4.064146995544434,-4.506449222564697,-7.70357084274292
1776037942358729700,-1522131.4672702637,4.115206241607666,-4.629086017608643,-7.603092670440674
1776037942378901800,-1522131.4470981446,4.192874431610107,-4.90919303894043,-7.381735324859619
1776037942399012900,-1522131.4269870606,4.231240272521973,-5.215248107910156,-7.146199703216553
1776037942409114000,-1522131.4168859862,4.2325439453125,-5.372461318969727,-7.027988433837891
1776037942419185000,-1522131.4068151854,4.22434139251709,-5.5934319496154785,-6.858486652374268
1776037942429256000,-1522131.3967441407,4.210470676422119,-5.667315483093262,-6.806163787841797
1776037942439296000,-1522131.3867041015,4.211207389831543,-5.8546462059021,-6.6452412605285645
1776037942449397500,-1522131.376602539,4.2067389488220215,-5.915186405181885,-6.594264030456543
1776037942459437800,-1522131.366562256,4.223114490509033,-6.016995429992676,-6.490874290466309
1776037942469508600,-1522131.356491455,4.248214244842529,-6.108087062835693,-6.388608455657959
1776037942489619500,-1522131.3363806151,4.313369274139404,-6.264255046844482,-6.190666198730469
1776037942499598800,-1522131.326401123,4.3528008460998535,-6.331634044647217,-6.093760013580322
1776037942509700000,-1522131.3162998047,4.3954877853393555,-6.3932390213012695,-5.998046875
1776037942519740400,-1522131.3062595215,4.436509609222412,-6.451521396636963,-5.904714107513428
1776037942529811200,-1522131.2961887207,4.471732139587402,-6.510639667510986,-5.812536239624023
1776037942539882000,-1522131.28611792,4.4964399337768555,-6.571438312530518,-5.7243876457214355
1776037942549983200,-1522131.2760168456,4.511244297027588,-6.637864589691162,-5.635408401489258
1776037942560023600,-1522131.2659765624,4.5158562660217285,-6.706781387329102,-5.549461364746094
1776037942570125000,-1522131.255875,4.512404441833496,-6.778280735015869,-5.464752674102783
1776037942600307000,-1522131.2256931153,4.440639972686768,-7.017945289611816,-5.215320587158203
1776037942620418000,-1522131.2055820313,4.380552768707275,-7.091626167297363,-5.16623592376709
1776037942630488800,-1522131.1955112305,4.338776588439941,-7.12951135635376,-5.149319171905518
1776037942640559600,-1522131.1854404297,4.297625541687012,-7.153026103973389,-5.15121603012085
1776037942650660900,-1522131.1753391114,4.257650375366211,-7.149297714233398,-5.1894450187683105
1776037942660731600,-1522131.1652683106,4.200773239135742,-7.069075584411621,-5.343411445617676
1776037942670772000,-1522131.1552280274,4.183481216430664,-7.01808500289917,-5.423593521118164
1776037942680812300,-1522131.1451877442,4.166070461273193,-6.9834208488464355,-5.4814300537109375
1776037942690883000,-1522131.1351169434,4.154212951660156,-6.943459510803223,-5.540872573852539
1776037942721034500,-1522131.1049655762,4.139680862426758,-6.760979652404785,-5.772571086883545
1776037942731135700,-1522131.0948642578,4.133739948272705,-6.6782546043396,-5.872265815734863
1776037942741206500,-1522131.084793457,4.120529651641846,-6.5882673263549805,-5.982170581817627
1776037942751307800,-1522131.0746921387,4.097561359405518,-6.4923834800720215,-6.101585388183594
1776037942761378600,-1522131.064621338,4.073916912078857,-6.395432949066162,-6.218684196472168
1776037942771480000,-1522131.0545200196,4.044880390167236,-6.288307189941406,-6.345592021942139
1776037942781520100,-1522131.0444799804,4.014006614685059,-6.171890735626221,-6.478110313415527
1776037942811732700,-1522131.014267334,3.9281058311462402,-5.7668681144714355,-6.890834331512451
1776037942821803500,-1522131.0041965332,3.8993046283721924,-5.621628284454346,-7.025887966156006
1776037942831874300,-1522130.9941257325,3.869478225708008,-5.47584342956543,-7.156301498413086
1776037942841914600,-1522130.9840854493,3.838763952255249,-5.332886219024658,-7.279739856719971
1776037942851924200,-1522130.9740756836,3.8113884925842285,-5.1976799964904785,-7.391064167022705
1776037942861995000,-1522130.9640048828,3.7826271057128906,-5.060647487640381,-7.500130653381348
1776037942872065800,-1522130.953934326,3.756216049194336,-4.926110744476318,-7.602279186248779
1776037942882136600,-1522130.9438635253,3.7238593101501465,-4.734938144683838,-7.7384490966796875
1776037942912349200,-1522130.913650879,3.633509397506714,-4.375241756439209,-7.989071846008301
1776037942922420000,-1522130.9035800782,3.6051411628723145,-4.3135666847229,-8.03532886505127
1776037942932490800,-1522130.8935092774,3.549473762512207,-4.210567951202393,-8.114355087280273
1776037942942561500,-1522130.8834384766,3.4661753177642822,-4.114899635314941,-8.19900131225586
1776037942952662800,-1522130.8733371582,3.402163028717041,-4.039392948150635,-8.26310920715332
1776037942962733600,-1522130.8632663575,3.3355941772460938,-3.973677396774292,-8.321905136108398
1776037942972804400,-1522130.8531955567,3.2653799057006836,-3.9158592224121094,-8.37697696685791
1776037942982875100,-1522130.843124756,3.1911373138427734,-3.8631911277770996,-8.429874420166016
1776037942992915500,-1522130.8330844727,3.1131415367126465,-3.8155133724212646,-8.480600357055664
1776037943023005700,-1522130.8029943847,2.8248777389526367,-3.6601223945617676,-8.64835262298584
1776037943043116800,-1522130.7828833007,2.693643569946289,-3.5949394702911377,-8.717286109924316
1776037943053187600,-1522130.7728125,2.6077468395233154,-3.546351432800293,-8.763187408447266
1776037943063258600,-1522130.762741455,2.5212390422821045,-3.4960594177246094,-8.80859375
1776037943073329400,-1522130.7526706543,2.392524003982544,-3.4106979370117188,-8.877689361572266
1776037943083430700,-1522130.742569336,2.3447844982147217,-3.4048562049865723,-8.892655372619629
1776037943093532000,-1522130.7324680176,2.256394624710083,-3.373509168624878,-8.92740249633789
1776037943103602700,-1522130.7223972168,2.136080265045166,-3.3049721717834473,-8.982465744018555
1776037943133845800,-1522130.692154297,1.9937633275985718,-3.228224992752075,-9.042890548706055
1776037943143916500,-1522130.6820834961,1.9367153644561768,-3.1627085208892822,-9.078370094299316
1776037943153926100,-1522130.6720739745,1.9007433652877808,-3.1159493923187256,-9.102110862731934
1776037943164027600,-1522130.6619724121,1.8594950437545776,-3.05879807472229,-9.129974365234375
1776037943174098400,-1522130.6519016114,1.845095157623291,-3.0402371883392334,-9.139089584350586
1776037943184108000,-1522130.6418920897,1.772268295288086,-2.937633514404297,-9.186936378479004
1776037943194148400,-1522130.6318515625,1.726746916770935,-2.8774447441101074,-9.21461009979248
1776037943204249600,-1522130.6217504882,1.6805533170700073,-2.819814682006836,-9.24092960357666
1776037943214320600,-1522130.6116794434,1.6626564264297485,-2.798663377761841,-9.250592231750488
1776037943244471800,-1522130.5815280762,1.5118086338043213,-2.6332452297210693,-9.32474422454834
1776037943254542600,-1522130.5714575194,1.4652037620544434,-2.58237361907959,-9.346385955810547
1776037943264613400,-1522130.5613867186,1.424924373626709,-2.535499095916748,-9.365426063537598
1776037943274653700,-1522130.5513461914,1.3913754224777222,-2.4913697242736816,-9.382299423217773
1776037943284755200,-1522130.541244873,1.365270972251892,-2.4511399269104004,-9.396719932556152
1776037943294826000,-1522130.5311740723,1.3362714052200317,-2.402212381362915,-9.413509368896484
1776037943304896800,-1522130.5211032715,1.3221429586410522,-2.380034923553467,-9.421133041381836
1776037943345149400,-1522130.480850586,1.2915984392166138,-2.3761425018310547,-9.426351547241211
1776037943365291000,-1522130.4607089844,1.2868372201919556,-2.418036699295044,-9.41634464263916
1776037943375361800,-1522130.4506381836,1.2946888208389282,-2.467984914779663,-9.402297973632812
1776037943385432600,-1522130.4405673828,1.3099883794784546,-2.5151147842407227,-9.387680053710938
1776037943395473000,-1522130.4305270996,1.3218836784362793,-2.5450527667999268,-9.377938270568848
1776037943405543700,-1522130.4204562989,1.3459800481796265,-2.613449811935425,-9.355671882629395
1776037943415584000,-1522130.4104160157,1.3884680271148682,-2.7389252185821533,-9.3134765625
1776037943445674200,-1522130.3803256836,1.4885838031768799,-3.064107656478882,-9.195964813232422
1776037943455745000,-1522130.3702548828,1.5087366104125977,-3.126005172729492,-9.171814918518066
1776037943465815800,-1522130.360184082,1.5573358535766602,-3.2474331855773926,-9.12136459350586
1776037943475886600,-1522130.3501135253,1.6194533109664917,-3.3698933124542236,-9.065958023071289
1776037943485896400,-1522130.3401035157,1.7353689670562744,-3.5507872104644775,-8.97500991821289
1776037943495997700,-1522130.3300021973,1.826042652130127,-3.672480583190918,-8.907796859741211
1776037943506068500,-1522130.3199316405,1.926039695739746,-3.792426109313965,-8.836191177368164
1776037943516170000,-1522130.3098300782,2.0357840061187744,-3.9103755950927734,-8.759848594665527
1776037943546321200,-1522130.279678955,2.3391709327697754,-4.191603183746338,-8.551557540893555
1776037943556361500,-1522130.2696384278,2.5331060886383057,-4.359952926635742,-8.410979270935059
1776037943566371300,-1522130.2596286621,2.5925111770629883,-4.411842346191406,-8.365700721740723
1776037943576442000,-1522130.2495578614,2.7137131690979004,-4.520503520965576,-8.268689155578613
1776037943586452000,-1522130.2395480957,2.8871593475341797,-4.690234184265137,-8.11396312713623
1776037943596492000,-1522130.2295080565,2.9203903675079346,-4.73746919631958,-8.07453441619873
1776037943606562800,-1522130.2194372558,2.9793426990509033,-4.8422651290893555,-7.990393161773682
1776037943616664300,-1522130.2093356934,3.0905537605285645,-5.029815196990967,-7.830697059631348
1776037943656947500,-1522130.1690524903,3.3096325397491455,-5.507143020629883,-7.4086503982543945
1776037943667018200,-1522130.1589816895,3.3965911865234375,-5.73178768157959,-7.195844650268555
1776037943677119500,-1522130.1488806151,3.4146766662597656,-5.804179668426514,-7.1289448738098145
1776037943687190300,-1522130.1388098144,3.4564082622528076,-5.952459335327148,-6.985116004943848
1776037943697230600,-1522130.1287692871,3.5066170692443848,-6.174176216125488,-6.764139652252197
1776037943707271000,-1522130.118729004,3.5253889560699463,-6.318990707397461,-6.619093418121338
1776037943717341700,-1522130.1086582032,3.534332036972046,-6.463266849517822,-6.473412990570068
1776037943727412500,-1522130.0985874024,3.532654047012329,-6.605580806732178,-6.329063415527344
1776037943757655600,-1522130.0683444825,3.4911959171295166,-6.947061061859131,-5.976644515991211
1776037943767726300,-1522130.0582736817,3.4752883911132812,-7.010623455047607,-5.911337375640869
1776037943777797000,-1522130.048202881,3.4288454055786133,-7.196727275848389,-5.711439609527588
1776037943787868000,-1522130.03813208,3.390031099319458,-7.310164928436279,-5.589237213134766
1776037943807979000,-1522130.0180209961,3.2786037921905518,-7.5496344566345215,-5.331431865692139
1776037943818080300,-1522130.0079196778,3.2282352447509766,-7.6242995262146,-5.255372047424316
1776037943828151000,-1522129.997848877,3.1992194652557373,-7.653469562530518,-5.230658531188965
1776037943868434200,-1522129.9575659179,3.006150007247925,-7.760493755340576,-5.187309741973877
1776037943878505000,-1522129.947495117,2.9399616718292236,-7.761101722717285,-5.224205493927002
1776037943888545300,-1522129.9374548339,2.914811372756958,-7.743384838104248,-5.264433860778809
1776037943898616000,-1522129.927384033,2.850663661956787,-7.702075004577637,-5.3593058586120605
1776037943908686800,-1522129.9173132323,2.795398712158203,-7.616567611694336,-5.508542537689209
1776037943918758000,-1522129.9072421875,2.7600135803222656,-7.5352582931518555,-5.636720657348633
1776037943928798000,-1522129.8972021483,2.694389820098877,-7.4388651847839355,-5.794300079345703
1776037943938868700,-1522129.8871313476,2.6498918533325195,-7.356340408325195,-5.91884708404541
1776037943979182600,-1522129.8468173828,2.495147705078125,-6.968770503997803,-6.432796955108643
1776037943999324200,-1522129.8266757813,2.4116861820220947,-6.562653064727783,-6.876462936401367
1776037944009364500,-1522129.816635498,2.3989357948303223,-6.467333793640137,-6.970587253570557
1776037944019435300,-1522129.8065646973,2.3790712356567383,-6.265649795532227,-7.159053325653076
1776037944029506000,-1522129.7964938965,2.3668246269226074,-6.050441741943359,-7.345794200897217
1776037944039607300,-1522129.7863928222,2.3654744625091553,-5.708855152130127,-7.614714622497559
1776037944069820000,-1522129.7561801758,2.393059015274048,-5.127150058746338,-8.009743690490723
1776037944079921200,-1522129.7460788575,2.414233684539795,-4.900987148284912,-8.143843650817871
1776037944089992000,-1522129.7360080567,2.451775312423706,-4.58243989944458,-8.316274642944336
1776037944100062700,-1522129.725937256,2.463562250137329,-4.4781575202941895,-8.369431495666504
1776037944110133500,-1522129.715866455,2.4815917015075684,-4.288983345031738,-8.462667465209961
1776037944120234800,-1522129.7057651368,2.488417387008667,-4.119163513183594,-8.544628143310547
1776037944130244600,-1522129.6957553711,2.4812166690826416,-3.9697396755218506,-8.617140769958496
1776037944140315400,-1522129.6856845703,2.4395880699157715,-3.7931292057037354,-8.708098411560059
1776037944150386200,-1522129.6756137696,2.399937868118286,-3.6971168518066406,-8.760252952575684
1776037944160457000,-1522129.6655429688,2.380340337753296,-3.6574952602386475,-8.782203674316406
1776037944200709600,-1522129.6252902832,2.1620991230010986,-3.463870048522949,-8.916126251220703
1776037944210719500,-1522129.6152805176,2.0781893730163574,-3.3876240253448486,-8.965240478515625
1776037944220820700,-1522129.6051791993,2.0488991737365723,-3.3675200939178467,-8.979543685913086
1776037944240871000,-1522129.5851291504,1.9401509761810303,-3.2688040733337402,-9.039973258972168
1776037944250880500,-1522129.5751193848,1.8644986152648926,-3.1851868629455566,-9.085627555847168
1776037944260982000,-1522129.5650180664,1.8402760028839111,-3.162177324295044,-9.098593711853027
1776037944291194400,-1522129.534805664,1.7102768421173096,-2.99658465385437,-9.179641723632812
1776037944301265200,-1522129.5247348633,1.6736247539520264,-2.9400081634521484,-9.204658508300781
1776037944311336000,-1522129.5146640625,1.639913558959961,-2.88577938079834,-9.22785758972168
1776037944321406700,-1522129.5045932618,1.6088511943817139,-2.833813428878784,-9.249403953552246
1776037944331477500,-1522129.494522461,1.5793237686157227,-2.784130811691284,-9.269560813903809
1776037944341548300,-1522129.4844516602,1.549568772315979,-2.7386364936828613,-9.288116455078125
1776037944351619000,-1522129.4743808594,1.520159363746643,-2.6997199058532715,-9.304353713989258
1776037944361659400,-1522129.4643405762,1.4911489486694336,-2.6945316791534424,-9.310551643371582
1776037944391749600,-1522129.4342504882,1.4205899238586426,-2.7388336658477783,-9.3086576461792
1776037944411891200,-1522129.4141088866,1.367321252822876,-2.684276819229126,-9.332496643066406
1776037944421992700,-1522129.4040073243,1.3224676847457886,-2.644808053970337,-9.350213050842285
1776037944432063500,-1522129.3939365235,1.3146640062332153,-2.6458308696746826,-9.35102367401123
1776037944442134300,-1522129.3838657227,1.2723054885864258,-2.6363463401794434,-9.359556198120117
1776037944452113400,-1522129.3738864746,1.263372778892517,-2.646010637283325,-9.358038902282715
1776037944462215000,-1522129.3637851563,1.2098278999328613,-2.66361927986145,-9.360119819641113
1776037944492335600,-1522129.3336643067,1.1075280904769897,-2.7258195877075195,-9.354873657226562
1776037944502406400,-1522129.323593506,1.0644214153289795,-2.757685661315918,-9.35053825378418
1776037944512477200,-1522129.313522705,1.024065375328064,-2.792908191680908,-9.344588279724121
1776037944522517500,-1522129.303482422,0.9688637256622314,-2.8479580879211426,-9.333853721618652
1776037944532557800,-1522129.2934421387,0.9548892974853516,-2.869189977645874,-9.328791618347168
1776037944542659000,-1522129.2833408203,0.9263590574264526,-2.9120051860809326,-9.318394660949707
1776037944552669000,-1522129.2733310547,0.9020467400550842,-2.9589486122131348,-9.305983543395996
1776037944562770200,-1522129.2632297364,0.8678025603294373,-3.0327861309051514,-9.285446166992188
1776037944592982500,-1522129.233017578,0.8222460746765137,-3.171581983566284,-9.24312686920166
1776037944613002200,-1522129.2129978028,0.7970368266105652,-3.2894089221954346,-9.204070091247559
1776037944623103500,-1522129.2028964844,0.8013362884521484,-3.351310968399048,-9.181339263916016
1776037944633143800,-1522129.1928562012,0.818490207195282,-3.415370225906372,-9.156185150146484
1776037944643184000,-1522129.182815918,0.8510007858276367,-3.4830172061920166,-9.127694129943848
1776037944653193700,-1522129.1728061524,0.9014517068862915,-3.556204080581665,-9.094568252563477
1776037944663295200,-1522129.162704834,0.9654907584190369,-3.6355178356170654,-9.056556701660156
1776037944673366000,-1522129.1526340332,1.0913420915603638,-3.7573492527008057,-8.992311477661133
1776037944713679600,-1522129.1123203125,1.5947622060775757,-4.004815578460693,-8.808438301086426
1776037944723750400,-1522129.1022495118,1.7885998487472534,-4.044613361358643,-8.752851486206055
1776037944733821200,-1522129.092178711,1.990833044052124,-4.073364734649658,-8.695669174194336
1776037944743892000,-1522129.0821079102,2.1956069469451904,-4.094253063201904,-8.636363983154297
1776037944753962800,-1522129.0720373534,2.4007818698883057,-4.1080708503723145,-8.57498550415039
1776037944764064300,-1522129.061935791,2.605347156524658,-4.116175651550293,-8.511149406433105
1776037944774104600,-1522129.0518955078,2.8050150871276855,-4.12252950668335,-8.444348335266113
1776037944794215400,-1522129.0317846679,3.187535285949707,-4.138579368591309,-8.299530029296875
1776037944814387700,-1522129.0116123047,3.5194296836853027,-4.17225980758667,-8.147162437438965
1776037944824458500,-1522129.001541504,3.6489553451538086,-4.196436882019043,-8.077465057373047
1776037944834468000,-1522128.9915319823,3.708573341369629,-4.198513507843018,-8.049182891845703
1776037944844569600,-1522128.98143042,3.8205432891845703,-4.25133752822876,-7.968687057495117
1776037944854640400,-1522128.9713596192,3.9274935722351074,-4.325069904327393,-7.876480579376221
1776037944864741600,-1522128.9612583008,4.024630546569824,-4.419331073760986,-7.7744622230529785
1776037944874782000,-1522128.9512180176,4.106656551361084,-4.532162189483643,-7.665851593017578
1776037944905024800,-1522128.9209753417,4.253798961639404,-4.964595317840576,-7.30947208404541
1776037944925136000,-1522128.9008640137,4.276460647583008,-5.290797233581543,-7.063266754150391
1776037944935206700,-1522128.890793457,4.27911376953125,-5.450088024139404,-6.939460277557373
1776037944945308200,-1522128.8806918946,4.305035591125488,-5.662857532501221,-6.750487327575684
1776037944955287300,-1522128.8707126465,4.331273555755615,-5.784010887145996,-6.629908084869385
1776037944965388500,-1522128.8606115722,4.344992637634277,-5.840728282928467,-6.570943832397461
1776037944975459300,-1522128.8505407714,4.418910980224609,-5.9830780029296875,-6.391116619110107
1776037944985560800,-1522128.840439209,4.442181587219238,-6.02608060836792,-6.334331512451172
1776037945005702400,-1522128.8202976075,4.540392875671387,-6.176240921020508,-6.116311550140381
1776037945015712000,-1522128.8102880858,4.595640182495117,-6.2767205238342285,-5.971035003662109
1776037945025783000,-1522128.800217041,4.607699871063232,-6.308686256408691,-5.9278974533081055
1776037945035792600,-1522128.7902072754,4.622802734375,-6.370768070220947,-5.849221706390381
1776037945045894000,-1522128.780106201,4.623587608337402,-6.429601192474365,-5.783860683441162
1776037945055964700,-1522128.7700354003,4.609755992889404,-6.48523473739624,-5.7325615882873535
1776037945066035700,-1522128.7599643555,4.564542293548584,-6.562176704406738,-5.680949687957764
1776037945076106500,-1522128.7498935547,4.5179667472839355,-6.606436729431152,-5.666866302490234
1776037945086207700,-1522128.7397922364,4.458033561706543,-6.645884990692139,-5.668203353881836
1776037945126521300,-1522128.6994787597,4.120589733123779,-6.6810736656188965,-5.878299236297607
1776037945136592100,-1522128.6894079589,3.9783005714416504,-6.606619358062744,-6.057731628417969
1776037945146663200,-1522128.679336914,3.84548282623291,-6.5338664054870605,-6.2202277183532715
1776037945156703200,-1522128.669296875,3.6768040657043457,-6.4494309425354,-6.407520771026611
1776037945166804700,-1522128.6591953125,3.6174206733703613,-6.408630847930908,-6.4818291664123535
1776037945176844800,-1522128.6491552733,3.459606885910034,-6.292941093444824,-6.678353786468506
1776037945186915800,-1522128.6390842285,3.3517987728118896,-6.190659046173096,-6.827267169952393
1776037945217097700,-1522128.6089023438,3.1131703853607178,-5.8317790031433105,-7.24354362487793
1776037945227199000,-1522128.5988010254,3.0414247512817383,-5.644140720367432,-7.420498371124268
1776037945237239300,-1522128.5887607422,2.9436707496643066,-5.3272528648376465,-7.6893157958984375
1776037945247340500,-1522128.5786594239,2.9116406440734863,-5.211938381195068,-7.780003547668457
1776037945257411300,-1522128.568588623,2.7991116046905518,-4.875932216644287,-8.034965515136719
1776037945267512600,-1522128.5584873047,2.7620880603790283,-4.7597832679748535,-8.1170015335083
1776037945277583400,-1522128.548416748,2.650144577026367,-4.426963806152344,-8.33961009979248
1776037945287684900,-1522128.5383151856,2.586817979812622,-4.2112135887146,-8.470208168029785
1776037945317897200,-1522128.5081027832,2.454554796218872,-3.6472225189208984,-8.766033172607422
1776037945327998500,-1522128.4980014649,2.4382927417755127,-3.5607736110687256,-8.806022644042969
1776037945338069200,-1522128.487930664,2.4063966274261475,-3.40993595123291,-8.87423038482666
1776037945348170500,-1522128.4778295897,2.37086820602417,-3.2729198932647705,-8.935174942016602
1776037945358210800,-1522128.4677890625,2.3277151584625244,-3.1473910808563232,-8.99144458770752
1776037945368312300,-1522128.4576877442,2.2733113765716553,-3.033013105392456,-9.044517517089844
1776037945378383000,-1522128.4476169434,2.218757390975952,-2.9377589225769043,-9.089394569396973
1776037945388484400,-1522128.437515625,2.0663444995880127,-2.8099312782287598,-9.165417671203613
1776037945398555100,-1522128.4274448243,1.990316390991211,-2.738417387008667,-9.20380973815918
1776037945438868700,-1522128.3871313476,1.6076550483703613,-2.659369945526123,-9.301267623901367
1776037945448939800,-1522128.3770603028,1.5401976108551025,-2.7153263092041016,-9.296515464782715
1776037945458949400,-1522128.3670505371,1.5036258697509766,-2.67360258102417,-9.314577102661133
1776037945469020200,-1522128.3569797364,1.4807400703430176,-2.600783348083496,-9.33882999420166
1776037945479091000,-1522128.3469089356,1.4533557891845703,-2.524049997329712,-9.364151000976562
1776037945489161700,-1522128.3368383788,1.411394715309143,-2.455929756164551,-9.388650894165039
1776037945499232500,-1522128.326767578,1.3860949277877808,-2.4309163093566895,-9.398924827575684
1776037945539485200,-1522128.2865148925,1.064699649810791,-2.220264434814453,-9.492484092712402
1776037945549586700,-1522128.27641333,0.9205553531646729,-2.140261650085449,-9.525874137878418
1776037945559627000,-1522128.266373047,0.8259446620941162,-2.0973663330078125,-9.544069290161133
1776037945569728300,-1522128.2562717285,0.7355857491493225,-2.064654588699341,-9.55858325958252
1776037945579799000,-1522128.2462009278,0.7129279375076294,-2.0801217555999756,-9.55694580078125
1776037945589900300,-1522128.2360996094,0.6095312237739563,-2.0780065059661865,-9.564558029174805
1776037945599940600,-1522128.2260593262,0.6026484966278076,-2.1577470302581787,-9.547321319580078
1776037945610041900,-1522128.2159582519,0.5590723752975464,-2.186600685119629,-9.543407440185547
1776037945670436400,-1522128.1555637207,0.2870955169200897,-2.221374750137329,-9.547430038452148
1776037945680507100,-1522128.14549292,0.25168052315711975,-2.224196195602417,-9.547775268554688
1776037945690608400,-1522128.1353916016,0.2210153341293335,-2.230396270751953,-9.547087669372559
1776037945700679200,-1522128.1253208008,0.21193887293338776,-2.236875295639038,-9.54577922821045
1776037945710780400,-1522128.1152194825,0.19591771066188812,-2.247804641723633,-9.543553352355957
1776037945720820700,-1522128.1051791993,0.19150398671627045,-2.262728214263916,-9.540112495422363
1776037945740962300,-1522128.0850375977,0.21803134679794312,-2.328148365020752,-9.52379035949707
1776037945751033000,-1522128.074966797,0.23356617987155914,-2.346219539642334,-9.518986701965332
1776037945761104000,-1522128.0648962401,0.2622305452823639,-2.384913444519043,-9.508618354797363
1776037945771174700,-1522128.0548254394,0.31024494767189026,-2.4509334564208984,-9.49036693572998
1776037945781276200,-1522128.044723877,0.34790393710136414,-2.4991297721862793,-9.476482391357422
1776037945791316500,-1522128.0346835938,0.39089491963386536,-2.553262948989868,-9.460360527038574
1776037945801387300,-1522128.024612793,0.436569482088089,-2.614323377609253,-9.441668510437012
1776037945811458000,-1522128.0145419922,0.4832371175289154,-2.6811747550964355,-9.420626640319824
1776037945821528800,-1522128.0044711914,0.5115145444869995,-2.7182259559631348,-9.4085054397583
1776037945861751000,-1522127.9642490235,0.7374749183654785,-3.0430753231048584,-9.293344497680664
1776037945871852300,-1522127.954147705,0.8564788699150085,-3.1816883087158203,-9.236542701721191
1776037945881923000,-1522127.9440769043,0.9415011405944824,-3.2754173278808594,-9.195412635803223
1776037945891963400,-1522127.9340366211,1.0307347774505615,-3.368769884109497,-9.15201473236084
1776037945902034200,-1522127.9239658203,1.1247650384902954,-3.459575653076172,-9.106954574584961
1776037945912105000,-1522127.9138950196,1.2259756326675415,-3.545351505279541,-9.060787200927734
1776037945922175700,-1522127.9038242188,1.3357652425765991,-3.6250174045562744,-9.013622283935547
1776037945962336800,-1522127.86366333,1.8613194227218628,-3.882960319519043,-8.810704231262207
1776037945972377000,-1522127.8536228028,1.9346494674682617,-3.909839630126953,-8.782977104187012
1776037945982447900,-1522127.843552246,2.174862861633301,-3.986196279525757,-8.691985130310059
1776037945992518700,-1522127.8334814452,2.252244234085083,-4.00890588760376,-8.661783218383789
1776037946002559000,-1522127.823440918,2.4094295501708984,-4.060659408569336,-8.59511947631836
1776037946022700500,-1522127.8032995604,2.678771495819092,-4.183321952819824,-8.455435752868652
1776037946042781200,-1522127.78321875,2.810685157775879,-4.337898254394531,-8.333850860595703
1776037946062922800,-1522127.7630771485,3.0152690410614014,-4.659946918487549,-8.084765434265137
1776037946072993500,-1522127.7530063477,3.0288212299346924,-4.728464603424072,-8.03979206085205
1776037946083064300,-1522127.742935791,3.072517156600952,-4.886104106903076,-7.9281792640686035
1776037946093165800,-1522127.7328342285,3.107464075088501,-5.0524516105651855,-7.809404373168945
1776037946113337900,-1522127.7126621094,3.1749796867370605,-5.487473487854004,-7.481813907623291
1776037946123408600,-1522127.7025913086,3.1723220348358154,-5.5709733963012695,-7.420985221862793
1776037946133510000,-1522127.6924899903,3.2017648220062256,-5.8273725509643555,-7.208385944366455
1776037946153621000,-1522127.6723789063,3.2180304527282715,-6.069431304931641,-6.99833345413208
1776037946204005600,-1522127.6219943848,3.2360572814941406,-6.794069766998291,-6.288000106811523
1776037946214046000,-1522127.6119541016,3.217740774154663,-6.92313814163208,-6.15521764755249
1776037946224086000,-1522127.6019140624,3.1864984035491943,-7.047883987426758,-6.0285964012146
1776037946234157000,-1522127.5918430176,3.1420485973358154,-7.170411586761475,-5.906192779541016
1776037946264308200,-1522127.5616918944,2.9205715656280518,-7.549441337585449,-5.5359368324279785
1776037946274287600,-1522127.5517124024,2.8833189010620117,-7.591938018798828,-5.497211456298828
1776037946284358400,-1522127.5416416016,2.7849929332733154,-7.701969146728516,-5.393874645233154
1776037946294398700,-1522127.5316013184,2.7495005130767822,-7.728503704071045,-5.3740925788879395
1776037946304408300,-1522127.5215917968,2.6886987686157227,-7.773764610290527,-5.339462757110596
1776037946314448600,-1522127.5115512696,2.6326215267181396,-7.804382801055908,-5.322713851928711
1776037946324550000,-1522127.5014501952,2.5803110599517822,-7.820088863372803,-5.325281143188477
1776037946334621000,-1522127.4913791504,2.5041892528533936,-7.819894313812256,-5.361782073974609
1776037946364802800,-1522127.4611972657,2.3724730014801025,-7.65886116027832,-5.646556377410889
1776037946374904000,-1522127.4510959473,2.3301777839660645,-7.595627307891846,-5.748661994934082
1776037946384974800,-1522127.4410251465,2.298175811767578,-7.519931316375732,-5.8599853515625
1776037946395015200,-1522127.4309848633,2.2765233516693115,-7.430925369262695,-5.9807353019714355
1776037946405116400,-1522127.420883545,2.2620773315429688,-7.325008869171143,-6.115360260009766
1776037946415187200,-1522127.4108127442,2.25418758392334,-7.202556133270264,-6.261964321136475
1776037946425258000,-1522127.4007419434,2.254624843597412,-7.06403112411499,-6.417672634124756
1776037946435267800,-1522127.3907321778,2.259737730026245,-6.908779621124268,-6.582761764526367
1776037946445369000,-1522127.3806308594,2.2644951343536377,-6.739943027496338,-6.753931999206543
1776037946455409400,-1522127.3705905762,2.2660880088806152,-6.560204029083252,-6.928129196166992
1776037946475490000,-1522127.3505100098,2.242234706878662,-6.191570281982422,-7.266857624053955
1776037946485591300,-1522127.3404086914,2.214312791824341,-6.009026527404785,-7.426898956298828
1776037946495662000,-1522127.3303378907,2.181515693664551,-5.8276286125183105,-7.579587459564209
1776037946505732900,-1522127.3202670899,2.150348424911499,-5.646905899047852,-7.723913669586182
1776037946515803600,-1522127.310196289,2.127764940261841,-5.467803955078125,-7.8578715324401855
1776037946525905000,-1522127.3000952147,2.1188340187072754,-5.29352331161499,-7.97869348526001
1776037946535975700,-1522127.290024414,2.1240053176879883,-5.043789863586426,-8.137516021728516
1776037946545985500,-1522127.2800144043,2.1257612705230713,-4.959330081939697,-8.18880844116211
1776037946556056300,-1522127.2699436035,2.1301510334014893,-4.802900791168213,-8.28039836883545
1776037946586177300,-1522127.239822754,2.12347149848938,-4.339217185974121,-8.534194946289062
1776037946606349300,-1522127.2196506348,2.0784149169921875,-4.1256537437438965,-8.650409698486328
1776037946616420000,-1522127.209579834,2.043578624725342,-4.033121109008789,-8.702190399169922
1776037946626491000,-1522127.1995090332,2.024488687515259,-3.992386817932129,-8.72540283203125
1776037946636561700,-1522127.1894382325,1.9617847204208374,-3.872345447540283,-8.793562889099121
1776037946646632400,-1522127.1793674317,1.9373925924301147,-3.8350133895874023,-8.815302848815918
1776037946656703200,-1522127.169296875,1.8850018978118896,-3.7587950229644775,-8.859380722045898
1776037946696986600,-1522127.1290134278,1.5928847789764404,-3.3720455169677734,-9.069864273071289
1776037946707057400,-1522127.118942627,1.5576521158218384,-3.324972629547119,-9.093330383300781
1776037946717128200,-1522127.1088718262,1.4888813495635986,-3.2196733951568604,-9.142611503601074
1776037946727199000,-1522127.0988010254,1.4225211143493652,-3.106724500656128,-9.192121505737305
1776037946737269800,-1522127.0887302246,1.3590871095657349,-2.9886839389801025,-9.240727424621582
1776037946747340500,-1522127.0786594239,1.3003332614898682,-2.8689799308776855,-9.287005424499512
1776037946757441800,-1522127.0685581055,1.2480494976043701,-2.7525413036346436,-9.329324722290039
1776037946777553000,-1522127.0484470215,1.181716799736023,-2.5687098503112793,-9.390190124511719
1776037946787654100,-1522127.0383459472,1.1577601432800293,-2.486492395401001,-9.415270805358887
1776037946797725000,-1522127.0282751464,1.1087982654571533,-2.349973440170288,-9.456141471862793
1776037946807765200,-1522127.0182348632,1.0904513597488403,-2.308258533477783,-9.468541145324707
1776037946817836000,-1522127.0081640624,1.1022902727127075,-2.3530397415161133,-9.45613956451416
1776037946827876400,-1522126.9981235352,1.0722533464431763,-2.3071956634521484,-9.470876693725586
1776037946837916700,-1522126.988083252,1.0283154249191284,-2.2400882244110107,-9.491835594177246
1776037946847957000,-1522126.9780429688,0.9767886996269226,-2.1699631214141846,-9.513545989990234
1776037946858058200,-1522126.9679416504,0.9184896349906921,-2.0989503860473633,-9.535260200500488
1776037946868098600,-1522126.9579013672,0.8579717874526978,-2.033407211303711,-9.555078506469727
1776037946888179200,-1522126.9378208008,0.7456921339035034,-1.9219642877578735,-9.58751392364502
1776037946908290300,-1522126.9177097168,0.6567460298538208,-1.84189772605896,-9.609708786010742
1776037946918391600,-1522126.9076083985,0.6200690269470215,-1.8198336362838745,-9.616345405578613
1776037946928401400,-1522126.8975986328,0.5868260860443115,-1.807088017463684,-9.62083625793457
1776037946938502700,-1522126.8874973145,0.5576233863830566,-1.803506851196289,-9.62324333190918
1776037946948573400,-1522126.8774265137,0.5321201086044312,-1.8102377653121948,-9.623424530029297
1776037946958613800,-1522126.8673862305,0.5104904174804688,-1.8276170492172241,-9.621312141418457
1776037946968684500,-1522126.8573154297,0.49453532695770264,-1.854520559310913,-9.616995811462402
1776037947008998100,-1522126.817001953,0.5034574866294861,-2.0547478199005127,-9.575748443603516
1776037947019099600,-1522126.8069003907,0.5245885252952576,-2.159992218017578,-9.551420211791992
1776037947029170400,-1522126.7968295899,0.5372300148010254,-2.1996774673461914,-9.541656494140625
1776037947039241200,-1522126.786758789,0.5645067095756531,-2.2823023796081543,-9.52065372467041
1776037947049312000,-1522126.7766879883,0.5997411012649536,-2.3719468116760254,-9.496556282043457
1776037947059413200,-1522126.76658667,0.6453016400337219,-2.4697272777557373,-9.468603134155273
1776037947069484000,-1522126.7565158692,0.7290513515472412,-2.6274118423461914,-9.41995620727539
1776037947089625600,-1522126.7363745116,0.8666232824325562,-2.868783712387085,-9.337530136108398
1776037947109767200,-1522126.71623291,0.9869325160980225,-3.0654566287994385,-9.262794494628906
1776037947119868700,-1522126.7061313477,1.0779846906661987,-3.1972153186798096,-9.207939147949219
1776037947129939500,-1522126.696060547,1.2442594766616821,-3.388918161392212,-9.117974281311035
1776037947140040700,-1522126.6859592285,1.3772493600845337,-3.511824607849121,-9.052108764648438
1776037947150111500,-1522126.6758884278,1.4495230913162231,-3.5715837478637695,-9.017375946044922
1776037947160212700,-1522126.6657873534,1.691741943359375,-3.7338078022003174,-8.908822059631348
1776037947170222600,-1522126.6557773438,1.779489278793335,-3.78413462638855,-8.87040901184082
1776037947200435000,-1522126.6255649414,2.376147508621216,-4.028578281402588,-8.619446754455566
1776037947210475300,-1522126.6155246582,2.698092222213745,-4.126070499420166,-8.477395057678223
1776037947220546000,-1522126.6054538575,2.800942897796631,-4.151937007904053,-8.431283950805664
1776037947230616800,-1522126.5953830567,3.0076708793640137,-4.209357261657715,-8.331003189086914
1776037947240687600,-1522126.5853125,3.2075324058532715,-4.2566752433776855,-8.231819152832031
1776037947250758400,-1522126.575241699,3.3824470043182373,-4.316705226898193,-8.129913330078125
1776037947260860000,-1522126.5651401368,3.6344876289367676,-4.4051737785339355,-7.9721598625183105
1776037947270900200,-1522126.5550998535,3.666774272918701,-4.4199748039245605,-7.949150562286377
1776037947280940300,-1522126.5450598144,3.7514703273773193,-4.49567174911499,-7.8667521476745605
1776037947311153000,-1522126.514847168,3.985074520111084,-4.811972141265869,-7.558737754821777
1776037947331233300,-1522126.4947666016,4.142780780792236,-5.0662031173706055,-7.303516864776611
1776037947341304000,-1522126.4846960448,4.170522212982178,-5.132318496704102,-7.241300582885742
1776037947351374800,-1522126.474625244,4.279960632324219,-5.351721286773682,-7.015083312988281
1776037947361445600,-1522126.4645544433,4.301140785217285,-5.424965858459473,-6.945526123046875
1776037947371516700,-1522126.4544833985,4.3470611572265625,-5.578949451446533,-6.793287754058838
1776037947381618000,-1522126.44438208,4.379451274871826,-5.737848281860352,-6.638365745544434
1776037947401667800,-1522126.4243322753,4.401288032531738,-6.059641361236572,-6.330859661102295
1776037947411647200,-1522126.4143527832,4.391618728637695,-6.222108364105225,-6.1781439781188965
1776037947421748500,-1522126.4042514649,4.367048263549805,-6.386571407318115,-6.025860786437988
1776037947431758300,-1522126.3942416993,4.303018569946289,-6.628146171569824,-5.80707311630249
1776037947441798700,-1522126.384201416,4.271757125854492,-6.707108974456787,-5.739091396331787
1776037947451838700,-1522126.3741613769,4.202423572540283,-6.858800888061523,-5.609534740447998
1776037947461940200,-1522126.3640598145,4.12114143371582,-7.003489017486572,-5.489785194396973
1776037947471980500,-1522126.3540195313,4.034484386444092,-7.135847568511963,-5.382657527923584
1776037947482081800,-1522126.343918213,3.947018623352051,-7.255148887634277,-5.287177085876465
1776037947502193000,-1522126.323807129,3.7855985164642334,-7.446044445037842,-5.137711524963379
1776037947522304000,-1522126.303696045,3.6428682804107666,-7.56998348236084,-5.059174537658691
1776037947542476000,-1522126.2835239258,3.517399787902832,-7.628530025482178,-5.060023784637451
1776037947552546800,-1522126.273453125,3.4662692546844482,-7.6344685554504395,-5.08627986907959
1776037947562617600,-1522126.2633823243,3.4226925373077393,-7.617212772369385,-5.141364097595215
1776037947572597000,-1522126.2534030762,3.37709641456604,-7.5508527755737305,-5.267849922180176
1776037947582667800,-1522126.2433322754,3.3428099155426025,-7.497491359710693,-5.3650383949279785
1776037947602779000,-1522126.2232211914,3.2897400856018066,-7.342592239379883,-5.606631278991699
1776037947622920400,-1522126.2030795899,3.270681858062744,-7.198696613311768,-5.801018238067627
1776037947632991200,-1522126.193008789,3.2610902786254883,-7.084907054901123,-5.944727897644043
1776037947643062000,-1522126.1829379883,3.2512335777282715,-6.954154014587402,-6.102425575256348
1776037947653132800,-1522126.1728671875,3.2442567348480225,-6.805366516113281,-6.271538257598877
1776037947663203600,-1522126.1627963868,3.241476058959961,-6.638479709625244,-6.449326038360596
1776037947673274400,-1522126.152725586,3.2405176162719727,-6.455766201019287,-6.632686138153076
1776037947683375600,-1522126.1426242676,3.2360775470733643,-6.263216972351074,-6.81691312789917
1776037947693355000,-1522126.1326450196,3.2237586975097656,-6.067989826202393,-6.9969482421875
1776037947703456300,-1522126.1225437012,3.1975183486938477,-5.7747039794921875,-7.25252103805542
1776037947723597800,-1522126.1024020996,3.191240072250366,-5.479708671569824,-7.480586051940918
1776037947733607700,-1522126.092392334,3.201939582824707,-5.2857279777526855,-7.614399433135986
1776037947743678500,-1522126.0823215332,3.227112054824829,-5.0036940574646,-7.792252540588379
1776037947753749200,-1522126.0722507325,3.2353222370147705,-4.895121097564697,-7.857536792755127
1776037947763820000,-1522126.0621799317,3.2374539375305176,-4.708417892456055,-7.969949245452881
1776037947773890800,-1522126.052109131,3.218339681625366,-4.5332136154174805,-8.078531265258789
1776037947783961600,-1522126.04203833,3.1776363849639893,-4.381533145904541,-8.177724838256836
1776037947794062800,-1522126.0319372558,3.11914324760437,-4.250997543334961,-8.268636703491211
1776037947804133600,-1522126.021866455,3.003319025039673,-4.108222007751465,-8.382896423339844
1776037947844386300,-1522125.9816137694,2.5999977588653564,-3.904876708984375,-8.611756324768066
1776037947854457300,-1522125.9715427246,2.415142297744751,-3.850886344909668,-8.689541816711426
1776037947864497400,-1522125.9615026854,2.344125747680664,-3.8534865379333496,-8.707818031311035
1776037947874507300,-1522125.9514926758,2.219865083694458,-3.828244924545288,-8.751408576965332
1776037947884608500,-1522125.9413916015,2.100094795227051,-3.7954654693603516,-8.795136451721191
1776037947894679300,-1522125.9313208007,1.9838006496429443,-3.7625908851623535,-8.836165428161621
1776037947904719600,-1522125.9212802735,1.8735469579696655,-3.7275919914245605,-8.874980926513672
1776037947914760000,-1522125.9112399903,1.752615213394165,-3.743622303009033,-8.89292049407959
1776037947934932000,-1522125.8910681151,1.5699334144592285,-3.6565914154052734,-8.962981224060059
1776037947945033500,-1522125.8809665528,1.5036667585372925,-3.5971853733062744,-8.998313903808594
1776037947955043000,-1522125.8709570311,1.4553654193878174,-3.530954122543335,-9.03242301940918
1776037947965144600,-1522125.8608554688,1.4261691570281982,-3.4875104427337646,-9.053933143615723
1776037947975154200,-1522125.8508457032,1.410180687904358,-3.3777806758880615,-9.097933769226074
1776037947985255700,-1522125.8407443848,1.398733377456665,-3.2677674293518066,-9.139782905578613
1776037947995265300,-1522125.8307346192,1.3882687091827393,-3.1595723628997803,-9.179336547851562
1776037948025508400,-1522125.8004916993,1.3605173826217651,-2.879772901535034,-9.275036811828613
1776037948035518000,-1522125.7904819336,1.3456506729125977,-2.7743618488311768,-9.309270858764648
1776037948045588700,-1522125.7804113769,1.3347153663635254,-2.6868457794189453,-9.336477279663086
1776037948055629000,-1522125.7703708496,1.3258055448532104,-2.619372606277466,-9.35689640045166
1776037948065699800,-1522125.7603000489,1.30636727809906,-2.5629053115844727,-9.375250816345215
1776037948075740200,-1522125.7502597657,1.2704559564590454,-2.5031039714813232,-9.396316528320312
1776037948085811000,-1522125.7401889649,1.2244699001312256,-2.445185661315918,-9.417651176452637
1776037948095881700,-1522125.730118164,1.1704198122024536,-2.390164852142334,-9.438623428344727
1776037948105983200,-1522125.7200168457,1.0811550617218018,-2.3062000274658203,-9.470109939575195
1776037948126094000,-1522125.6999060058,1.0003758668899536,-2.2317519187927246,-9.496786117553711
1776037948146236000,-1522125.6797641602,0.876447319984436,-2.102100133895874,-9.538522720336914
1776037948156245500,-1522125.6697543946,0.8561732172966003,-2.080841302871704,-9.545022964477539
1776037948166316300,-1522125.6596835938,0.818763792514801,-2.039233446121216,-9.557276725769043
1776037948176387000,-1522125.649613037,0.7789619565010071,-1.986979603767395,-9.571600914001465
1776037948196498200,-1522125.629501709,0.7571014165878296,-1.9574280977249146,-9.579440116882324
1776037948216609300,-1522125.609390625,0.7458762526512146,-1.9581419229507446,-9.580174446105957
1776037948236750800,-1522125.5892492675,0.742436945438385,-2.0133988857269287,-9.568982124328613
1776037948246821600,-1522125.5791784667,0.7464771270751953,-2.0916695594787598,-9.551863670349121
1776037948256892400,-1522125.569107666,0.7527058124542236,-2.124037265777588,-9.544229507446289
1776037948266994000,-1522125.5590061035,0.7840496301651001,-2.244050979614258,-9.514196395874023
1776037948276973000,-1522125.5490268555,0.8181149959564209,-2.341912269592285,-9.487704277038574
1776037948287074300,-1522125.5389257811,0.8589309453964233,-2.456531524658203,-9.455055236816406
1776037948297145300,-1522125.5288547364,0.9012895226478577,-2.5863354206085205,-9.41641902923584
1776037948307216100,-1522125.5187839356,0.9422942996025085,-2.730787515640259,-9.371514320373535
1776037948337428500,-1522125.4885715332,1.0525140762329102,-3.141277313232422,-9.230112075805664
1776037948347529700,-1522125.4784702149,1.143414855003357,-3.405426263809204,-9.125024795532227
1776037948357539600,-1522125.4684604493,1.179516077041626,-3.4945216178894043,-9.086663246154785
1776037948367640800,-1522125.458359131,1.2607687711715698,-3.6737778186798096,-9.004677772521973
1776037948377711600,-1522125.44828833,1.35475754737854,-3.8519718647003174,-8.91612720489502
1776037948387782400,-1522125.4382175293,1.5225766897201538,-4.1124773025512695,-8.771527290344238
1776037948397853200,-1522125.4281467285,1.6501901149749756,-4.279192924499512,-8.6680908203125
1776037948407924000,-1522125.4180759278,1.7887749671936035,-4.438279151916504,-8.55992603302002
1776037948448207000,-1522125.3777929686,2.3666508197784424,-4.999380111694336,-8.097871780395508
1776037948458278100,-1522125.3677219239,2.423783302307129,-5.05092191696167,-8.04884147644043
1776037948468349000,-1522125.357651123,2.605207681655884,-5.229267120361328,-7.8764238357543945
1776037948478419700,-1522125.3475803223,2.7057104110717773,-5.336577892303467,-7.769842624664307
1776037948488490500,-1522125.3375095215,2.8048763275146484,-5.460505962371826,-7.647610187530518
1776037948498561300,-1522125.3274387207,2.8927695751190186,-5.592264175415039,-7.518565654754639
1776037948508632000,-1522125.31736792,2.9648334980010986,-5.73121452331543,-7.384667873382568
1776037948548915200,-1522125.2770847168,3.0603702068328857,-6.265126705169678,-6.895846843719482
1776037948569026300,-1522125.2569736328,3.0305986404418945,-6.656697750091553,-6.532551288604736
1776037948579097000,-1522125.246902832,3.014288902282715,-6.731244087219238,-6.463344097137451
1776037948589198300,-1522125.2368017577,2.986079692840576,-6.878237724304199,-6.320092678070068
1776037948599269000,-1522125.226730957,2.956446409225464,-7.0186004638671875,-6.178112983703613
1776037948609340200,-1522125.2166599121,2.9280333518981934,-7.151972770690918,-6.037077903747559
1776037948649592800,-1522125.1764072266,2.87125563621521,-7.651290416717529,-5.420703411102295
1776037948659663600,-1522125.1663364258,2.8695015907287598,-7.696344375610352,-5.357483863830566
1776037948669734400,-1522125.156265625,2.8710031509399414,-7.817850589752197,-5.177735328674316
1776037948679774700,-1522125.1462253418,2.8712825775146484,-7.888364791870117,-5.0694990158081055
1776037948689845500,-1522125.136154541,2.8713409900665283,-7.95341157913208,-4.966794967651367
1776037948699916300,-1522125.1260837403,2.8728814125061035,-8.011713981628418,-4.871278762817383
1776037948709987000,-1522125.1160129395,2.8724148273468018,-8.034916877746582,-4.833191394805908
1776037948720057900,-1522125.1059421387,2.881625175476074,-8.074325561523438,-4.761502742767334
1776037948740199400,-1522125.0858005371,2.9174411296844482,-8.110390663146973,-4.677656173706055
1776037948750270200,-1522125.0757297364,2.9378859996795654,-8.106733322143555,-4.671196460723877
1776037948760310500,-1522125.0656894532,2.9573686122894287,-8.085607528686523,-4.69545841217041
1776037948770381300,-1522125.0556186524,2.9756484031677246,-8.04824161529541,-4.7478108406066895
1776037948780421600,-1522125.0455783692,2.9986062049865723,-7.984915733337402,-4.839409828186035
1776037948790462000,-1522125.035538086,3.0331642627716064,-7.842068672180176,-5.0470051765441895
1776037948800532700,-1522125.0254672852,3.0692391395568848,-7.7482590675354,-5.168619155883789
1776037948810603500,-1522125.0153964844,3.131788730621338,-7.614422798156738,-5.327557563781738
1776037948850886700,-1522124.9751132813,3.3150475025177,-7.1737213134765625,-5.8067708015441895
1776037948860957400,-1522124.9650424805,3.3692893981933594,-7.01160192489624,-5.971240043640137
1776037948870997800,-1522124.9550021973,3.4343531131744385,-6.745387554168701,-6.235011100769043
1776037948881038000,-1522124.944961914,3.462632894515991,-6.554093360900879,-6.420626640319824
1776037948891108900,-1522124.9348911133,3.474106550216675,-6.4527130126953125,-6.5164008140563965
1776037948901179600,-1522124.9248203125,3.4770359992980957,-6.253377914428711,-6.7064056396484375
1776037948911220000,-1522124.9147800293,3.450860023498535,-5.957099914550781,-6.983903884887695
1776037948921260300,-1522124.9047397461,3.4395015239715576,-5.855188369750977,-7.075096130371094
1776037948961543400,-1522124.864456543,3.239542007446289,-5.051132678985596,-7.756404399871826
1776037948981593300,-1522124.8444067382,3.1824095249176025,-4.823458194732666,-7.923189163208008
1776037948991694800,-1522124.8343051758,3.1471378803253174,-4.688732624053955,-8.017587661743164
1776037949001704400,-1522124.8242956542,3.109269618988037,-4.5690693855285645,-8.1010160446167
1776037949011775200,-1522124.8142248534,3.0433712005615234,-4.420234203338623,-8.20791244506836
1776037949021815600,-1522124.8041843262,3.016737461090088,-4.37218713760376,-8.243401527404785
1776037949041926700,-1522124.7840732422,2.8576200008392334,-4.194952487945557,-8.390872955322266
1776037949051997400,-1522124.7740024414,2.816545009613037,-4.168272495269775,-8.418015480041504
1776037949072108500,-1522124.7538913575,2.6309008598327637,-4.046638011932373,-8.53659725189209
1776037949082148900,-1522124.7438510743,2.591090202331543,-4.025961875915527,-8.558521270751953
1776037949092189200,-1522124.733810791,2.463446617126465,-3.9627346992492676,-8.625459671020508
1776037949102229500,-1522124.7237705078,2.3730921745300293,-3.922532796859741,-8.669057846069336
1776037949112269800,-1522124.7137302246,2.3271236419677734,-3.904386281967163,-8.689687728881836
1776037949122340600,-1522124.7036594239,2.1831350326538086,-3.840219736099243,-8.755400657653809
1776037949172633600,-1522124.653366455,1.7724522352218628,-3.5969114303588867,-8.949358940124512
1776037949182704400,-1522124.6432956543,1.693267583847046,-3.527083396911621,-8.992383003234863
1776037949192805600,-1522124.633194336,1.625426173210144,-3.453639507293701,-9.033313751220703
1776037949202815500,-1522124.6231845703,1.5814141035079956,-3.3819046020507812,-9.06820011138916
1776037949212886300,-1522124.6131137696,1.5897107124328613,-3.320525646209717,-9.089407920837402
1776037949222926600,-1522124.6030734864,1.609125018119812,-3.2561564445495605,-9.10925579071045
1776037949233027800,-1522124.592972168,1.5934447050094604,-3.1391453742980957,-9.152982711791992
1776037949273311000,-1522124.5526889649,1.5343453884124756,-2.802476406097412,-9.271587371826172
1776037949283381800,-1522124.542618164,1.5257301330566406,-2.770289421081543,-9.282672882080078
1776037949293483000,-1522124.5325170897,1.4736989736557007,-2.6705644130706787,-9.320230484008789
1776037949303553800,-1522124.522446289,1.467272162437439,-2.6857104301452637,-9.316890716552734
1776037949313624800,-1522124.5123752442,1.3982845544815063,-2.5756747722625732,-9.358477592468262
1776037949333735700,-1522124.4922644042,1.3004764318466187,-2.4166858196258545,-9.414815902709961
1776037949343806700,-1522124.4821933594,1.2761504650115967,-2.3774349689483643,-9.428130149841309
1776037949383967700,-1522124.4420322266,1.1110364198684692,-2.089123249053955,-9.5169095993042
1776037949394069000,-1522124.4319309082,1.0935860872268677,-2.0362486839294434,-9.530380249023438
1776037949404139800,-1522124.4218601075,1.0861691236495972,-1.9925999641418457,-9.540449142456055
1776037949414241300,-1522124.411758789,1.0849883556365967,-1.962870478630066,-9.546745300292969
1776037949424312000,-1522124.4016879883,1.0868653059005737,-1.9510279893875122,-9.548958778381348
1776037949434382800,-1522124.3916171875,1.090415120124817,-1.9570300579071045,-9.54732608795166
1776037949444453600,-1522124.3815463868,1.0933388471603394,-1.9808456897735596,-9.542078971862793
1776037949474574300,-1522124.3514257811,1.0930519104003906,-2.1930489540100098,-9.495586395263672
1776037949484675800,-1522124.3413242188,1.1052216291427612,-2.2834343910217285,-9.472846031188965
1776037949494746600,-1522124.331253418,1.11527419090271,-2.3353793621063232,-9.45899486541748
1776037949504756200,-1522124.3212438964,1.136783480644226,-2.4444329738616943,-9.428831100463867
1776037949514796500,-1522124.3112033692,1.162937879562378,-2.5647921562194824,-9.393603324890137
1776037949524897800,-1522124.3011022948,1.1927181482315063,-2.694105863571167,-9.35359001159668
1776037949534968800,-1522124.29103125,1.2248913049697876,-2.8307392597198486,-9.308971405029297
1776037949545009000,-1522124.2809912108,1.2763830423355103,-3.0447936058044434,-9.234201431274414
1776037949555018800,-1522124.2709812012,1.295744776725769,-3.121514081954956,-9.205845832824707
1776037949585261600,-1522124.2407385253,1.4579321146011353,-3.5691871643066406,-9.016969680786133
1776037949595332400,-1522124.2306677245,1.5307039022445679,-3.7167434692382812,-8.94500732421875
1776037949605403400,-1522124.2205966797,1.6566028594970703,-3.9313061237335205,-8.83011245727539
1776037949615474200,-1522124.210525879,1.7513397932052612,-4.070646286010742,-8.748316764831543
1776037949625545000,-1522124.2004550782,1.8003274202346802,-4.139101505279541,-8.70615005493164
1776037949635585300,-1522124.190414795,1.9078216552734375,-4.272740840911865,-8.618253707885742
1776037949645686500,-1522124.1803134766,2.0216455459594727,-4.403193473815918,-8.52614974975586
1776037949655757300,-1522124.1702426758,2.140448570251465,-4.530595302581787,-8.429862022399902
1776037949665828000,-1522124.160171875,2.263417959213257,-4.654333591461182,-8.329736709594727
1776037949685908700,-1522124.1400913086,2.512836217880249,-4.88698148727417,-8.122405052185059
1776037949716060000,-1522124.1099401854,2.812713623046875,-5.182125091552734,-7.836108684539795
1776037949726130700,-1522124.0998693847,2.983933448791504,-5.3666276931762695,-7.64629602432251
1776037949736232200,-1522124.0897678223,3.02962327003479,-5.42219877243042,-7.588908672332764
1776037949746303000,-1522124.0796970215,3.126190185546875,-5.549269676208496,-7.456738471984863
1776037949756343300,-1522124.0696567383,3.2134389877319336,-5.681776523590088,-7.318578720092773
1776037949766444500,-1522124.05955542,3.2910752296447754,-5.819400310516357,-7.174524307250977
1776037949776515300,-1522124.0494846192,3.358916997909546,-5.960007190704346,-7.026121616363525
1776037949786586000,-1522124.0394138184,3.4477200508117676,-6.1737823486328125,-6.794705390930176
1776037949806758100,-1522124.0192419433,3.5141637325286865,-6.379404067993164,-6.566905975341797
1776037949816829200,-1522124.0091708985,3.5486738681793213,-6.516117095947266,-6.412295341491699
1776037949826900000,-1522123.9991000977,3.581167459487915,-6.715640544891357,-6.184319972991943
1776037949836940000,-1522123.9890600585,3.585430383682251,-6.779392719268799,-6.111867427825928
1776037949847010800,-1522123.9789892577,3.5895161628723145,-6.965115070343018,-5.896859169006348
1776037949857081900,-1522123.968918213,3.586552619934082,-7.024034023284912,-5.8283772468566895
1776037949867152600,-1522123.9588474121,3.5779731273651123,-7.1367716789245605,-5.695172309875488
1776037949887324700,-1522123.938675293,3.554647207260132,-7.333214282989502,-5.4551682472229
1776037949917537000,-1522123.9084628907,3.5123751163482666,-7.548357009887695,-5.18226957321167
1776037949927607800,-1522123.8983920899,3.4997522830963135,-7.594136714935303,-5.123592853546143
1776037949937678600,-1522123.888321289,3.4898757934570312,-7.625405788421631,-5.083733558654785
1776037949947749400,-1522123.8782507323,3.483494997024536,-7.641739368438721,-5.063542366027832
1776037949957820200,-1522123.8681799315,3.4782555103302,-7.6431965827941895,-5.064946174621582
1776037949967891000,-1522123.8581091308,3.4694035053253174,-7.63059139251709,-5.089960098266602
1776037949977962000,-1522123.848038086,3.4400055408477783,-7.592840194702148,-5.1658034324646
1776037950008144000,-1522123.8178562012,3.3779327869415283,-7.344934463500977,-5.550844192504883
1776037950018214700,-1522123.8077854004,3.329108715057373,-7.255646228790283,-5.695876598358154
1776037950028224300,-1522123.7977756348,3.267275094985962,-7.172710418701172,-5.835024833679199
1776037950038295000,-1522123.787705078,3.1658968925476074,-7.041513919830322,-6.046865463256836
1776037950048305000,-1522123.7776950684,3.092268228530884,-6.939055919647217,-6.201432704925537
1776037950058406100,-1522123.76759375,3.0076842308044434,-6.830477237701416,-6.361510753631592
1776037950068477000,-1522123.7575231933,2.9621951580047607,-6.771889686584473,-6.444944858551025
1776037950078517200,-1522123.747482666,2.861690044403076,-6.654973983764648,-6.610025405883789
1776037950118770000,-1522123.7072299805,2.469569444656372,-6.008086204528809,-7.346734523773193
1776037950128840700,-1522123.6971591797,2.4077398777008057,-5.8430352210998535,-7.498807907104492
1776037950138911500,-1522123.687088623,2.3796517848968506,-5.757081985473633,-7.57388162612915
1776037950148982300,-1522123.6770178222,2.309358835220337,-5.511277675628662,-7.775801181793213
1776037950159083800,-1522123.6669162598,2.2684154510498047,-5.352664947509766,-7.897701740264893
1776037950169154600,-1522123.656845459,2.230550765991211,-5.202733516693115,-8.00791072845459
1776037950179225300,-1522123.6467746582,2.19403338432312,-5.060750484466553,-8.108355522155762
1776037950219386400,-1522123.6066135254,2.0356192588806152,-4.567914962768555,-8.435685157775879
1776037950229457200,-1522123.5965429686,2.0103678703308105,-4.512589931488037,-8.471443176269531
1776037950239528000,-1522123.5864721679,1.9523388147354126,-4.409195899963379,-8.539191246032715
1776037950249598700,-1522123.576401367,1.8820149898529053,-4.317928314208984,-8.601390838623047
1776037950259669800,-1522123.5663303223,1.7983278036117554,-4.2429938316345215,-8.656410217285156
1776037950269709800,-1522123.556290283,1.6785452365875244,-4.093508243560791,-8.75191879272461
1776037950279750100,-1522123.546249756,1.618285059928894,-4.069375514984131,-8.774492263793945
1776037950289729500,-1522123.5362705078,1.4758225679397583,-3.8947947025299072,-8.878228187561035
1776037950319880700,-1522123.5061193847,1.154654622077942,-3.7762651443481445,-8.976468086242676
1776037950329951700,-1522123.4960483399,1.0318676233291626,-3.752067804336548,-9.001535415649414
1776037950340022500,-1522123.485977539,0.9197539687156677,-3.710200786590576,-9.030994415283203
1776037950350093300,-1522123.4759067383,0.785855233669281,-3.5415868759155273,-9.110983848571777
1776037950360164000,-1522123.4658359375,0.7267845869064331,-3.3977556228637695,-9.170466423034668
1776037950370235000,-1522123.4557651368,0.6830132603645325,-3.2506749629974365,-9.226970672607422
1776037950380305700,-1522123.445694336,0.6423638463020325,-3.112699031829834,-9.277331352233887
1776037950410548500,-1522123.415451416,0.5387754440307617,-2.8933422565460205,-9.354607582092285
1776037950430690000,-1522123.3953100585,0.4524965286254883,-2.8364064693450928,-9.376590728759766
1776037950440730400,-1522123.3852695313,0.3882189989089966,-2.7975356578826904,-9.391138076782227
1776037950450801200,-1522123.3751987305,0.3182172179222107,-2.7595458030700684,-9.404999732971191
1776037950460872000,-1522123.3651281737,0.20412790775299072,-2.7123396396636963,-9.42188549041748
1776037950470942700,-1522123.355057373,0.13613982498645782,-2.7010977268218994,-9.42634105682373
1776037950481013500,-1522123.3449865722,0.11045125871896744,-2.7067453861236572,-9.425058364868164
1776037950531367700,-1522123.2946323243,-0.15893618762493134,-2.7834866046905518,-9.401985168457031
1776037950541469000,-1522123.284531006,-0.19749300181865692,-2.803697347640991,-9.395248413085938
1776037950551539700,-1522123.274460205,-0.24560441076755524,-2.8350470066070557,-9.384698867797852
1776037950561580000,-1522123.264419922,-0.2517787218093872,-2.8498895168304443,-9.380040168762207
1776037950571620400,-1522123.2543796387,-0.2645096182823181,-2.8789963722229004,-9.370795249938965
1776037950581721600,-1522123.2442783203,-0.26734161376953125,-2.9122977256774902,-9.360419273376465
1776037950591792400,-1522123.2342075196,-0.2605079710483551,-2.948619842529297,-9.34923267364502
1776037950601893600,-1522123.2241064452,-0.23854221403598785,-3.0077433586120605,-9.330968856811523
1776037950642207500,-1522123.1837924805,-0.11819208413362503,-3.170219898223877,-9.279339790344238
1776037950652278300,-1522123.1737216797,-0.07761573791503906,-3.218498468399048,-9.263134002685547
1776037950662349000,-1522123.163650879,-0.03739829733967781,-3.2667453289031982,-9.246478080749512
1776037950672419800,-1522123.1535800782,0.00391278974711895,-3.3150558471679688,-9.22934341430664
1776037950682490600,-1522123.1435092774,0.07229834794998169,-3.3862383365631104,-9.203181266784668
1776037950692561400,-1522123.1334384766,0.0989227294921875,-3.410512924194336,-9.193965911865234
1776037950722743300,-1522123.1032565918,0.2674964964389801,-3.5715925693511963,-9.129216194152832
1776037950742884900,-1522123.0831152343,0.3659130334854126,-3.724483013153076,-9.064477920532227
1776037950752894700,-1522123.0731052246,0.43305590748786926,-3.8678336143493652,-9.001264572143555
1776037950762965500,-1522123.0630344239,0.45673781633377075,-3.921147584915161,-8.9769926071167
1776037950773036300,-1522123.052963623,0.5200152397155762,-4.03348445892334,-8.923619270324707
1776037950783137500,-1522123.0428625487,0.6036691069602966,-4.1535773277282715,-8.863058090209961
1776037950793208600,-1522123.032791504,0.7078174352645874,-4.278177261352539,-8.79582691192627
1776037950803279400,-1522123.0227207032,0.8315256834030151,-4.405823230743408,-8.7216796875
1776037950833400000,-1522122.9925998535,1.295416235923767,-4.781249046325684,-8.463567733764648
1776037950853450200,-1522122.9725498047,1.6239783763885498,-5.016495704650879,-8.268486976623535
1776037950863521000,-1522122.962479004,1.772538661956787,-5.137481212615967,-8.163015365600586
1776037950873530600,-1522122.9524694823,1.9018536806106567,-5.259074687957764,-8.055773735046387
1776037950883632000,-1522122.94236792,2.0083658695220947,-5.382008075714111,-7.948009490966797
1776037950893703000,-1522122.9322971192,2.0753273963928223,-5.493439197540283,-7.854013919830322
1776037950903773700,-1522122.9222263184,2.1333086490631104,-5.62223482131958,-7.7466020584106445
1776037950933955600,-1522122.8920444336,2.207921028137207,-6.104152679443359,-7.350835800170898
1776037950944056800,-1522122.8819431153,2.198387384414673,-6.1900482177734375,-7.28153657913208
1776037950954127600,-1522122.8718723145,2.173992395401001,-6.464123725891113,-7.046934127807617
1776037950964198400,-1522122.8618015137,2.1452486515045166,-6.643636703491211,-6.886974334716797
1776037950974269200,-1522122.851730713,2.0926976203918457,-6.9078803062438965,-6.638689994812012
1776037950984309500,-1522122.8416904297,2.049593210220337,-7.075064659118652,-6.474026203155518
1776037950994349800,-1522122.8316501465,2.024810791015625,-7.154903411865234,-6.393582820892334
1776037951004420600,-1522122.8215793457,1.9581904411315918,-7.384918212890625,-6.148078441619873
1776037951044673300,-1522122.7813266602,1.8136569261550903,-7.828853130340576,-5.620506763458252
1776037951054744000,-1522122.7712558594,1.7763696908950806,-7.932828426361084,-5.4849934577941895
1776037951064784400,-1522122.7612155762,1.739004135131836,-8.028101921081543,-5.356849670410156
1776037951074794200,-1522122.7512058106,1.6839555501937866,-8.15251350402832,-5.183743000030518
1776037951084865000,-1522122.7411350098,1.6646984815597534,-8.190271377563477,-5.130169868469238
1776037951094874600,-1522122.7311254882,1.6277222633361816,-8.257990837097168,-5.0325446128845215
1776037951104976100,-1522122.7210239258,1.5913176536560059,-8.3178071975708,-4.9449143409729
1776037951145228800,-1522122.6807712403,1.4809119701385498,-8.468605041503906,-4.718054294586182
1776037951165340000,-1522122.6606601563,1.4437404870986938,-8.487101554870605,-4.696284294128418
1776037951175349500,-1522122.6506503907,1.4256483316421509,-8.481117248535156,-4.7125983238220215
1776037951185420300,-1522122.6405798339,1.4066940546035767,-8.46201229095459,-4.752470970153809
1776037951195430100,-1522122.6305698243,1.3712667226791382,-8.415947914123535,-4.843747138977051
1776037951205531400,-1522122.620468506,1.3679203987121582,-8.367453575134277,-4.927971363067627
1776037951215602200,-1522122.610397705,1.3354600667953491,-8.25312614440918,-5.125702857971191
1776037951225703700,-1522122.6002963868,1.3377865552902222,-8.181113243103027,-5.239282131195068
1776037951255885600,-1522122.570114502,1.2436492443084717,-7.918269634246826,-5.650197982788086
1776037951265986800,-1522122.5600131836,1.1842694282531738,-7.819949626922607,-5.797955513000488
1776037951276027100,-1522122.5499729004,1.1000585556030273,-7.713522911071777,-5.954982757568359
1776037951286128400,-1522122.539871582,0.9826701879501343,-7.599089622497559,-6.12034273147583
1776037951296199200,-1522122.5298007813,0.7246604561805725,-7.419194221496582,-6.3718767166137695
1776037951306300400,-1522122.519699463,0.6234545707702637,-7.352542400360107,-6.459242820739746
1776037951316340700,-1522122.5096591797,0.24173487722873688,-7.142485618591309,-6.715418815612793
1776037951336482300,-1522122.4895175782,-0.2584644854068756,-6.8183441162109375,-7.043705940246582
1776037951346583800,-1522122.4794162598,-0.3648357689380646,-6.7312188148498535,-7.12235689163208
1776037951356563000,-1522122.4694370118,-0.5188824534416199,-6.562959671020508,-7.268336772918701
1776037951366664200,-1522122.4593356934,-0.6224761009216309,-6.403584003448486,-7.401152610778809
1776037951376735000,-1522122.4492651366,-0.6882160902023315,-6.258082389831543,-7.518853187561035
1776037951386805800,-1522122.4391943358,-0.7257283329963684,-6.127253532409668,-7.622366428375244
1776037951396846000,-1522122.4291538086,-0.7400321960449219,-6.008559703826904,-7.714916229248047
1776037951406916900,-1522122.4190832519,-0.7332751154899597,-5.8991169929504395,-7.799559593200684
1776037951416987600,-1522122.409012451,-0.6926110982894897,-5.752276420593262,-7.912143230438232
1776037951427058400,-1522122.3989416503,-0.6679232120513916,-5.7047038078308105,-7.948624610900879
1776037951457271000,-1522122.368729004,-0.4467407464981079,-5.4263997077941895,-8.15628719329834
1776037951477412600,-1522122.3485874024,-0.3402571976184845,-5.322816371917725,-8.229351997375488
1776037951487483400,-1522122.3385166016,-0.27330607175827026,-5.251807689666748,-8.27733039855957
1776037951497554200,-1522122.3284458008,-0.16741526126861572,-5.133645534515381,-8.353922843933105
1776037951507625000,-1522122.318375,-0.13776011765003204,-5.097119331359863,-8.376799583435059
1776037951517665300,-1522122.3083347168,-0.06299450993537903,-5.011887073516846,-8.428961753845215
1776037951527766500,-1522122.2982333985,0.06578151136636734,-4.867743968963623,-8.5129976272583
1776037951568049700,-1522122.2579504394,0.4591086208820343,-4.399942874908447,-8.75214958190918
1776037951578120400,-1522122.2478796386,0.511063277721405,-4.333924770355225,-8.782157897949219
1776037951588160800,-1522122.2378391114,0.614212691783905,-4.1983489990234375,-8.84121036529541
1776037951598231600,-1522122.2277685546,0.7087918519973755,-4.061068534851074,-8.898075103759766
1776037951608302300,-1522122.2176977538,0.7667284607887268,-3.9320836067199707,-8.951047897338867
1776037951618312200,-1522122.2076877442,0.8205594420433044,-3.8075246810913086,-8.999992370605469
1776037951628413400,-1522122.1975866698,0.8692945241928101,-3.628760814666748,-9.069003105163574
1776037951638453800,-1522122.1875461426,0.8792968988418579,-3.5840656757354736,-9.085797309875488
1776037951668696800,-1522122.1573032227,0.9258593320846558,-3.3132898807525635,-9.183424949645996
1776037951678767600,-1522122.147232422,0.9317728877067566,-3.267300605773926,-9.19929027557373
1776037951688838400,-1522122.1371616211,0.9359627962112427,-3.220994472503662,-9.215182304382324
1776037951698909200,-1522122.1270908203,0.9304004311561584,-3.1640472412109375,-9.23544979095459
1776037951709010400,-1522122.116989502,0.9153753519058228,-3.110448122024536,-9.25513744354248
1776037951719081200,-1522122.1069187012,0.893807053565979,-3.0646986961364746,-9.272493362426758
1776037951729152000,-1522122.0968479004,0.8668582439422607,-3.025120258331299,-9.288036346435547
1776037951739222800,-1522122.0867770996,0.8345464468002319,-2.9931068420410156,-9.30135726928711
1776037951749293600,-1522122.0767065429,0.8024322390556335,-2.9635462760925293,-9.313638687133789
1776037951759334000,-1522122.0666660157,0.7689841389656067,-2.9351463317871094,-9.325448036193848
1776037951769404700,-1522122.0565952149,0.733847975730896,-2.906450033187866,-9.337258338928223
1776037951779475500,-1522122.046524658,0.6970639824867249,-2.878896713256836,-9.348608016967773
1776037951789577000,-1522122.0364230957,0.6569757461547852,-2.8529770374298096,-9.35944938659668
1776037951799617000,-1522122.0263830565,0.6141045689582825,-2.8287808895111084,-9.36970043182373
1776037951809688000,-1522122.0163120118,0.545166015625,-2.793468713760376,-9.384547233581543
1776037951819758800,-1522122.006241211,0.502044677734375,-2.7735209465026855,-9.392866134643555
1776037951829829600,-1522121.9961704102,0.4827180504798889,-2.7655766010284424,-9.396220207214355
1776037951839870000,-1522121.986130127,0.4322802424430847,-2.7387118339538574,-9.406540870666504
1776037951860042000,-1522121.9659580078,0.3956809937953949,-2.713393211364746,-9.415483474731445
1776037951870112800,-1522121.955887207,0.39242929220199585,-2.711021661758423,-9.416303634643555
1776037951880153000,-1522121.9458469239,0.38477322459220886,-2.705970525741577,-9.418071746826172
1776037951890223900,-1522121.935776123,0.37849077582359314,-2.706247329711914,-9.418246269226074
1776037951900294700,-1522121.9257053223,0.3771452307701111,-2.711937189102173,-9.416665077209473
1776037951910365400,-1522121.9156345215,0.3846569061279297,-2.7231242656707764,-9.413129806518555
1776037951920436200,-1522121.9055637207,0.402693510055542,-2.740471124649048,-9.407340049743652
1776037951930507000,-1522121.89549292,0.43175360560417175,-2.766270160675049,-9.398497581481934
1776037951940577800,-1522121.8854221192,0.4714946448802948,-2.8033406734466553,-9.385595321655273
1776037951950648600,-1522121.8753513184,0.5186901092529297,-2.8525288105010986,-9.368268013000488
1776037951960719400,-1522121.8652807616,0.5681032538414001,-2.9129464626312256,-9.346786499023438
1776037951990901200,-1522121.8350986328,0.7323468923568726,-3.1509196758270264,-9.25774097442627
1776037952000941600,-1522121.8250583496,0.8421762585639954,-3.2826626300811768,-9.202461242675781
1776037952011012400,-1522121.8149875489,0.8850889205932617,-3.3304171562194824,-9.181248664855957
1776037952021083100,-1522121.804916748,1.036426305770874,-3.4614617824554443,-9.116715431213379
1776037952031154000,-1522121.7948461913,1.0925450325012207,-3.5071945190429688,-9.092652320861816
1776037952041194200,-1522121.784805664,1.2779268026351929,-3.6329331398010254,-9.018818855285645
1776037952051234600,-1522121.774765381,1.342117190361023,-3.6768596172332764,-8.991652488708496
1776037952061305300,-1522121.76469458,1.476279616355896,-3.7606914043426514,-8.93578052520752
1776037952081447000,-1522121.7445529785,1.7431010007858276,-3.93698787689209,-8.81091022491455
1776037952091517700,-1522121.7344824218,1.8677496910095215,-4.031857490539551,-8.74219799041748
1776037952101588500,-1522121.724411621,1.9820278882980347,-4.131686687469482,-8.67012882232666
1776037952121699600,-1522121.704300537,2.1712849140167236,-4.348983287811279,-8.51717472076416
1776037952131801000,-1522121.6941989746,2.22595477104187,-4.47127103805542,-8.439388275146484
1776037952141871900,-1522121.6841281739,2.2536439895629883,-4.604097843170166,-8.360249519348145
1776037952151912200,-1522121.6740878907,2.2711031436920166,-4.749283313751221,-8.2738618850708
1776037952182155000,-1522121.6438449707,2.3402042388916016,-5.240572452545166,-7.951744556427002
1776037952212397800,-1522121.6136022948,2.367375612258911,-5.784844398498535,-7.556551933288574
1776037952222468600,-1522121.603531494,2.352189779281616,-5.977720260620117,-7.409753799438477
1776037952232570000,-1522121.5934299317,2.3239264488220215,-6.1734747886657715,-7.256580352783203
1776037952242641000,-1522121.583359131,2.280999183654785,-6.3680853843688965,-7.100347518920898
1776037952252711700,-1522121.57328833,2.2269015312194824,-6.559056282043457,-6.941909313201904
1776037952262752000,-1522121.563248047,2.165858268737793,-6.745517730712891,-6.780666828155518
1776037952272822800,-1522121.5531772461,2.104858636856079,-6.924734592437744,-6.617252826690674
1776037952292934000,-1522121.5330661621,1.9827122688293457,-7.255801200866699,-6.292263507843018
1776037952313075500,-1522121.5129245606,1.820495843887329,-7.559686660766602,-5.975561618804932
1776037952323115800,-1522121.5028842774,1.7265660762786865,-7.6988301277160645,-5.823863506317139
1776037952333186600,-1522121.4928134766,1.6324387788772583,-7.827150344848633,-5.678138256072998
1776037952343196200,-1522121.482803955,1.5423855781555176,-7.941344261169434,-5.543148994445801
1776037952353267000,-1522121.4727331542,1.453554630279541,-8.042840957641602,-5.419436454772949
1776037952363307300,-1522121.462692627,1.3642793893814087,-8.130367279052734,-5.3109564781188965
1776037952373408800,-1522121.4525913086,1.2738994359970093,-8.204973220825195,-5.217855930328369
1776037952383479600,-1522121.4425205078,1.1891840696334839,-8.2648344039917,-5.142837047576904
1776037952413722400,-1522121.412277588,1.0070909261703491,-8.335760116577148,-5.066683292388916
1776037952423793200,-1522121.4022067871,0.9419283866882324,-8.321107864379883,-5.10316801071167
1776037952433894400,-1522121.3921057128,0.9042980670928955,-8.285307884216309,-5.167816162109375
1776037952443965200,-1522121.382034912,0.898935079574585,-8.236865997314453,-5.245601654052734
1776037952454036000,-1522121.3719641112,0.9059762358665466,-8.047934532165527,-5.529950141906738
1776037952464107000,-1522121.3618930664,0.9091267585754395,-7.9823784828186035,-5.623656749725342
1776037952474147000,-1522121.3518530272,0.8879103660583496,-7.848202705383301,-5.812717914581299
1776037952484217900,-1522121.3417822265,0.8851210474967957,-7.787718772888184,-5.893927097320557
1776037952504359700,-1522121.321640381,0.8612643480300903,-7.544990062713623,-6.204979419708252
1776037952514461000,-1522121.3115390625,0.8585095405578613,-7.315054416656494,-6.474823951721191
1776037952524531700,-1522121.3014682618,0.8713690042495728,-7.136343002319336,-6.669609546661377
1776037952534602500,-1522121.291397461,0.8822592496871948,-7.0396904945373535,-6.770136833190918
1776037952544673300,-1522121.2813266602,0.9393705129623413,-6.725792407989502,-7.074721813201904
1776037952554713600,-1522121.271286377,0.9966086745262146,-6.499992847442627,-7.275113105773926
1776037952564814800,-1522121.2611850586,1.0654677152633667,-6.265071868896484,-7.468873500823975
1776037952574885600,-1522121.2511142578,1.1390432119369507,-6.0284600257873535,-7.650532245635986
1776037952584956400,-1522121.241043701,1.1767781972885132,-5.90947961807251,-7.737159729003906
1776037952595027200,-1522121.2309729003,1.251663088798523,-5.676290988922119,-7.89832067489624
1776037952615169000,-1522121.2108310547,1.4105056524276733,-5.2321906089782715,-8.17343521118164
1776037952625239800,-1522121.200760254,1.4989614486694336,-5.024021148681641,-8.287504196166992
1776037952635249400,-1522121.1907504883,1.6444822549819946,-4.7346625328063965,-8.429060935974121
1776037952645320200,-1522121.1806796875,1.6940321922302246,-4.637997627258301,-8.472875595092773
1776037952655421700,-1522121.1705783692,1.7981548309326172,-4.454410076141357,-8.549577713012695
1776037952665492500,-1522121.1605075684,1.9008523225784302,-4.277230739593506,-8.617568016052246
1776037952675502000,-1522121.1504978028,1.9945980310440063,-4.108816146850586,-8.67811107635498
1776037952685603600,-1522121.1403964844,2.073071241378784,-3.948383092880249,-8.734015464782715
1776037952695674400,-1522121.1303256836,2.1323065757751465,-3.811737537384033,-8.780336380004883
1776037952705714400,-1522121.1202856444,2.1758885383605957,-3.6652023792266846,-8.83188533782959
1776037952746028300,-1522121.0799716797,2.1014702320098877,-3.4817490577697754,-8.923656463623047
1776037952756068600,-1522121.0699313965,2.0099499225616455,-3.4322783946990967,-8.963813781738281
1776037952766169900,-1522121.0598300782,1.974569320678711,-3.4225759506225586,-8.97537899017334
1776037952776210200,-1522121.049789795,1.8962205648422241,-3.3936538696289062,-9.003214836120605
1776037952786220000,-1522121.0397800293,1.8105478286743164,-3.361283540725708,-9.03294563293457
1776037952796229600,-1522121.0297702637,1.7212234735488892,-3.3223915100097656,-9.064740180969238
1776037952816340700,-1522121.0096591797,1.5515462160110474,-3.218505859375,-9.132596015930176
1776037952836482300,-1522120.9895175782,1.4017337560653687,-3.080357551574707,-9.204179763793945
1776037952846583800,-1522120.9794162598,1.3036235570907593,-2.955497980117798,-9.25937271118164
1776037952856685000,-1522120.9693149414,1.2436574697494507,-2.873440980911255,-9.293386459350586
1776037952866755800,-1522120.9592441407,1.2193635702133179,-2.84291410446167,-9.305986404418945
1776037952876796200,-1522120.9492038575,1.1700749397277832,-2.768588066101074,-9.334680557250977
1776037952886836500,-1522120.9391635743,1.1279460191726685,-2.6957755088806152,-9.361140251159668
1776037952896937700,-1522120.929062256,1.08961021900177,-2.620756149291992,-9.386948585510254
1776037952907008500,-1522120.918991455,1.0531535148620605,-2.550180435180664,-9.410517692565918
1776037952917079300,-1522120.9089206543,1.0167168378829956,-2.4877936840057373,-9.431201934814453
1776037952957301500,-1522120.8686984864,0.882172167301178,-2.3596794605255127,-9.477557182312012
1776037952967372300,-1522120.8586276856,0.827646791934967,-2.3095383644104004,-9.494810104370117
1776037952977473500,-1522120.8485263672,0.7449597120285034,-2.2296302318573,-9.520723342895508
1776037952987513900,-1522120.838486084,0.7220341563224792,-2.208043098449707,-9.527520179748535
1776037952997584600,-1522120.8284152832,0.667576014995575,-2.1577794551849365,-9.542994499206543
1776037953007655400,-1522120.8183444825,0.6149526834487915,-2.110933303833008,-9.55699634552002
1776037953017756700,-1522120.808243408,0.5700140595436096,-2.0708677768707275,-9.568541526794434
1776037953027827700,-1522120.7981723633,0.5350233912467957,-2.0370900630950928,-9.577808380126953
1776037953047999700,-1522120.7780002442,0.5004547834396362,-1.991386890411377,-9.589280128479004
1776037953058070500,-1522120.7679294434,0.4995119571685791,-1.9821728467941284,-9.591238975524902
1776037953068110800,-1522120.7578891602,0.5100269317626953,-1.9807378053665161,-9.590981483459473
1776037953078151200,-1522120.747848877,0.5315595269203186,-1.9872835874557495,-9.588459014892578
1776037953088191500,-1522120.7378085938,0.5754126906394958,-2.010525703430176,-9.581079483032227
1776037953098231600,-1522120.7277685546,0.6088503003120422,-2.03145432472229,-9.574593544006348
1776037953108271900,-1522120.7177280274,0.6274082660675049,-2.0432605743408203,-9.57088565826416
1776037953118373000,-1522120.707626953,0.6729968786239624,-2.0803372859954834,-9.559794425964355
1776037953128444200,-1522120.6975559082,0.7188315987586975,-2.1174306869506836,-9.548306465148926
1776037953148585700,-1522120.6774143067,0.8806278109550476,-2.25282621383667,-9.503666877746582
1776037953168727300,-1522120.657272705,0.9984452128410339,-2.377042531967163,-9.461669921875
1776037953178767600,-1522120.647232422,1.0776467323303223,-2.476428508758545,-9.4274263381958
1776037953188808000,-1522120.6371921387,1.1564899682998657,-2.5864903926849365,-9.388450622558594
1776037953198878700,-1522120.627121338,1.2345715761184692,-2.704983711242676,-9.345014572143555
1776037953208949500,-1522120.6170505371,1.3117449283599854,-2.8301570415496826,-9.297307014465332
1776037953219050800,-1522120.6069492188,1.3892676830291748,-2.9607317447662354,-9.24523639678955
1776037953229060600,-1522120.5969394532,1.4703946113586426,-3.093935966491699,-9.1889009475708
1776037953259242500,-1522120.5667575684,1.8280940055847168,-3.545156478881836,-8.958813667297363
1776037953269313300,-1522120.5566867676,1.8881776332855225,-3.605226516723633,-8.9223051071167
1776037953279384000,-1522120.5466159668,2.0158863067626953,-3.7207939624786377,-8.846597671508789
1776037953289454800,-1522120.536545166,2.1496522426605225,-3.8318140506744385,-8.767358779907227
1776037953299556000,-1522120.5264438477,2.3569841384887695,-3.9941651821136475,-8.64069938659668
1776037953309566000,-1522120.516434082,2.422961950302124,-4.045240879058838,-8.59858512878418
1776037953319636700,-1522120.5063632813,2.555629014968872,-4.151494979858398,-8.50906753540039
1776037953329707500,-1522120.4962924805,2.6802456378936768,-4.260456085205078,-8.416363716125488
1776037953339778300,-1522120.4862216797,2.8484349250793457,-4.436221599578857,-8.269022941589355
1776037953379939300,-1522120.446060791,3.0044360160827637,-4.868251323699951,-7.9651665687561035
1776037953400050400,-1522120.425949463,3.0691964626312256,-5.200603485107422,-7.726846218109131
1776037953410121200,-1522120.4158786621,3.0857722759246826,-5.375927448272705,-7.599199295043945
1776037953420192000,-1522120.4058081054,3.0981671810150146,-5.555538177490234,-7.463761329650879
1776037953430232300,-1522120.3957675782,3.1059179306030273,-5.832679748535156,-7.2459306716918945
1776037953440303000,-1522120.3856967774,3.0941507816314697,-6.017057418823242,-7.098707675933838
1776037953470424000,-1522120.3555759278,3.0083887577056885,-6.5516228675842285,-6.648024559020996
1776037953480494800,-1522120.345505127,2.987544059753418,-6.632631778717041,-6.5767130851745605
1776037953490565600,-1522120.3354343262,2.9444284439086914,-6.865930557250977,-6.352931022644043
1776037953500636400,-1522120.3253635254,2.9201533794403076,-7.007079124450684,-6.208377361297607
1776037953510707200,-1522120.3152927246,2.9080116748809814,-7.073180675506592,-6.13872766494751
1776037953520808400,-1522120.3051916503,2.888579845428467,-7.257497787475586,-5.929184913635254
1776037953530879200,-1522120.2951208495,2.8821232318878174,-7.313559055328369,-5.863071441650391
1776037953540950300,-1522120.2850498047,2.8676843643188477,-7.467413425445557,-5.6731390953063965
1776037953571101400,-1522120.2548986815,2.8200924396514893,-7.68594217300415,-5.398497104644775
1776037953591273700,-1522120.2347263184,2.7503106594085693,-7.828482627868652,-5.226954936981201
1776037953601344500,-1522120.2246555176,2.7117974758148193,-7.8843231201171875,-5.162751197814941
1776037953611415300,-1522120.2145847168,2.6504783630371094,-7.947765350341797,-5.096899032592773
1776037953621486000,-1522120.204513916,2.6279380321502686,-7.962670803070068,-5.085293769836426
1776037953631556900,-1522120.1944431153,2.553281784057617,-7.991393566131592,-5.078266620635986
1776037953641627600,-1522120.1843723145,2.5266385078430176,-7.991976261138916,-5.090659141540527
1776037953651698400,-1522120.1743015137,2.4469454288482666,-7.975750923156738,-5.154632091522217
1776037953681880300,-1522120.144119629,2.3203210830688477,-7.808661460876465,-5.45997428894043
1776037953702022000,-1522120.1239780274,2.229882001876831,-7.511715888977051,-5.89678955078125
1776037953712092700,-1522120.1139072266,2.2068350315093994,-7.367773532867432,-6.0840935707092285
1776037953722163500,-1522120.1038364258,2.191013813018799,-7.203990459442139,-6.282703399658203
1776037953732234200,-1522120.093765869,2.1821138858795166,-7.017936706542969,-6.492867946624756
1776037953742305000,-1522120.0836950683,2.1797616481781006,-6.9147233963012695,-6.603457927703857
1776037953752345300,-1522120.073654541,2.1779496669769287,-6.579450607299805,-6.938138961791992
1776037953802730000,-1522120.0232700196,2.1788153648376465,-5.359683513641357,-7.918139457702637
1776037953812770300,-1522120.0132297364,2.197361707687378,-5.066254615783691,-8.104013442993164
1776037953822841000,-1522120.0031589356,2.225100040435791,-4.773445129394531,-8.272456169128418
1776037953832942300,-1522119.9930576172,2.257368564605713,-4.4855852127075195,-8.423431396484375
1776037953843013000,-1522119.9829868164,2.3003203868865967,-4.082918643951416,-8.614446640014648
1776037953853084000,-1522119.9729160157,2.3193695545196533,-3.837023973464966,-8.721707344055176
1776037953863185200,-1522119.9628149413,2.3293707370758057,-3.612226963043213,-8.81454849243164
1776037953903468500,-1522119.9225314942,2.2851457595825195,-2.9898715019226074,-9.055892944335938
1776037953923640600,-1522119.902359375,2.2029671669006348,-2.7492568492889404,-9.151988983154297
1776037953933711400,-1522119.8922885743,2.119035005569458,-2.614837646484375,-9.211010932922363
1776037953943782100,-1522119.8822177735,2.0544986724853516,-2.5417919158935547,-9.246010780334473
1776037953953822500,-1522119.8721774903,1.98098623752594,-2.4938321113586426,-9.275069236755371
1776037953963862800,-1522119.862137207,1.901821494102478,-2.4526925086975098,-9.302567481994629
1776037954004115500,-1522119.8218845215,1.5939579010009766,-2.347174882888794,-9.387248992919922
1776037954014155800,-1522119.8118442383,1.5080355405807495,-2.302328109741211,-9.412518501281738
1776037954024196000,-1522119.801803955,1.424396276473999,-2.247305154800415,-9.43880844116211
1776037954034236200,-1522119.791763916,1.3072364330291748,-2.1406850814819336,-9.480453491210938
1776037954044307200,-1522119.7816928711,1.2346312999725342,-2.065601110458374,-9.506805419921875
1776037954054378000,-1522119.7716220703,1.1667174100875854,-1.9830021858215332,-9.532937049865723
1776037954064448800,-1522119.7615512696,1.1337684392929077,-1.951934576034546,-9.543316841125488
1776037954104732000,-1522119.7212680664,0.900685727596283,-1.6372495889663696,-9.626970291137695
1776037954114772200,-1522119.7112277832,0.8229419589042664,-1.5257818698883057,-9.652209281921387
1776037954124873500,-1522119.7011264649,0.8128180503845215,-1.5344232320785522,-9.651697158813477
1776037954134944300,-1522119.691055664,0.801302969455719,-1.5314788818359375,-9.653128623962402
1776037954145015000,-1522119.6809848633,0.8097913861274719,-1.539431095123291,-9.651155471801758
1776037954155055400,-1522119.67094458,0.7794880270957947,-1.4979493618011475,-9.660172462463379
1776037954165156600,-1522119.6608435058,0.7474673390388489,-1.4677573442459106,-9.667336463928223
1776037954175227400,-1522119.650772705,0.6826245188713074,-1.4025102853775024,-9.681805610656738
1776037954195308000,-1522119.6306918946,0.6027443408966064,-1.3253324031829834,-9.697968482971191
1776037954205409300,-1522119.6205908202,0.5868973731994629,-1.3101102113723755,-9.701009750366211
1776037954215480000,-1522119.6105200194,0.5530477166175842,-1.271772027015686,-9.708097457885742
1776037954225581600,-1522119.600418457,0.5260568261146545,-1.2414757013320923,-9.713518142700195
1776037954235622000,-1522119.5903781739,0.49736443161964417,-1.2143959999084473,-9.718450546264648
1776037954245692700,-1522119.580307373,0.4938128590583801,-1.2131468057632446,-9.71878719329834
1776037954255763500,-1522119.5702365723,0.4911363422870636,-1.2157129049301147,-9.71860122680664
1776037954265834200,-1522119.5601657715,0.49790918827056885,-1.2320821285247803,-9.71619701385498
1776037954275843800,-1522119.55015625,0.5135024785995483,-1.263038992881775,-9.711408615112305
1776037954285945300,-1522119.5400546875,0.5400000214576721,-1.3083926439285278,-9.703963279724121
1776037954326198000,-1522119.499802002,0.7351134419441223,-1.6362497806549072,-9.641196250915527
1776037954336268800,-1522119.4897312012,0.7947995662689209,-1.7527400255203247,-9.615954399108887
1776037954346339600,-1522119.4796604004,0.8531886339187622,-1.8818492889404297,-9.586506843566895
1776037954356380000,-1522119.4696201172,0.912190854549408,-2.021116018295288,-9.552665710449219
1776037954366481200,-1522119.4595187989,1.0104215145111084,-2.244516372680664,-9.49271297454834
1776037954376552000,-1522119.449447998,1.0847855806350708,-2.4027724266052246,-9.445651054382324
1776037954386561800,-1522119.4394382325,1.1652625799179077,-2.5689074993133545,-9.392190933227539
1776037954396571400,-1522119.4294287108,1.24811851978302,-2.7455430030822754,-9.331377983093262
1776037954426875400,-1522119.3991245118,1.4722107648849487,-3.349060297012329,-9.098725318908691
1776037954447017000,-1522119.3789831542,1.556355595588684,-3.680717945098877,-8.955472946166992
1776037954457087700,-1522119.3689123534,1.6060376167297363,-3.9081919193267822,-8.849693298339844
1776037954467158500,-1522119.3588415526,1.655167818069458,-4.13540506362915,-8.736661911010742
1776037954477229600,-1522119.3487705078,1.706422209739685,-4.359270095825195,-8.61715030670166
1776037954487300400,-1522119.338699707,1.7905617952346802,-4.685728549957275,-8.426637649536133
1776037954497371100,-1522119.3286289063,1.8473756313323975,-4.8912272453308105,-8.29659366607666
1776037954507442000,-1522119.3185581055,1.873643398284912,-4.98695707321167,-8.233476638793945
1776037954527583500,-1522119.298416504,2.0342302322387695,-5.440161228179932,-7.901706695556641
1776037954547694600,-1522119.27830542,2.108799457550049,-5.655594825744629,-7.729011535644531
1776037954557735000,-1522119.2682651368,2.1633739471435547,-5.839558124542236,-7.575603485107422
1776037954567805700,-1522119.258194336,2.1677777767181396,-5.884198188781738,-7.539717674255371
1776037954577846000,-1522119.2481540528,2.2016875743865967,-5.999551296234131,-7.438304901123047
1776037954587916800,-1522119.238083252,2.2471518516540527,-6.124736309051514,-7.321769714355469
1776037954597987600,-1522119.2280124512,2.294602632522583,-6.2500834465026855,-7.2001142501831055
1776037954608058400,-1522119.2179416504,2.3449394702911377,-6.372914791107178,-7.075139999389648
1776037954628230400,-1522119.1977695313,2.4467082023620605,-6.6007232666015625,-6.827478885650635
1776037954648372000,-1522119.1776279297,2.543745756149292,-6.812231063842773,-6.5797600746154785
1776037954658442800,-1522119.167557129,2.587306022644043,-6.911104202270508,-6.458551406860352
1776037954668513500,-1522119.1574865722,2.6278204917907715,-7.005089282989502,-6.339849472045898
1776037954678553900,-1522119.147446045,2.683689594268799,-7.137083053588867,-6.166867256164551
1776037954688655000,-1522119.1373449706,2.6968677043914795,-7.176342010498047,-6.115341663360596
1776037954698726100,-1522119.1272739258,2.7446341514587402,-7.293041706085205,-5.953897476196289
1776037954708797000,-1522119.117203125,2.7561254501342773,-7.327281475067139,-5.906363487243652
1776037954718867700,-1522119.1071323243,2.7860610485076904,-7.396323204040527,-5.805400848388672
1776037954759181300,-1522119.0668186035,2.887592077255249,-7.6338396072387695,-5.43660831451416
1776037954779292400,-1522119.0467075196,2.9093964099884033,-7.73603630065918,-5.278215408325195
1776037954789332700,-1522119.0366672364,2.915308713912964,-7.781754493713379,-5.207270622253418
1776037954799342600,-1522119.0266574707,2.91841197013855,-7.82214879989624,-5.1446356773376465
1776037954809443800,-1522119.0165561524,2.916931390762329,-7.8713603019714355,-5.069873332977295
1776037954819453700,-1522119.0065463868,2.9156250953674316,-7.882506847381592,-5.0532755851745605
1776037954829555000,-1522118.9964450684,2.9113965034484863,-7.902209281921387,-5.024864196777344
1776037954849666000,-1522118.9763339844,2.9149153232574463,-7.920382976531982,-4.994117259979248
1776037954859736800,-1522118.9662631836,2.9266672134399414,-7.910717487335205,-5.002556324005127
1776037954869807600,-1522118.9561923828,2.930588722229004,-7.898983001708984,-5.018774032592773
1776037954879848000,-1522118.9461520996,2.9298160076141357,-7.867279052734375,-5.068775177001953
1776037954889918700,-1522118.9360812989,2.9142332077026367,-7.789535045623779,-5.196226596832275
1776037954899959000,-1522118.9260410157,2.9207963943481445,-7.637945175170898,-5.413052558898926
1776037954910029800,-1522118.9159702149,2.921477794647217,-7.580853462219238,-5.4923601150512695
1776037954920070100,-1522118.9059299317,2.907390832901001,-7.461265563964844,-5.661006927490234
1776037954930171400,-1522118.8958286133,2.909363031387329,-7.361133098602295,-5.789622783660889
1776037954970454500,-1522118.8555454102,2.989816188812256,-6.870858669281006,-6.326351165771484
1776037954980525300,-1522118.8454746094,3.0233845710754395,-6.687049388885498,-6.504837512969971
1776037954990626600,-1522118.835373535,3.0475521087646484,-6.49028205871582,-6.690221309661865
1776037955010768400,-1522118.8152316895,3.0537703037261963,-6.07589864730835,-7.06599760055542
1776037955020839200,-1522118.8051608887,3.0082385540008545,-5.775568962097168,-7.33237361907959
1776037955030940400,-1522118.7950595703,2.9891672134399414,-5.672149658203125,-7.420377731323242
1776037955061183200,-1522118.7648166504,2.7719080448150635,-5.158855438232422,-7.865947246551514
1776037955091395600,-1522118.734604492,2.5148208141326904,-4.737965106964111,-8.209612846374512
1776037955101436000,-1522118.7245642089,2.4283125400543213,-4.610805511474609,-8.307476997375488
1776037955111506700,-1522118.714493408,2.340594530105591,-4.487596035003662,-8.399612426757812
1776037955121547000,-1522118.704452881,2.2499160766601562,-4.365289211273193,-8.488374710083008
1776037955131587300,-1522118.6944125977,2.1108927726745605,-4.181429862976074,-8.615694046020508
1776037955161738800,-1522118.6642612305,1.8374439477920532,-3.8838815689086914,-8.815309524536133
