time,seconds_elapsed,z,y,x
1776037938434526500,-1522135.3914736328,9.473855972290039,0.6536170840263367,-0.950498104095459
1776037938444197000,-1522135.3818029785,9.512163162231445,0.6919242739677429,-1.0055646896362305
1776037938453868000,-1522135.3721320801,9.586383819580078,0.8068459630012512,-0.9481038451194763
1776037938483280400,-1522135.3427197265,9.531316757202148,0.9169792532920837,-0.8667010068893433
1776037938493251000,-1522135.3327490233,9.615114212036133,1.0630255937576294,-0.8882488012313843
1776037938523433000,-1522135.3025671386,9.569623947143555,1.3263877630233765,-0.7805097699165344
1776037938543574800,-1522135.282425293,9.445125579833984,1.2042834758758545,-0.6512228846549988
1776037938553554000,-1522135.272446045,9.521739959716797,1.2306196689605713,-0.6560112833976746
1776037938563655200,-1522135.2623447266,9.543288230895996,1.1492167711257935,-0.5937620401382446
1776037938573665000,-1522135.252334961,9.600749015808105,1.314416766166687,-0.5626373887062073
1776037938583735800,-1522135.2422641602,9.646238327026367,1.482010841369629,-0.6177040338516235
1776037938593745700,-1522135.2322543946,9.75637149810791,1.599326729774475,-0.727837324142456
1776037938603847000,-1522135.2221530762,9.782708168029785,1.6519991159439087,-0.7948749661445618
1776037938613917700,-1522135.2120822754,9.785101890563965,1.6280571222305298,-0.9433154463768005
1776037938624019000,-1522135.201980957,9.713275909423828,1.6735470294952393,-0.9959878921508789
1776037938654170400,-1522135.1718295899,10.019734382629395,1.4532804489135742,-1.3407529592514038
1776037938664241200,-1522135.161758789,9.837775230407715,1.5155296325683594,-1.4508862495422363
1776037938674281500,-1522135.151718506,9.428366661071777,1.6950948238372803,-1.4867992401123047
1776037938684382700,-1522135.1416171875,9.2033109664917,1.5442601442337036,-1.4532804489135742
1776037938694423000,-1522135.1315769043,9.004592895507812,1.764526605606079,-1.3646949529647827
1776037938704493800,-1522135.1215061035,8.671798706054688,2.078166961669922,-1.2306196689605713
1776037938714534100,-1522135.1114658203,8.164227485656738,2.2457611560821533,-0.9911994934082031
1776037938724635400,-1522135.101364502,7.63989782333374,2.250549554824829,-0.8690952062606812
1776037938754817300,-1522135.0711826172,6.256049156188965,1.50355863571167,-1.3982137441635132
1776037938764918800,-1522135.0610812989,5.808333396911621,1.137245774269104,-1.742978811264038
1776037938774958800,-1522135.0510412597,5.4252610206604,0.7086837291717529,-2.1571757793426514
1776037938785029600,-1522135.0409704589,5.008669853210449,0.33039984107017517,-2.8131868839263916
1776037938795070000,-1522135.0309299317,4.896142482757568,-0.13407529890537262,-3.512293815612793
1776037938805140700,-1522135.020859375,4.537012100219727,-0.4668693244457245,-4.189853191375732
1776037938815181000,-1522135.0108188477,4.163516521453857,-0.7996633648872375,-5.070919036865234
1776037938825251800,-1522135.000748047,3.5218706130981445,-1.2186486721038818,-5.772420406341553
1776037938865504500,-1522134.9604956054,1.2330138683319092,-3.157952070236206,-7.333439826965332
1776037938875544800,-1522134.9504550782,0.9768342971801758,-3.4189200401306152,-7.457938194274902
1776037938885646000,-1522134.9403540038,0.7613561153411865,-3.689464807510376,-7.453149795532227
1776037938895686400,-1522134.9303137206,0.7254431247711182,-4.02465295791626,-7.546523571014404
1776037938905757200,-1522134.9202429198,0.8188169598579407,-4.077325344085693,-7.524975776672363
1776037938915797500,-1522134.9102023926,1.0989385843276978,-4.242525577545166,-7.690176010131836
1776037938925899000,-1522134.9001010743,1.256955862045288,-4.367023944854736,-7.903259754180908
1776037938935969800,-1522134.8900302735,1.5658079385757446,-4.522646903991699,-8.212111473083496
1776037938946071000,-1522134.879928955,1.7549498081207275,-4.644751071929932,-8.650250434875488
1776037938956111400,-1522134.869888672,1.9321208000183105,-4.752490520477295,-9.050082206726074
1776037938976283400,-1522134.8497165528,2.054224967956543,-5.020640850067139,-10.002974510192871
1776037938996425000,-1522134.8295749512,2.322375535964966,-5.418078422546387,-10.960655212402344
1776037939006495700,-1522134.8195041504,2.477998733520508,-5.518634796142578,-11.41555404663086
1776037939016536000,-1522134.8094638672,2.655169725418091,-5.628767967224121,-11.769895553588867
1776037939026606800,-1522134.7993930664,2.7533318996429443,-5.722142219543457,-12.435483932495117
1776037939036677600,-1522134.7893222657,3.021482467651367,-5.944802761077881,-13.110648155212402
1776037939046779000,-1522134.7792211913,3.162740468978882,-6.6391215324401855,-13.651738166809082
1776037939077022000,-1522134.7489780274,3.445256233215332,-8.111555099487305,-14.518439292907715
1776037939087123200,-1522134.738876709,3.6727054119110107,-8.437167167663574,-14.477737426757812
1776037939097194000,-1522134.7288059082,3.9671921730041504,-8.631096839904785,-14.377181053161621
1776037939117366300,-1522134.708633789,4.714183330535889,-9.097966194152832,-14.200010299682617
1776037939127437000,-1522134.6985629883,5.082890033721924,-8.777143478393555,-13.994109153747559
1776037939137477400,-1522134.688522705,5.324704647064209,-8.523358345031738,-13.761871337890625
1776037939147548200,-1522134.6784519043,5.473145008087158,-8.300697326660156,-13.424288749694824
1776037939157619000,-1522134.6683811035,5.185841083526611,-7.982268333435059,-12.861651420593262
1776037939228114400,-1522134.597885498,4.651933670043945,-4.874594688415527,-9.93593692779541
1776037939278468400,-1522134.5475317382,3.9671921730041504,-6.112396717071533,-8.10437297821045
1776037939349025000,-1522134.4769750976,3.885789394378662,-6.71334171295166,-7.467514991760254
1776037939379207000,-1522134.4467929688,4.206612586975098,-6.078877925872803,-7.3454108238220215
1776037939389277700,-1522134.436722412,4.355052947998047,-5.832275390625,-7.347805023193359
1776037939399318000,-1522134.4266818848,4.367023944854736,-5.592854976654053,-7.453149795532227
1776037939409388800,-1522134.416611084,4.479551315307617,-5.468356609344482,-7.6997528076171875
1776037939419459600,-1522134.4065405272,4.764461517333984,-5.403713226318359,-8.180987358093262
1776037939439601200,-1522134.3863989257,5.432443618774414,-5.272032260894775,-9.07641887664795
1776037939449672200,-1522134.376327881,5.3797712326049805,-5.044582843780518,-9.634267807006836
1776037939459712300,-1522134.3662878417,5.228936672210693,-5.015852451324463,-10.031704902648926
1776037939469783000,-1522134.356217041,4.898536682128906,-5.011064052581787,-10.611102104187012
1776037939489924900,-1522134.3360751953,4.788403511047363,-5.631162166595459,-11.73398208618164
1776037939530177500,-1522134.2958225098,5.91128396987915,-6.610390663146973,-13.283031463623047
1776037939540248300,-1522134.285751709,5.698200225830078,-6.380547523498535,-13.160926818847656
1776037939550319000,-1522134.2756809082,5.319916248321533,-6.253654956817627,-12.876016616821289
1776037939560390000,-1522134.2656101075,4.9152960777282715,-5.975927352905273,-12.452242851257324
1776037939570460700,-1522134.2555393067,4.441244125366211,-5.671864032745361,-12.145785331726074
1776037939590541300,-1522134.2354587403,3.7708675861358643,-5.039794445037842,-11.889605522155762
1776037939600612000,-1522134.2253879395,3.450044631958008,-4.702212333679199,-11.731588363647461
1776037939620753700,-1522134.205246338,2.935291290283203,-4.426878929138184,-11.504138946533203
1776037939640895200,-1522134.1851047364,2.8371291160583496,-4.388571739196777,-11.896788597106934
1776037939650966000,-1522134.1750339356,2.6671407222747803,-4.314351558685303,-12.090718269348145
1776037939661036800,-1522134.1649631348,2.518700122833252,-4.180276393890381,-12.1194486618042
1776037939671107600,-1522134.154892334,2.3056161403656006,-3.9384617805480957,-11.973402976989746
1776037939681148000,-1522134.1448520508,2.073378562927246,-3.7397429943084717,-11.84650993347168
1776037939691218700,-1522134.13478125,1.7334020137786865,-3.646369218826294,-11.73398208618164
1776037939701289500,-1522134.1247104493,1.6424223184585571,-3.2297780513763428,-11.73398208618164
1776037939711360300,-1522134.1146396485,1.5634137392044067,-2.9448680877685547,-11.39161205291748
1776037939721431000,-1522134.1045688477,1.5634137392044067,-2.9448680877685547,-11.39161205291748
1776037939731501800,-1522134.094498291,1.2880805730819702,-3.1914708614349365,-11.077971458435059
1776037939741572600,-1522134.0844274901,1.2880805730819702,-3.1914708614349365,-10.730812072753906
1776037939751643400,-1522134.0743566894,1.1755530834197998,-3.3734302520751953,-10.47942066192627
1776037939761714400,-1522134.0642856446,1.1899182796478271,-3.529053211212158,-10.15141487121582
1776037939771785200,-1522134.0542148438,1.113303780555725,-3.555389642715454,-9.708487510681152
1776037939801997600,-1522134.0240024414,0.9241618514060974,-3.0190882682800293,-8.705317497253418
1776037939812068400,-1522134.0139316407,0.6775590777397156,-2.868253707885742,-8.403648376464844
1776037939822139100,-1522134.0038608399,0.42616790533065796,-3.0789434909820557,-8.14028549194336
1776037939832240400,-1522133.9937595215,0.23702596127986908,-3.3303346633911133,-7.841010570526123
1776037939842280700,-1522133.9837192383,-0.06703764945268631,-3.442862033843994,-7.438784599304199
1776037939852351500,-1522133.9736484375,-0.2513911724090576,-3.6942532062530518,-7.070077419281006
1776037939862422300,-1522133.9635776368,-0.4189853072166443,-3.8331170082092285,-6.751648902893066
1776037939872493000,-1522133.953506836,-0.6368576288223267,-3.8714241981506348,-6.481103897094727
1776037939882594600,-1522133.9434055176,-0.7182605266571045,-3.8786067962646484,-6.349422931671143
1776037939912776400,-1522133.9132236328,-0.47644615173339844,-4.055777549743652,-5.942408561706543
1776037939922877700,-1522133.9031223145,-0.5051765441894531,-4.338293552398682,-5.853823184967041
1776037939932948500,-1522133.8930515137,-0.33279404044151306,-4.333505153656006,-5.628767967224121
1776037939942988800,-1522133.8830112305,-0.1388636976480484,-4.395754337310791,-5.513846397399902
1776037939953059600,-1522133.8729404297,0.17956513166427612,-4.469974517822266,-5.415684223175049
1776037939963160800,-1522133.8628391114,0.3734954595565796,-4.587290287017822,-5.413290023803711
1776037939973231600,-1522133.8527683106,0.4357447028160095,-4.6471452713012695,-5.382165431976318
1776037939983302400,-1522133.8426975098,0.33039984107017517,-4.537012100219727,-5.4444146156311035
1776037939993403600,-1522133.8325964354,0.15562310814857483,-4.323928356170654,-5.403713226318359
1776037940003474700,-1522133.8225253907,0.08619125932455063,-4.23773717880249,-5.353435039520264
1776037940013514800,-1522133.8124853515,0.24181437492370605,-4.426878929138184,-5.331887245178223
1776037940023585500,-1522133.8024145507,0.3687070608139038,-4.393360137939453,-5.245696067810059
1776037940033625900,-1522133.7923740235,0.4141969084739685,-4.307168960571289,-5.17626428604126
1776037940043727400,-1522133.782272705,0.4118026793003082,-4.072536945343018,-5.135562419891357
1776037940053767400,-1522133.772232666,0.6823474764823914,-3.885789394378662,-5.152322292327881
1776037940063838200,-1522133.7621618651,1.0295066833496094,-3.711012601852417,-5.408501625061035
1776037940073848000,-1522133.7521518555,1.3479355573654175,-3.8522706031799316,-5.779603004455566
1776037940083980000,-1522133.7420200196,1.6663644313812256,-4.194641590118408,-6.205770969390869
1776037940094050800,-1522133.7319492188,2.164358377456665,-4.575319290161133,-6.777985095977783
1776037940134334000,-1522133.6916660157,3.7612907886505127,-5.406107425689697,-8.652645111083984
1776037940144404700,-1522133.6815952149,4.019864559173584,-5.56173038482666,-9.21288776397705
1776037940154475500,-1522133.671524414,3.955221176147461,-5.427655220031738,-9.923966407775879
1776037940164576800,-1522133.6614233397,3.7397429943084717,-5.171475887298584,-10.524910926818848
1776037940174678300,-1522133.6513217774,3.397372245788574,-4.8482584953308105,-11.293449401855469
1776037940184718300,-1522133.6412817382,2.8658595085144043,-4.548983097076416,-12.102689743041992
1776037940194758700,-1522133.631241455,2.5546131134033203,-4.630385875701904,-12.63899040222168
1776037940214900200,-1522133.6110998534,2.8586769104003906,-5.307945251464844,-12.679692268371582
1776037940224971300,-1522133.6010288086,3.1483752727508545,-5.851428985595703,-12.342109680175781
1776037940235011300,-1522133.5909887694,3.4787750244140625,-6.44279670715332,-11.911153793334961
1776037940245112800,-1522133.580887207,3.7277719974517822,-6.926425457000732,-11.425130844116211
1776037940255214000,-1522133.5707858887,4.019864559173584,-7.208941459655762,-11.05402946472168
1776037940265284900,-1522133.560715088,4.034229755401611,-7.271190643310547,-10.831368446350098
1776037940285426400,-1522133.5405734864,3.40216064453125,-6.833051681518555,-10.488997459411621
1776037940295497200,-1522133.5305026856,2.9328970909118652,-6.44279670715332,-10.38844108581543
1776037940335689000,-1522133.4903110352,1.647210717201233,-4.786009311676025,-10.924742698669434
1776037940345759700,-1522133.4802402344,1.623268723487854,-4.6734819412231445,-10.836156845092773
1776037940355830500,-1522133.4701694336,1.5921441316604614,-4.618414878845215,-10.548852920532227
1776037940365901300,-1522133.4600986328,1.534683346748352,-4.28322696685791,-10.199298858642578
1776037940376002600,-1522133.4499975585,1.4891934394836426,-4.175487995147705,-9.904812812805176
1776037940386073300,-1522133.4399267577,1.4963760375976562,-4.225766181945801,-9.579200744628906
1776037940396113700,-1522133.4298862305,1.3646949529647827,-4.24970817565918,-9.363722801208496
1776037940406154000,-1522133.4198459473,1.37906014919281,-4.405331134796143,-9.064447402954102
1776037940436366300,-1522133.389633545,1.3215993642807007,-4.812345504760742,-8.075642585754395
1776037940446437000,-1522133.3795629882,1.316810965538025,-5.03021764755249,-7.781155586242676
1776037940456477400,-1522133.369522461,1.3000515699386597,-5.066130638122559,-7.407660007476807
1776037940466487300,-1522133.3595126953,1.216254472732544,-5.149928092956543,-7.184999465942383
1776037940476588500,-1522133.349411377,1.2713210582733154,-5.190629482269287,-6.983886241912842
1776037940486659300,-1522133.3393405762,1.3407529592514038,-5.3342814445495605,-6.890512466430664
1776037940496760600,-1522133.3292395019,1.3934253454208374,-5.367800235748291,-6.787561893463135
1776037940506831600,-1522133.319168457,1.335964560508728,-5.420472621917725,-6.718130111694336
1776037940547023000,-1522133.2789768067,1.2473790645599365,-5.489904403686523,-6.615179061889648
1776037940567164700,-1522133.258835449,1.3694833517074585,-5.578489780426025,-7.108384609222412
1776037940577266200,-1522133.2487338868,1.6543933153152466,-5.683835029602051,-7.316680431365967
1776037940587337000,-1522133.238663086,1.8339585065841675,-5.736507415771484,-7.38132381439209
1776037940597438200,-1522133.2285617676,1.9105730056762695,-5.686229228973389,-7.515398979187012
1776037940607509000,-1522133.2184909668,2.300827741622925,-5.92325496673584,-7.558494567871094
1776037940617610200,-1522133.2083896485,2.580949544906616,-5.949591159820557,-7.73087739944458
1776037940637721300,-1522133.1882785645,3.155557870864868,-6.1267619132995605,-8.135497093200684
1776037940647792000,-1522133.1782077637,3.488351821899414,-6.1267619132995605,-8.245630264282227
1776037940657893600,-1522133.1681064453,3.5003228187561035,-6.033388137817383,-8.398859977722168
1776037940667933700,-1522133.1580664061,3.450044631958008,-5.913678169250488,-8.38449478149414
1776037940688106000,-1522133.137894043,3.533841609954834,-6.030993938446045,-8.398859977722168
1776037940698207200,-1522133.1277927246,3.9025487899780273,-6.133944988250732,-8.583212852478027
1776037940708278000,-1522133.1177219239,4.28322696685791,-6.3518171310424805,-8.944737434387207
1776037940718348800,-1522133.107651123,4.680664539337158,-6.366182327270508,-9.241618156433105
1776037940748622300,-1522133.0773776856,4.946420669555664,-6.026205539703369,-10.273519515991211
1776037940758693000,-1522133.0673068848,5.035006046295166,-6.007051944732666,-10.627861022949219
1776037940768764000,-1522133.057236084,4.8602294921875,-5.870582580566406,-10.939107894897461
1776037940778865200,-1522133.0471347657,4.802768707275391,-5.815515995025635,-11.21444034576416
1776037940788875000,-1522133.037125,4.836287498474121,-5.796362400054932,-11.494562149047852
1776037940798976300,-1522133.0270236817,4.869806289672852,-5.949591159820557,-11.760318756103516
1776037940809047000,-1522133.016952881,4.920084476470947,-5.940014362335205,-11.777078628540039
1776037940849361000,-1522132.9766391602,5.07570743560791,-6.624756336212158,-11.348516464233398
1776037940859431700,-1522132.9665683594,4.534617900848389,-7.754819393157959,-11.66694450378418
1776037940869502500,-1522132.9564975586,4.78122091293335,-8.147468566894531,-11.762712478637695
1776037940879603700,-1522132.9463962403,4.568136692047119,-8.379706382751465,-11.729193687438965
1776037940889674500,-1522132.9363254395,4.235342979431152,-7.886500358581543,-11.32457447052002
1776037940899775700,-1522132.9262243651,4.211400985717773,-6.229712963104248,-10.797849655151367
1776037940909785600,-1522132.9162143555,4.086902141571045,-4.570530891418457,-10.378864288330078
1776037940919856400,-1522132.9061435547,3.866635799407959,-3.5027170181274414,-10.228029251098633
1776037940950068700,-1522132.8759311524,3.4620156288146973,-3.9695863723754883,-10.457873344421387
1776037940970241000,-1522132.8557590332,3.6942532062530518,-3.952826976776123,-10.934319496154785
1776037940980342300,-1522132.8456577149,3.8546648025512695,-3.8379054069519043,-11.238382339477539
1776037940990413000,-1522132.835586914,3.7205893993377686,-3.890577793121338,-11.60708999633789
1776037941000453400,-1522132.825546631,3.5721490383148193,-3.957615375518799,-11.820174217224121
1776037941010524200,-1522132.81547583,3.2393548488616943,-3.993528366088867,-11.93748950958252
1776037941020595000,-1522132.8054050293,2.8610711097717285,-3.847482204437256,-11.987768173217773
1776037941030665700,-1522132.7953342285,2.5665841102600098,-3.773261785507202,-11.882423400878906
1776037941050807300,-1522132.775192627,2.099714994430542,-3.687070608139038,-11.377246856689453
1776037941060908500,-1522132.7650915526,1.8124107122421265,-3.598485231399536,-10.910377502441406
1776037941070918400,-1522132.755081543,1.5322890281677246,-3.4093432426452637,-10.491392135620117
1776037941080989200,-1522132.7450107422,1.1252747774124146,-3.4955344200134277,-10.067618370056152
1776037941091060000,-1522132.7349399414,0.9026140570640564,-3.5936968326568604,-9.682151794433594
1776037941101161200,-1522132.724838867,0.7254431247711182,-3.6367924213409424,-9.282320022583008
1776037941111232300,-1522132.7147678223,0.4572925269603729,-3.6774938106536865,-8.949525833129883
1776037941121303000,-1522132.7046970215,0.35673606395721436,-3.713406801223755,-8.69095230102539
1776037941161494500,-1522132.6645053711,-0.05985504388809204,-3.5051112174987793,-7.582436561584473
1776037941171565300,-1522132.6544345703,-0.09816227108240128,-3.6774938106536865,-7.352593421936035
1776037941181636000,-1522132.6443640136,-0.19153612852096558,-3.9480385780334473,-7.134721279144287
1776037941191707000,-1522132.6342932128,-0.31364041566848755,-3.93367338180542,-7.003039836883545
1776037941201777700,-1522132.624222412,-0.20350714027881622,-3.6535518169403076,-6.730101108551025
1776037941211848700,-1522132.6141513672,-0.24660277366638184,-3.3518824577331543,-6.517016887664795
1776037941221919500,-1522132.6040805664,-0.24181437492370605,-3.064578056335449,-6.335057735443115
1776037941231990300,-1522132.5940097657,-0.16519992053508759,-2.9161376953125,-6.102819919586182
1776037941242091500,-1522132.5839084473,-0.17238251864910126,-2.8850131034851074,-5.9088897705078125
1776037941252101400,-1522132.5738986817,0.06703764945268631,-2.650381326675415,-5.772420406341553
1776037941282344200,-1522132.5436557618,0.4213795065879822,-1.867477297782898,-5.293580055236816
1776037941292415000,-1522132.533584961,0.3711012601852417,-1.965639591217041,-5.166687488555908
1776037941302485800,-1522132.5235141602,0.4572925269603729,-1.9991583824157715,-5.106832027435303
1776037941312465200,-1522132.5135349121,0.7254431247711182,-2.073378562927246,-5.250484466552734
1776037941322566400,-1522132.5034335938,1.2832920551300049,-2.1068975925445557,-5.372588634490967
1776037941332637200,-1522132.493362793,1.2832920551300049,-2.1068975925445557,-5.372588634490967
1776037941342738400,-1522132.4832614746,1.6089035272598267,-2.03507137298584,-5.628767967224121
1776037941362880000,-1522132.463120117,1.5107412338256836,-2.166752576828003,-6.0836663246154785
1776037941372950800,-1522132.4530493163,1.5131354331970215,-2.3798365592956543,-6.275202751159668
1776037941383021600,-1522132.4429785155,1.922544002532959,-2.5665841102600098,-6.596025466918945
1776037941393092600,-1522132.4329074707,2.2409727573394775,-2.7533318996429443,-6.981492042541504
1776037941403193900,-1522132.4228061524,2.693476915359497,-2.959233283996582,-7.5848307609558105
1776037941413264600,-1522132.4127353516,3.2561142444610596,-3.0837318897247314,-8.255207061767578
1776037941423335400,-1522132.4026645508,3.847482204437256,-3.069366693496704,-8.983044624328613
1776037941433375700,-1522132.3926242676,4.400542736053467,-3.2537200450897217,-9.68694019317627
1776037941443446500,-1522132.3825534668,4.675876140594482,-3.5242648124694824,-10.515334129333496
1776037941463588000,-1522132.3624118653,3.907337188720703,-3.7181951999664307,-12.437877655029297
1776037941473598000,-1522132.3524020996,3.7181951999664307,-4.23773717880249,-13.591882705688477
1776037941483668700,-1522132.3423312989,3.490746021270752,-4.55616569519043,-14.5591402053833
1776037941493739500,-1522132.332260498,3.3734302520751953,-4.568136692047119,-14.985308647155762
1776037941503840800,-1522132.3221591797,3.7158010005950928,-4.594472885131836,-14.867992401123047
1776037941513850600,-1522132.312149414,4.101267337799072,-4.869806289672852,-14.43224811553955
1776037941523951900,-1522132.3020480957,4.496310710906982,-5.207388877868652,-13.723564147949219
1776037941534022700,-1522132.291977295,5.015852451324463,-5.329493045806885,-13.002909660339355
1776037941544093400,-1522132.2819064942,5.430049419403076,-5.377377033233643,-12.270283699035645
1776037941564174000,-1522132.2618259278,5.327098846435547,-4.838681697845459,-11.14500904083252
1776037941574244900,-1522132.251755127,4.7189717292785645,-4.51067590713501,-10.912771224975586
1776037941584315600,-1522132.2416843262,4.084507942199707,-4.3191399574279785,-10.994174003601074
1776037941594325500,-1522132.2316745606,3.450044631958008,-4.381389141082764,-11.15697956085205
1776037941604426800,-1522132.2215732422,2.7892448902130127,-4.323928356170654,-11.350910186767578
1776037941614467000,-1522132.211532959,2.2697031497955322,-4.252102375030518,-11.35809326171875
1776037941624568300,-1522132.2014316407,1.8602946996688843,-4.311957359313965,-11.286267280578613
1776037941634578200,-1522132.191421875,3.840299606323242,-4.357447147369385,-11.42752456665039
1776037941644679400,-1522132.1813205567,-0.5291185975074768,-3.9863457679748535,-10.529699325561523
1776037941684901600,-1522132.1410983887,3.5266590118408203,-4.613626480102539,-10.189722061157227
1776037941694880800,-1522132.1311191407,3.60566782951355,-6.246472358703613,-9.387664794921875
1776037941704921000,-1522132.1210788575,3.3877954483032227,-6.868964672088623,-8.554482460021973
1776037941714931000,-1522132.1110690918,3.469198226928711,-6.102819919586182,-7.723694801330566
1776037941725032200,-1522132.1009677735,3.181894063949585,-4.654327869415283,-7.307103633880615
1776037941735103000,-1522132.0908969727,3.138798475265503,-3.663128614425659,-7.316680431365967
1776037941745204200,-1522132.0807956543,2.8227639198303223,-3.3854012489318848,-7.3023152351379395
1776037941755214000,-1522132.0707858887,2.612074136734009,-3.6080620288848877,-7.144298076629639
1776037941775264000,-1522132.0507360839,2.2625205516815186,-3.9264907836914062,-6.332663536071777
1776037941785365500,-1522132.0406345215,2.248155355453491,-3.8498764038085938,-6.033388137817383
1776037941795375000,-1522132.030625,2.406172752380371,-3.732560396194458,-5.96874475479126
1776037941805446000,-1522132.020554199,2.4875755310058594,-3.9839515686035156,-5.904101371765137
1776037941815455700,-1522132.0105441895,2.7030537128448486,-4.359841346740723,-6.114790916442871
1776037941825557000,-1522132.0004431151,2.8658595085144043,-4.668693542480469,-6.124367713928223
1776037941835597300,-1522131.990402588,3.0166940689086914,-4.970362663269043,-6.260837554931641
1776037941845668000,-1522131.9803317871,3.2968156337738037,-4.975151062011719,-6.461950302124023
1776037941855708400,-1522131.970291504,3.507505416870117,-5.066130638122559,-6.710947513580322
1776037941865779200,-1522131.9602207032,3.4835634231567383,-5.157110691070557,-7.070077419281006
1776037941885920800,-1522131.9400793456,3.464409828186035,-5.370194435119629,-7.29034423828125
1776037941895961000,-1522131.9300388184,3.7397429943084717,-5.348646640777588,-7.33583402633667
1776037941906031900,-1522131.9199680176,4.685452938079834,-5.114014625549316,-7.63989782333374
1776037941916102700,-1522131.9098974608,5.142745018005371,-4.788403511047363,-8.08282470703125
1776037941926173400,-1522131.89982666,5.130774021148682,-4.58968448638916,-8.607154846191406
1776037941936244200,-1522131.8897558593,4.93923807144165,-4.4723687171936035,-8.746018409729004
1776037941946315300,-1522131.8796848145,4.7620673179626465,-4.285621166229248,-8.87051773071289
1776037941956324900,-1522131.8696750489,4.46518611907959,-4.352658748626709,-8.844181060791016
1776037941976466400,-1522131.8495334473,4.395754337310791,-4.484339714050293,-9.045293807983398
1776037941986537200,-1522131.8394628905,4.5825018882751465,-4.616020679473877,-9.315838813781738
1776037941996577500,-1522131.8294223633,4.821922302246094,-4.821922302246094,-9.710882186889648
1776037942006678800,-1522131.819321289,4.886565685272217,-4.613626480102539,-10.122684478759766
1776037942016719000,-1522131.8092810058,4.857835292816162,-4.422090530395508,-10.5344877243042
1776037942026790000,-1522131.799210205,4.81473970413208,-4.072536945343018,-10.953473091125488
1776037942036830200,-1522131.7891696778,4.771644115447998,-3.799597978591919,-11.298237800598145
1776037942046901000,-1522131.779099121,4.788403511047363,-3.5889084339141846,-11.523292541503906
1776037942056971800,-1522131.7690283202,4.697423934936523,-3.490746021270752,-11.70046329498291
1776037942077022000,-1522131.7489780274,4.630385875701904,-3.6343982219696045,-11.587936401367188
1776037942087092700,-1522131.7389072266,4.424484729766846,-3.845088005065918,-11.405977249145508
1776037942097133000,-1522131.7288669434,4.4532151222229,-4.039018154144287,-11.42752456665039
1776037942107173400,-1522131.7188266602,4.788403511047363,-4.180276393890381,-11.568782806396484
1776037942117213700,-1522131.708786377,5.202600479125977,-4.290409564971924,-11.894393920898438
1776037942127253800,-1522131.6987463378,5.4659624099731445,-4.3622355461120605,-12.155362129211426
1776037942137294000,-1522131.6887058106,5.39174222946167,-4.426878929138184,-12.1194486618042
1776037942147364900,-1522131.6786352538,4.90571928024292,-4.24970817565918,-11.686098098754883
1776037942157435600,-1522131.668564453,4.2760443687438965,-4.173093795776367,-11.137825965881348
1776037942167506400,-1522131.6584936522,3.641580820083618,-4.213795185089111,-10.828974723815918
1776037942197749500,-1522131.6282504883,3.5170822143554688,-4.106055736541748,-10.87446403503418
1776037942207820300,-1522131.6181796875,3.780444383621216,-3.950432777404785,-11.343728065490723
1776037942217860600,-1522131.6081394043,4.165910720825195,-4.134786128997803,-11.710040092468262
1776037942227931400,-1522131.5980686035,4.32871675491333,-4.467580318450928,-11.932701110839844
1776037942237971700,-1522131.5880283203,4.225766181945801,-4.702212333679199,-11.856086730957031
1776037942248042500,-1522131.5779575196,3.9169139862060547,-4.778826713562012,-11.745953559875488
1776037942258113300,-1522131.5678867188,3.464409828186035,-4.7405195236206055,-11.51611042022705
1776037942268184000,-1522131.557815918,2.9903578758239746,-4.687847137451172,-11.307814598083496
1776037942278254800,-1522131.5477451172,2.58813214302063,-4.616020679473877,-10.96304988861084
1776037942288325600,-1522131.5376743164,2.2026655673980713,-4.508281707763672,-10.647014617919922
1776037942298396400,-1522131.5276035157,1.9584569931030273,-4.3191399574279785,-10.304644584655762
1776037942308436700,-1522131.5175632325,1.8076223134994507,-3.9911341667175293,-9.979032516479492
1776037942318477000,-1522131.5075229493,1.6615760326385498,-3.84269380569458,-9.57201862335205
1776037942328517400,-1522131.497482666,1.5849615335464478,-3.8331170082092285,-9.17697525024414
1776037942338588200,-1522131.4874118653,1.5107412338256836,-3.9480385780334473,-8.769960403442383
1776037942348659000,-1522131.4773410645,1.482010841369629,-4.065354347229004,-8.377311706542969
1776037942358729700,-1522131.4672702637,1.3503297567367554,-4.127603530883789,-8.058882713317871
1776037942368831000,-1522131.4571689453,1.0749965906143188,-4.177882194519043,-7.750030994415283
1776037942378901800,-1522131.4470981446,0.8068459630012512,-4.036623954772949,-7.424419403076172
1776037942399012900,-1522131.4269870606,0.5410895943641663,-4.211400985717773,-6.904877662658691
1776037942409114000,-1522131.4168859862,0.6416460275650024,-4.709394931793213,-6.627150535583496
1776037942419185000,-1522131.4068151854,0.8331822156906128,-5.137956619262695,-6.574477672576904
1776037942429256000,-1522131.3967441407,0.8164227604866028,-5.521028995513916,-6.5050458908081055
1776037942439296000,-1522131.3867041015,0.689530074596405,-5.578489780426025,-6.378153324127197
1776037942449397500,-1522131.376602539,0.4381389021873474,-5.530605792999268,-6.251260757446289
1776037942459437800,-1522131.366562256,0.19393034279346466,-5.284003257751465,-6.224924564361572
1776037942469508600,-1522131.356491455,-0.15322890877723694,-5.195417881011963,-6.102819919586182
1776037942479518200,-1522131.3464816895,-0.38307225704193115,-4.917690277099609,-6.157886981964111
1776037942489619500,-1522131.3363806151,-0.2298433631658554,-4.644751071929932,-6.0621185302734375
1776037942499598800,-1522131.326401123,0.15083470940589905,-4.144362926483154,-6.2632317543029785
1776037942509700000,-1522131.3162998047,0.28969839215278625,-3.552995204925537,-6.514622688293457
1776037942519740400,-1522131.3062595215,0.5841852426528931,-3.157952070236206,-6.938396453857422
1776037942529811200,-1522131.2961887207,0.8786720037460327,-3.0310592651367188,-7.1251444816589355
1776037942539882000,-1522131.28611792,1.0558429956436157,-3.00711727142334,-7.319074630737305
1776037942549983200,-1522131.2760168456,1.1899182796478271,-3.0837318897247314,-7.129932880401611
1776037942560023600,-1522131.2659765624,1.2976573705673218,-3.270479440689087,-7.0772600173950195
1776037942570125000,-1522131.255875,1.2689268589019775,-3.2992098331451416,-6.9240312576293945
1776037942580134700,-1522131.2458652344,1.2641384601593018,-3.421314239501953,-6.852205276489258
1776037942600307000,-1522131.2256931153,1.5083470344543457,-3.272873640060425,-7.0988078117370605
1776037942620418000,-1522131.2055820313,1.766920804977417,-3.2752678394317627,-7.625532627105713
1776037942630488800,-1522131.1955112305,1.9560627937316895,-3.332728862762451,-7.824251174926758
1776037942640559600,-1522131.1854404297,2.075772762298584,-3.3710360527038574,-7.982268333435059
1776037942650660900,-1522131.1753391114,2.5905263423919678,-3.4332852363586426,-8.243236541748047
1776037942660731600,-1522131.1652683106,3.026270866394043,-3.490746021270752,-8.588001251220703
1776037942670772000,-1522131.1552280274,3.375824451446533,-3.507505416870117,-8.954314231872559
1776037942680812300,-1522131.1451877442,4.019864559173584,-3.6104562282562256,-9.311050415039062
1776037942690883000,-1522131.1351169434,4.596867084503174,-3.667917013168335,-9.653421401977539
1776037942721034500,-1522131.1049655762,4.795586109161377,-3.117250680923462,-10.919954299926758
1776037942731135700,-1522131.0948642578,4.795586109161377,-3.117250680923462,-10.919954299926758
1776037942741206500,-1522131.084793457,4.776432514190674,-2.9496564865112305,-11.310209274291992
1776037942751307800,-1522131.0746921387,4.726154327392578,-2.956839084625244,-11.6430025100708
1776037942761378600,-1522131.064621338,4.819528102874756,-3.0406360626220703,-11.48259162902832
1776037942771480000,-1522131.0545200196,5.011064052581787,-3.1890766620635986,-11.025299072265625
1776037942781520100,-1522131.0444799804,5.106832027435303,-3.428496837615967,-10.47702693939209
1776037942791591000,-1522131.0344091796,5.099649429321289,-3.6511576175689697,-9.907206535339355
1776037942811732700,-1522131.014267334,4.93923807144165,-3.93367338180542,-9.473855972290039
1776037942821803500,-1522131.0041965332,4.738125324249268,-4.086902141571045,-9.615114212036133
1776037942831874300,-1522130.9941257325,4.486733913421631,-4.086902141571045,-9.959878921508789
1776037942841914600,-1522130.9840854493,4.23773717880249,-4.1874589920043945,-10.292673110961914
1776037942851924200,-1522130.9740756836,3.914519786834717,-4.156333923339844,-10.623072624206543
1776037942861995000,-1522130.9640048828,3.5434184074401855,-4.000710964202881,-10.843339920043945
1776037942872065800,-1522130.953934326,3.2393548488616943,-3.8498764038085938,-10.833763122558594
1776037942882136600,-1522130.9438635253,3.0334534645080566,-3.6822822093963623,-10.740388870239258
1776037942892207400,-1522130.9337927245,2.8826189041137695,-3.6750996112823486,-10.484209060668945
1776037942912349200,-1522130.913650879,2.736572504043579,-3.732560396194458,-9.78989028930664
1776037942922420000,-1522130.9035800782,2.782062292098999,-3.7253777980804443,-9.337387084960938
1776037942932490800,-1522130.8935092774,2.7293899059295654,-3.8522706031799316,-8.956708908081055
1776037942942561500,-1522130.8834384766,2.652775526046753,-3.909731388092041,-8.585607528686523
1776037942952662800,-1522130.8733371582,2.5043349266052246,-4.05817174911499,-8.130708694458008
1776037942962733600,-1522130.8632663575,2.2673089504241943,-4.141968727111816,-7.8098859786987305
1776037942972804400,-1522130.8531955567,2.0638017654418945,-4.302380561828613,-7.433996200561523
1776037942982875100,-1522130.843124756,1.7597382068634033,-4.290409564971924,-7.182605266571045
1776037942992915500,-1522130.8330844727,1.5897499322891235,-4.395754337310791,-7.007828235626221
1776037943002955800,-1522130.8230441895,1.4197616577148438,-4.422090530395508,-6.797138690948486
1776037943023005700,-1522130.8029943847,1.2449848651885986,-4.41969633102417,-6.677428722381592
1776037943043116800,-1522130.7828833007,1.1899182796478271,-4.537012100219727,-6.648698329925537
1776037943053187600,-1522130.7728125,1.192312479019165,-4.54419469833374,-6.631938934326172
1776037943063258600,-1522130.762741455,1.259350061416626,-4.766855716705322,-6.756437301635742
1776037943073329400,-1522130.7526706543,1.4532804489135742,-4.987122058868408,-6.983886241912842
1776037943083430700,-1522130.742569336,1.6974890232086182,-5.303156852722168,-7.412448406219482
1776037943093532000,-1522130.7324680176,1.8483237028121948,-5.3582234382629395,-7.666234016418457
1776037943103602700,-1522130.7223972168,1.9632453918457031,-5.389348030090332,-7.773972988128662
1776037943133845800,-1522130.692154297,2.5905263423919678,-5.2265424728393555,-7.513004779815674
1776037943143916500,-1522130.6820834961,2.8419175148010254,-5.384559631347656,-7.7428483963012695
1776037943153926100,-1522130.6720739745,2.980781078338623,-5.365406036376953,-7.924807548522949
1776037943164027600,-1522130.6619724121,2.9927520751953125,-5.274426460266113,-8.185775756835938
1776037943174098400,-1522130.6519016114,3.1268274784088135,-5.22175407409668,-8.415618896484375
1776037943184108000,-1522130.6418920897,3.383007049560547,-5.2672438621521,-8.506598472595215
1776037943194148400,-1522130.6318515625,3.7253777980804443,-5.463568210601807,-8.592789649963379
1776037943204249600,-1522130.6217504882,3.936067581176758,-5.552153587341309,-8.62630844116211
1776037943214320600,-1522130.6116794434,4.106055736541748,-5.765237808227539,-8.734047889709473
1776037943224330200,-1522130.6016696778,4.436455726623535,-5.987898349761963,-8.932766914367676
1776037943244471800,-1522130.5815280762,5.30076265335083,-6.315904140472412,-9.660603523254395
1776037943254542600,-1522130.5714575194,5.415684223175049,-6.40927791595459,-10.096348762512207
1776037943264613400,-1522130.5613867186,5.434837818145752,-6.428431510925293,-10.498574256896973
1776037943274653700,-1522130.5513461914,5.556941986083984,-6.31829833984375,-10.805032730102539
1776037943284755200,-1522130.541244873,5.52821159362793,-5.992686748504639,-11.008539199829102
1776037943294826000,-1522130.5311740723,5.415684223175049,-5.714959621429443,-11.243170738220215
1776037943304896800,-1522130.5211032715,5.353435039520264,-5.530605792999268,-11.470620155334473
1776037943314937000,-1522130.5110629883,5.286397457122803,-5.377377033233643,-11.511322021484375
1776037943345149400,-1522130.480850586,5.070919036865234,-5.971138954162598,-11.554417610168457
1776037943365291000,-1522130.4607089844,5.322310447692871,-6.076483726501465,-11.863269805908203
1776037943375361800,-1522130.4506381836,5.370194435119629,-6.107608318328857,-11.688492774963379
1776037943385432600,-1522130.4405673828,5.260061264038086,-6.275202751159668,-11.293449401855469
1776037943395473000,-1522130.4305270996,4.862623691558838,-6.50025749206543,-10.795455932617188
1776037943405543700,-1522130.4204562989,4.2975921630859375,-6.677428722381592,-10.319009780883789
1776037943415584000,-1522130.4104160157,3.8115692138671875,-6.737283706665039,-9.885659217834473
1776037943445674200,-1522130.3803256836,3.313575267791748,-6.967126846313477,-10.685321807861328
1776037943455745000,-1522130.3702548828,3.318363666534424,-6.655880928039551,-10.953473091125488
1776037943465815800,-1522130.360184082,3.3710360527038574,-6.356605529785156,-11.05642318725586
1776037943475886600,-1522130.3501135253,3.3662476539611816,-6.2632317543029785,-11.085153579711914
1776037943485896400,-1522130.3401035157,3.160346269607544,-6.275202751159668,-11.116278648376465
1776037943495997700,-1522130.3300021973,2.959233283996582,-6.124367713928223,-11.221623420715332
1776037943506068500,-1522130.3199316405,2.7102363109588623,-5.928043365478516,-11.207258224487305
1776037943516170000,-1522130.3098300782,2.477998733520508,-5.580883979797363,-11.204863548278809
1776037943546321200,-1522130.279678955,2.0614075660705566,-4.661510944366455,-10.718840599060059
1776037943556361500,-1522130.2696384278,1.889025092124939,-4.534617900848389,-10.438719749450684
1776037943566371300,-1522130.2596286621,1.7932571172714233,-4.3406877517700195,-10.108319282531738
1776037943576442000,-1522130.2495578614,1.6687586307525635,-4.108449935913086,-9.751583099365234
1776037943586452000,-1522130.2395480957,1.5131354331970215,-4.0294413566589355,-9.481039047241211
1776037943596492000,-1522130.2295080565,1.2856862545013428,-4.07014274597168,-9.248801231384277
1776037943606562800,-1522130.2194372558,1.0342950820922852,-4.084507942199707,-8.956708908081055
1776037943616664300,-1522130.2093356934,0.6584054827690125,-4.022258758544922,-8.741230010986328
1776037943626735000,-1522130.1992648926,0.3926490843296051,-3.892971992492676,-8.501810073852539
1776037943656947500,-1522130.1690524903,-0.40222588181495667,-3.490746021270752,-8.015787124633789
1776037943667018200,-1522130.1589816895,-0.5913678407669067,-3.4380736351013184,-7.711723804473877
1776037943677119500,-1522130.1488806151,-0.7182605266571045,-3.3494882583618164,-7.529764175415039
1776037943687190300,-1522130.1388098144,-0.8475474119186401,-3.1890766620635986,-7.402871608734131
1776037943697230600,-1522130.1287692871,-0.9888052940368652,-3.1100680828094482,-7.333439826965332
1776037943707271000,-1522130.118729004,-1.0606313943862915,-3.023876667022705,-7.225700855255127
1776037943717341700,-1522130.1086582032,-1.0007762908935547,-3.045424461364746,-7.070077419281006
1776037943727412500,-1522130.0985874024,-0.9002198576927185,-3.1004912853240967,-6.993463039398193
1776037943757655600,-1522130.0683444825,-0.5027823448181152,-3.098097085952759,-6.3949127197265625
1776037943767726300,-1522130.0582736817,-0.49320554733276367,-3.0597896575927734,-6.342240333557129
1776037943777797000,-1522130.048202881,-0.49320554733276367,-2.942473888397217,-6.308721542358398
1776037943787868000,-1522130.03813208,-0.49559974670410156,-2.7772738933563232,-6.476315498352051
1776037943797969200,-1522130.0280307618,-0.40940847992897034,-2.7126305103302,-6.653486728668213
1776037943807979000,-1522130.0180209961,-0.35913026332855225,-2.7030537128448486,-6.957550048828125
1776037943818080300,-1522130.0079196778,-0.19153612852096558,-2.676717519760132,-7.285555839538574
1776037943828151000,-1522129.997848877,0.05027823522686958,-2.7437551021575928,-7.570465564727783
1776037943838221800,-1522129.9877780762,0.3064578175544739,-2.7437551021575928,-7.833827972412109
1776037943868434200,-1522129.9575659179,1.072602391242981,-2.980781078338623,-8.307879447937012
1776037943878505000,-1522129.947495117,1.2258312702178955,-3.1028854846954346,-8.085219383239746
1776037943888545300,-1522129.9374548339,1.4221558570861816,-3.2968156337738037,-8.092401504516602
1776037943898616000,-1522129.927384033,1.400607943534851,-3.308786630630493,-8.367734909057617
1776037943908686800,-1522129.9173132323,1.4915876388549805,-3.56017804145813,-8.767566680908203
1776037943918758000,-1522129.9072421875,1.6376339197158813,-3.6942532062530518,-9.21288776397705
1776037943928798000,-1522129.8972021483,2.145204782485962,-3.7900211811065674,-9.758766174316406
1776037943938868700,-1522129.8871313476,2.2385785579681396,-3.780444383621216,-10.213664054870605
1776037943948939800,-1522129.8770603028,2.5043349266052246,-3.711012601852417,-10.745177268981934
1776037943979182600,-1522129.8468173828,2.736572504043579,-4.714183330535889,-11.374852180480957
1776037943999324200,-1522129.8266757813,3.2848446369171143,-5.578489780426025,-10.805032730102539
1776037944009364500,-1522129.816635498,3.8977603912353516,-6.0621185302734375,-10.462661743164062
1776037944019435300,-1522129.8065646973,4.534617900848389,-6.289567947387695,-10.26394271850586
1776037944029506000,-1522129.7964938965,4.881777286529541,-6.3949127197265625,-10.338163375854492
1776037944039607300,-1522129.7863928222,5.169081687927246,-6.260837554931641,-10.541669845581055
1776037944049678000,-1522129.7763220214,5.315127849578857,-6.095637321472168,-10.977415084838867
1776037944079921200,-1522129.7460788575,4.750096321105957,-4.776432514190674,-11.8441162109375
1776037944089992000,-1522129.7360080567,4.350264549255371,-4.489128112792969,-11.808202743530273
1776037944100062700,-1522129.725937256,4.02465295791626,-4.082113742828369,-11.63103199005127
1776037944110133500,-1522129.715866455,3.5434184074401855,-3.773261785507202,-11.396400451660156
1776037944120234800,-1522129.7057651368,3.2752678394317627,-3.7397429943084717,-11.161767959594727
1776037944130244600,-1522129.6957553711,3.114856481552124,-3.6607344150543213,-10.94150161743164
1776037944140315400,-1522129.6856845703,2.918531894683838,-3.8762125968933105,-10.398017883300781
1776037944150386200,-1522129.6756137696,2.832340717315674,-4.146757125854492,-9.86889934539795
1776037944200709600,-1522129.6252902832,1.4915876388549805,-4.6471452713012695,-6.698976516723633
1776037944210719500,-1522129.6152805176,1.2449848651885986,-4.817133903503418,-6.320692539215088
1776037944220820700,-1522129.6051791993,1.2449848651885986,-4.817133903503418,-6.320692539215088
1776037944230830600,-1522129.5951694336,1.091755986213684,-4.9583916664123535,-6.064512729644775
1776037944240871000,-1522129.5851291504,0.9097966551780701,-5.128379821777344,-5.9304375648498535
1776037944250880500,-1522129.5751193848,0.8020575642585754,-5.236119270324707,-5.91128396987915
1776037944260982000,-1522129.5650180664,0.8307880163192749,-5.4228668212890625,-5.8657941818237305
1776037944271052800,-1522129.5549472657,0.828393816947937,-5.559336185455322,-5.916072368621826
1776037944291194400,-1522129.534805664,1.0342950820922852,-5.940014362335205,-6.033388137817383
1776037944301265200,-1522129.5247348633,1.1540051698684692,-5.983109951019287,-6.090848922729492
1776037944311336000,-1522129.5146640625,1.2521674633026123,-6.052541732788086,-6.2847795486450195
1776037944321406700,-1522129.5045932618,1.3431471586227417,-6.030993938446045,-6.493074893951416
1776037944331477500,-1522129.494522461,1.4173674583435059,-5.868188381195068,-6.787561893463135
1776037944341548300,-1522129.4844516602,1.37906014919281,-5.762843608856201,-7.0126166343688965
1776037944351619000,-1522129.4743808594,1.4317326545715332,-5.681440830230713,-7.2113356590271
1776037944361659400,-1522129.4643405762,1.455674648284912,-5.789179801940918,-7.493851184844971
1776037944371638500,-1522129.4543615722,1.6280571222305298,-5.889736175537109,-7.6566572189331055
1776037944391749600,-1522129.4342504882,2.054224967956543,-5.9304375648498535,-8.271966934204102
1776037944411891200,-1522129.4141088866,2.695871114730835,-5.91128396987915,-8.798690795898438
1776037944421992700,-1522129.4040073243,3.1699230670928955,-5.971138954162598,-9.01895809173584
1776037944432063500,-1522129.3939365235,3.2082302570343018,-5.664681434631348,-9.17936897277832
1776037944442134300,-1522129.3838657227,3.0382418632507324,-5.552153587341309,-9.35893440246582
1776037944452113400,-1522129.3738864746,2.9879636764526367,-5.566518783569336,-9.531316757202148
1776037944462215000,-1522129.3637851563,2.9089550971984863,-5.731719017028809,-9.694122314453125
1776037944492335600,-1522129.3336643067,3.9001545906066895,-6.315904140472412,-10.682928085327148
1776037944502406400,-1522129.323593506,4.050989151000977,-6.22731876373291,-10.924742698669434
1776037944512477200,-1522129.313522705,4.1395745277404785,-6.0405707359313965,-11.286267280578613
1776037944522517500,-1522129.303482422,4.443638324737549,-6.0836663246154785,-11.405977249145508
1776037944532557800,-1522129.2934421387,4.639962673187256,-5.96874475479126,-11.444284439086914
1776037944542659000,-1522129.2833408203,4.618414878845215,-5.822698593139648,-11.434707641601562
1776037944552669000,-1522129.2733310547,4.67827033996582,-5.770026206970215,-11.207258224487305
1776037944562770200,-1522129.2632297364,4.623203277587891,-5.91128396987915,-10.94150161743164
1776037944592982500,-1522129.233017578,5.343858242034912,-6.885724067687988,-11.334151268005371
1776037944613002200,-1522129.2129978028,5.386953830718994,-6.921637058258057,-11.118672370910645
1776037944623103500,-1522129.2028964844,5.279214859008789,-6.75883150100708,-10.924742698669434
1776037944633143800,-1522129.1928562012,5.097255229949951,-6.392518520355225,-10.699687004089355
1776037944643184000,-1522129.182815918,4.608838081359863,-6.19379997253418,-10.326191902160645
1776037944653193700,-1522129.1728061524,4.326322555541992,-6.095637321472168,-9.787496566772461
1776037944663295200,-1522129.162704834,3.581725835800171,-6.63433313369751,-9.658209800720215
1776037944673366000,-1522129.1526340332,3.021482467651367,-7.036558628082275,-9.746794700622559
1776037944683467300,-1522129.1425327149,2.7509377002716064,-7.374141216278076,-10.139444351196289
1776037944713679600,-1522129.1123203125,3.1316158771514893,-5.78678560256958,-10.793061256408691
1776037944723750400,-1522129.1022495118,3.3662476539611816,-4.908113479614258,-11.018115997314453
1776037944733821200,-1522129.092178711,3.399766445159912,-4.240131378173828,-11.118672370910645
1776037944743892000,-1522129.0821079102,3.2178070545196533,-3.9432501792907715,-11.18092155456543
1776037944753962800,-1522129.0720373534,3.1220390796661377,-3.8594532012939453,-11.18092155456543
1776037944764064300,-1522129.061935791,2.8395233154296875,-3.8786067962646484,-11.109095573425293
1776037944774104600,-1522129.0518955078,2.693476915359497,-3.914519786834717,-10.982203483581543
1776037944784205800,-1522129.0417941895,2.6168625354766846,-3.869029998779297,-10.673351287841797
1776037944794215400,-1522129.0317846679,2.4660277366638184,-3.778050184249878,-10.44350814819336
1776037944814387700,-1522129.0116123047,2.22660756111145,-3.6080620288848877,-9.80904483795166
1776037944824458500,-1522129.001541504,2.0159177780151367,-3.4189200401306152,-9.351752281188965
1776037944834468000,-1522128.9915319823,1.8555063009262085,-3.1244332790374756,-9.119514465332031
1776037944844569600,-1522128.98143042,1.6663644313812256,-2.6886885166168213,-8.798690795898438
1776037944854640400,-1522128.9713596192,1.5155296325683594,-2.518700122833252,-8.56884765625
1776037944864741600,-1522128.9612583008,1.2737152576446533,-2.47560453414917,-8.26478385925293
1776037944874782000,-1522128.9512180176,1.0295066833496094,-2.5737667083740234,-8.018181800842285
1776037944884883200,-1522128.9411166993,0.6847416758537292,-2.889801502227783,-7.7213006019592285
1776037944905024800,-1522128.9209753417,-0.12928688526153564,-3.7684733867645264,-7.316680431365967
1776037944925136000,-1522128.9008640137,-0.586579442024231,-4.548983097076416,-7.082048416137695
1776037944935206700,-1522128.890793457,-0.6871358752250671,-4.687847137451172,-7.01979923248291
1776037944945308200,-1522128.8806918946,-0.768538773059845,-4.434061527252197,-6.909666061401367
1776037944955287300,-1522128.8707126465,-0.8403648138046265,-3.928884983062744,-6.825869083404541
1776037944965388500,-1522128.8606115722,-0.790086567401886,-3.464409828186035,-6.641515731811523
1776037944975459300,-1522128.8505407714,-0.7733271718025208,-3.1699230670928955,-6.447585105895996
1776037944985560800,-1522128.840439209,-0.7182605266571045,-2.8347349166870117,-6.311115741729736
1776037944995601200,-1522128.8303989258,-0.6536170840263367,-2.631227731704712,-6.174646377563477
1776037945005702400,-1522128.8202976075,-0.7541735172271729,-2.559401512145996,-6.107608318328857
1776037945015712000,-1522128.8102880858,-0.7469909191131592,-2.38462495803833,-5.959167957305908
1776037945025783000,-1522128.800217041,-0.7829039692878723,-2.4636335372924805,-6.143521785736084
1776037945035792600,-1522128.7902072754,-0.7015010714530945,-2.497152328491211,-6.248866558074951
1776037945045894000,-1522128.780106201,-0.4596867263317108,-2.612074136734009,-6.423643112182617
1776037945055964700,-1522128.7700354003,-0.33518823981285095,-2.6431987285614014,-6.555324077606201
1776037945066035700,-1522128.7599643555,-0.002394201699644327,-2.7461493015289307,-6.71334171295166
1776037945076106500,-1522128.7498935547,0.14844051003456116,-2.8874073028564453,-6.833051681518555
1776037945086207700,-1522128.7397922364,0.4429273009300232,-3.0166940689086914,-7.01979923248291
1776037945126521300,-1522128.6994787597,1.6543933153152466,-3.1651346683502197,-8.56884765625
1776037945136592100,-1522128.6894079589,1.9393033981323242,-2.9233202934265137,-9.011775016784668
1776037945146663200,-1522128.679336914,1.946485996246338,-2.918531894683838,-9.466673851013184
1776037945156703200,-1522128.669296875,1.7142484188079834,-3.0550012588500977,-9.95748519897461
1776037945166804700,-1522128.6591953125,1.8770540952682495,-3.624821424484253,-10.699687004089355
1776037945176844800,-1522128.6491552733,2.2218191623687744,-3.9887399673461914,-11.654973983764648
1776037945186915800,-1522128.6390842285,2.801215887069702,-4.630385875701904,-12.768278121948242
1776037945217097700,-1522128.6089023438,3.5051112174987793,-4.259284973144531,-13.412318229675293
1776037945227199000,-1522128.5988010254,3.801992416381836,-4.197035789489746,-12.792220115661621
1776037945237239300,-1522128.5887607422,4.170699596405029,-4.180276393890381,-12.217611312866211
1776037945247340500,-1522128.5786594239,4.632780075073242,-4.446032524108887,-11.906365394592285
1776037945257411300,-1522128.568588623,5.16429328918457,-4.93923807144165,-11.839327812194824
1776037945267512600,-1522128.5584873047,5.748478412628174,-5.202600479125977,-11.8225679397583
1776037945277583400,-1522128.548416748,6.299144744873047,-5.327098846435547,-11.930307388305664
1776037945287684900,-1522128.5383151856,6.375759124755859,-4.795586109161377,-11.939884185791016
1776037945297755600,-1522128.5282443848,6.114790916442871,-4.326322555541992,-11.865663528442383
1776037945317897200,-1522128.5081027832,4.651933670043945,-3.1531636714935303,-11.4849853515625
1776037945327998500,-1522128.4980014649,3.8738183975219727,-2.4444799423217773,-11.240777015686035
1776037945338069200,-1522128.487930664,3.1675288677215576,-1.867477297782898,-11.068394660949707
1776037945348170500,-1522128.4778295897,2.7269957065582275,-1.3838485479354858,-10.898406028747559
1776037945358210800,-1522128.4677890625,2.2864625453948975,-0.8978256583213806,-10.802638053894043
1776037945368312300,-1522128.4576877442,1.867477297782898,-0.8068459630012512,-10.654197692871094
1776037945378383000,-1522128.4476169434,3.117250680923462,-0.6536170840263367,-10.958261489868164
1776037945388484400,-1522128.437515625,-1.1444283723831177,-1.0678139925003052,-10.292673110961914
1776037945398555100,-1522128.4274448243,2.2194249629974365,-1.9560627937316895,-10.251971244812012
1776037945438868700,-1522128.3871313476,1.3958195447921753,-7.386112213134766,-7.6566572189331055
1776037945448939800,-1522128.3770603028,1.1013327836990356,-6.845022678375244,-6.471527099609375
1776037945458949400,-1522128.3670505371,1.0893617868423462,-5.501875400543213,-5.949591159820557
1776037945469020200,-1522128.3569797364,1.05105459690094,-4.163516521453857,-6.081272125244141
1776037945479091000,-1522128.3469089356,1.357512354850769,-3.6798880100250244,-6.399701118469238
1776037945489161700,-1522128.3368383788,1.6519991159439087,-4.02465295791626,-6.615179061889648
1776037945499232500,-1522128.326767578,1.6950948238372803,-4.405331134796143,-6.560112476348877
1776037945509303300,-1522128.3166967772,1.6208745241165161,-4.491522312164307,-6.251260757446289
1776037945539485200,-1522128.2865148925,2.169146776199341,-4.189853191375732,-6.050147533416748
1776037945549586700,-1522128.27641333,2.3558945655822754,-4.410119533538818,-6.186617374420166
1776037945559627000,-1522128.266373047,2.470816135406494,-4.687847137451172,-6.3733649253845215
1776037945569728300,-1522128.2562717285,2.7461493015289307,-5.003881454467773,-6.466738700866699
1776037945579799000,-1522128.2462009278,2.920926094055176,-5.341464042663574,-6.818686485290527
1776037945589900300,-1522128.2360996094,3.0166940689086914,-5.523423194885254,-7.070077419281006
1776037945599940600,-1522128.2260593262,3.19865345954895,-5.779603004455566,-7.407660007476807
1776037945610041900,-1522128.2159582519,3.1723172664642334,-5.963956356048584,-7.692570209503174
1776037945670436400,-1522128.1555637207,4.448426723480225,-5.736507415771484,-9.861717224121094
1776037945680507100,-1522128.14549292,4.809951305389404,-5.4228668212890625,-10.54645824432373
1776037945690608400,-1522128.1353916016,4.999093055725098,-5.252878665924072,-10.879252433776855
1776037945700679200,-1522128.1253208008,5.288791656494141,-5.185841083526611,-11.063606262207031
1776037945710780400,-1522128.1152194825,5.829881191253662,-5.315127849578857,-11.116278648376465
1776037945720820700,-1522128.1051791993,6.090848922729492,-5.125985622406006,-11.252747535705566
1776037945740962300,-1522128.0850375977,6.184223175048828,-5.008669853210449,-11.523292541503906
1776037945751033000,-1522128.074966797,5.51624059677124,-4.462791919708252,-11.717223167419434
1776037945761104000,-1522128.0648962401,5.51624059677124,-4.462791919708252,-11.805809020996094
1776037945771174700,-1522128.0548254394,5.214571475982666,-4.225766181945801,-11.707646369934082
1776037945781276200,-1522128.044723877,4.908113479614258,-4.146757125854492,-11.523292541503906
1776037945791316500,-1522128.0346835938,4.707000732421875,-4.189853191375732,-11.18092155456543
1776037945801387300,-1522128.024612793,4.812345504760742,-4.529829502105713,-10.931924819946289
1776037945811458000,-1522128.0145419922,5.0014872550964355,-4.90571928024292,-10.896012306213379
1776037945821528800,-1522128.0044711914,5.231330871582031,-5.013458251953125,-10.917559623718262
1776037945831630000,-1522127.994369873,5.257667064666748,-5.2265424728393555,-11.013327598571777
1776037945871852300,-1522127.954147705,3.97916316986084,-5.568912982940674,-10.577583312988281
1776037945881923000,-1522127.9440769043,3.581725835800171,-5.729324817657471,-10.60391902923584
1776037945891963400,-1522127.9340366211,3.3877954483032227,-5.913678169250488,-10.790667533874512
1776037945902034200,-1522127.9239658203,3.1723172664642334,-6.112396717071533,-11.204863548278809
1776037945912105000,-1522127.9138950196,3.1268274784088135,-5.966350555419922,-11.614272117614746
1776037945922175700,-1522127.9038242188,2.964021682739258,-5.623979568481445,-11.97100830078125
1776037945932216000,-1522127.8937839356,2.760514497756958,-5.544970989227295,-12.344504356384277
1776037945962336800,-1522127.86366333,2.0446481704711914,-5.406107425689697,-12.641385078430176
1776037945972377000,-1522127.8536228028,1.6424223184585571,-5.188235282897949,-12.368446350097656
1776037945982447900,-1522127.843552246,1.1779472827911377,-4.886565685272217,-11.942277908325195
1776037945992518700,-1522127.8334814452,0.912190854549408,-4.469974517822266,-11.499350547790527
1776037946002559000,-1522127.823440918,0.7015010714530945,-4.1611223220825195,-10.955866813659668
1776037946022700500,-1522127.8032995604,0.45250412821769714,-3.6846764087677,-9.806650161743164
1776037946032771300,-1522127.7932287597,0.4165911078453064,-3.507505416870117,-9.20091724395752
1776037946042781200,-1522127.78321875,0.33758243918418884,-3.531447410583496,-8.868123054504395
1776037946062922800,-1522127.7630771485,0.1628057211637497,-3.5003228187561035,-8.547300338745117
1776037946072993500,-1522127.7530063477,0.10295066982507706,-3.471592426300049,-8.485051155090332
1776037946083064300,-1522127.742935791,-0.043095629662275314,-3.624821424484253,-8.35336971282959
1776037946093165800,-1522127.7328342285,-0.12689268589019775,-3.5649664402008057,-8.252813339233398
1776037946103236600,-1522127.7227634278,-0.21547815203666687,-3.5051112174987793,-8.10437297821045
1776037946113337900,-1522127.7126621094,-0.2968810200691223,-3.5913026332855225,-8.018181800842285
1776037946123408600,-1522127.7025913086,-0.4644751250743866,-3.6990416049957275,-7.848193168640137
1776037946133510000,-1522127.6924899903,-0.586579442024231,-3.667917013168335,-7.682993412017822
1776037946143550200,-1522127.682449707,-0.586579442024231,-3.6176388263702393,-7.42681360244751
1776037946163691800,-1522127.6623081055,-0.8810662031173706,-3.5721490383148193,-7.110779285430908
1776037946204005600,-1522127.6219943848,-0.9481038451194763,-2.9257144927978516,-6.845022678375244
1776037946214046000,-1522127.6119541016,-0.8236053586006165,-2.7006595134735107,-6.768408298492432
1776037946224086000,-1522127.6019140624,-0.5554547905921936,-2.849100112915039,-6.785167694091797
1776037946234157000,-1522127.5918430176,-0.3519476354122162,-2.8395233154296875,-6.655880928039551
1776037946244227800,-1522127.5817722168,-0.14844051003456116,-2.9257144927978516,-6.53377628326416
1776037946264308200,-1522127.5616918944,0.3734954595565796,-2.9544448852539062,-6.495469093322754
1776037946274287600,-1522127.5517124024,0.524330198764801,-2.9520506858825684,-6.971915245056152
1776037946284358400,-1522127.5416416016,0.7565677165985107,-2.9281086921691895,-7.2568254470825195
1776037946294398700,-1522127.5316013184,0.7996633648872375,-2.7485435009002686,-7.527369976043701
1776037946304408300,-1522127.5215917968,0.667982280254364,-2.6599581241607666,-7.769184589385986
1776037946314448600,-1522127.5115512696,0.6847416758537292,-2.6216509342193604,-7.898471355438232
1776037946324550000,-1522127.5014501952,0.6536170840263367,-2.5905263423919678,-7.9846625328063965
1776037946334621000,-1522127.4913791504,0.9193734526634216,-3.028665065765381,-8.070854187011719
1776037946344691700,-1522127.4813083496,1.3910311460494995,-3.4763808250427246,-8.252813339233398
1776037946364802800,-1522127.4611972657,3.3949780464172363,-4.055777549743652,-9.464279174804688
1776037946374904000,-1522127.4510959473,4.048594951629639,-4.017470359802246,-9.931148529052734
1776037946384974800,-1522127.4410251465,4.304774761199951,-3.8714241981506348,-10.51054573059082
1776037946395015200,-1522127.4309848633,4.462791919708252,-3.936067581176758,-11.267112731933594
1776037946405116400,-1522127.420883545,4.10366153717041,-3.9001545906066895,-11.75792407989502
1776037946415187200,-1522127.4108127442,3.8307228088378906,-4.127603530883789,-12.112266540527344
1776037946425258000,-1522127.4007419434,3.8953661918640137,-4.438849925994873,-12.306197166442871
1776037946435267800,-1522127.3907321778,3.974374771118164,-4.46518611907959,-12.1194486618042
1776037946445369000,-1522127.3806308594,4.010287761688232,-4.5154643058776855,-11.592724800109863
1776037946465480200,-1522127.3605197754,3.7900211811065674,-5.394136428833008,-10.295066833496094
1776037946475490000,-1522127.3505100098,3.7636849880218506,-5.9304375648498535,-10.187328338623047
1776037946485591300,-1522127.3404086914,3.804386615753174,-6.172252178192139,-10.493785858154297
1776037946495662000,-1522127.3303378907,3.883395195007324,-6.196194171905518,-11.094730377197266
1776037946505732900,-1522127.3202670899,3.931279182434082,-5.882553577423096,-11.647790908813477
1776037946515803600,-1522127.310196289,3.6942532062530518,-5.367800235748291,-11.848904609680176
1776037946525905000,-1522127.3000952147,3.4141316413879395,-4.90571928024292,-11.865663528442383
1776037946535975700,-1522127.290024414,3.265691041946411,-4.714183330535889,-11.805809020996094
1776037946545985500,-1522127.2800144043,2.7940332889556885,-4.596867084503174,-11.595118522644043
1776037946556056300,-1522127.2699436035,2.4612393379211426,-4.5394062995910645,-11.281478881835938
1776037946586177300,-1522127.239822754,1.8914192914962769,-4.1180267333984375,-9.8784761428833
1776037946606349300,-1522127.2196506348,1.9776105880737305,-3.9695863723754883,-9.162610054016113
1776037946616420000,-1522127.209579834,1.9752163887023926,-3.936067581176758,-8.700529098510742
1776037946626491000,-1522127.1995090332,1.8100165128707886,-3.9240965843200684,-8.109161376953125
1776037946636561700,-1522127.1894382325,1.522712230682373,-3.7205893993377686,-7.544129371643066
1776037946646632400,-1522127.1793674317,1.0989385843276978,-3.7828385829925537,-7.144298076629639
1776037946656703200,-1522127.169296875,0.8619126081466675,-3.7660791873931885,-6.919242858886719
1776037946666774000,-1522127.159226074,0.7398083209991455,-3.840299606323242,-6.7923502922058105
1776037946696986600,-1522127.1290134278,0.6919242739677429,-4.048594951629639,-6.289567947387695
1776037946707057400,-1522127.118942627,0.8547300100326538,-4.323928356170654,-6.268020153045654
1776037946717128200,-1522127.1088718262,0.9696516990661621,-4.517858505249023,-6.265625953674316
1776037946727199000,-1522127.0988010254,1.1204863786697388,-4.517858505249023,-6.356605529785156
1776037946737269800,-1522127.0887302246,1.3694833517074585,-4.608838081359863,-6.57926607131958
1776037946747340500,-1522127.0786594239,1.745373010635376,-4.721365928649902,-6.864176273345947
1776037946757441800,-1522127.0685581055,2.0231003761291504,-4.817133903503418,-7.220912456512451
1776037946767482000,-1522127.0585178223,2.274491548538208,-4.927267074584961,-7.486668586730957
1776037946777553000,-1522127.0484470215,2.387019157409668,-5.104437828063965,-7.702147006988525
1776037946787654100,-1522127.0383459472,2.3080103397369385,-4.963180065155029,-7.783549785614014
1776037946797725000,-1522127.0282751464,2.0638017654418945,-5.011064052581787,-7.838616371154785
1776037946807765200,-1522127.0182348632,1.8962076902389526,-5.16429328918457,-7.955932140350342
1776037946817836000,-1522127.0081640624,1.8100165128707886,-5.262455463409424,-8.01339340209961
1776037946827876400,-1522126.9981235352,1.8842366933822632,-5.434837818145752,-8.271966934204102
1776037946837916700,-1522126.988083252,2.2026655673980713,-5.937620162963867,-8.561665534973145
1776037946847957000,-1522126.9780429688,2.655169725418091,-6.236895561218262,-8.937555313110352
1776037946858058200,-1522126.9679416504,3.1747114658355713,-6.495469093322754,-9.457097053527832
1776037946868098600,-1522126.9579013672,3.552995204925537,-6.739677906036377,-9.710882186889648
1776037946878139000,-1522126.947861084,3.995922565460205,-6.955155849456787,-9.86889934539795
1776037946888179200,-1522126.9378208008,4.596867084503174,-7.146692276000977,-9.96945571899414
1776037946908290300,-1522126.9177097168,4.7189717292785645,-6.892906665802002,-10.54645824432373
1776037946918391600,-1522126.9076083985,4.563348293304443,-6.773196697235107,-10.773907661437988
1776037946928401400,-1522126.8975986328,4.49870491027832,-6.732495307922363,-11.049241065979004
1776037946938502700,-1522126.8874973145,4.388571739196777,-6.777985095977783,-11.152191162109375
1776037946948573400,-1522126.8774265137,4.592078685760498,-6.813898086547852,-11.3269681930542
1776037946958613800,-1522126.8673862305,4.8602294921875,-6.782773494720459,-11.338939666748047
1776037946968684500,-1522126.8573154297,5.348646640777588,-6.703764915466309,-11.245565414428711
1776037946978785800,-1522126.8472141114,5.537788391113281,-6.490680694580078,-11.18092155456543
1776037947008998100,-1522126.817001953,5.145139217376709,-6.169857978820801,-11.985373497009277
1776037947019099600,-1522126.8069003907,4.93923807144165,-6.299144744873047,-12.090718269348145
1776037947029170400,-1522126.7968295899,4.656722068786621,-6.543353080749512,-11.975796699523926
1776037947039241200,-1522126.786758789,4.383783340454102,-6.878541469573975,-11.626243591308594
1776037947049312000,-1522126.7766879883,4.027047157287598,-7.046135425567627,-11.085153579711914
1776037947059413200,-1522126.76658667,3.620033025741577,-7.058106422424316,-10.548852920532227
1776037947069484000,-1522126.7565158692,3.3710360527038574,-6.94079065322876,-10.283096313476562
1776037947079554800,-1522126.7464450684,3.1435868740081787,-6.720524311065674,-10.323798179626465
1776037947109767200,-1522126.71623291,3.2585084438323975,-6.244078159332275,-11.185709953308105
1776037947119868700,-1522126.7061313477,3.40216064453125,-6.098031520843506,-11.27190113067627
1776037947129939500,-1522126.696060547,3.450044631958008,-5.92325496673584,-11.398794174194336
1776037947140040700,-1522126.6859592285,3.4093432426452637,-5.896918773651123,-11.45146656036377
1776037947150111500,-1522126.6758884278,3.354276657104492,-5.815515995025635,-11.499350547790527
1776037947160212700,-1522126.6657873534,3.2968156337738037,-5.643133640289307,-11.362881660461426
1776037947170222600,-1522126.6557773438,3.332728862762451,-5.56173038482666,-11.171344757080078
1776037947180323800,-1522126.6456762694,3.2561142444610596,-5.307945251464844,-11.075576782226562
1776037947200435000,-1522126.6255649414,2.7964274883270264,-4.541800498962402,-10.72602367401123
1776037947210475300,-1522126.6155246582,2.47560453414917,-4.197035789489746,-10.582371711730957
1776037947220546000,-1522126.6054538575,2.1332337856292725,-3.8379054069519043,-10.453084945678711
1776037947230616800,-1522126.5953830567,2.1332337856292725,-3.8379054069519043,-10.453084945678711
1776037947240687600,-1522126.5853125,1.821987509727478,-3.550601005554199,-10.120290756225586
1776037947250758400,-1522126.575241699,1.5945383310317993,-3.3710360527038574,-9.80904483795166
1776037947260860000,-1522126.5651401368,1.3335703611373901,-3.227383852005005,-9.591172218322754
1776037947270900200,-1522126.5550998535,1.2258312702178955,-3.1675288677215576,-9.433155059814453
1776037947280940300,-1522126.5450598144,1.039083480834961,-3.1244332790374756,-9.39245319366455
1776037947311153000,-1522126.514847168,0.45489832758903503,-3.1196448802948,-8.942343711853027
1776037947331233300,-1522126.4947666016,0.07422025501728058,-3.026270866394043,-8.528146743774414
1776037947341304000,-1522126.4846960448,-0.21308395266532898,-2.9520506858825684,-8.279149055480957
1776037947351374800,-1522126.474625244,-0.44771572947502136,-2.87064790725708,-8.097189903259277
1776037947361445600,-1522126.4645544433,-0.5554547905921936,-2.9089550971984863,-7.86734676361084
1776037947371516700,-1522126.4544833985,-0.7733271718025208,-2.9041666984558105,-7.750030994415283
1776037947381618000,-1522126.44438208,-0.9002198576927185,-2.8850131034851074,-7.577648162841797
1776037947391597000,-1522126.434402832,-0.8331822156906128,-2.868253707885742,-7.47230339050293
1776037947401667800,-1522126.4243322753,-0.6967126727104187,-2.9041666984558105,-7.139509677886963
1776037947411647200,-1522126.4143527832,-0.6847416758537292,-2.9496564865112305,-6.866570472717285
1776037947421748500,-1522126.4042514649,-0.8164227604866028,-2.935291290283203,-6.615179061889648
1776037947431758300,-1522126.3942416993,-0.7852981686592102,-3.1507694721221924,-6.421248912811279
1776037947441798700,-1522126.384201416,-0.6584054827690125,-3.3039982318878174,-6.370970726013184
1776037947451838700,-1522126.3741613769,-0.4141969084739685,-3.40216064453125,-6.411672115325928
1776037947461940200,-1522126.3640598145,0.2346317619085312,-3.737348794937134,-6.54574728012085
1776037947471980500,-1522126.3540195313,0.7134721279144287,-3.689464807510376,-6.7277069091796875
1776037947482081800,-1522126.343918213,0.871489405632019,-3.6176388263702393,-6.979097843170166
1776037947492152600,-1522126.3338474121,0.9888052940368652,-3.5673606395721436,-7.2352776527404785
1776037947502193000,-1522126.323807129,0.8810662031173706,-3.3518824577331543,-7.592013359069824
1776037947522304000,-1522126.303696045,1.4101848602294922,-3.315969467163086,-7.931990146636963
1776037947542476000,-1522126.2835239258,1.920149803161621,-3.2537200450897217,-8.279149055480957
1776037947552546800,-1522126.273453125,2.142810583114624,-3.3470940589904785,-8.2312650680542
1776037947562617600,-1522126.2633823243,2.274491548538208,-3.2776620388031006,-8.44195556640625
1776037947572597000,-1522126.2534030762,2.3343467712402344,-3.4524388313293457,-8.7484130859375
1776037947582667800,-1522126.2433322754,2.4396915435791016,-3.691859006881714,-9.239224433898926
1776037947592677400,-1522126.2333225098,2.5067291259765625,-3.7636849880218506,-9.660603523254395
1776037947602779000,-1522126.2232211914,2.719813108444214,-3.5649664402008057,-10.062829971313477
1776037947622920400,-1522126.2030795899,4.2090067863464355,-3.60566782951355,-10.627861022949219
1776037947632991200,-1522126.193008789,4.884171485900879,-3.691859006881714,-10.589553833007812
1776037947643062000,-1522126.1829379883,5.274426460266113,-4.060565948486328,-10.335768699645996
1776037947653132800,-1522126.1728671875,5.374982833862305,-4.417302131652832,-9.907206535339355
1776037947663203600,-1522126.1627963868,5.348646640777588,-4.570530891418457,-9.610325813293457
1776037947673274400,-1522126.152725586,5.458779811859131,-4.508281707763672,-9.457097053527832
1776037947683375600,-1522126.1426242676,5.983109951019287,-4.759673118591309,-9.576807022094727
1776037947693355000,-1522126.1326450196,7.350199222564697,-5.183446884155273,-10.038887977600098
1776037947703456300,-1522126.1225437012,7.881711959838867,-4.967968463897705,-10.347740173339844
1776037947723597800,-1522126.1024020996,6.378153324127197,-4.089296340942383,-10.57040023803711
1776037947733607700,-1522126.092392334,5.307945251464844,-3.246537446975708,-10.587160110473633
1776037947743678500,-1522126.0823215332,4.2760443687438965,-2.2385785579681396,-10.395624160766602
1776037947753749200,-1522126.0722507325,3.5027170181274414,-1.5945383310317993,-10.254365921020508
1776037947763820000,-1522126.0621799317,3.021482467651367,-1.3192051649093628,-10.144232749938965
1776037947773890800,-1522126.052109131,2.693476915359497,-1.3024457693099976,-9.96945571899414
1776037947783961600,-1522126.04203833,2.6599581241607666,-1.742978811264038,-9.856928825378418
1776037947794062800,-1522126.0319372558,2.7892448902130127,-2.099714994430542,-9.679757118225098
1776037947804133600,-1522126.021866455,2.9448680877685547,-2.7078421115875244,-9.519346237182617
1776037947814204700,-1522126.0117954102,2.6001031398773193,-3.2154128551483154,-9.188945770263672
1776037947844386300,-1522125.9816137694,2.0877439975738525,-4.436455726623535,-8.374917984008789
1776037947854457300,-1522125.9715427246,1.8914192914962769,-4.862623691558838,-8.056488990783691
1776037947864497400,-1522125.9615026854,1.6735470294952393,-5.319916248321533,-7.82185697555542
1776037947874507300,-1522125.9514926758,1.4652514457702637,-5.66228723526001,-7.5632829666137695
1776037947884608500,-1522125.9413916015,1.1875240802764893,-5.906495571136475,-7.264008045196533
1776037947894679300,-1522125.9313208007,0.9696516990661621,-6.129156112670898,-7.137115478515625
1776037947904719600,-1522125.9212802735,0.9026140570640564,-6.291962146759033,-7.0317702293396
1776037947914760000,-1522125.9112399903,0.8140285611152649,-6.63433313369751,-7.146692276000977
1776037947934932000,-1522125.8910681151,0.9528923034667969,-6.914454460144043,-7.354987621307373
1776037947945033500,-1522125.8809665528,1.0007762908935547,-6.7061591148376465,-7.383718013763428
1776037947955043000,-1522125.8709570311,1.0606313943862915,-6.471527099609375,-7.489062786102295
1776037947965144600,-1522125.8608554688,1.2737152576446533,-6.160281181335449,-7.515398979187012
1776037947975154200,-1522125.8508457032,1.4053963422775269,-5.8203043937683105,-7.422025203704834
1776037947985255700,-1522125.8407443848,1.4484920501708984,-5.805939197540283,-7.4986395835876465
1776037947995265300,-1522125.8307346192,1.6112977266311646,-5.839457988739014,-7.445967197418213
1776037948005336000,-1522125.8206638184,1.723825216293335,-5.899312973022461,-7.4986395835876465
1776037948025508400,-1522125.8004916993,3.205836057662964,-5.949591159820557,-7.819462776184082
1776037948035518000,-1522125.7904819336,3.529053211212158,-5.506663799285889,-8.02536392211914
1776037948045588700,-1522125.7804113769,3.2968156337738037,-5.22175407409668,-8.070854187011719
1776037948055629000,-1522125.7703708496,2.96162748336792,-5.07570743560791,-8.13789176940918
1776037948065699800,-1522125.7603000489,2.518700122833252,-5.032611846923828,-8.317456245422363
1776037948075740200,-1522125.7502597657,2.3702597618103027,-5.30076265335083,-8.643068313598633
1776037948085811000,-1522125.7401889649,2.6360161304473877,-5.640739440917969,-8.980650901794434
1776037948095881700,-1522125.730118164,2.9041666984558105,-6.155492782592773,-9.210494041442871
1776037948105983200,-1522125.7200168457,3.066972494125366,-6.655880928039551,-9.428366661071777
1776037948126094000,-1522125.6999060058,3.861847400665283,-7.474697589874268,-9.682151794433594
1776037948146236000,-1522125.6797641602,4.599261283874512,-7.706935405731201,-10.532093048095703
1776037948156245500,-1522125.6697543946,4.671087741851807,-7.654263019561768,-10.800244331359863
1776037948166316300,-1522125.6596835938,4.78122091293335,-7.644686222076416,-10.943896293640137
1776037948176387000,-1522125.649613037,4.927267074584961,-7.65186882019043,-11.003750801086426
1776037948196498200,-1522125.629501709,5.200206279754639,-7.457938194274902,-10.939107894897461
1776037948206569000,-1522125.6194311522,5.262455463409424,-7.287950038909912,-11.142614364624023
1776037948216609300,-1522125.609390625,5.492298603057861,-7.16584587097168,-11.571176528930664
1776037948236750800,-1522125.5892492675,5.585672378540039,-6.981492042541504,-12.528857231140137
1776037948246821600,-1522125.5791784667,5.604825973510742,-6.998251438140869,-12.509703636169434
1776037948256892400,-1522125.569107666,5.341464042663574,-6.830657482147217,-11.997344970703125
1776037948266994000,-1522125.5590061035,4.888959884643555,-6.701370716094971,-11.204863548278809
1776037948276973000,-1522125.5490268555,4.398148536682129,-6.603208065032959,-10.522516250610352
1776037948287074300,-1522125.5389257811,3.84269380569458,-6.509834289550781,-10.189722061157227
1776037948297145300,-1522125.5288547364,3.469198226928711,-6.48828649520874,-10.220847129821777
1776037948307216100,-1522125.5187839356,3.3016040325164795,-6.502651691436768,-10.539276123046875
1776037948337428500,-1522125.4885715332,3.2393548488616943,-6.313509941101074,-11.185709953308105
1776037948347529700,-1522125.4784702149,3.1699230670928955,-6.1770405769348145,-11.276689529418945
1776037948357539600,-1522125.4684604493,3.0789434909820557,-6.112396717071533,-11.405977249145508
1776037948367640800,-1522125.458359131,2.8395233154296875,-5.978321552276611,-11.5065336227417
1776037948377711600,-1522125.44828833,2.6216509342193604,-5.758055210113525,-11.556811332702637
1776037948387782400,-1522125.4382175293,2.315192937850952,-5.4875102043151855,-11.578359603881836
1776037948397853200,-1522125.4281467285,1.968033790588379,-5.16429328918457,-11.305420875549316
1776037948407924000,-1522125.4180759278,1.6855180263519287,-4.786009311676025,-11.03248119354248
1776037948448207000,-1522125.3777929686,1.2018892765045166,-3.8498764038085938,-9.849745750427246
1776037948458278100,-1522125.3677219239,1.2449848651885986,-3.6750996112823486,-9.500192642211914
1776037948468349000,-1522125.357651123,1.37906014919281,-3.598485231399536,-9.217676162719727
1776037948478419700,-1522125.3475803223,1.3910311460494995,-3.5625722408294678,-8.89685344696045
1776037948488490500,-1522125.3375095215,1.1971008777618408,-3.5936968326568604,-8.614337921142578
1776037948498561300,-1522125.3274387207,0.9265560507774353,-3.6176388263702393,-8.401253700256348
1776037948508632000,-1522125.31736792,0.5913678407669067,-3.6128504276275635,-8.200140953063965
1776037948538844400,-1522125.2871555176,-0.3447650372982025,-4.144362926483154,-7.570465564727783
1776037948548915200,-1522125.2770847168,-0.6224924325942993,-4.0964789390563965,-7.33583402633667
1776037948558986000,-1522125.267013916,-0.6416460275650024,-4.046200752258301,-7.180211067199707
1776037948579097000,-1522125.246902832,-0.8547300100326538,-4.003105163574219,-6.933608055114746
1776037948589198300,-1522125.2368017577,-0.8236053586006165,-4.039018154144287,-6.8593878746032715
1776037948599269000,-1522125.226730957,-0.6368576288223267,-4.01268196105957,-6.754043102264404
1776037948609340200,-1522125.2166599121,-0.6177040338516235,-4.034229755401611,-6.57926607131958
1776037948619411000,-1522125.2065891114,-0.7422025203704834,-3.861847400665283,-6.5050458908081055
1776037948649592800,-1522125.1764072266,-0.7134721279144287,-3.450044631958008,-6.0621185302734375
1776037948669734400,-1522125.156265625,-0.09816227108240128,-3.3949780464172363,-6.421248912811279
1776037948679774700,-1522125.1462253418,-0.09816227108240128,-3.3949780464172363,-6.421248912811279
1776037948689845500,-1522125.136154541,0.12210428714752197,-3.292027235031128,-6.766014099121094
1776037948699916300,-1522125.1260837403,0.33518823981285095,-3.184288263320923,-7.074865818023682
1776037948709987000,-1522125.1160129395,0.4836287498474121,-3.1292216777801514,-7.362170219421387
1776037948720057900,-1522125.1059421387,0.4572925269603729,-2.9688100814819336,-7.479485988616943
1776037948740199400,-1522125.0858005371,0.8690952062606812,-3.0166940689086914,-7.838616371154785
1776037948750270200,-1522125.0757297364,1.0797849893569946,-3.1962592601776123,-8.04691219329834
1776037948760310500,-1522125.0656894532,1.3407529592514038,-3.2632968425750732,-8.324639320373535
1776037948770381300,-1522125.0556186524,1.436521053314209,-3.488351821899414,-8.413225173950195
1776037948780421600,-1522125.0455783692,1.9488801956176758,-3.5027170181274414,-8.573636054992676
1776037948790462000,-1522125.035538086,2.4444799423217773,-3.713406801223755,-8.786720275878906
1776037948800532700,-1522125.0254672852,3.0095114707946777,-3.7014358043670654,-9.040505409240723
1776037948810603500,-1522125.0153964844,3.7397429943084717,-3.584120035171509,-9.485827445983887
1776037948820674300,-1522125.0053256836,4.1874589920043945,-3.780444383621216,-10.02691650390625
1776037948850886700,-1522124.9751132813,4.367023944854736,-4.1180267333984375,-11.073183059692383
1776037948860957400,-1522124.9650424805,4.553771495819092,-4.165910720825195,-11.068394660949707
1776037948870997800,-1522124.9550021973,4.888959884643555,-4.395754337310791,-10.960655212402344
1776037948881038000,-1522124.944961914,5.154716491699219,-4.680664539337158,-10.72841739654541
1776037948891108900,-1522124.9348911133,5.228936672210693,-5.044582843780518,-10.38844108581543
1776037948901179600,-1522124.9248203125,5.106832027435303,-5.066130638122559,-10.168174743652344
1776037948911220000,-1522124.9147800293,5.008669853210449,-4.98472785949707,-10.127472877502441
1776037948921260300,-1522124.9047397461,4.93923807144165,-5.008669853210449,-10.268731117248535
1776037948931331000,-1522124.8946689453,5.051765441894531,-5.008669853210449,-10.539276123046875
1776037948961543400,-1522124.864456543,4.546588897705078,-4.558559894561768,-10.984597206115723
1776037948981593300,-1522124.8444067382,3.864241600036621,-4.086902141571045,-10.618284225463867
1776037948991694800,-1522124.8343051758,3.4979286193847656,-3.9671921730041504,-10.36449909210205
1776037949001704400,-1522124.8242956542,3.179499864578247,-4.0078935623168945,-10.165780067443848
1776037949011775200,-1522124.8142248534,2.935291290283203,-4.072536945343018,-9.773131370544434
1776037949021815600,-1522124.8041843262,2.80361008644104,-4.127603530883789,-9.495404243469238
1776037949031886300,-1522124.7941137694,2.6001031398773193,-4.1180267333984375,-9.117119789123535
1776037949051997400,-1522124.7740024414,2.319981336593628,-4.177882194519043,-8.29830265045166
1776037949072108500,-1522124.7538913575,2.2026655673980713,-4.036623954772949,-7.457938194274902
1776037949082148900,-1522124.7438510743,2.094926595687866,-4.077325344085693,-7.141903877258301
1776037949092189200,-1522124.733810791,2.0614075660705566,-4.197035789489746,-6.885724067687988
1776037949102229500,-1522124.7237705078,2.094926595687866,-4.290409564971924,-6.6846113204956055
1776037949112269800,-1522124.7137302246,2.1595699787139893,-4.438849925994873,-6.50025749206543
1776037949122340600,-1522124.7036594239,2.1763293743133545,-4.618414878845215,-6.390124320983887
1776037949172633600,-1522124.653366455,2.7293899059295654,-5.013458251953125,-6.0190229415893555
1776037949182704400,-1522124.6432956543,2.956839084625244,-4.922478675842285,-5.983109951019287
1776037949192805600,-1522124.633194336,3.600879430770874,-4.896142482757568,-6.145915985107422
1776037949202815500,-1522124.6231845703,4.323928356170654,-4.817133903503418,-6.4834980964660645
1776037949212886300,-1522124.6131137696,4.932055473327637,-4.738125324249268,-6.761225700378418
1776037949222926600,-1522124.6030734864,4.910507678985596,-4.505887508392334,-6.9455790519714355
1776037949233027800,-1522124.592972168,4.410119533538818,-4.228160381317139,-7.122750282287598
1776037949273311000,-1522124.5526889649,2.557007312774658,-3.7876269817352295,-7.668628215789795
1776037949283381800,-1522124.542618164,2.559401512145996,-4.376600742340088,-7.5417351722717285
1776037949293483000,-1522124.5325170897,2.427720546722412,-5.2911858558654785,-7.474697589874268
1776037949303553800,-1522124.522446289,2.557007312774658,-6.165069580078125,-7.529764175415039
1776037949313624800,-1522124.5123752442,2.7724854946136475,-6.878541469573975,-7.805097579956055
1776037949333735700,-1522124.4922644042,3.6822822093963623,-8.10437297821045,-9.006986618041992
1776037949343806700,-1522124.4821933594,4.2975921630859375,-8.736441612243652,-9.943120002746582
1776037949353846800,-1522124.4721533202,4.991910457611084,-9.368511199951172,-10.881647109985352
1776037949383967700,-1522124.4420322266,5.48272180557251,-8.980650901794434,-12.63899040222168
1776037949394069000,-1522124.4319309082,5.2911858558654785,-8.676587104797363,-12.521675109863281
1776037949404139800,-1522124.4218601075,5.023035049438477,-8.188169479370117,-12.229581832885742
1776037949414241300,-1522124.411758789,4.93923807144165,-7.709329605102539,-11.836933135986328
1776037949424312000,-1522124.4016879883,4.786009311676025,-7.187393665313721,-11.382035255432129
1776037949434382800,-1522124.3916171875,4.697423934936523,-6.873753070831299,-11.113883972167969
1776037949444453600,-1522124.3815463868,4.750096321105957,-6.658275127410889,-11.281478881835938
1776037949454524400,-1522124.371475586,4.711789131164551,-6.624756336212158,-11.63342571258545
1776037949474574300,-1522124.3514257811,4.309563159942627,-6.5912370681762695,-11.255142211914062
1776037949484675800,-1522124.3413242188,3.9217023849487305,-6.584054470062256,-10.84094524383545
1776037949494746600,-1522124.331253418,3.5458126068115234,-6.696582317352295,-10.381258964538574
1776037949504756200,-1522124.3212438964,3.0550012588500977,-6.739677906036377,-9.950302124023438
1776037949514796500,-1522124.3112033692,2.7485435009002686,-6.864176273345947,-9.555258750915527
1776037949524897800,-1522124.3011022948,2.5474305152893066,-6.789956092834473,-9.524134635925293
1776037949534968800,-1522124.29103125,2.4684219360351562,-6.672640323638916,-9.84256362915039
1776037949545009000,-1522124.2809912108,2.387019157409668,-6.557718276977539,-10.271124839782715
1776037949555018800,-1522124.2709812012,2.3080103397369385,-6.361393928527832,-10.57040023803711
1776037949565120000,-1522124.2608798828,2.3750481605529785,-6.19379997253418,-10.8720703125
1776037949585261600,-1522124.2407385253,2.248155355453491,-6.191405773162842,-11.532869338989258
1776037949595332400,-1522124.2306677245,2.1499931812286377,-6.133944988250732,-11.779472351074219
1776037949605403400,-1522124.2205966797,1.9584569931030273,-6.160281181335449,-11.951854705810547
1776037949615474200,-1522124.210525879,1.7046716213226318,-5.983109951019287,-12.006921768188477
1776037949625545000,-1522124.2004550782,1.5203180313110352,-5.813121795654297,-11.894393920898438
1776037949635585300,-1522124.190414795,1.3192051649093628,-5.595249176025391,-11.765107154846191
1776037949645686500,-1522124.1803134766,1.1635819673538208,-5.286397457122803,-11.528080940246582
1776037949655757300,-1522124.1702426758,0.9983820915222168,-5.011064052581787,-11.12346076965332
1776037949665828000,-1522124.160171875,0.9672574996948242,-4.692635536193848,-10.745177268981934
1776037949675868400,-1522124.1501315918,0.9074024558067322,-4.343081951141357,-10.393229484558105
1776037949685908700,-1522124.1400913086,0.9648633003234863,-4.000710964202881,-9.914389610290527
1776037949716060000,-1522124.1099401854,0.7015010714530945,-3.555389642715454,-8.760383605957031
1776037949726130700,-1522124.0998693847,0.6320692300796509,-3.3854012489318848,-8.47547435760498
1776037949736232200,-1522124.0897678223,0.5961562395095825,-3.2345664501190186,-8.413225173950195
1776037949746303000,-1522124.0796970215,0.5123591423034668,-3.1316158771514893,-8.334216117858887
1776037949756343300,-1522124.0696567383,0.44532153010368347,-3.0861260890960693,-8.195352554321289
1776037949766444500,-1522124.05955542,0.3902548849582672,-3.047818660736084,-8.001421928405762
1776037949776515300,-1522124.0494846192,0.1843535304069519,-2.9041666984558105,-7.850587368011475
1776037949786586000,-1522124.0394138184,0.07661445438861847,-2.8778305053710938,-7.692570209503174
1776037949806758100,-1522124.0192419433,-0.3016694188117981,-2.6024973392486572,-7.3454108238220215
1776037949816829200,-1522124.0091708985,-0.5434837937355042,-2.5905263423919678,-7.048529624938965
1776037949826900000,-1522123.9991000977,-0.6200982332229614,-2.6240451335906982,-6.8593878746032715
1776037949836940000,-1522123.9890600585,-0.5147533416748047,-2.875436305999756,-6.629544734954834
1776037949847010800,-1522123.9789892577,-0.42377370595932007,-2.9975404739379883,-6.3063273429870605
1776037949857081900,-1522123.968918213,-0.33279404044151306,-2.9688100814819336,-6.1985883712768555
1776037949867152600,-1522123.9588474121,-0.1604115068912506,-2.896984100341797,-6.102819919586182
1776037949877254000,-1522123.9487460938,0.20350714027881622,-2.655169725418091,-5.932831764221191
1776037949907466200,-1522123.9185336914,0.7374141216278076,-2.4468741416931152,-5.34625244140625
1776037949917537000,-1522123.9084628907,1.3479355573654175,-2.52109432220459,-5.236119270324707
1776037949927607800,-1522123.8983920899,1.7477672100067139,-2.63362193107605,-5.374982833862305
1776037949937678600,-1522123.888321289,2.049436569213867,-2.6216509342193604,-5.700594425201416
1776037949947749400,-1522123.8782507323,2.229001760482788,-2.849100112915039,-6.086060523986816
1776037949957820200,-1522123.8681799315,2.212242364883423,-2.875436305999756,-6.5912370681762695
1776037949967891000,-1522123.8581091308,2.056619167327881,-2.964021682739258,-7.137115478515625
1776037949977962000,-1522123.848038086,2.126051187515259,-3.1100680828094482,-7.407660007476807
1776037950008144000,-1522123.8178562012,2.999934673309326,-3.624821424484253,-8.559270858764648
1776037950018214700,-1522123.8077854004,3.3279404640197754,-3.847482204437256,-9.215282440185547
1776037950028224300,-1522123.7977756348,3.136404275894165,-4.098873138427734,-10.012551307678223
1776037950038295000,-1522123.787705078,2.7485435009002686,-4.02465295791626,-10.951078414916992
1776037950048305000,-1522123.7776950684,2.2170307636260986,-3.713406801223755,-11.738770484924316
1776037950058406100,-1522123.76759375,1.9704279899597168,-4.031835556030273,-12.737153053283691
1776037950068477000,-1522123.7575231933,1.8483237028121948,-4.343081951141357,-13.218387603759766
1776037950078517200,-1522123.747482666,2.1930887699127197,-4.95120906829834,-13.347674369812012
1776037950088588000,-1522123.7374118653,2.5115175247192383,-5.626373767852783,-12.859257698059082
1776037950118770000,-1522123.7072299805,2.892195701599121,-6.268020153045654,-11.453861236572266
1776037950128840700,-1522123.6971591797,2.937685489654541,-6.14831018447876,-11.257535934448242
1776037950138911500,-1522123.687088623,2.8586769104003906,-5.849034786224365,-11.362881660461426
1776037950148982300,-1522123.6770178222,2.7892448902130127,-5.442020416259766,-11.54005241394043
1776037950159083800,-1522123.6669162598,2.6815059185028076,-5.013458251953125,-11.635820388793945
1776037950169154600,-1522123.656845459,2.5953147411346436,-4.730942726135254,-11.784260749816895
1776037950179225300,-1522123.6467746582,2.499546527862549,-4.5825018882751465,-11.566388130187988
1776037950189235000,-1522123.6367651366,2.5091233253479004,-4.55616569519043,-11.200075149536133
1776037950219386400,-1522123.6066135254,2.190694570541382,-5.078101634979248,-9.732429504394531
1776037950229457200,-1522123.5965429686,1.941697597503662,-5.082890033721924,-9.253589630126953
1776037950239528000,-1522123.5864721679,1.6208745241165161,-5.16429328918457,-8.746018409729004
1776037950249598700,-1522123.576401367,1.4437036514282227,-5.116408824920654,-8.427590370178223
1776037950259669800,-1522123.5663303223,1.2258312702178955,-5.3127336502075195,-8.070854187011719
1776037950269709800,-1522123.556290283,0.751779317855835,-5.365406036376953,-7.824251174926758
1776037950279750100,-1522123.546249756,0.40701428055763245,-5.6455278396606445,-7.673416614532471
1776037950289729500,-1522123.5362705078,-1.292868971824646,-5.178658485412598,-7.3023152351379395
1776037950319880700,-1522123.5061193847,0.026336219161748886,-6.524199485778809,-7.086836814880371
1776037950329951700,-1522123.4960483399,0.9959878921508789,-6.766014099121094,-7.094019412994385
1776037950340022500,-1522123.485977539,1.4317326545715332,-7.1706342697143555,-6.739677906036377
1776037950350093300,-1522123.4759067383,1.9249382019042969,-6.528987884521484,-6.528987884521484
1776037950360164000,-1522123.4658359375,2.4444799423217773,-4.857835292816162,-6.406883716583252
1776037950370235000,-1522123.4557651368,2.851494312286377,-3.706224203109741,-6.586448669433594
1776037950380305700,-1522123.445694336,3.1723172664642334,-3.404554843902588,-6.947973251342773
1776037950390376400,-1522123.4356235352,3.2776620388031006,-3.794809579849243,-7.158663272857666
1776037950410548500,-1522123.415451416,3.1316158771514893,-5.317522048950195,-7.304709434509277
1776037950430690000,-1522123.3953100585,3.663128614425659,-5.858611583709717,-7.666234016418457
1776037950440730400,-1522123.3852695313,3.758896589279175,-5.901707172393799,-8.010998725891113
1776037950450801200,-1522123.3751987305,4.180276393890381,-6.145915985107422,-8.40843677520752
1776037950460872000,-1522123.3651281737,4.3622355461120605,-6.244078159332275,-8.712499618530273
1776037950470942700,-1522123.355057373,4.07014274597168,-6.071695327758789,-8.738836288452148
1776037950481013500,-1522123.3449865722,3.8163576126098633,-6.160281181335449,-8.683769226074219
1776037950491084500,-1522123.3349155274,3.5003228187561035,-6.064512729644775,-8.645462036132812
1776037950531367700,-1522123.2946323243,3.5386300086975098,-6.01423454284668,-9.315838813781738
1776037950541469000,-1522123.284531006,3.885789394378662,-5.975927352905273,-9.502586364746094
1776037950551539700,-1522123.274460205,4.094084739685059,-6.026205539703369,-9.746794700622559
1776037950561580000,-1522123.264419922,4.390965938568115,-5.985504150390625,-9.99100399017334
1776037950571620400,-1522123.2543796387,4.323928356170654,-5.875370979309082,-10.180145263671875
1776037950581721600,-1522123.2442783203,4.436455726623535,-5.724536418914795,-10.335768699645996
1776037950591792400,-1522123.2342075196,4.532223701477051,-5.6910176277160645,-10.395624160766602
1776037950601893600,-1522123.2241064452,4.568136692047119,-5.676652431488037,-10.606313705444336
1776037950611964700,-1522123.2140354004,4.666299343109131,-5.583278179168701,-10.680533409118652
1776037950652278300,-1522123.1737216797,4.639962673187256,-5.7772088050842285,-11.32457447052002
1776037950662349000,-1522123.163650879,4.69024133682251,-5.942408561706543,-11.803414344787598
1776037950672419800,-1522123.1535800782,4.7405195236206055,-6.138733386993408,-12.196063041687012
1776037950682490600,-1522123.1435092774,4.843470096588135,-6.435614109039307,-12.485761642456055
1776037950692561400,-1522123.1334384766,4.503493309020996,-6.84981107711792,-12.629413604736328
1776037950702632200,-1522123.1233679198,3.950432777404785,-7.225700855255127,-12.430695533752441
1776037950722743300,-1522123.1032565918,2.078166961669922,-8.365341186523438,-11.726799964904785
1776037950742884900,-1522123.0831152343,0.5937620401382446,-9.186552047729492,-11.54005241394043
1776037950752894700,-1522123.0731052246,0.21547815203666687,-9.028534889221191,-11.686098098754883
1776037950762965500,-1522123.0630344239,0.1412578970193863,-8.418013572692871,-11.774683952331543
1776037950773036300,-1522123.052963623,0.27054479718208313,-7.879317760467529,-11.75792407989502
1776037950783137500,-1522123.0428625487,0.4596867263317108,-7.3693528175354,-11.662156105041504
1776037950793208600,-1522123.032791504,0.5937620401382446,-6.955155849456787,-11.635820388793945
1776037950803279400,-1522123.0227207032,0.5602431893348694,-6.588842868804932,-11.63103199005127
1776037950833400000,-1522122.9925998535,0.2777273952960968,-5.006275653839111,-10.915165901184082
1776037950853450200,-1522122.9725498047,0.2537853717803955,-4.537012100219727,-10.376470565795898
1776037950863521000,-1522122.962479004,0.33758243918418884,-4.570530891418457,-10.02691650390625
1776037950873530600,-1522122.9524694823,0.2968810200691223,-4.3406877517700195,-9.770736694335938
1776037950883632000,-1522122.94236792,0.2059013396501541,-4.194641590118408,-9.442731857299805
1776037950893703000,-1522122.9322971192,0.0933738648891449,-3.9456443786621094,-9.117119789123535
1776037950903773700,-1522122.9222263184,0.014365210197865963,-3.758896589279175,-8.801085472106934
1776037950913814000,-1522122.9121860352,0.019153613597154617,-3.758896589279175,-8.530540466308594
1776037950933955600,-1522122.8920444336,0.05985504388809204,-3.8714241981506348,-8.154650688171387
1776037950944056800,-1522122.8819431153,-0.016759412363171577,-3.7181951999664307,-7.903259754180908
1776037950954127600,-1522122.8718723145,-0.2322375625371933,-3.488351821899414,-7.73087739944458
1776037950964198400,-1522122.8618015137,-0.40701428055763245,-3.2992098331451416,-7.486668586730957
1776037950974269200,-1522122.851730713,-0.6943184733390808,-3.1196448802948,-7.354987621307373
1776037950984309500,-1522122.8416904297,-0.768538773059845,-3.112462282180786,-7.117961883544922
1776037950994349800,-1522122.8316501465,-0.9911994934082031,-3.1459810733795166,-6.833051681518555
1776037951004420600,-1522122.8215793457,-1.1875240802764893,-3.1866824626922607,-6.531382083892822
1776037951014491400,-1522122.811508545,-1.434126853942871,-3.2537200450897217,-6.270414352416992
1776037951044673300,-1522122.7813266602,-1.1971008777618408,-3.2585084438323975,-6.011840343475342
1776037951054744000,-1522122.7712558594,-1.115697979927063,-3.2082302570343018,-5.906495571136475
1776037951064784400,-1522122.7612155762,-0.9026140570640564,-3.203441858291626,-5.880159378051758
1776037951074794200,-1522122.7512058106,-0.6799532771110535,-3.19865345954895,-5.7125654220581055
1776037951084865000,-1522122.7411350098,-0.49559974670410156,-3.069366693496704,-5.590460777282715
1776037951094874600,-1522122.7311254882,-0.36152446269989014,-3.090914487838745,-5.542576789855957
1776037951104976100,-1522122.7210239258,-0.2106897532939911,-3.1052796840667725,-5.580883979797363
1776037951115016200,-1522122.7109838866,-0.16759411990642548,-3.0166940689086914,-5.738901615142822
1776037951145228800,-1522122.6807712403,0.3232172429561615,-3.0885202884674072,-6.588842868804932
1776037951165340000,-1522122.6606601563,0.6057330369949341,-3.2321722507476807,-7.218518257141113
1776037951175349500,-1522122.6506503907,0.768538773059845,-3.308786630630493,-7.42681360244751
1776037951185420300,-1522122.6405798339,0.8619126081466675,-3.627215623855591,-7.702147006988525
1776037951195430100,-1522122.6305698243,1.0414776802062988,-3.8355112075805664,-7.955932140350342
1776037951205531400,-1522122.620468506,1.1994950771331787,-4.041412353515625,-8.317456245422363
1776037951215602200,-1522122.610397705,1.37906014919281,-4.194641590118408,-8.49941635131836
1776037951225703700,-1522122.6002963868,1.678335428237915,-4.707000732421875,-8.863334655761719
1776037951255885600,-1522122.570114502,1.6543933153152466,-5.169081687927246,-10.584765434265137
1776037951265986800,-1522122.5600131836,1.3503297567367554,-5.243301868438721,-11.037269592285156
1776037951276027100,-1522122.5499729004,0.933738648891449,-5.037400245666504,-11.08754825592041
1776037951286128400,-1522122.539871582,0.7374141216278076,-5.114014625549316,-10.893617630004883
1776037951296199200,-1522122.5298007813,0.40701428055763245,-6.090848922729492,-10.81460952758789
1776037951306300400,-1522122.519699463,0.023942016065120697,-7.726089000701904,-10.96544361114502
1776037951316340700,-1522122.5096591797,-0.22026655077934265,-9.524134635925293,-11.173739433288574
1776037951326442000,-1522122.4995581054,-0.507570743560791,-11.034875869750977,-11.245565414428711
1776037951336482300,-1522122.4895175782,-0.9864110946655273,-11.48259162902832,-10.979808807373047
1776037951346583800,-1522122.4794162598,-1.256955862045288,-11.281478881835938,-10.742782592773438
1776037951356563000,-1522122.4694370118,-1.2856862545013428,-10.47702693939209,-10.716446876525879
1776037951366664200,-1522122.4593356934,-1.1851298809051514,-9.47146224975586,-10.66137981414795
1776037951376735000,-1522122.4492651366,-0.8786720037460327,-8.633491516113281,-10.663774490356445
1776037951386805800,-1522122.4391943358,-0.47884035110473633,-8.17380428314209,-10.445901870727539
1776037951396846000,-1522122.4291538086,0.019153613597154617,-7.726089000701904,-10.290278434753418
1776037951406916900,-1522122.4190832519,0.5363011956214905,-7.287950038909912,-10.165780067443848
1776037951416987600,-1522122.409012451,0.9193734526634216,-6.876147270202637,-9.852140426635742
1776037951427058400,-1522122.3989416503,1.0821791887283325,-6.560112476348877,-9.528923034667969
1776037951437129500,-1522122.3888706055,0.9816226959228516,-6.3733649253845215,-9.131484985351562
1776037951457271000,-1522122.368729004,0.10773907601833344,-5.932831764221191,-8.212111473083496
1776037951477412600,-1522122.3485874024,-0.5482721924781799,-5.506663799285889,-7.376535415649414
1776037951487483400,-1522122.3385166016,-0.8595184087753296,-5.621585369110107,-6.88332986831665
1776037951497554200,-1522122.3284458008,-1.2832920551300049,-5.655104637145996,-6.421248912811279
1776037951507625000,-1522122.318375,-1.6759412288665771,-5.638344764709473,-6.155492782592773
1776037951517665300,-1522122.3083347168,-1.7597382068634033,-5.497087001800537,-5.971138954162598
1776037951527766500,-1522122.2982333985,-1.7094600200653076,-5.109226226806641,-5.808333396911621
1776037951537837300,-1522122.2881625977,-1.5155296325683594,-4.8937482833862305,-5.829881191253662
1776037951568049700,-1522122.2579504394,-0.9169792532920837,-4.865017890930176,-5.770026206970215
1776037951578120400,-1522122.2478796386,-0.5961562395095825,-3.8738183975219727,-5.540182590484619
1776037951588160800,-1522122.2378391114,-0.40701428055763245,-3.8738183975219727,-5.525817394256592
1776037951598231600,-1522122.2277685546,-0.26815059781074524,-4.0078935623168945,-5.698200225830078
1776037951608302300,-1522122.2176977538,0.011971008032560349,-4.390965938568115,-6.076483726501465
1776037951618312200,-1522122.2076877442,0.35673606395721436,-5.085284233093262,-6.426037311553955
1776037951628413400,-1522122.1975866698,0.5650315880775452,-5.451597213745117,-6.6630635261535645
1776037951638453800,-1522122.1875461426,0.7876923680305481,-5.578489780426025,-6.825869083404541
1776037951648555000,-1522122.1774450683,0.9241618514060974,-5.580883979797363,-6.9695210456848145
1776037951668696800,-1522122.1573032227,1.3623007535934448,-5.327098846435547,-7.548917770385742
1776037951678767600,-1522122.147232422,1.5394717454910278,-5.396530628204346,-7.838616371154785
1776037951688838400,-1522122.1371616211,2.011129379272461,-5.408501625061035,-8.250418663024902
1776037951698909200,-1522122.1270908203,2.4851813316345215,-5.236119270324707,-8.712499618530273
1776037951709010400,-1522122.116989502,2.801215887069702,-5.157110691070557,-9.095572471618652
1776037951719081200,-1522122.1069187012,2.849100112915039,-5.16429328918457,-9.41400146484375
1776037951729152000,-1522122.0968479004,2.8179752826690674,-5.154716491699219,-9.732429504394531
1776037951739222800,-1522122.0867770996,2.674323320388794,-5.394136428833008,-9.847352027893066
1776037951749293600,-1522122.0767065429,3.1052796840667725,-5.30076265335083,-10.268731117248535
1776037951759334000,-1522122.0666660157,3.045424461364746,-5.130774021148682,-10.536881446838379
1776037951769404700,-1522122.0565952149,3.1459810733795166,-5.070919036865234,-10.702081680297852
1776037951779475500,-1522122.046524658,3.2992098331451416,-5.250484466552734,-11.037269592285156
1776037951789577000,-1522122.0364230957,3.485957622528076,-5.305551052093506,-11.30063247680664
1776037951799617000,-1522122.0263830565,3.4380736351013184,-5.5114521980285645,-11.456254959106445
1776037951809688000,-1522122.0163120118,3.531447410583496,-6.076483726501465,-11.760318756103516
1776037951819758800,-1522122.006241211,3.624821424484253,-6.342240333557129,-11.863269805908203
1776037951829829600,-1522121.9961704102,3.7253777980804443,-6.445190906524658,-11.956643104553223
1776037951839870000,-1522121.986130127,3.7828385829925537,-6.4834980964660645,-11.748347282409668
1776037951849971200,-1522121.9760288086,3.7852327823638916,-6.524199485778809,-11.384428977966309
1776037951870112800,-1522121.955887207,3.9887399673461914,-6.890512466430664,-11.15697956085205
1776037951880153000,-1522121.9458469239,3.9815573692321777,-7.266402244567871,-11.396400451660156
1776037951890223900,-1522121.935776123,4.132391929626465,-7.462726593017578,-11.422736167907715
1776037951900294700,-1522121.9257053223,4.299986362457275,-7.615955829620361,-11.341333389282227
1776037951910365400,-1522121.9156345215,4.299986362457275,-7.838616371154785,-11.034875869750977
1776037951920436200,-1522121.9055637207,4.501099109649658,-7.666234016418457,-10.63504409790039
1776037951930507000,-1522121.89549292,4.017470359802246,-7.1921820640563965,-10.309432983398438
1776037951940577800,-1522121.8854221192,3.4189200401306152,-6.715735912322998,-10.055646896362305
1776037951950648600,-1522121.8753513184,2.9065608978271484,-6.426037311553955,-10.012551307678223
1776037951960719400,-1522121.8652807616,2.537853717803955,-6.347028732299805,-10.134655952453613
1776037951990901200,-1522121.8350986328,2.6862943172454834,-6.873753070831299,-10.623072624206543
1776037952000941600,-1522121.8250583496,2.8155810832977295,-6.873753070831299,-10.663774490356445
1776037952011012400,-1522121.8149875489,2.7293899059295654,-6.7708024978637695,-10.752359390258789
1776037952021083100,-1522121.804916748,2.499546527862549,-6.521805286407471,-10.6709566116333
1776037952031154000,-1522121.7948461913,2.341529369354248,-6.289567947387695,-10.831368446350098
1776037952041194200,-1522121.784805664,2.0183119773864746,-6.052541732788086,-10.788272857666016
1776037952051234600,-1522121.774765381,1.6519991159439087,-5.772420406341553,-10.690110206604004
1776037952061305300,-1522121.76469458,1.4317326545715332,-5.5114521980285645,-10.608707427978516
1776037952081447000,-1522121.7445529785,0.8643068075180054,-5.17626428604126,-10.38844108581543
1776037952091517700,-1522121.7344824218,0.7086837291717529,-4.896142482757568,-10.187328338623047
1776037952101588500,-1522121.724411621,0.5746083855628967,-4.76924991607666,-9.988609313964844
1776037952121699600,-1522121.704300537,0.45010992884635925,-4.410119533538818,-9.299078941345215
1776037952131801000,-1522121.6941989746,0.3519476354122162,-4.321534156799316,-8.939949035644531
1776037952141871900,-1522121.6841281739,0.38307225704193115,-4.3191399574279785,-8.832210540771484
1776037952151912200,-1522121.6740878907,0.35673606395721436,-4.388571739196777,-8.80587387084961
1776037952161983000,-1522121.6640170899,0.5626373887062073,-4.46518611907959,-8.621520042419434
1776037952182155000,-1522121.6438449707,0.5219359993934631,-3.9815573692321777,-8.389283180236816
1776037952212397800,-1522121.6136022948,-0.5123591423034668,-2.82515811920166,-8.008605003356934
1776037952222468600,-1522121.603531494,-0.8331822156906128,-2.715024709701538,-7.869740962982178
1776037952232570000,-1522121.5934299317,-1.0821791887283325,-2.7533318996429443,-7.687781810760498
1776037952242641000,-1522121.583359131,-1.3024457693099976,-2.9759926795959473,-7.601590633392334
1776037952252711700,-1522121.57328833,-0.8379706144332886,-3.2752678394317627,-7.362170219421387
1776037952262752000,-1522121.563248047,-0.7254431247711182,-3.4332852363586426,-7.2113356590271
1776037952272822800,-1522121.5531772461,-0.5985504388809204,-3.1292216777801514,-6.979097843170166
1776037952282863000,-1522121.543136963,-0.42856210470199585,-2.7269957065582275,-6.789956092834473
1776037952292934000,-1522121.5330661621,-0.4668693244457245,-2.609679937362671,-6.682217121124268
1776037952313075500,-1522121.5129245606,-0.7661445140838623,-3.002328872680664,-6.356605529785156
1776037952323115800,-1522121.5028842774,-0.7948749661445618,-3.023876667022705,-6.287173748016357
1776037952333186600,-1522121.4928134766,-0.7733271718025208,-3.0095114707946777,-6.378153324127197
1776037952343196200,-1522121.482803955,-0.706289529800415,-2.920926094055176,-6.4595561027526855
1776037952353267000,-1522121.4727331542,-0.5817909836769104,-3.1220390796661377,-6.691793918609619
1776037952363307300,-1522121.462692627,-0.4165911078453064,-3.2297780513763428,-6.861782073974609
1776037952373408800,-1522121.4525913086,-0.2753331959247589,-3.093308687210083,-7.072471618652344
1776037952383479600,-1522121.4425205078,-0.17477671802043915,-2.9951462745666504,-7.422025203704834
1776037952393550300,-1522121.432449707,0.043095629662275314,-2.9161376953125,-7.728483200073242
1776037952413722400,-1522121.412277588,0.3663128614425659,-3.093308687210083,-8.109161376953125
1776037952423793200,-1522121.4022067871,0.40462008118629456,-3.1196448802948,-8.197746276855469
1776037952433894400,-1522121.3921057128,0.6919242739677429,-3.1699230670928955,-8.33182144165039
1776037952443965200,-1522121.382034912,1.237802267074585,-3.3710360527038574,-8.573636054992676
1776037952454036000,-1522121.3719641112,1.6089035272598267,-3.9001545906066895,-8.83699893951416
1776037952464107000,-1522121.3618930664,1.7118542194366455,-4.213795185089111,-9.354146003723145
1776037952474147000,-1522121.3518530272,1.5610195398330688,-4.331110954284668,-9.828198432922363
1776037952484217900,-1522121.3417822265,1.3551181554794312,-4.383783340454102,-10.342951774597168
1776037952494289000,-1522121.3317111817,1.3982137441635132,-4.795586109161377,-10.66137981414795
1776037952514461000,-1522121.3115390625,1.7980455160140991,-5.5760955810546875,-10.893617630004883
1776037952524531700,-1522121.3014682618,1.941697597503662,-6.14831018447876,-10.958261489868164
1776037952534602500,-1522121.291397461,2.056619167327881,-6.89530086517334,-10.747570991516113
1776037952544673300,-1522121.2813266602,2.2194249629974365,-7.572859764099121,-10.431536674499512
1776037952554713600,-1522121.271286377,2.518700122833252,-7.99184513092041,-10.196905136108398
1776037952564814800,-1522121.2611850586,2.695871114730835,-8.252813339233398,-10.125079154968262
1776037952574885600,-1522121.2511142578,2.8562827110290527,-8.446743965148926,-10.398017883300781
1776037952584956400,-1522121.241043701,2.9161376953125,-8.451532363891602,-10.733205795288086
1776037952595027200,-1522121.2309729003,2.786850690841675,-8.192957878112793,-11.085153579711914
1776037952615169000,-1522121.2108310547,2.31758713722229,-6.8043212890625,-11.346121788024902
1776037952635249400,-1522121.1907504883,1.8962076902389526,-5.384559631347656,-11.077971458435059
1776037952645320200,-1522121.1806796875,1.8195933103561401,-4.73573112487793,-10.704475402832031
1776037952655421700,-1522121.1705783692,1.8842366933822632,-3.883395195007324,-10.311826705932617
1776037952665492500,-1522121.1605075684,1.8962076902389526,-3.332728862762451,-10.002974510192871
1776037952675502000,-1522121.1504978028,1.941697597503662,-3.1220390796661377,-9.653421401977539
1776037952685603600,-1522121.1403964844,2.0183119773864746,-3.002328872680664,-9.308655738830566
1776037952695674400,-1522121.1303256836,2.0925323963165283,-3.1052796840667725,-8.949525833129883
1776037952705714400,-1522121.1202856444,2.0685901641845703,-3.2776620388031006,-8.597578048706055
1776037952715754800,-1522121.1102453612,1.9991583824157715,-3.6128504276275635,-8.236053466796875
1776037952746028300,-1522121.0799716797,1.7190368175506592,-4.55616569519043,-7.42681360244751
1776037952756068600,-1522121.0699313965,1.6089035272598267,-4.733336925506592,-7.082048416137695
1776037952766169900,-1522121.0598300782,1.4269442558288574,-4.800374507904053,-6.811503887176514
1776037952776210200,-1522121.049789795,1.357512354850769,-4.99669885635376,-6.715735912322998
1776037952786220000,-1522121.0397800293,1.3623007535934448,-5.145139217376709,-6.574477672576904
1776037952796229600,-1522121.0297702637,1.4844050407409668,-5.195417881011963,-6.495469093322754
1776037952806270000,-1522121.0197299805,1.5658079385757446,-5.310339450836182,-6.31829833984375
1776037952816340700,-1522121.0096591797,1.558625340461731,-5.243301868438721,-6.258443355560303
1776037952836482300,-1522120.9895175782,1.8076223134994507,-5.193023681640625,-6.1770405769348145
1776037952846583800,-1522120.9794162598,1.9967641830444336,-5.2049946784973145,-6.244078159332275
1776037952856685000,-1522120.9693149414,2.0398597717285156,-5.092466831207275,-6.469132900238037
1776037952866755800,-1522120.9592441407,2.477998733520508,-5.066130638122559,-6.689399719238281
1776037952876796200,-1522120.9492038575,2.7222073078155518,-4.99669885635376,-6.900089263916016
1776037952886836500,-1522120.9391635743,2.985569477081299,-4.8051629066467285,-6.967126846313477
1776037952896937700,-1522120.929062256,3.004723072052002,-4.491522312164307,-7.041347026824951
1776037952907008500,-1522120.918991455,2.8826189041137695,-4.32871675491333,-7.24485445022583
1776037952917079300,-1522120.9089206543,2.7940332889556885,-4.395754337310791,-7.386112213134766
1776037952957301500,-1522120.8686984864,3.8810009956359863,-5.822698593139648,-8.875306129455566
1776037952967372300,-1522120.8586276856,4.388571739196777,-6.205770969390869,-9.081207275390625
1776037952977473500,-1522120.8485263672,4.747702121734619,-6.538564682006836,-9.57441234588623
1776037952987513900,-1522120.838486084,5.288791656494141,-6.988674640655518,-10.168174743652344
1776037952997584600,-1522120.8284152832,5.604825973510742,-7.139509677886963,-10.94150161743164
1776037953007655400,-1522120.8183444825,5.899312973022461,-7.271190643310547,-11.343728065490723
1776037953017756700,-1522120.808243408,6.071695327758789,-7.0557122230529785,-11.70046329498291
1776037953027827700,-1522120.7981723633,6.095637321472168,-7.010222434997559,-11.889605522155762
1776037953047999700,-1522120.7780002442,5.971138954162598,-6.584054470062256,-11.918335914611816
1776037953058070500,-1522120.7679294434,5.698200225830078,-6.315904140472412,-11.72201156616211
1776037953068110800,-1522120.7578891602,5.6670756340026855,-6.102819919586182,-11.513715744018555
1776037953078151200,-1522120.747848877,5.65031623840332,-6.074089527130127,-11.51850414276123
1776037953088191500,-1522120.7378085938,5.65031623840332,-6.074089527130127,-11.51850414276123
1776037953098231600,-1522120.7277685546,5.626373767852783,-6.026205539703369,-11.858481407165527
1776037953108271900,-1522120.7177280274,5.612008571624756,-6.026205539703369,-12.191274642944336
1776037953118373000,-1522120.707626953,5.331887245178223,-5.916072368621826,-12.449849128723145
1776037953128444200,-1522120.6975559082,5.190629482269287,-5.971138954162598,-12.267889976501465
1776037953138515000,-1522120.6874851075,4.469974517822266,-5.928043365478516,-11.765107154846191
1776037953148585700,-1522120.6774143067,3.847482204437256,-6.098031520843506,-11.286267280578613
1776037953168727300,-1522120.657272705,2.801215887069702,-6.246472358703613,-10.32858657836914
1776037953178767600,-1522120.647232422,2.609679937362671,-6.112396717071533,-10.165780067443848
1776037953188808000,-1522120.6371921387,2.612074136734009,-5.822698593139648,-10.232817649841309
1776037953198878700,-1522120.627121338,2.7892448902130127,-5.60722017288208,-10.469843864440918
1776037953208949500,-1522120.6170505371,3.179499864578247,-5.578489780426025,-10.781089782714844
1776037953219050800,-1522120.6069492188,3.512293815612793,-5.722142219543457,-11.17852783203125
1776037953229060600,-1522120.5969394532,3.7038300037384033,-5.889736175537109,-11.367670059204102
1776037953239131400,-1522120.5868686524,3.7277719974517822,-5.8657941818237305,-11.635820388793945
1776037953259242500,-1522120.5667575684,3.181894063949585,-5.39174222946167,-12.176909446716309
1776037953269313300,-1522120.5566867676,2.829946517944336,-5.231330871582031,-12.303802490234375
1776037953279384000,-1522120.5466159668,2.4684219360351562,-4.989516258239746,-12.231976509094238
1776037953289454800,-1522120.536545166,2.1811177730560303,-4.776432514190674,-12.035652160644531
1776037953299556000,-1522120.5264438477,1.920149803161621,-4.63517427444458,-11.741165161132812
1776037953309566000,-1522120.516434082,1.680729627609253,-4.3406877517700195,-11.219228744506836
1776037953319636700,-1522120.5063632813,1.5203180313110352,-4.14915132522583,-10.862493515014648
1776037953329707500,-1522120.4962924805,1.2449848651885986,-3.9839515686035156,-10.453084945678711
1776037953339778300,-1522120.4862216797,0.9816226959228516,-3.737348794937134,-9.988609313964844
1776037953379939300,-1522120.446060791,0.16519992053508759,-3.5434184074401855,-8.609549522399902
1776037953400050400,-1522120.425949463,-0.07182604819536209,-3.3686418533325195,-8.394071578979492
1776037953410121200,-1522120.4158786621,-0.17956513166427612,-3.359065055847168,-8.303091049194336
1776037953420192000,-1522120.4058081054,-0.2059013396501541,-3.2106244564056396,-7.987056732177734
1776037953430232300,-1522120.3957675782,-0.4357447028160095,-3.1531636714935303,-7.702147006988525
1776037953440303000,-1522120.3856967774,-0.5171475410461426,-3.3231520652770996,-7.603984832763672
1776037953450374000,-1522120.3756262206,-0.5770025849342346,-3.40216064453125,-7.4100542068481445
1776037953470424000,-1522120.3555759278,-0.5195417404174805,-3.3423056602478027,-7.338228225708008
1776037953480494800,-1522120.345505127,-0.3711012601852417,-3.359065055847168,-7.273584842681885
1776037953490565600,-1522120.3354343262,-0.24660277366638184,-3.2561142444610596,-7.0988078117370605
1776037953500636400,-1522120.3253635254,-0.2537853717803955,-3.0765492916107178,-6.861782073974609
1776037953510707200,-1522120.3152927246,-0.26815059781074524,-2.999934673309326,-6.665457725524902
1776037953520808400,-1522120.3051916503,-0.22505496442317963,-2.9233202934265137,-6.402095317840576
1776037953530879200,-1522120.2951208495,-0.2346317619085312,-2.604891538619995,-6.212953567504883
1776037953540950300,-1522120.2850498047,0.028730420395731926,-2.2888567447662354,-6.00226354598999
1776037953571101400,-1522120.2548986815,0.22266076505184174,-2.1523873805999756,-5.894524574279785
1776037953591273700,-1522120.2347263184,-0.028730420395731926,-1.9512743949890137,-6.064512729644775
1776037953601344500,-1522120.2246555176,0.090979665517807,-2.0446481704711914,-6.169857978820801
1776037953611415300,-1522120.2145847168,0.13407529890537262,-2.030282974243164,-6.344634532928467
1776037953621486000,-1522120.204513916,-0.0071826050989329815,-2.185906171798706,-6.682217121124268
1776037953631556900,-1522120.1944431153,0.28730419278144836,-2.3032219409942627,-6.962338447570801
1776037953641627600,-1522120.1843723145,0.5291185975074768,-2.626439332962036,-7.173028469085693
1776037953651698400,-1522120.1743015137,0.7134721279144287,-2.873042106628418,-7.422025203704834
1776037953681880300,-1522120.144119629,1.45806884765625,-3.600879430770874,-8.544905662536621
1776037953691951000,-1522120.1340488282,2.0638017654418945,-4.082113742828369,-9.14585018157959
1776037953702022000,-1522120.1239780274,2.4899697303771973,-4.4292731285095215,-9.701305389404297
1776037953712092700,-1522120.1139072266,2.7772738933563232,-4.683058738708496,-10.132261276245117
1776037953722163500,-1522120.1038364258,2.7964274883270264,-4.819528102874756,-10.776301383972168
1776037953732234200,-1522120.093765869,2.808398485183716,-4.977545261383057,-11.231200218200684
1776037953742305000,-1522120.0836950683,2.8131868839263916,-5.125985622406006,-11.614272117614746
1776037953752345300,-1522120.073654541,2.9903578758239746,-5.319916248321533,-11.824962615966797
1776037953762416000,-1522120.0635839843,3.203441858291626,-6.01423454284668,-11.978191375732422
1776037953802730000,-1522120.0232700196,4.709394931793213,-7.393294811248779,-11.60948371887207
1776037953812770300,-1522120.0132297364,4.558559894561768,-6.627150535583496,-11.767500877380371
1776037953822841000,-1522120.0031589356,4.242525577545166,-5.892130374908447,-12.009315490722656
1776037953832942300,-1522119.9930576172,3.6966474056243896,-5.193023681640625,-12.169727325439453
1776037953843013000,-1522119.9829868164,3.0526070594787598,-4.666299343109131,-12.24155330657959
1776037953853084000,-1522119.9729160157,2.4875755310058594,-4.343081951141357,-12.169727325439453
1776037953863185200,-1522119.9628149413,2.0470423698425293,-4.003105163574219,-11.90157699584961
1776037953893397800,-1522119.932602295,1.6208745241165161,-3.1938650608062744,-11.587936401367188
